"consent","trial_type","trial_index","time_elapsed","internal_node_id","subjID","study","MID","cond","drift","rt","responses","button_pressed","key_press","like","value","connected","gems","bombs","no_reward","GemPrChosen","BombPrChosen","GainOverPainPr_0","GainOverPainPr_1","GainOverPainPr_2","GainOverPainPr_3","LosePr_0","LosePr_1","LosePr_2","LosePr_3","WinPr_0","WinPr_1","WinPr_2","WinPr_3","Q0","Q1","Q2","gender","age","ethnicity","label","expt_phase","target","respCharCode","respKey","respChoiceNum","respChoice","practice","trial_counter","trial_label","Q0_index"
"GDM/GDM_behavioral_consent_30min_online.html","consent","0","18547","0.0-0.0","72755849","wem/bandit_party_2","A26ERTJPV1A1IM","either","3","","","","","","","","","","","","","","","","","","","","","","","","","","","","","","","","","","","","","","","","",""
"","survey-text","1","23804","0.0-1.0","72755849","wem/bandit_party_2","A26ERTJPV1A1IM","either","3","4228","{""Q0"":""A26ERTJPV1A1IM""}","","","","","","","","","","","","","","","","","","","","","","","","","","","","","","","","","","","","","","",""
"","button-response","2","26989","0.0-2.0","72755849","wem/bandit_party_2","A26ERTJPV1A1IM","either","3","2168","","1","","","","","","","","","","","","","","","","","","","","","","","","","","","","","","","","","","","","","",""
"","text-replacement","3","44070","0.0-3.0","72755849","wem/bandit_party_2","A26ERTJPV1A1IM","either","3","16068","","","32","","","","","","","","","","","","","","","","","","","","","","","","","","","","","","","","","","","","",""
"","text-replacement","4","75476","0.0-4.0","72755849","wem/bandit_party_2","A26ERTJPV1A1IM","either","3","31400","","","32","","","","","","","","","","","","","","","","","","","","","","","","","","","","","","","","","","","","",""
"","identification","5","84727","0.0-6.0-0.0","72755849","wem/bandit_party_2","A26ERTJPV1A1IM","either","3","9209","","","","0","1","0","","","","","","","","","","","","","","","","","","","","","","","","pre","identification_pre","the Republican Party","","","","","","","",""
"","identification","6","96144","0.0-6.0-1.0","72755849","wem/bandit_party_2","A26ERTJPV1A1IM","either","3","10375","","","","4","4","4","","","","","","","","","","","","","","","","","","","","","","","","pre","identification_pre","the Democratic Party","","","","","","","",""
"","text-replacement","7","102468","0.0-7.0","72755849","wem/bandit_party_2","A26ERTJPV1A1IM","either","3","5318","","","32","","","","","","","","","","","","","","","","","","","","","","","","","","","","","","","","","","","","",""
"","text-replacement","8","112398","0.0-8.0","72755849","wem/bandit_party_2","A26ERTJPV1A1IM","either","3","9923","","","32","","","","","","","","","","","","","","","","","","","","","","","","","","","","","","","","","","","","",""
"","text-replacement","9","124908","0.0-9.0","72755849","wem/bandit_party_2","A26ERTJPV1A1IM","either","3","12497","","","32","","","","","","","","","","","","","","","","","","","","","","","","","","","","","","","","","","","","",""
"","text-replacement","10","129018","0.0-10.0","72755849","wem/bandit_party_2","A26ERTJPV1A1IM","either","3","4094","","","32","","","","","","","","","","","","","","","","","","","","","","","","","","","","","","","","","","","","",""
"","text-replacement","11","134214","0.0-11.0","72755849","wem/bandit_party_2","A26ERTJPV1A1IM","either","3","5191","","","32","","","","","","","","","","","","","","","","","","","","","","","","","","","","","","","","","","","","",""
"","bandit","12","138703","0.0-12.0-0.0","72755849","wem/bandit_party_2","A26ERTJPV1A1IM","either","3","2966","","","","","","","0","0","1","0","0","","","","","0","","","","0","","","","","","","","","","","","","74","J","0","img/none_selected_demo.jpg","true","0","",""
"","bandit","13","141041","0.0-13.0-0.0","72755849","wem/bandit_party_2","A26ERTJPV1A1IM","either","3","811","","","","","","","0","0","1","0","0","","","","","0","","","","0","","","","","","","","","","","","","75","K","0","img/none_selected_demo.jpg","true","0","",""
"","text-replacement","14","149522","0.0-14.0","72755849","wem/bandit_party_2","A26ERTJPV1A1IM","either","3","8474","","","32","","","","","","","","","","","","","","","","","","","","","","","","","","","","","","","","","","","","",""
"","text-replacement","15","158240","0.0-15.0","72755849","wem/bandit_party_2","A26ERTJPV1A1IM","either","3","8712","","","32","","","","","","","","","","","","","","","","","","","","","","","","","","","","","","","","","","","","",""
"","text-replacement","16","165928","0.0-16.0","72755849","wem/bandit_party_2","A26ERTJPV1A1IM","either","3","7681","","","32","","","","","","","","","","","","","","","","","","","","","","","","","","","","","","","","","","","","",""
"","text-replacement","17","170214","0.0-17.0","72755849","wem/bandit_party_2","A26ERTJPV1A1IM","either","3","4282","","","32","","","","","","","","","","","","","","","","","","","","","","","","","","","","","","","","","","","","",""
"","bandit","18","172774","0.0-18.0-0.0","72755849","wem/bandit_party_2","A26ERTJPV1A1IM","either","3","1047","","","","","","","1","0","0","0.8","","0.5","0.5","","","","","","","0.8","0.2","","","","","","","","","","","","74","J","0","img/none_selected_demo.jpg","true","0","80_20_practice",""
"","bandit","19","174734","0.0-18.0-1.0","72755849","wem/bandit_party_2","A26ERTJPV1A1IM","either","3","444","","","","","","","0","1","0","","0.8","0.5","0.5","","","0.8","0.2","","","","","","","","","","","","","","","","74","J","0","img/none_selected_demo.jpg","true","0","80_20_practice",""
"","bandit","20","177040","0.0-18.0-2.0","72755849","wem/bandit_party_2","A26ERTJPV1A1IM","either","3","786","","","","","","","0","0","1","0.8","","0.5","0.5","","","","","","","0.8","0.2","","","","","","","","","","","","74","J","0","img/none_selected_demo.jpg","true","0","80_20_practice",""
"","bandit","21","179088","0.0-18.0-3.0","72755849","wem/bandit_party_2","A26ERTJPV1A1IM","either","3","527","","","","","","","1","0","0","0.2","","0.5","0.5","","","","","","","0.8","0.2","","","","","","","","","","","","75","K","1","","true","0","80_20_practice",""
"","bandit","22","180970","0.0-18.0-4.0","72755849","wem/bandit_party_2","A26ERTJPV1A1IM","either","3","364","","","","","","","0","0","1","","0.2","0.5","0.5","","","0.8","0.2","","","","","","","","","","","","","","","","75","K","1","","true","0","80_20_practice",""
"","bandit","23","182955","0.0-18.0-5.0","72755849","wem/bandit_party_2","A26ERTJPV1A1IM","either","3","460","","","","","","","0","0","1","0.2","","0.5","0.5","","","","","","","0.8","0.2","","","","","","","","","","","","75","K","1","","true","0","80_20_practice",""
"","bandit","24","184927","0.0-18.0-6.0","72755849","wem/bandit_party_2","A26ERTJPV1A1IM","either","3","449","","","","","","","0","0","1","","0.2","0.5","0.5","","","0.8","0.2","","","","","","","","","","","","","","","","75","K","1","","true","0","80_20_practice",""
"","bandit","25","186835","0.0-18.0-7.0","72755849","wem/bandit_party_2","A26ERTJPV1A1IM","either","3","393","","","","","","","1","0","0","0.8","","0.5","0.5","","","","","","","0.8","0.2","","","","","","","","","","","","74","J","0","img/none_selected_demo.jpg","true","0","80_20_practice",""
"","bandit","26","189700","0.0-18.0-8.0","72755849","wem/bandit_party_2","A26ERTJPV1A1IM","either","3","1347","","","","","","","0","0","1","0.8","","0.5","0.5","","","","","","","0.8","0.2","","","","","","","","","","","","74","J","0","img/none_selected_demo.jpg","true","0","80_20_practice",""
"","bandit","27","191558","0.0-18.0-9.0","72755849","wem/bandit_party_2","A26ERTJPV1A1IM","either","3","341","","","","","","","1","0","0","0.8","","0.5","0.5","","","","","","","0.8","0.2","","","","","","","","","","","","74","J","0","img/none_selected_demo.jpg","true","0","80_20_practice",""
"","bandit","28","193476","0.0-18.0-10.0","72755849","wem/bandit_party_2","A26ERTJPV1A1IM","either","3","401","","","","","","","0","1","0","","0.8","0.5","0.5","","","0.8","0.2","","","","","","","","","","","","","","","","74","J","0","img/none_selected_demo.jpg","true","0","80_20_practice",""
"","bandit","29","195358","0.0-18.0-11.0","72755849","wem/bandit_party_2","A26ERTJPV1A1IM","either","3","364","","","","","","","0","1","0","","0.8","0.5","0.5","","","0.8","0.2","","","","","","","","","","","","","","","","74","J","0","img/none_selected_demo.jpg","true","0","80_20_practice",""
"","bandit","30","197257","0.0-18.0-12.0","72755849","wem/bandit_party_2","A26ERTJPV1A1IM","either","3","385","","","","","","","0","0","1","0.8","","0.5","0.5","","","","","","","0.8","0.2","","","","","","","","","","","","74","J","0","img/none_selected_demo.jpg","true","0","80_20_practice",""
"","bandit","31","199053","0.0-18.0-13.0","72755849","wem/bandit_party_2","A26ERTJPV1A1IM","either","3","281","","","","","","","0","1","0","","0.8","0.5","0.5","","","0.8","0.2","","","","","","","","","","","","","","","","74","J","0","img/none_selected_demo.jpg","true","0","80_20_practice",""
"","bandit","32","200951","0.0-18.0-14.0","72755849","wem/bandit_party_2","A26ERTJPV1A1IM","either","3","383","","","","","","","0","0","1","","0.8","0.5","0.5","","","0.8","0.2","","","","","","","","","","","","","","","","74","J","0","img/none_selected_demo.jpg","true","0","80_20_practice",""
"","bandit","33","202851","0.0-18.0-15.0","72755849","wem/bandit_party_2","A26ERTJPV1A1IM","either","3","386","","","","","","","0","1","0","","0.8","0.5","0.5","","","0.8","0.2","","","","","","","","","","","","","","","","74","J","0","img/none_selected_demo.jpg","true","0","80_20_practice",""
"","bandit","34","204812","0.0-18.0-16.0","72755849","wem/bandit_party_2","A26ERTJPV1A1IM","either","3","446","","","","","","","0","0","1","","0.2","0.5","0.5","","","0.8","0.2","","","","","","","","","","","","","","","","75","K","1","","true","0","80_20_practice",""
"","bandit","35","206506","0.0-18.0-17.0","72755849","wem/bandit_party_2","A26ERTJPV1A1IM","either","3","177","","","","","","","0","1","0","","0.8","0.5","0.5","","","0.8","0.2","","","","","","","","","","","","","","","","74","J","0","img/none_selected_demo.jpg","true","0","80_20_practice",""
"","bandit","36","210416","0.0-18.0-18.0","72755849","wem/bandit_party_2","A26ERTJPV1A1IM","either","3","2392","","","","","","","1","0","0","0.8","","0.5","0.5","","","","","","","0.8","0.2","","","","","","","","","","","","74","J","0","img/none_selected_demo.jpg","true","0","80_20_practice",""
"","bandit","37","212090","0.0-18.0-19.0","72755849","wem/bandit_party_2","A26ERTJPV1A1IM","either","3","157","","","","","","","0","0","1","","0.8","0.5","0.5","","","0.8","0.2","","","","","","","","","","","","","","","","74","J","0","img/none_selected_demo.jpg","true","0","80_20_practice",""
"","text-replacement","38","216742","0.0-19.0","72755849","wem/bandit_party_2","A26ERTJPV1A1IM","either","3","4645","","","32","","","","","","","","","","","","","","","","","","","","","","","","","","","","","","","","","","","","",""
"","bandit","39","219296","0.0-20.0-0.0","72755849","wem/bandit_party_2","A26ERTJPV1A1IM","either","3","1036","","","","","","","1","0","0","1","0","","","","","0","1","","","1","0","","","","","","","","","","","","74","J","0","img/none_selected_demo.jpg","true","0","",""
"","text-replacement","40","224685","0.0-21.0","72755849","wem/bandit_party_2","A26ERTJPV1A1IM","either","3","5378","","","32","","","","","","","","","","","","","","","","","","","","","","","","","","","","","","","","","","","","",""
"","text-replacement","41","227830","0.0-22.0","72755849","wem/bandit_party_2","A26ERTJPV1A1IM","either","3","3136","","","32","","","","","","","","","","","","","","","","","","","","","","","","","","","","","","","","","","","","",""
"","text-replacement","42","230146","0.0-23.0","72755849","wem/bandit_party_2","A26ERTJPV1A1IM","either","3","2306","","","32","","","","","","","","","","","","","","","","","","","","","","","","","","","","","","","","","","","","",""
"","text-replacement","43","232699","0.0-24.0","72755849","wem/bandit_party_2","A26ERTJPV1A1IM","either","3","2544","","","32","","","","","","","","","","","","","","","","","","","","","","","","","","","","","","","","","","","","",""
"","text-replacement","44","239925","0.0-25.0","72755849","wem/bandit_party_2","A26ERTJPV1A1IM","either","3","7220","","","32","","","","","","","","","","","","","","","","","","","","","","","","","","","","","","","","","","","","",""
"","text-replacement","45","242456","0.0-26.0","72755849","wem/bandit_party_2","A26ERTJPV1A1IM","either","3","2526","","","32","","","","","","","","","","","","","","","","","","","","","","","","","","","","","","","","","","","","",""
"","text-replacement","46","246755","0.0-27.0","72755849","wem/bandit_party_2","A26ERTJPV1A1IM","either","3","4292","","","32","","","","","","","","","","","","","","","","","","","","","","","","","","","","","","","","","","","","",""
"","text-replacement","47","249890","0.0-28.0","72755849","wem/bandit_party_2","A26ERTJPV1A1IM","either","3","3127","","","32","","","","","","","","","","","","","","","","","","","","","","","","","","","","","","","","","","","","",""
"","text-replacement","48","253802","0.0-29.0","72755849","wem/bandit_party_2","A26ERTJPV1A1IM","either","3","3906","","","32","","","","","","","","","","","","","","","","","","","","","","","","","","","","","","","","","","","","",""
"","text-replacement","49","255370","0.0-30.0","72755849","wem/bandit_party_2","A26ERTJPV1A1IM","either","3","1562","","","32","","","","","","","","","","","","","","","","","","","","","","","","","","","","","","","","","","","","",""
"","text-replacement","50","257192","0.0-31.0","72755849","wem/bandit_party_2","A26ERTJPV1A1IM","either","3","1816","","","32","","","","","","","","","","","","","","","","","","","","","","","","","","","","","","","","","","","","",""
"","bandit","51","260183","0.0-32.0-0.0","72755849","wem/bandit_party_2","A26ERTJPV1A1IM","either","3","1471","","","","","","","1","0","0","0.8","","0.5","0.5","0.5","0.5","","","","","0.8","0.2","0.6","0.2","","","","","","","","","","72","H","0","img/none_selected.jpg","true","0","full_practice",""
"","bandit","52","262018","0.0-32.0-1.0","72755849","wem/bandit_party_2","A26ERTJPV1A1IM","either","3","306","","","","","","","0","1","0","","0.8","0.5","0.5","0.5","0.5","0.8","0.2","0.6","0.2","","","","","","","","","","","","","","72","H","0","img/none_selected.jpg","true","0","full_practice",""
"","bandit","53","263978","0.0-32.0-2.0","72755849","wem/bandit_party_2","A26ERTJPV1A1IM","either","3","442","","","","","","","0","1","0","","0.8","0.5","0.5","0.5","0.5","0.8","0.2","0.6","0.2","","","","","","","","","","","","","","72","H","0","img/none_selected.jpg","true","0","full_practice",""
"","bandit","54","265792","0.0-32.0-3.0","72755849","wem/bandit_party_2","A26ERTJPV1A1IM","either","3","299","","","","","","","1","0","0","0.8","","0.5","0.5","0.5","0.5","","","","","0.8","0.2","0.6","0.2","","","","","","","","","","72","H","0","img/none_selected.jpg","true","0","full_practice",""
"","bandit","55","267630","0.0-32.0-4.0","72755849","wem/bandit_party_2","A26ERTJPV1A1IM","either","3","322","","","","","","","1","0","0","0.8","","0.5","0.5","0.5","0.5","","","","","0.8","0.2","0.6","0.2","","","","","","","","","","72","H","0","img/none_selected.jpg","true","0","full_practice",""
"","bandit","56","269365","0.0-32.0-5.0","72755849","wem/bandit_party_2","A26ERTJPV1A1IM","either","3","215","","","","","","","0","1","0","","0.8","0.5","0.5","0.5","0.5","0.8","0.2","0.6","0.2","","","","","","","","","","","","","","72","H","0","img/none_selected.jpg","true","0","full_practice",""
"","bandit","57","272164","0.0-32.0-6.0","72755849","wem/bandit_party_2","A26ERTJPV1A1IM","either","3","1281","","","","","","","0","1","0","","0.8","0.5","0.5","0.5","0.5","0.8","0.2","0.6","0.2","","","","","","","","","","","","","","72","H","0","img/none_selected.jpg","true","0","full_practice",""
"","bandit","58","273994","0.0-32.0-7.0","72755849","wem/bandit_party_2","A26ERTJPV1A1IM","either","3","308","","","","","","","0","0","1","0.8","","0.5","0.5","0.5","0.5","","","","","0.8","0.2","0.6","0.2","","","","","","","","","","72","H","0","img/none_selected.jpg","true","0","full_practice",""
"","bandit","59","275900","0.0-32.0-8.0","72755849","wem/bandit_party_2","A26ERTJPV1A1IM","either","3","391","","","","","","","1","0","0","0.8","","0.5","0.5","0.5","0.5","","","","","0.8","0.2","0.6","0.2","","","","","","","","","","72","H","0","img/none_selected.jpg","true","0","full_practice",""
"","bandit","60","277423","0.0-32.0-9.0","72755849","wem/bandit_party_2","A26ERTJPV1A1IM","either","3","2","","","","","","","1","0","0","0.8","","0.5","0.5","0.5","0.5","","","","","0.8","0.2","0.6","0.2","","","","","","","","","","72","H","0","img/none_selected.jpg","true","0","full_practice",""
"","bandit","61","279080","0.0-32.0-10.0","72755849","wem/bandit_party_2","A26ERTJPV1A1IM","either","3","141","","","","","","","0","0","1","0.8","","0.5","0.5","0.5","0.5","","","","","0.8","0.2","0.6","0.2","","","","","","","","","","72","H","0","img/none_selected.jpg","true","0","full_practice",""
"","bandit","62","280739","0.0-32.0-11.0","72755849","wem/bandit_party_2","A26ERTJPV1A1IM","either","3","143","","","","","","","0","0","1","","0.8","0.5","0.5","0.5","0.5","0.8","0.2","0.6","0.2","","","","","","","","","","","","","","72","H","0","img/none_selected.jpg","true","0","full_practice",""
"","bandit","63","283271","0.0-32.0-12.0","72755849","wem/bandit_party_2","A26ERTJPV1A1IM","either","3","1008","","","","","","","0","0","1","","0.2","0.5","0.5","0.5","0.5","0.8","0.2","0.6","0.2","","","","","","","","","","","","","","74","J","1","","true","0","full_practice",""
"","bandit","64","285656","0.0-32.0-13.0","72755849","wem/bandit_party_2","A26ERTJPV1A1IM","either","3","866","","","","","","","0","0","1","","0.6","0.5","0.5","0.5","0.5","0.8","0.2","0.6","0.2","","","","","","","","","","","","","","75","K","2","","true","0","full_practice",""
"","bandit","65","287506","0.0-32.0-14.0","72755849","wem/bandit_party_2","A26ERTJPV1A1IM","either","3","330","","","","","","","0","0","1","","0.2","0.5","0.5","0.5","0.5","0.8","0.2","0.6","0.2","","","","","","","","","","","","","","76","L","3","","true","0","full_practice",""
"","bandit","66","289407","0.0-32.0-15.0","72755849","wem/bandit_party_2","A26ERTJPV1A1IM","either","3","381","","","","","","","0","0","1","0.2","","0.5","0.5","0.5","0.5","","","","","0.8","0.2","0.6","0.2","","","","","","","","","","76","L","3","","true","0","full_practice",""
"","bandit","67","291268","0.0-32.0-16.0","72755849","wem/bandit_party_2","A26ERTJPV1A1IM","either","3","338","","","","","","","0","1","0","","0.6","0.5","0.5","0.5","0.5","0.8","0.2","0.6","0.2","","","","","","","","","","","","","","75","K","2","","true","0","full_practice",""
"","bandit","68","293092","0.0-32.0-17.0","72755849","wem/bandit_party_2","A26ERTJPV1A1IM","either","3","302","","","","","","","0","0","1","","0.6","0.5","0.5","0.5","0.5","0.8","0.2","0.6","0.2","","","","","","","","","","","","","","75","K","2","","true","0","full_practice",""
"","bandit","69","294933","0.0-32.0-18.0","72755849","wem/bandit_party_2","A26ERTJPV1A1IM","either","3","321","","","","","","","0","0","1","0.2","","0.5","0.5","0.5","0.5","","","","","0.8","0.2","0.6","0.2","","","","","","","","","","74","J","1","","true","0","full_practice",""
"","bandit","70","296758","0.0-32.0-19.0","72755849","wem/bandit_party_2","A26ERTJPV1A1IM","either","3","302","","","","","","","0","0","1","","0.2","0.5","0.5","0.5","0.5","0.8","0.2","0.6","0.2","","","","","","","","","","","","","","74","J","1","","true","0","full_practice",""
"","text","71","302658","0.0-33.0","72755849","wem/bandit_party_2","A26ERTJPV1A1IM","either","3","5881","","","32","","","","","","","","","","","","","","","","","","","","","","","","","","","","","","","","","","","","",""
"","text-replacement","72","313334","0.0-34.0","72755849","wem/bandit_party_2","A26ERTJPV1A1IM","either","3","9667","","","32","","","","","","","","","","","","","","","","","","","","","","","","","","","","","","","","","","","","",""
"","text-replacement","73","325889","0.0-35.0","72755849","wem/bandit_party_2","A26ERTJPV1A1IM","either","3","12546","","","32","","","","","","","","","","","","","","","","","","","","","","","","","","","","","","","","","","","","",""
"","text-replacement","74","329152","0.0-36.0","72755849","wem/bandit_party_2","A26ERTJPV1A1IM","either","3","3256","","","32","","","","","","","","","","","","","","","","","","","","","","","","","","","","","","","","","","","","",""
"","text-replacement","75","333521","0.0-37.0","72755849","wem/bandit_party_2","A26ERTJPV1A1IM","either","3","4361","","","32","","","","","","","","","","","","","","","","","","","","","","","","","","","","","","","","","","","","",""
"","text-replacement","76","339569","0.0-38.0","72755849","wem/bandit_party_2","A26ERTJPV1A1IM","either","3","6037","","","32","","","","","","","","","","","","","","","","","","","","","","","","","","","","","","","","","","","","",""
"","survey-multi-choice-replacement","77","345763","0.0-39.0-0.0","72755849","wem/bandit_party_2","A26ERTJPV1A1IM","either","3","6168","","","","","","","","","","","","","","","","","","","","","","","","Money will be added to the pool for <span style='color:blue;'>DEMOCRATS</span>","","","","","","","attn_check","","","","","","","","","0"
"","survey-multi-choice-replacement","78","350536","0.0-40.0-0.0","72755849","wem/bandit_party_2","A26ERTJPV1A1IM","either","3","3746","","","","","","","","","","","","","","","","","","","","","","","","Equal amounts of money will be added to the pool for <span style='color:blue;'>DEMOCRATS</span> and subtracted from the pool for <span style='color:red;'>REPUBLICANS</span>","","","","","","","attn_check","","","","","","","","","2"
"","survey-multi-choice-replacement","79","355071","0.0-41.0-0.0","72755849","wem/bandit_party_2","A26ERTJPV1A1IM","either","3","3502","","","","","","","","","","","","","","","","","","","","","","","","No money will be added to either pool","","","","","","","attn_check","","","","","","","","","3"
"","bandit","80","359953","0.0-42.0-0.0","72755849","wem/bandit_party_2","A26ERTJPV1A1IM","either","3","2358","","","","","","","0","0","1","","0.4261870849","0.4","0.2","0.6","0.8","0.4261870849","0.6494041588","0.6473934842","0.1387034319","","","","","","","","","","","","","","72","H","0","img/none_selected.jpg","","1","main_expt",""
"","bandit","81","363442","0.0-43.0-0.0","72755849","wem/bandit_party_2","A26ERTJPV1A1IM","either","3","1975","","","","","","","0","0","1","","0.7608835745","0.4","0.2","0.6","0.8","0.3223101542","0.7608835745","0.5221866694","0.2166337036","","","","","","","","","","","","","","74","J","1","","","2","main_expt",""
"","bandit","82","365774","0.0-44.0-0.0","72755849","wem/bandit_party_2","A26ERTJPV1A1IM","either","3","814","","","","","","","1","0","0","0.5356292978","","0.4","0.2","0.6","0.8","","","","","0.2541217019","0.7745567172","0.5356292978","0.3253899216","","","","","","","","","","75","K","2","","","3","main_expt",""
"","bandit","83","367623","0.0-45.0-0.0","72755849","wem/bandit_party_2","A26ERTJPV1A1IM","either","3","333","","","","","","","1","0","0","0.5154592071","","0.4","0.2","0.6","0.8","","","","","0.2272043942","0.8315703218","0.5154592071","0.3003293127","","","","","","","","","","75","K","2","","","4","main_expt",""
"","bandit","84","369380","0.0-46.0-0.0","72755849","wem/bandit_party_2","A26ERTJPV1A1IM","either","3","240","","","","","","","0","1","0","","0.4578896037","0.4","0.2","0.6","0.8","0.2967729676","0.8380789219","0.4578896037","0.3839660868","","","","","","","","","","","","","","75","K","2","","","5","main_expt",""
"","bandit","85","370940","0.0-47.0-0.0","72755849","wem/bandit_party_2","A26ERTJPV1A1IM","either","3","36","","","","","","","1","0","0","0.4825789634","","0.4","0.2","0.6","0.8","","","","","0.3211998527","0.8233568153","0.4825789634","0.3833463511","","","","","","","","","","75","K","2","","","6","main_expt",""
"","bandit","86","372565","0.0-48.0-0.0","72755849","wem/bandit_party_2","A26ERTJPV1A1IM","either","3","110","","","","","","","0","0","1","0.4013658759","","0.4","0.2","0.6","0.8","","","","","0.4190649117","0.8672840292","0.4013658759","0.3173395401","","","","","","","","","","75","K","2","","","7","main_expt",""
"","bandit","87","374132","0.0-49.0-0.0","72755849","wem/bandit_party_2","A26ERTJPV1A1IM","either","3","49","","","","","","","1","0","0","0.3721769634","","0.4","0.2","0.6","0.8","","","","","0.5253498774","0.7921451217","0.3721769634","0.3265190876","","","","","","","","","","75","K","2","","","8","main_expt",""
"","bandit","88","375750","0.0-50.0-0.0","72755849","wem/bandit_party_2","A26ERTJPV1A1IM","either","3","99","","","","","","","0","0","1","0.3934089605","","0.4","0.2","0.6","0.8","","","","","0.5552176016","0.7826569337","0.3934089605","0.4229840653","","","","","","","","","","75","K","2","","","9","main_expt",""
"","bandit","89","377611","0.0-51.0-0.0","72755849","wem/bandit_party_2","A26ERTJPV1A1IM","either","3","338","","","","","","","1","0","0","0.3360942297","","0.4","0.2","0.6","0.8","","","","","0.654745146","0.7150392401","0.3360942297","0.5107168356","","","","","","","","","","75","K","2","","","10","main_expt",""
"","bandit","90","379430","0.0-52.0-0.0","72755849","wem/bandit_party_2","A26ERTJPV1A1IM","either","3","298","","","","","","","1","0","0","0.4969537907","","0.4","0.2","0.6","0.8","","","","","0.6089063278","0.6906605055","0.4969537907","0.4383577931","","","","","","","","","","75","K","2","","","11","main_expt",""
"","bandit","91","381161","0.0-53.0-0.0","72755849","wem/bandit_party_2","A26ERTJPV1A1IM","either","3","217","","","","","","","0","0","1","","0.4760264401","0.4","0.2","0.6","0.8","0.559155858","0.6725575113","0.4760264401","0.5487148549","","","","","","","","","","","","","","75","K","2","","","12","main_expt",""
"","bandit","92","382907","0.0-54.0-0.0","72755849","wem/bandit_party_2","A26ERTJPV1A1IM","either","3","228","","","","","","","0","0","1","","0.4008761295","0.4","0.2","0.6","0.8","0.6464491645","0.7404599176","0.4008761295","0.7407599438","","","","","","","","","","","","","","75","K","2","","","13","main_expt",""
"","bandit","93","384736","0.0-55.0-0.0","72755849","wem/bandit_party_2","A26ERTJPV1A1IM","either","3","299","","","","","","","0","0","1","","0.8307131687","0.4","0.2","0.6","0.8","0.6936958995","0.6751607758","0.358486362","0.8307131687","","","","","","","","","","","","","","76","L","3","","","14","main_expt",""
"","bandit","94","386566","0.0-56.0-0.0","72755849","wem/bandit_party_2","A26ERTJPV1A1IM","either","3","308","","","","","","","1","0","0","0.8114394421","","0.4","0.2","0.6","0.8","","","","","0.731471075","0.6115440925","0.395258373","0.8114394421","","","","","","","","","","76","L","3","","","15","main_expt",""
"","bandit","95","388410","0.0-57.0-0.0","72755849","wem/bandit_party_2","A26ERTJPV1A1IM","either","3","322","","","","","","","0","1","0","","0.8242397169","0.4","0.2","0.6","0.8","0.6487541525","0.7019001419","0.4197334966","0.8242397169","","","","","","","","","","","","","","76","L","3","","","16","main_expt",""
"","bandit","96","390213","0.0-58.0-0.0","72755849","wem/bandit_party_2","A26ERTJPV1A1IM","either","3","279","","","","","","","1","0","0","0.8317633157","","0.4","0.2","0.6","0.8","","","","","0.7654634758","0.7017998","0.2160816064","0.8317633157","","","","","","","","","","76","L","3","","","17","main_expt",""
"","bandit","97","392043","0.0-59.0-0.0","72755849","wem/bandit_party_2","A26ERTJPV1A1IM","either","3","299","","","","","","","1","0","0","0.8158638682","","0.4","0.2","0.6","0.8","","","","","0.7160830043","0.7672473748","0.2058632209","0.8158638682","","","","","","","","","","76","L","3","","","18","main_expt",""
"","bandit","98","393668","0.0-60.0-0.0","72755849","wem/bandit_party_2","A26ERTJPV1A1IM","either","3","101","","","","","","","0","1","0","","0.8291878069","0.4","0.2","0.6","0.8","0.6856656502","0.7950219121","0.2314559036","0.8291878069","","","","","","","","","","","","","","76","L","3","","","19","main_expt",""
"","bandit","99","395192","0.0-61.0-0.0","72755849","wem/bandit_party_2","A26ERTJPV1A1IM","either","3","1","","","","","","","1","0","0","0.8665153398","","0.4","0.2","0.6","0.8","","","","","0.6829400921","0.8460513568","0.1762066147","0.8665153398","","","","","","","","","","76","L","3","","","20","main_expt",""
"","bandit","100","397843","0.0-62.0-0.0","72755849","wem/bandit_party_2","A26ERTJPV1A1IM","either","3","1130","","","","","","","1","0","0","0.8181415858","","0.4","0.2","0.6","0.8","","","","","0.6849203215","0.8571228725","0.150477598","0.8181415858","","","","","","","","","","76","L","3","","","21","main_expt",""
"","bandit","101","399697","0.0-63.0-0.0","72755849","wem/bandit_party_2","A26ERTJPV1A1IM","either","3","333","","","","","","","0","0","1","0.7731960963","","0.4","0.2","0.6","0.8","","","","","0.6832197831","0.8498483749","0.1957635407","0.7731960963","","","","","","","","","","76","L","3","","","22","main_expt",""
"","bandit","102","401579","0.0-64.0-0.0","72755849","wem/bandit_party_2","A26ERTJPV1A1IM","either","3","363","","","","","","","0","1","0","","0.8004626553","0.4","0.2","0.6","0.8","0.6103957523","0.887495535","0.2193187944","0.8004626553","","","","","","","","","","","","","","76","L","3","","","23","main_expt",""
"","bandit","103","403432","0.0-65.0-0.0","72755849","wem/bandit_party_2","A26ERTJPV1A1IM","either","3","331","","","","","","","1","0","0","0.7941911222","","0.4","0.2","0.6","0.8","","","","","0.5485819736","0.918231735","0.1836328706","0.7941911222","","","","","","","","","","76","L","3","","","24","main_expt",""
"","bandit","104","405217","0.0-66.0-0.0","72755849","wem/bandit_party_2","A26ERTJPV1A1IM","either","3","265","","","","","","","1","0","0","0.7100633829","","0.4","0.2","0.6","0.8","","","","","0.5852935809","0.9111146318","0.1410441375","0.7100633829","","","","","","","","","","76","L","3","","","25","main_expt",""
"","bandit","105","407072","0.0-67.0-0.0","72755849","wem/bandit_party_2","A26ERTJPV1A1IM","either","3","336","","","","","","","1","0","0","0.6872129375","","0.4","0.2","0.6","0.8","","","","","0.6097892937","0.9190640316","0.1082593399","0.6872129375","","","","","","","","","","76","L","3","","","26","main_expt",""
"","bandit","106","408853","0.0-68.0-0.0","72755849","wem/bandit_party_2","A26ERTJPV1A1IM","either","3","264","","","","","","","1","0","0","0.6798864795","","0.4","0.2","0.6","0.8","","","","","0.6653335402","0.9372614837","0.1042047793","0.6798864795","","","","","","","","","","76","L","3","","","27","main_expt",""
"","bandit","107","412035","0.0-69.0-0.0","72755849","wem/bandit_party_2","A26ERTJPV1A1IM","either","3","1661","","","","","","","1","0","0","0.6812343762","","0.4","0.2","0.6","0.8","","","","","0.6850825106","0.9269484959","0.1153509117","0.6812343762","","","","","","","","","","76","L","3","","","28","main_expt",""
"","bandit","108","413916","0.0-70.0-0.0","72755849","wem/bandit_party_2","A26ERTJPV1A1IM","either","3","362","","","","","","","1","0","0","0.5305157647","","0.4","0.2","0.6","0.8","","","","","0.7309016742","0.9376772981","0.1601566248","0.5305157647","","","","","","","","","","76","L","3","","","29","main_expt",""
"","bandit","109","415642","0.0-71.0-0.0","72755849","wem/bandit_party_2","A26ERTJPV1A1IM","either","3","208","","","","","","","0","0","1","","0.4713174284","0.4","0.2","0.6","0.8","0.8141980113","0.8795505253","0.09548927903","0.4713174284","","","","","","","","","","","","","","76","L","3","","","30","main_expt",""
"","bandit","110","417497","0.0-72.0-0.0","72755849","wem/bandit_party_2","A26ERTJPV1A1IM","either","3","334","","","","","","","1","0","0","0.2938490869","","0.4","0.2","0.6","0.8","","","","","0.8926711601","0.8605863748","0.09272353297","0.2938490869","","","","","","","","","","76","L","3","","","31","main_expt",""
"","bandit","111","419593","0.0-73.0-0.0","72755849","wem/bandit_party_2","A26ERTJPV1A1IM","either","3","572","","","","","","","0","0","1","0.3005160425","","0.4","0.2","0.6","0.8","","","","","0.8397563013","0.757600507","0.09547929832","0.3005160425","","","","","","","","","","76","L","3","","","32","main_expt",""
"","bandit","112","421423","0.0-74.0-0.0","72755849","wem/bandit_party_2","A26ERTJPV1A1IM","either","3","311","","","","","","","1","0","0","0.3661211491","","0.4","0.2","0.6","0.8","","","","","0.8251988787","0.7257103923","0.08683876107","0.3661211491","","","","","","","","","","76","L","3","","","33","main_expt",""
"","bandit","113","422968","0.0-75.0-0.0","72755849","wem/bandit_party_2","A26ERTJPV1A1IM","either","3","18","","","","","","","0","0","1","","0.4614725573","0.4","0.2","0.6","0.8","0.7303528712","0.5786815464","0.08117088791","0.4614725573","","","","","","","","","","","","","","76","L","3","","","34","main_expt",""
"","bandit","114","424680","0.0-76.0-0.0","72755849","wem/bandit_party_2","A26ERTJPV1A1IM","either","3","188","","","","","","","0","1","0","","0.4597324626","0.4","0.2","0.6","0.8","0.8093673003","0.4812266686","0.09593582107","0.4597324626","","","","","","","","","","","","","","76","L","3","","","35","main_expt",""
"","bandit","115","426281","0.0-77.0-0.0","72755849","wem/bandit_party_2","A26ERTJPV1A1IM","either","3","82","","","","","","","0","1","0","","0.4294742096","0.4","0.2","0.6","0.8","0.79718131","0.4459447539","0.1392988708","0.4294742096","","","","","","","","","","","","","","76","L","3","","","36","main_expt",""
"","bandit","116","427861","0.0-78.0-0.0","72755849","wem/bandit_party_2","A26ERTJPV1A1IM","either","3","59","","","","","","","0","1","0","","0.5301274199","0.4","0.2","0.6","0.8","0.8157762275","0.5737218407","0.07673209605","0.5301274199","","","","","","","","","","","","","","76","L","3","","","37","main_expt",""
"","bandit","117","429396","0.0-79.0-0.0","72755849","wem/bandit_party_2","A26ERTJPV1A1IM","either","3","16","","","","","","","1","0","0","0.5746889943","","0.4","0.2","0.6","0.8","","","","","0.7941499978","0.6008421093","0.1078843958","0.5746889943","","","","","","","","","","76","L","3","","","38","main_expt",""
"","bandit","118","432989","0.0-80.0-0.0","72755849","wem/bandit_party_2","A26ERTJPV1A1IM","either","3","2073","","","","","","","1","0","0","0.6621100331","","0.4","0.2","0.6","0.8","","","","","0.7352357368","0.6076920036","0.09731722171","0.6621100331","","","","","","","","","","76","L","3","","","39","main_expt",""
"","bandit","119","434784","0.0-81.0-0.0","72755849","wem/bandit_party_2","A26ERTJPV1A1IM","either","3","272","","","","","","","0","0","1","0.6794361822","","0.4","0.2","0.6","0.8","","","","","0.7920886563","0.6616622706","0.2123509389","0.6794361822","","","","","","","","","","76","L","3","","","40","main_expt",""
"","bandit","120","436338","0.0-82.0-0.0","72755849","wem/bandit_party_2","A26ERTJPV1A1IM","either","3","30","","","","","","","1","0","0","0.7140523024","","0.4","0.2","0.6","0.8","","","","","0.8780543775","0.6945341382","0.1265365425","0.7140523024","","","","","","","","","","76","L","3","","","41","main_expt",""
"","bandit","121","438166","0.0-83.0-0.0","72755849","wem/bandit_party_2","A26ERTJPV1A1IM","either","3","308","","","","","","","0","0","1","0.6669732994","","0.4","0.2","0.6","0.8","","","","","0.9167256642","0.6833149102","0.166138795","0.6669732994","","","","","","","","","","76","L","3","","","42","main_expt",""
"","bandit","122","439858","0.0-84.0-0.0","72755849","wem/bandit_party_2","A26ERTJPV1A1IM","either","3","172","","","","","","","0","0","1","0.5435093165","","0.4","0.2","0.6","0.8","","","","","0.9407985187","0.7094953576","0.1782339186","0.5435093165","","","","","","","","","","76","L","3","","","43","main_expt",""
"","bandit","123","442749","0.0-85.0-0.0","72755849","wem/bandit_party_2","A26ERTJPV1A1IM","either","3","1369","","","","","","","1","0","0","0.9000978766","","0.4","0.2","0.6","0.8","","","","","0.9000978766","0.7519468023","0.1342945815","0.6002661395","","","","","","","","","","72","H","0","img/none_selected.jpg","","44","main_expt",""
"","bandit","124","444531","0.0-86.0-0.0","72755849","wem/bandit_party_2","A26ERTJPV1A1IM","either","3","259","","","","","","","0","0","1","","0.9190036262","0.4","0.2","0.6","0.8","0.9190036262","0.7673203249","0.09086288848","0.5948203474","","","","","","","","","","","","","","72","H","0","img/none_selected.jpg","","45","main_expt",""
"","bandit","125","446234","0.0-87.0-0.0","72755849","wem/bandit_party_2","A26ERTJPV1A1IM","either","3","181","","","","","","","0","0","1","","0.8865788656","0.4","0.2","0.6","0.8","0.8865788656","0.722836051","0.06420934006","0.6230250108","","","","","","","","","","","","","","72","H","0","img/none_selected.jpg","","46","main_expt",""
"","bandit","126","448078","0.0-88.0-0.0","72755849","wem/bandit_party_2","A26ERTJPV1A1IM","either","3","321","","","","","","","0","1","0","","0.7392487755","0.4","0.2","0.6","0.8","0.8207935484","0.7392487755","0.02332738683","0.7239235909","","","","","","","","","","","","","","74","J","1","","","47","main_expt",""
"","bandit","127","450087","0.0-89.0-0.0","72755849","wem/bandit_party_2","A26ERTJPV1A1IM","either","3","487","","","","","","","0","1","0","","0.7551111279","0.4","0.2","0.6","0.8","0.8170742187","0.7551111279","0.03517565614","0.7715310514","","","","","","","","","","","","","","74","J","1","","","48","main_expt",""
"","bandit","128","451831","0.0-90.0-0.0","72755849","wem/bandit_party_2","A26ERTJPV1A1IM","either","3","223","","","","","","","0","0","1","","0.6917772817","0.4","0.2","0.6","0.8","0.7874830355","0.6917772817","0.04466115719","0.822179592","","","","","","","","","","","","","","74","J","1","","","49","main_expt",""
"","bandit","129","453446","0.0-91.0-0.0","72755849","wem/bandit_party_2","A26ERTJPV1A1IM","either","3","96","","","","","","","0","1","0","","0.6689959301","0.4","0.2","0.6","0.8","0.8279472521","0.6689959301","0.05053383529","0.8108951243","","","","","","","","","","","","","","74","J","1","","","50","main_expt",""
"","bandit","130","455033","0.0-92.0-0.0","72755849","wem/bandit_party_2","A26ERTJPV1A1IM","either","3","66","","","","","","","0","1","0","","0.6020608281","0.4","0.2","0.6","0.8","0.8426817256","0.6020608281","0.04681033125","0.7649170446","","","","","","","","","","","","","","74","J","1","","","51","main_expt",""
"","bandit","131","456614","0.0-93.0-0.0","72755849","wem/bandit_party_2","A26ERTJPV1A1IM","either","3","58","","","","","","","0","1","0","","0.6583182673","0.4","0.2","0.6","0.8","0.8377647656","0.6583182673","0.09308222201","0.8169848275","","","","","","","","","","","","","","74","J","1","","","52","main_expt",""
"","bandit","132","458505","0.0-94.0-0.0","72755849","wem/bandit_party_2","A26ERTJPV1A1IM","either","3","365","","","","","","","0","1","0","","0.5419436754","0.4","0.2","0.6","0.8","0.8241398149","0.5419436754","0.1397702629","0.8843577791","","","","","","","","","","","","","","74","J","1","","","53","main_expt",""
"","bandit","133","460398","0.0-95.0-0.0","72755849","wem/bandit_party_2","A26ERTJPV1A1IM","either","3","362","","","","","","","0","0","1","","0.5717614462","0.4","0.2","0.6","0.8","0.7289352116","0.5717614462","0.110287685","0.8854515068","","","","","","","","","","","","","","74","J","1","","","54","main_expt",""
"","bandit","134","463728","0.0-96.0-0.0","72755849","wem/bandit_party_2","A26ERTJPV1A1IM","either","3","1808","","","","","","","0","0","1","0.5497935615","","0.4","0.2","0.6","0.8","","","","","0.5895019519","0.5497935615","0.1843384007","0.8884574585","","","","","","","","","","74","J","1","","","55","main_expt",""
"","bandit","135","465441","0.0-97.0-0.0","72755849","wem/bandit_party_2","A26ERTJPV1A1IM","either","3","190","","","","","","","0","0","1","","0.2056752237","0.4","0.2","0.6","0.8","0.4622464331","0.4902645195","0.2056752237","0.8840911236","","","","","","","","","","","","","","75","K","2","","","56","main_expt",""
"","bandit","136","467993","0.0-98.0-0.0","72755849","wem/bandit_party_2","A26ERTJPV1A1IM","either","3","1024","","","","","","","1","0","0","0.490024734","","0.4","0.2","0.6","0.8","","","","","0.490024734","0.5258365243","0.3410726922","0.864283103","","","","","","","","","","72","H","0","img/none_selected.jpg","","57","main_expt",""
"","bandit","137","469546","0.0-99.0-0.0","72755849","wem/bandit_party_2","A26ERTJPV1A1IM","either","3","30","","","","","","","1","0","0","0.6182628796","","0.4","0.2","0.6","0.8","","","","","0.6182628796","0.6097664349","0.3873695161","0.7377821737","","","","","","","","","","72","H","0","img/none_selected.jpg","","58","main_expt",""
"","bandit","138","471097","0.0-100.0-0.0","72755849","wem/bandit_party_2","A26ERTJPV1A1IM","either","3","29","","","","","","","0","0","1","0.6976829826","","0.4","0.2","0.6","0.8","","","","","0.6976829826","0.6016711108","0.3281321534","0.7469541206","","","","","","","","","","72","H","0","img/none_selected.jpg","","59","main_expt",""
"","bandit","139","472633","0.0-101.0-0.0","72755849","wem/bandit_party_2","A26ERTJPV1A1IM","either","3","15","","","","","","","0","1","0","","0.675433977","0.4","0.2","0.6","0.8","0.675433977","0.5544917648","0.2380439254","0.8019510571","","","","","","","","","","","","","","72","H","0","img/none_selected.jpg","","60","main_expt",""
"","bandit","140","474445","0.0-102.0-0.0","72755849","wem/bandit_party_2","A26ERTJPV1A1IM","either","3","289","","","","","","","0","1","0","","0.7206550838","0.4","0.2","0.6","0.8","0.7206550838","0.6842720067","0.2228222105","0.8943887388","","","","","","","","","","","","","","72","H","0","img/none_selected.jpg","","61","main_expt",""
"","bandit","141","477318","0.0-103.0-0.0","72755849","wem/bandit_party_2","A26ERTJPV1A1IM","either","3","1351","","","","","","","0","0","1","0.7184677658","","0.4","0.2","0.6","0.8","","","","","0.7184677658","0.6824345281","0.2489253665","0.8942973556","","","","","","","","","","72","H","0","img/none_selected.jpg","","62","main_expt",""
"","bandit","142","478886","0.0-104.0-0.0","72755849","wem/bandit_party_2","A26ERTJPV1A1IM","either","3","44","","","","","","","0","1","0","","0.6785259816","0.4","0.2","0.6","0.8","0.6785259816","0.7321168219","0.2298237489","0.8829609874","","","","","","","","","","","","","","72","H","0","img/none_selected.jpg","","63","main_expt",""
"","bandit","143","480794","0.0-105.0-0.0","72755849","wem/bandit_party_2","A26ERTJPV1A1IM","either","3","381","","","","","","","0","0","1","","0.6349383059","0.4","0.2","0.6","0.8","0.6349383059","0.8123013145","0.1849055857","0.8175344892","","","","","","","","","","","","","","72","H","0","img/none_selected.jpg","","64","main_expt",""
"","bandit","144","482500","0.0-106.0-0.0","72755849","wem/bandit_party_2","A26ERTJPV1A1IM","either","3","183","","","","","","","1","0","0","0.629769122","","0.4","0.2","0.6","0.8","","","","","0.629769122","0.8236121316","0.2285715909","0.7812905168","","","","","","","","","","72","H","0","img/none_selected.jpg","","65","main_expt",""
"","bandit","145","484403","0.0-107.0-0.0","72755849","wem/bandit_party_2","A26ERTJPV1A1IM","either","3","382","","","","","","","0","1","0","","0.7158950816","0.4","0.2","0.6","0.8","0.7158950816","0.8270077233","0.2477643906","0.7848445355","","","","","","","","","","","","","","72","H","0","img/none_selected.jpg","","66","main_expt",""
"","bandit","146","486310","0.0-108.0-0.0","72755849","wem/bandit_party_2","A26ERTJPV1A1IM","either","3","377","","","","","","","0","1","0","","0.6309271871","0.4","0.2","0.6","0.8","0.6309271871","0.7601471472","0.1801078726","0.763143195","","","","","","","","","","","","","","72","H","0","img/none_selected.jpg","","67","main_expt",""
"","bandit","147","487851","0.0-109.0-0.0","72755849","wem/bandit_party_2","A26ERTJPV1A1IM","either","3","14","","","","","","","0","1","0","","0.617221228","0.4","0.2","0.6","0.8","0.617221228","0.7567750057","0.08479184886","0.7966751536","","","","","","","","","","","","","","72","H","0","img/none_selected.jpg","","68","main_expt",""
"","bandit","148","489862","0.0-110.0-0.0","72755849","wem/bandit_party_2","A26ERTJPV1A1IM","either","3","481","","","","","","","0","1","0","","0.6235929763","0.4","0.2","0.6","0.8","0.6235929763","0.6871277649","0.06982522498","0.8534335227","","","","","","","","","","","","","","72","H","0","img/none_selected.jpg","","69","main_expt",""
"","bandit","149","491738","0.0-111.0-0.0","72755849","wem/bandit_party_2","A26ERTJPV1A1IM","either","3","351","","","","","","","0","0","1","0.5543620559","","0.4","0.2","0.6","0.8","","","","","0.5543620559","0.773099018","0.05029268469","0.8915498471","","","","","","","","","","72","H","0","img/none_selected.jpg","","70","main_expt",""
"","bandit","150","493495","0.0-112.0-0.0","72755849","wem/bandit_party_2","A26ERTJPV1A1IM","either","3","234","","","","","","","1","0","0","0.5333999135","","0.4","0.2","0.6","0.8","","","","","0.5333999135","0.7412476729","0.06413839938","0.8736989015","","","","","","","","","","72","H","0","img/none_selected.jpg","","71","main_expt",""
"","bandit","151","495043","0.0-113.0-0.0","72755849","wem/bandit_party_2","A26ERTJPV1A1IM","either","3","28","","","","","","","0","1","0","","0.5905126671","0.4","0.2","0.6","0.8","0.5905126671","0.8080704968","0.05155778705","0.8837551658","","","","","","","","","","","","","","72","H","0","img/none_selected.jpg","","72","main_expt",""
"","bandit","152","496758","0.0-114.0-0.0","72755849","wem/bandit_party_2","A26ERTJPV1A1IM","either","3","186","","","","","","","0","1","0","","0.6925119087","0.4","0.2","0.6","0.8","0.6925119087","0.8270016227","0.0232747386","0.8495494246","","","","","","","","","","","","","","72","H","0","img/none_selected.jpg","","73","main_expt",""
"","bandit","153","499614","0.0-115.0-0.0","72755849","wem/bandit_party_2","A26ERTJPV1A1IM","either","3","1333","","","","","","","1","0","0","0.7134745341","","0.4","0.2","0.6","0.8","","","","","0.7134745341","0.7872017979","0.04751547773","0.9127472651","","","","","","","","","","72","H","0","img/none_selected.jpg","","74","main_expt",""
"","bandit","154","501366","0.0-116.0-0.0","72755849","wem/bandit_party_2","A26ERTJPV1A1IM","either","3","226","","","","","","","0","1","0","","0.8065440948","0.4","0.2","0.6","0.8","0.8065440948","0.6167225576","0.05282531612","0.9199060817","","","","","","","","","","","","","","72","H","0","img/none_selected.jpg","","75","main_expt",""
"","bandit","155","502982","0.0-117.0-0.0","72755849","wem/bandit_party_2","A26ERTJPV1A1IM","either","3","88","","","","","","","0","1","0","","0.7849172319","0.4","0.2","0.6","0.8","0.7849172319","0.637182095","0.08738729654","0.8691294168","","","","","","","","","","","","","","72","H","0","img/none_selected.jpg","","76","main_expt",""
"","bandit","156","504758","0.0-118.0-0.0","72755849","wem/bandit_party_2","A26ERTJPV1A1IM","either","3","252","","","","","","","0","1","0","","0.7818962729","0.4","0.2","0.6","0.8","0.7818962729","0.7169911294","0.08851312664","0.9111329321","","","","","","","","","","","","","","72","H","0","img/none_selected.jpg","","77","main_expt",""
"","bandit","157","507540","0.0-119.0-0.0","72755849","wem/bandit_party_2","A26ERTJPV1A1IM","either","3","1256","","","","","","","0","1","0","","0.7002933386","0.4","0.2","0.6","0.8","0.7002933386","0.7446448061","0.145228539","0.9286966754","","","","","","","","","","","","","","72","H","0","img/none_selected.jpg","","78","main_expt",""
"","bandit","158","509233","0.0-120.0-0.0","72755849","wem/bandit_party_2","A26ERTJPV1A1IM","either","3","168","","","","","","","0","1","0","","0.6510109529","0.4","0.2","0.6","0.8","0.6510109529","0.8152221547","0.1669860915","0.9616021792","","","","","","","","","","","","","","72","H","0","img/none_selected.jpg","","79","main_expt",""
"","bandit","159","511037","0.0-121.0-0.0","72755849","wem/bandit_party_2","A26ERTJPV1A1IM","either","3","279","","","","","","","0","0","1","0.6765614865","","0.4","0.2","0.6","0.8","","","","","0.6765614865","0.810351938","0.1922913003","0.950571795","","","","","","","","","","72","H","0","img/none_selected.jpg","","80","main_expt",""
"","bandit","160","512726","0.0-122.0-0.0","72755849","wem/bandit_party_2","A26ERTJPV1A1IM","either","3","156","","","","","","","0","0","1","0.5908869344","","0.4","0.2","0.6","0.8","","","","","0.5908869344","0.8895110989","0.2407870914","0.9331160128","","","","","","","","","","72","H","0","img/none_selected.jpg","","81","main_expt",""
"","bandit","161","514465","0.0-123.0-0.0","72755849","wem/bandit_party_2","A26ERTJPV1A1IM","either","3","218","","","","","","","0","1","0","","0.9046816681","0.4","0.2","0.6","0.8","0.5267531711","0.9046816681","0.3077898034","0.9465986336","","","","","","","","","","","","","","74","J","1","","","82","main_expt",""
"","bandit","162","516836","0.0-124.0-0.0","72755849","wem/bandit_party_2","A26ERTJPV1A1IM","either","3","840","","","","","","","1","0","0","0.8465278631","","0.4","0.2","0.6","0.8","","","","","0.6168373964","0.8465278631","0.2337579628","0.9371159138","","","","","","","","","","74","J","1","","","83","main_expt",""
"","bandit","163","518589","0.0-125.0-0.0","72755849","wem/bandit_party_2","A26ERTJPV1A1IM","either","3","222","","","","","","","0","0","1","","0.7584930438","0.4","0.2","0.6","0.8","0.5733990252","0.7584930438","0.2781329454","0.8998840018","","","","","","","","","","","","","","74","J","1","","","84","main_expt",""
"","bandit","164","520473","0.0-126.0-0.0","72755849","wem/bandit_party_2","A26ERTJPV1A1IM","either","3","359","","","","","","","0","0","1","","0.7727946294","0.4","0.2","0.6","0.8","0.4719695616","0.7727946294","0.3013149798","0.9102188985","","","","","","","","","","","","","","74","J","1","","","85","main_expt",""
"","bandit","165","522164","0.0-127.0-0.0","72755849","wem/bandit_party_2","A26ERTJPV1A1IM","either","3","167","","","","","","","0","0","1","0.3231836659","","0.4","0.2","0.6","0.8","","","","","0.6941651786","0.8216594778","0.3231836659","0.9000055418","","","","","","","","","","75","K","2","","","86","main_expt",""
"","bandit","166","523860","0.0-128.0-0.0","72755849","wem/bandit_party_2","A26ERTJPV1A1IM","either","3","171","","","","","","","0","0","1","0.3986379136","","0.4","0.2","0.6","0.8","","","","","0.5408952125","0.7833884788","0.3986379136","0.8563468124","","","","","","","","","","75","K","2","","","87","main_expt",""
"","bandit","167","525786","0.0-129.0-0.0","72755849","wem/bandit_party_2","A26ERTJPV1A1IM","either","3","396","","","","","","","0","1","0","","0.7349543302","0.4","0.2","0.6","0.8","0.5438891422","0.7804426693","0.4230151841","0.7349543302","","","","","","","","","","","","","","76","L","3","","","88","main_expt",""
"","bandit","168","527605","0.0-130.0-0.0","72755849","wem/bandit_party_2","A26ERTJPV1A1IM","either","3","282","","","","","","","0","0","1","","0.7907967515","0.4","0.2","0.6","0.8","0.4294971294","0.7930928848","0.3761858397","0.7907967515","","","","","","","","","","","","","","76","L","3","","","89","main_expt",""
"","bandit","169","529443","0.0-131.0-0.0","72755849","wem/bandit_party_2","A26ERTJPV1A1IM","either","3","316","","","","","","","0","1","0","","0.7883246469","0.4","0.2","0.6","0.8","0.4928337868","0.7683039237","0.4799086841","0.7883246469","","","","","","","","","","","","","","76","L","3","","","90","main_expt",""
"","bandit","170","531428","0.0-132.0-0.0","72755849","wem/bandit_party_2","A26ERTJPV1A1IM","either","3","465","","","","","","","1","0","0","0.8389096604","","0.4","0.2","0.6","0.8","","","","","0.5655090935","0.8072091422","0.4558425901","0.8389096604","","","","","","","","","","76","L","3","","","91","main_expt",""
"","bandit","171","533165","0.0-133.0-0.0","72755849","wem/bandit_party_2","A26ERTJPV1A1IM","either","3","200","","","","","","","1","0","0","0.8064187158","","0.4","0.2","0.6","0.8","","","","","0.6154818033","0.7791444337","0.3781515597","0.8064187158","","","","","","","","","","76","L","3","","","92","main_expt",""
"","bandit","172","535173","0.0-134.0-0.0","72755849","wem/bandit_party_2","A26ERTJPV1A1IM","either","3","478","","","","","","","0","1","0","","0.7542368763","0.4","0.2","0.6","0.8","0.7381217307","0.8498372391","0.2858753042","0.7542368763","","","","","","","","","","","","","","76","L","3","","","93","main_expt",""
"","bandit","173","537225","0.0-135.0-0.0","72755849","wem/bandit_party_2","A26ERTJPV1A1IM","either","3","526","","","","","","","1","0","0","0.6932487021","","0.4","0.2","0.6","0.8","","","","","0.7776388333","0.8440610374","0.3914428564","0.6932487021","","","","","","","","","","76","L","3","","","94","main_expt",""
"","bandit","174","539388","0.0-136.0-0.0","72755849","wem/bandit_party_2","A26ERTJPV1A1IM","either","3","642","","","","","","","0","0","1","0.6706070003","","0.4","0.2","0.6","0.8","","","","","0.8299152283","0.8092418145","0.3800018616","0.6706070003","","","","","","","","","","76","L","3","","","95","main_expt",""
"","bandit","175","541344","0.0-137.0-0.0","72755849","wem/bandit_party_2","A26ERTJPV1A1IM","either","3","428","","","","","","","0","0","1","","0.6670251336","0.4","0.2","0.6","0.8","0.7697811485","0.8655172998","0.3078584031","0.6670251336","","","","","","","","","","","","","","76","L","3","","","96","main_expt",""
"","bandit","176","543282","0.0-138.0-0.0","72755849","wem/bandit_party_2","A26ERTJPV1A1IM","either","3","408","","","","","","","0","0","1","","0.7023758817","0.4","0.2","0.6","0.8","0.7487724405","0.8735151232","0.218486712","0.7023758817","","","","","","","","","","","","","","76","L","3","","","97","main_expt",""
"","bandit","177","545449","0.0-139.0-0.0","72755849","wem/bandit_party_2","A26ERTJPV1A1IM","either","3","641","","","","","","","0","1","0","","0.7450583294","0.4","0.2","0.6","0.8","0.7450583294","0.84409386","0.2037628256","0.7036518389","","","","","","","","","","","","","","72","H","0","img/none_selected.jpg","","98","main_expt",""
"","bandit","178","547110","0.0-140.0-0.0","72755849","wem/bandit_party_2","A26ERTJPV1A1IM","either","3","138","","","","","","","0","0","1","0.7227120129","","0.4","0.2","0.6","0.8","","","","","0.7227120129","0.8089648913","0.2400196326","0.8401346726","","","","","","","","","","72","H","0","img/none_selected.jpg","","99","main_expt",""
"","bandit","179","549253","0.0-141.0-0.0","72755849","wem/bandit_party_2","A26ERTJPV1A1IM","either","3","616","","","","","","","0","1","0","","0.5872141049","0.4","0.2","0.6","0.8","0.5872141049","0.7259557377","0.3298222115","0.8640782416","","","","","","","","","","","","","","72","H","0","img/none_selected.jpg","","100","main_expt",""
"","bandit","180","551034","0.0-142.0-0.0","72755849","wem/bandit_party_2","A26ERTJPV1A1IM","either","3","252","","","","","","","0","1","0","","0.6432213136","0.4","0.2","0.6","0.8","0.6432213136","0.6332869741","0.3108047587","0.8232172207","","","","","","","","","","","","","","72","H","0","img/none_selected.jpg","","101","main_expt",""
"","bandit","181","552561","0.0-143.0-0.0","72755849","wem/bandit_party_2","A26ERTJPV1A1IM","either","3","2","","","","","","","0","0","1","","0.6009476408","0.4","0.2","0.6","0.8","0.6009476408","0.659443461","0.2869381514","0.8451901448","","","","","","","","","","","","","","72","H","0","img/none_selected.jpg","","102","main_expt",""
"","bandit","182","554281","0.0-144.0-0.0","72755849","wem/bandit_party_2","A26ERTJPV1A1IM","either","3","198","","","","","","","0","1","0","","0.6120105745","0.4","0.2","0.6","0.8","0.6120105745","0.5959971703","0.246485708","0.8792283932","","","","","","","","","","","","","","72","H","0","img/none_selected.jpg","","103","main_expt",""
"","bandit","183","555948","0.0-145.0-0.0","72755849","wem/bandit_party_2","A26ERTJPV1A1IM","either","3","137","","","","","","","1","0","0","0.6821098495","","0.4","0.2","0.6","0.8","","","","","0.6821098495","0.5643630141","0.2175667678","0.8887181638","","","","","","","","","","72","H","0","img/none_selected.jpg","","104","main_expt",""
"","bandit","184","559489","0.0-146.0-0.0","72755849","wem/bandit_party_2","A26ERTJPV1A1IM","either","3","2018","","","","","","","1","0","0","0.7228510016","","0.4","0.2","0.6","0.8","","","","","0.7228510016","0.5489079514","0.2645808036","0.8013578166","","","","","","","","","","72","H","0","img/none_selected.jpg","","105","main_expt",""
"","bandit","185","562175","0.0-147.0-0.0","72755849","wem/bandit_party_2","A26ERTJPV1A1IM","either","3","1160","","","","","","","1","0","0","0.6639212405","","0.4","0.2","0.6","0.8","","","","","0.6639212405","0.4336033326","0.2652424516","0.7307006529","","","","","","","","","","72","H","0","img/none_selected.jpg","","106","main_expt",""
"","bandit","186","565832","0.0-148.0-0.0","72755849","wem/bandit_party_2","A26ERTJPV1A1IM","either","3","2133","","","","","","","1","0","0","0.6237034742","","0.4","0.2","0.6","0.8","","","","","0.6237034742","0.4779201531","0.2481661544","0.7519500851","","","","","","","","","","72","H","0","img/none_selected.jpg","","107","main_expt",""
"","bandit","187","567466","0.0-149.0-0.0","72755849","wem/bandit_party_2","A26ERTJPV1A1IM","either","3","108","","","","","","","0","0","1","","0.5847293191","0.4","0.2","0.6","0.8","0.5847293191","0.5075294874","0.2361720859","0.7457577851","","","","","","","","","","","","","","72","H","0","img/none_selected.jpg","","108","main_expt",""
"","bandit","188","569053","0.0-150.0-0.0","72755849","wem/bandit_party_2","A26ERTJPV1A1IM","either","3","61","","","","","","","0","0","1","","0.6260859175","0.4","0.2","0.6","0.8","0.6260859175","0.522842385","0.2799679389","0.77583868","","","","","","","","","","","","","","72","H","0","img/none_selected.jpg","","109","main_expt",""
"","bandit","189","571294","0.0-151.0-0.0","72755849","wem/bandit_party_2","A26ERTJPV1A1IM","either","3","712","","","","","","","1","0","0","0.419893696","","0.4","0.2","0.6","0.8","","","","","0.4788227383","0.419893696","0.3333098602","0.7520827962","","","","","","","","","","74","J","1","","","110","main_expt",""
"","bandit","190","573173","0.0-152.0-0.0","72755849","wem/bandit_party_2","A26ERTJPV1A1IM","either","3","349","","","","","","","0","0","1","","0.431092028","0.4","0.2","0.6","0.8","0.6019778282","0.431092028","0.3669732535","0.6512809768","","","","","","","","","","","","","","74","J","1","","","111","main_expt",""
"","bandit","191","575114","0.0-153.0-0.0","72755849","wem/bandit_party_2","A26ERTJPV1A1IM","either","3","412","","","","","","","0","0","1","","0.3590071368","0.4","0.2","0.6","0.8","0.546445977","0.3590071368","0.389765336","0.5891937939","","","","","","","","","","","","","","74","J","1","","","112","main_expt",""
"","bandit","192","578079","0.0-154.0-0.0","72755849","wem/bandit_party_2","A26ERTJPV1A1IM","either","3","1437","","","","","","","0","0","1","0.3191506652","","0.4","0.2","0.6","0.8","","","","","0.6256092846","0.4498419114","0.3191506652","0.6490525038","","","","","","","","","","75","K","2","","","113","main_expt",""
"","bandit","193","580019","0.0-155.0-0.0","72755849","wem/bandit_party_2","A26ERTJPV1A1IM","either","3","410","","","","","","","0","0","1","0.2090321438","","0.4","0.2","0.6","0.8","","","","","0.6577617598","0.4829831469","0.2090321438","0.6283680234","","","","","","","","","","75","K","2","","","114","main_expt",""
"","bandit","194","581892","0.0-156.0-0.0","72755849","wem/bandit_party_2","A26ERTJPV1A1IM","either","3","344","","","","","","","1","0","0","0.6064224059","","0.4","0.2","0.6","0.8","","","","","0.7140476354","0.4846695964","0.2094439124","0.6064224059","","","","","","","","","","76","L","3","","","115","main_expt",""
"","bandit","195","583865","0.0-157.0-0.0","72755849","wem/bandit_party_2","A26ERTJPV1A1IM","either","3","445","","","","","","","1","0","0","0.545813367","","0.4","0.2","0.6","0.8","","","","","0.6589976567","0.5396909338","0.2695181069","0.545813367","","","","","","","","","","76","L","3","","","116","main_expt",""
"","bandit","196","587283","0.0-158.0-0.0","72755849","wem/bandit_party_2","A26ERTJPV1A1IM","either","3","1893","","","","","","","0","0","1","0.5179373022","","0.4","0.2","0.6","0.8","","","","","0.6937703341","0.5378282835","0.3402036285","0.5179373022","","","","","","","","","","76","L","3","","","117","main_expt",""
"","bandit","197","589280","0.0-159.0-0.0","72755849","wem/bandit_party_2","A26ERTJPV1A1IM","either","3","479","","","","","","","0","1","0","","0.4014157923","0.4","0.2","0.6","0.8","0.77114399","0.5729988564","0.3101634078","0.4014157923","","","","","","","","","","","","","","76","L","3","","","118","main_expt",""
"","bandit","198","592238","0.0-160.0-0.0","72755849","wem/bandit_party_2","A26ERTJPV1A1IM","either","3","1435","","","","","","","0","0","1","","0.4360264599","0.4","0.2","0.6","0.8","0.710000291","0.5630251564","0.3242193616","0.4360264599","","","","","","","","","","","","","","76","L","3","","","119","main_expt",""
"","bandit","199","594938","0.0-161.0-0.0","72755849","wem/bandit_party_2","A26ERTJPV1A1IM","either","3","1175","","","","","","","0","0","1","0.3297853269","","0.4","0.2","0.6","0.8","","","","","0.6767982245","0.6482115929","0.3334277272","0.3297853269","","","","","","","","","","76","L","3","","","120","main_expt",""
"","bandit","200","596870","0.0-162.0-0.0","72755849","wem/bandit_party_2","A26ERTJPV1A1IM","either","3","409","","","","","","","0","1","0","","0.7360115258","0.4","0.2","0.6","0.8","0.7360115258","0.5688505083","0.4066521311","0.3767442019","","","","","","","","","","","","","","72","H","0","img/none_selected.jpg","","121","main_expt",""
"","bandit","201","598921","0.0-163.0-0.0","72755849","wem/bandit_party_2","A26ERTJPV1A1IM","either","3","523","","","","","","","0","0","1","0.7258716992","","0.4","0.2","0.6","0.8","","","","","0.7258716992","0.5349597204","0.5193034213","0.3589515546","","","","","","","","","","72","H","0","img/none_selected.jpg","","122","main_expt",""
"","bandit","202","600672","0.0-164.0-0.0","72755849","wem/bandit_party_2","A26ERTJPV1A1IM","either","3","228","","","","","","","0","1","0","","0.7848203729","0.4","0.2","0.6","0.8","0.7848203729","0.412887176","0.5594962391","0.3461890545","","","","","","","","","","","","","","72","H","0","img/none_selected.jpg","","123","main_expt",""
"","bandit","203","602442","0.0-165.0-0.0","72755849","wem/bandit_party_2","A26ERTJPV1A1IM","either","3","241","","","","","","","0","0","1","0.7673004895","","0.4","0.2","0.6","0.8","","","","","0.7673004895","0.4137060999","0.6876014299","0.2287340519","","","","","","","","","","72","H","0","img/none_selected.jpg","","124","main_expt",""
"","bandit","204","604905","0.0-166.0-0.0","72755849","wem/bandit_party_2","A26ERTJPV1A1IM","either","3","940","","","","","","","0","1","0","","0.3226696341","0.4","0.2","0.6","0.8","0.8020703208","0.3226696341","0.7354493796","0.2900718705","","","","","","","","","","","","","","74","J","1","","","125","main_expt",""
"","bandit","205","606909","0.0-167.0-0.0","72755849","wem/bandit_party_2","A26ERTJPV1A1IM","either","3","478","","","","","","","0","1","0","","0.3904211026","0.4","0.2","0.6","0.8","0.8196031782","0.3904211026","0.76840964","0.2880997441","","","","","","","","","","","","","","74","J","1","","","126","main_expt",""
"","bandit","206","608579","0.0-168.0-0.0","72755849","wem/bandit_party_2","A26ERTJPV1A1IM","either","3","147","","","","","","","0","0","1","","0.4227014292","0.4","0.2","0.6","0.8","0.7095492128","0.4227014292","0.7310750685","0.3451069126","","","","","","","","","","","","","","74","J","1","","","127","main_expt",""
"","bandit","207","611406","0.0-169.0-0.0","72755849","wem/bandit_party_2","A26ERTJPV1A1IM","either","3","1306","","","","","","","0","1","0","","0.543317668","0.4","0.2","0.6","0.8","0.711577854","0.543317668","0.6582635175","0.3129298861","","","","","","","","","","","","","","74","J","1","","","128","main_expt",""
"","bandit","208","614334","0.0-170.0-0.0","72755849","wem/bandit_party_2","A26ERTJPV1A1IM","either","3","1406","","","","","","","0","0","1","","0.5906282681","0.4","0.2","0.6","0.8","0.7022761705","0.5906282681","0.7529887683","0.3507055597","","","","","","","","","","","","","","74","J","1","","","129","main_expt",""
"","bandit","209","615907","0.0-171.0-0.0","72755849","wem/bandit_party_2","A26ERTJPV1A1IM","either","3","45","","","","","","","0","1","0","","0.6636268631","0.4","0.2","0.6","0.8","0.7309419319","0.6636268631","0.7929301986","0.3753424236","","","","","","","","","","","","","","74","J","1","","","130","main_expt",""
"","bandit","210","619469","0.0-172.0-0.0","72755849","wem/bandit_party_2","A26ERTJPV1A1IM","either","3","2037","","","","","","","0","0","1","0.5686699027","","0.4","0.2","0.6","0.8","","","","","0.6904825683","0.5686699027","0.8149544693","0.3473486375","","","","","","","","","","74","J","1","","","131","main_expt",""
"","bandit","211","621844","0.0-173.0-0.0","72755849","wem/bandit_party_2","A26ERTJPV1A1IM","either","3","842","","","","","","","0","1","0","","0.6564012045","0.4","0.2","0.6","0.8","0.7153166113","0.6564012045","0.7626544417","0.303679922","","","","","","","","","","","","","","74","J","1","","","132","main_expt",""
"","bandit","212","624651","0.0-174.0-0.0","72755849","wem/bandit_party_2","A26ERTJPV1A1IM","either","3","1275","","","","","","","0","1","0","","0.5876654864","0.4","0.2","0.6","0.8","0.8135501627","0.5876654864","0.7584501248","0.3385565331","","","","","","","","","","","","","","74","J","1","","","133","main_expt",""
"","bandit","213","627573","0.0-175.0-0.0","72755849","wem/bandit_party_2","A26ERTJPV1A1IM","either","3","1395","","","","","","","0","1","0","","0.5299368298","0.4","0.2","0.6","0.8","0.7707892239","0.5299368298","0.7905015291","0.3686406913","","","","","","","","","","","","","","74","J","1","","","134","main_expt",""
"","bandit","214","629832","0.0-176.0-0.0","72755849","wem/bandit_party_2","A26ERTJPV1A1IM","either","3","734","","","","","","","0","0","1","0.4547966061","","0.4","0.2","0.6","0.8","","","","","0.7689088841","0.4547966061","0.7515189777","0.3672202126","","","","","","","","","","74","J","1","","","135","main_expt",""
"","bandit","215","631757","0.0-177.0-0.0","72755849","wem/bandit_party_2","A26ERTJPV1A1IM","either","3","395","","","","","","","0","1","0","","0.5290841583","0.4","0.2","0.6","0.8","0.6641324257","0.5290841583","0.7293518859","0.4064769993","","","","","","","","","","","","","","74","J","1","","","136","main_expt",""
"","bandit","216","633525","0.0-178.0-0.0","72755849","wem/bandit_party_2","A26ERTJPV1A1IM","either","3","242","","","","","","","0","0","1","","0.419904672","0.4","0.2","0.6","0.8","0.635388201","0.419904672","0.7286216209","0.3492503667","","","","","","","","","","","","","","74","J","1","","","137","main_expt",""
"","bandit","217","635170","0.0-179.0-0.0","72755849","wem/bandit_party_2","A26ERTJPV1A1IM","either","3","120","","","","","","","0","0","1","","0.4532768315","0.4","0.2","0.6","0.8","0.6889508363","0.4532768315","0.7425921641","0.3315752647","","","","","","","","","","","","","","74","J","1","","","138","main_expt",""
"","bandit","218","637589","0.0-180.0-0.0","72755849","wem/bandit_party_2","A26ERTJPV1A1IM","either","3","892","","","","","","","0","0","1","0.7356638012","","0.4","0.2","0.6","0.8","","","","","0.6481427694","0.4194835996","0.7356638012","0.3080831972","","","","","","","","","","75","K","2","","","139","main_expt",""
"","bandit","219","640824","0.0-181.0-0.0","72755849","wem/bandit_party_2","A26ERTJPV1A1IM","either","3","1705","","","","","","","0","0","1","","0.3254670704","0.4","0.2","0.6","0.8","0.6497449761","0.420008375","0.7334346803","0.3254670704","","","","","","","","","","","","","","76","L","3","","","140","main_expt",""
"","bandit","220","642909","0.0-182.0-0.0","72755849","wem/bandit_party_2","A26ERTJPV1A1IM","either","3","555","","","","","","","0","0","1","0.7328205829","","0.4","0.2","0.6","0.8","","","","","0.7328205829","0.3908595681","0.7737071977","0.3452870884","","","","","","","","","","72","H","0","img/none_selected.jpg","","141","main_expt",""
"","bandit","221","644807","0.0-183.0-0.0","72755849","wem/bandit_party_2","A26ERTJPV1A1IM","either","3","374","","","","","","","0","1","0","","0.6396752577","0.4","0.2","0.6","0.8","0.6396752577","0.3994278682","0.7912630164","0.2659846132","","","","","","","","","","","","","","72","H","0","img/none_selected.jpg","","142","main_expt",""
"","bandit","222","646975","0.0-184.0-0.0","72755849","wem/bandit_party_2","A26ERTJPV1A1IM","either","3","639","","","","","","","1","0","0","0.5974809775","","0.4","0.2","0.6","0.8","","","","","0.5974809775","0.3137486051","0.7709923268","0.2549781044","","","","","","","","","","72","H","0","img/none_selected.jpg","","143","main_expt",""
"","bandit","223","648864","0.0-185.0-0.0","72755849","wem/bandit_party_2","A26ERTJPV1A1IM","either","3","370","","","","","","","0","1","0","","0.5953980303","0.4","0.2","0.6","0.8","0.5953980303","0.3961992406","0.7492848764","0.3603981418","","","","","","","","","","","","","","72","H","0","img/none_selected.jpg","","144","main_expt",""
"","bandit","224","650779","0.0-186.0-0.0","72755849","wem/bandit_party_2","A26ERTJPV1A1IM","either","3","385","","","","","","","0","1","0","","0.6215671736","0.4","0.2","0.6","0.8","0.6215671736","0.3186856111","0.7343485297","0.3682949958","","","","","","","","","","","","","","72","H","0","img/none_selected.jpg","","145","main_expt",""
"","bandit","225","652416","0.0-187.0-0.0","72755849","wem/bandit_party_2","A26ERTJPV1A1IM","either","3","103","","","","","","","0","0","1","","0.5766937592","0.4","0.2","0.6","0.8","0.5766937592","0.2724247948","0.7701032705","0.5028772858","","","","","","","","","","","","","","72","H","0","img/none_selected.jpg","","146","main_expt",""
"","bandit","226","654439","0.0-188.0-0.0","72755849","wem/bandit_party_2","A26ERTJPV1A1IM","either","3","494","","","","","","","0","0","1","0.4600492943","","0.4","0.2","0.6","0.8","","","","","0.4600492943","0.2844288079","0.7521601774","0.4186890645","","","","","","","","","","72","H","0","img/none_selected.jpg","","147","main_expt",""
"","bandit","227","656330","0.0-189.0-0.0","72755849","wem/bandit_party_2","A26ERTJPV1A1IM","either","3","367","","","","","","","0","0","1","","0.3095389551","0.4","0.2","0.6","0.8","0.4575448178","0.3095389551","0.7762143641","0.3928328601","","","","","","","","","","","","","","74","J","1","","","148","main_expt",""
"","bandit","228","658311","0.0-190.0-0.0","72755849","wem/bandit_party_2","A26ERTJPV1A1IM","either","3","450","","","","","","","0","0","1","","0.2464654743","0.4","0.2","0.6","0.8","0.3840278576","0.2464654743","0.716016993","0.4220063763","","","","","","","","","","","","","","74","J","1","","","149","main_expt",""
"","bandit","229","660146","0.0-191.0-0.0","72755849","wem/bandit_party_2","A26ERTJPV1A1IM","either","3","303","","","","","","","0","1","0","","0.7182774931","0.4","0.2","0.6","0.8","0.3004406684","0.2088091358","0.7182774931","0.3206822378","","","","","","","","","","","","","","75","K","2","","","150","main_expt",""
"","bandit","230","661998","0.0-192.0-0.0","72755849","wem/bandit_party_2","A26ERTJPV1A1IM","either","3","325","","","","","","","0","1","0","","0.8028216805","0.4","0.2","0.6","0.8","0.2769981479","0.2670014618","0.8028216805","0.3380172956","","","","","","","","","","","","","","75","K","2","","","151","main_expt",""
"","bandit","231","663787","0.0-193.0-0.0","72755849","wem/bandit_party_2","A26ERTJPV1A1IM","either","3","265","","","","","","","0","1","0","","0.8634692279","0.4","0.2","0.6","0.8","0.40565407","0.3100930243","0.8634692279","0.2461440624","","","","","","","","","","","","","","75","K","2","","","152","main_expt",""
"","bandit","232","665975","0.0-194.0-0.0","72755849","wem/bandit_party_2","A26ERTJPV1A1IM","either","3","658","","","","","","","0","1","0","","0.7719190238","0.4","0.2","0.6","0.8","0.3829351634","0.3796096158","0.7719190238","0.1852716423","","","","","","","","","","","","","","75","K","2","","","153","main_expt",""
"","bandit","233","667954","0.0-195.0-0.0","72755849","wem/bandit_party_2","A26ERTJPV1A1IM","either","3","445","","","","","","","1","0","0","0.8343429945","","0.4","0.2","0.6","0.8","","","","","0.4912137185","0.2265028128","0.8343429945","0.1660439368","","","","","","","","","","75","K","2","","","154","main_expt",""
"","bandit","234","670402","0.0-196.0-0.0","72755849","wem/bandit_party_2","A26ERTJPV1A1IM","either","3","923","","","","","","","0","0","1","","0.7908731232","0.4","0.2","0.6","0.8","0.5312535156","0.2135741777","0.7908731232","0.2241607793","","","","","","","","","","","","","","75","K","2","","","155","main_expt",""
"","bandit","235","672541","0.0-197.0-0.0","72755849","wem/bandit_party_2","A26ERTJPV1A1IM","either","3","608","","","","","","","0","0","1","0.7848911391","","0.4","0.2","0.6","0.8","","","","","0.5747898199","0.1338357519","0.7848911391","0.1566338899","","","","","","","","","","75","K","2","","","156","main_expt",""
"","bandit","236","674441","0.0-198.0-0.0","72755849","wem/bandit_party_2","A26ERTJPV1A1IM","either","3","374","","","","","","","0","0","1","0.1839373886","","0.4","0.2","0.6","0.8","","","","","0.5948125822","0.1344370697","0.7467155263","0.1839373886","","","","","","","","","","76","L","3","","","157","main_expt",""
"","bandit","237","676181","0.0-199.0-0.0","72755849","wem/bandit_party_2","A26ERTJPV1A1IM","either","3","210","","","","","","","0","1","0","","0.1217930933","0.4","0.2","0.6","0.8","0.6533804049","0.1217930933","0.7413618202","0.155802242","","","","","","","","","","","","","","74","J","1","","","158","main_expt",""
"","bandit","238","678133","0.0-200.0-0.0","72755849","wem/bandit_party_2","A26ERTJPV1A1IM","either","3","424","","","","","","","0","0","1","","0.08524485746","0.4","0.2","0.6","0.8","0.5777198579","0.08524485746","0.6882043704","0.2304237345","","","","","","","","","","","","","","74","J","1","","","159","main_expt",""
"","bandit","239","680002","0.0-201.0-0.0","72755849","wem/bandit_party_2","A26ERTJPV1A1IM","either","3","335","","","","","","","0","0","1","","0.07332219892","0.4","0.2","0.6","0.8","0.6777741118","0.07332219892","0.7253096401","0.2242026456","","","","","","","","","","","","","","74","J","1","","","160","main_expt",""
"","bandit","240","681663","0.0-202.0-0.0","72755849","wem/bandit_party_2","A26ERTJPV1A1IM","either","3","135","","","","","","","1","0","0","0.6249074267","","0.4","0.2","0.6","0.8","","","","","0.6249074267","0.1063489691","0.6989182833","0.2708915048","","","","","","","","","","72","H","0","img/none_selected.jpg","","161","main_expt",""
"","bandit","241","683517","0.0-203.0-0.0","72755849","wem/bandit_party_2","A26ERTJPV1A1IM","either","3","325","","","","","","","1","0","0","0.6755041601","","0.4","0.2","0.6","0.8","","","","","0.6755041601","0.09670310095","0.7679575172","0.2921592604","","","","","","","","","","72","H","0","img/none_selected.jpg","","162","main_expt",""
"","bandit","242","685385","0.0-204.0-0.0","72755849","wem/bandit_party_2","A26ERTJPV1A1IM","either","3","319","","","","","","","0","0","1","","0.6461818487","0.4","0.2","0.6","0.8","0.6461818487","0.1266359811","0.6877390752","0.2050535257","","","","","","","","","","","","","","72","H","0","img/none_selected.jpg","","163","main_expt",""
"","bandit","243","687223","0.0-205.0-0.0","72755849","wem/bandit_party_2","A26ERTJPV1A1IM","either","3","307","","","","","","","0","1","0","","0.76368027","0.4","0.2","0.6","0.8","0.76368027","0.1212611996","0.6957575266","0.1998759094","","","","","","","","","","","","","","72","H","0","img/none_selected.jpg","","164","main_expt",""
"","bandit","244","689134","0.0-206.0-0.0","72755849","wem/bandit_party_2","A26ERTJPV1A1IM","either","3","386","","","","","","","0","1","0","","0.8400099296","0.4","0.2","0.6","0.8","0.8400099296","0.1917887173","0.6760148625","0.1821974317","","","","","","","","","","","","","","72","H","0","img/none_selected.jpg","","165","main_expt",""
"","bandit","245","690954","0.0-207.0-0.0","72755849","wem/bandit_party_2","A26ERTJPV1A1IM","either","3","292","","","","","","","0","1","0","","0.8573275969","0.4","0.2","0.6","0.8","0.8573275969","0.1560613016","0.6463317238","0.2916844583","","","","","","","","","","","","","","72","H","0","img/none_selected.jpg","","166","main_expt",""
"","bandit","246","692930","0.0-208.0-0.0","72755849","wem/bandit_party_2","A26ERTJPV1A1IM","either","3","448","","","","","","","0","1","0","","0.7735369509","0.4","0.2","0.6","0.8","0.7735369509","0.2214887095","0.5613055562","0.3087465624","","","","","","","","","","","","","","72","H","0","img/none_selected.jpg","","167","main_expt",""
"","bandit","247","694959","0.0-209.0-0.0","72755849","wem/bandit_party_2","A26ERTJPV1A1IM","either","3","504","","","","","","","0","1","0","","0.8091314607","0.4","0.2","0.6","0.8","0.8091314607","0.3463453368","0.5586162784","0.3896626528","","","","","","","","","","","","","","72","H","0","img/none_selected.jpg","","168","main_expt",""
"","bandit","248","696641","0.0-210.0-0.0","72755849","wem/bandit_party_2","A26ERTJPV1A1IM","either","3","157","","","","","","","0","1","0","","0.8364166478","0.4","0.2","0.6","0.8","0.8364166478","0.3222551453","0.597448185","0.4458805252","","","","","","","","","","","","","","72","H","0","img/none_selected.jpg","","169","main_expt",""
"","bandit","249","699262","0.0-211.0-0.0","72755849","wem/bandit_party_2","A26ERTJPV1A1IM","either","3","1098","","","","","","","0","1","0","","0.7867883415","0.4","0.2","0.6","0.8","0.7867883415","0.2556410415","0.5351242352","0.4844269655","","","","","","","","","","","","","","72","H","0","img/none_selected.jpg","","170","main_expt",""
"","bandit","250","701278","0.0-212.0-0.0","72755849","wem/bandit_party_2","A26ERTJPV1A1IM","either","3","490","","","","","","","0","1","0","","0.8728822524","0.4","0.2","0.6","0.8","0.8728822524","0.2248109201","0.4819966971","0.4858642724","","","","","","","","","","","","","","72","H","0","img/none_selected.jpg","","171","main_expt",""
"","bandit","251","703624","0.0-213.0-0.0","72755849","wem/bandit_party_2","A26ERTJPV1A1IM","either","3","821","","","","","","","0","0","1","","0.7804912391","0.4","0.2","0.6","0.8","0.7804912391","0.3468742366","0.4038669266","0.5060245996","","","","","","","","","","","","","","72","H","0","img/none_selected.jpg","","172","main_expt",""
"","bandit","252","705213","0.0-214.0-0.0","72755849","wem/bandit_party_2","A26ERTJPV1A1IM","either","3","55","","","","","","","1","0","0","0.7728490534","","0.4","0.2","0.6","0.8","","","","","0.7728490534","0.234408543","0.3102533384","0.5413528159","","","","","","","","","","72","H","0","img/none_selected.jpg","","173","main_expt",""
"","bandit","253","707313","0.0-215.0-0.0","72755849","wem/bandit_party_2","A26ERTJPV1A1IM","either","3","568","","","","","","","0","0","1","0.814185781","","0.4","0.2","0.6","0.8","","","","","0.814185781","0.1404050277","0.3818943333","0.6505326818","","","","","","","","","","72","H","0","img/none_selected.jpg","","174","main_expt",""
"","bandit","254","708922","0.0-216.0-0.0","72755849","wem/bandit_party_2","A26ERTJPV1A1IM","either","3","76","","","","","","","0","1","0","","0.8010682597","0.4","0.2","0.6","0.8","0.8010682597","0.1081611795","0.2893198216","0.6470977149","","","","","","","","","","","","","","72","H","0","img/none_selected.jpg","","175","main_expt",""
"","bandit","255","710632","0.0-217.0-0.0","72755849","wem/bandit_party_2","A26ERTJPV1A1IM","either","3","186","","","","","","","0","1","0","","0.7083228223","0.4","0.2","0.6","0.8","0.7083228223","0.0730283124","0.226416223","0.6844229635","","","","","","","","","","","","","","72","H","0","img/none_selected.jpg","","176","main_expt",""
"","bandit","256","712420","0.0-218.0-0.0","72755849","wem/bandit_party_2","A26ERTJPV1A1IM","either","3","256","","","","","","","0","1","0","","0.7408938443","0.4","0.2","0.6","0.8","0.7408938443","0.07044941978","0.2786676386","0.6883244284","","","","","","","","","","","","","","72","H","0","img/none_selected.jpg","","177","main_expt",""
"","bandit","257","716726","0.0-219.0-0.0","72755849","wem/bandit_party_2","A26ERTJPV1A1IM","either","3","2763","","","","","","","0","0","1","","0.6621187214","0.4","0.2","0.6","0.8","0.6621187214","0.06886985111","0.2279078815","0.6098590842","","","","","","","","","","","","","","72","H","0","img/none_selected.jpg","","178","main_expt",""
"","bandit","258","720029","0.0-220.0-0.0","72755849","wem/bandit_party_2","A26ERTJPV1A1IM","either","3","1778","","","","","","","0","0","1","","0.07254371148","0.4","0.2","0.6","0.8","0.6765487854","0.07254371148","0.1690126781","0.5924449164","","","","","","","","","","","","","","74","J","1","","","179","main_expt",""
"","bandit","259","722603","0.0-221.0-0.0","72755849","wem/bandit_party_2","A26ERTJPV1A1IM","either","3","1051","","","","","","","0","0","1","","0.055057054","0.4","0.2","0.6","0.8","0.7276027883","0.055057054","0.1356066944","0.4915111467","","","","","","","","","","","","","","74","J","1","","","180","main_expt",""
"","bandit","260","726119","0.0-222.0-0.0","72755849","wem/bandit_party_2","A26ERTJPV1A1IM","either","3","1970","","","","","","","0","0","1","0.1889441784","","0.4","0.2","0.6","0.8","","","","","0.7083410305","0.1187845962","0.1889441784","0.4713933083","","","","","","","","","","75","K","2","","","181","main_expt",""
"","bandit","261","727902","0.0-223.0-0.0","72755849","wem/bandit_party_2","A26ERTJPV1A1IM","either","3","256","","","","","","","0","0","1","0.500114893","","0.4","0.2","0.6","0.8","","","","","0.6489729838","0.1304227184","0.2163976064","0.500114893","","","","","","","","","","76","L","3","","","182","main_expt",""
"","bandit","262","730759","0.0-224.0-0.0","72755849","wem/bandit_party_2","A26ERTJPV1A1IM","either","3","1320","","","","","","","1","0","0","0.4949273894","","0.4","0.2","0.6","0.8","","","","","0.6956751073","0.1374638341","0.1902524086","0.4949273894","","","","","","","","","","76","L","3","","","183","main_expt",""
"","bandit","263","733053","0.0-225.0-0.0","72755849","wem/bandit_party_2","A26ERTJPV1A1IM","either","3","766","","","","","","","0","0","1","0.4271361476","","0.4","0.2","0.6","0.8","","","","","0.6066537109","0.1914365344","0.2265805791","0.4271361476","","","","","","","","","","76","L","3","","","184","main_expt",""
"","bandit","264","735841","0.0-226.0-0.0","72755849","wem/bandit_party_2","A26ERTJPV1A1IM","either","3","1263","","","","","","","1","0","0","0.4558255176","","0.4","0.2","0.6","0.8","","","","","0.6337362372","0.1939872458","0.1843452782","0.4558255176","","","","","","","","","","76","L","3","","","185","main_expt",""
"","bandit","265","737749","0.0-227.0-0.0","72755849","wem/bandit_party_2","A26ERTJPV1A1IM","either","3","376","","","","","","","0","0","1","0.4031301461","","0.4","0.2","0.6","0.8","","","","","0.5908962551","0.2219937035","0.1898387663","0.4031301461","","","","","","","","","","76","L","3","","","186","main_expt",""
"","bandit","266","739658","0.0-228.0-0.0","72755849","wem/bandit_party_2","A26ERTJPV1A1IM","either","3","379","","","","","","","0","1","0","","0.7651761031","0.4","0.2","0.6","0.8","0.7651761031","0.2024523472","0.210498268","0.3993697366","","","","","","","","","","","","","","72","H","0","img/none_selected.jpg","","187","main_expt",""
"","bandit","267","741815","0.0-229.0-0.0","72755849","wem/bandit_party_2","A26ERTJPV1A1IM","either","3","623","","","","","","","1","0","0","0.7928336054","","0.4","0.2","0.6","0.8","","","","","0.7928336054","0.1930401344","0.2368649008","0.4478687375","","","","","","","","","","72","H","0","img/none_selected.jpg","","188","main_expt",""
"","bandit","268","744217","0.0-230.0-0.0","72755849","wem/bandit_party_2","A26ERTJPV1A1IM","either","3","872","","","","","","","0","1","0","","0.8917358491","0.4","0.2","0.6","0.8","0.8917358491","0.3255404916","0.291591963","0.3699601256","","","","","","","","","","","","","","72","H","0","img/none_selected.jpg","","189","main_expt",""
"","bandit","269","747188","0.0-231.0-0.0","72755849","wem/bandit_party_2","A26ERTJPV1A1IM","either","3","1440","","","","","","","1","0","0","0.898448025","","0.4","0.2","0.6","0.8","","","","","0.898448025","0.2364063212","0.4411779124","0.3723251068","","","","","","","","","","72","H","0","img/none_selected.jpg","","190","main_expt",""
"","bandit","270","749916","0.0-232.0-0.0","72755849","wem/bandit_party_2","A26ERTJPV1A1IM","either","3","1191","","","","","","","0","1","0","","0.9186708851","0.4","0.2","0.6","0.8","0.9186708851","0.2662767285","0.3968704403","0.3309849287","","","","","","","","","","","","","","72","H","0","img/none_selected.jpg","","191","main_expt",""
"","bandit","271","752582","0.0-233.0-0.0","72755849","wem/bandit_party_2","A26ERTJPV1A1IM","either","3","1141","","","","","","","1","0","0","0.9314477517","","0.4","0.2","0.6","0.8","","","","","0.9314477517","0.2815174114","0.4512817608","0.2865625263","","","","","","","","","","72","H","0","img/none_selected.jpg","","192","main_expt",""
"","bandit","272","755122","0.0-234.0-0.0","72755849","wem/bandit_party_2","A26ERTJPV1A1IM","either","3","1009","","","","","","","0","1","0","","0.9090465067","0.4","0.2","0.6","0.8","0.9090465067","0.3461293965","0.4788006455","0.2862811746","","","","","","","","","","","","","","72","H","0","img/none_selected.jpg","","193","main_expt",""
"","bandit","273","757222","0.0-235.0-0.0","72755849","wem/bandit_party_2","A26ERTJPV1A1IM","either","3","573","","","","","","","1","0","0","0.8762249788","","0.4","0.2","0.6","0.8","","","","","0.8762249788","0.3303735913","0.4651889587","0.2785288642","","","","","","","","","","72","H","0","img/none_selected.jpg","","194","main_expt",""
"","bandit","274","759517","0.0-236.0-0.0","72755849","wem/bandit_party_2","A26ERTJPV1A1IM","either","3","768","","","","","","","1","0","0","0.8623185747","","0.4","0.2","0.6","0.8","","","","","0.8623185747","0.3194565039","0.4718629942","0.2283941808","","","","","","","","","","72","H","0","img/none_selected.jpg","","195","main_expt",""
"","bandit","275","761842","0.0-237.0-0.0","72755849","wem/bandit_party_2","A26ERTJPV1A1IM","either","3","792","","","","","","","1","0","0","0.7745977574","","0.4","0.2","0.6","0.8","","","","","0.7745977574","0.4103944464","0.3825708332","0.214282227","","","","","","","","","","72","H","0","img/none_selected.jpg","","196","main_expt",""
"","bandit","276","763810","0.0-238.0-0.0","72755849","wem/bandit_party_2","A26ERTJPV1A1IM","either","3","442","","","","","","","0","1","0","","0.7723069829","0.4","0.2","0.6","0.8","0.7723069829","0.4445726534","0.4530864699","0.1422959513","","","","","","","","","","","","","","72","H","0","img/none_selected.jpg","","197","main_expt",""
"","bandit","277","767419","0.0-239.0-0.0","72755849","wem/bandit_party_2","A26ERTJPV1A1IM","either","3","2080","","","","","","","0","1","0","","0.7084082875","0.4","0.2","0.6","0.8","0.7084082875","0.4351718099","0.4337652667","0.1126324943","","","","","","","","","","","","","","72","H","0","img/none_selected.jpg","","198","main_expt",""
"","bandit","278","769524","0.0-240.0-0.0","72755849","wem/bandit_party_2","A26ERTJPV1A1IM","either","3","574","","","","","","","1","0","0","0.7016883558","","0.4","0.2","0.6","0.8","","","","","0.7016883558","0.4641294157","0.4138332966","0.1144166609","","","","","","","","","","72","H","0","img/none_selected.jpg","","199","main_expt",""
"","bandit","279","771515","0.0-241.0-0.0","72755849","wem/bandit_party_2","A26ERTJPV1A1IM","either","3","450","","","","","","","0","1","0","","0.6504384346","0.4","0.2","0.6","0.8","0.6504384346","0.4468687069","0.5005175686","0.1518003708","","","","","","","","","","","","","","72","H","0","img/none_selected.jpg","","200","main_expt",""
"","bandit","280","773572","0.0-242.0-0.0","72755849","wem/bandit_party_2","A26ERTJPV1A1IM","either","3","518","","","","","","","0","1","0","","0.7904945102","0.4","0.2","0.6","0.8","0.7904945102","0.5087435212","0.5122642399","0.1974433607","","","","","","","","","","","","","","72","H","0","img/none_selected.jpg","","201","main_expt",""
"","bandit","281","775499","0.0-243.0-0.0","72755849","wem/bandit_party_2","A26ERTJPV1A1IM","either","3","393","","","","","","","0","1","0","","0.7039472437","0.4","0.2","0.6","0.8","0.7039472437","0.4992132835","0.5414597976","0.2000842809","","","","","","","","","","","","","","72","H","0","img/none_selected.jpg","","202","main_expt",""
"","bandit","282","777398","0.0-244.0-0.0","72755849","wem/bandit_party_2","A26ERTJPV1A1IM","either","3","367","","","","","","","0","1","0","","0.7478807213","0.4","0.2","0.6","0.8","0.7478807213","0.4859842053","0.4993649945","0.1715580826","","","","","","","","","","","","","","72","H","0","img/none_selected.jpg","","203","main_expt",""
"","bandit","283","779254","0.0-245.0-0.0","72755849","wem/bandit_party_2","A26ERTJPV1A1IM","either","3","321","","","","","","","1","0","0","0.7346150791","","0.4","0.2","0.6","0.8","","","","","0.7346150791","0.6162755314","0.4056752737","0.3028604286","","","","","","","","","","72","H","0","img/none_selected.jpg","","204","main_expt",""
"","bandit","284","781069","0.0-246.0-0.0","72755849","wem/bandit_party_2","A26ERTJPV1A1IM","either","3","288","","","","","","","1","0","0","0.7240623961","","0.4","0.2","0.6","0.8","","","","","0.7240623961","0.6204906845","0.4174768156","0.3714949669","","","","","","","","","","72","H","0","img/none_selected.jpg","","205","main_expt",""
"","bandit","285","782973","0.0-247.0-0.0","72755849","wem/bandit_party_2","A26ERTJPV1A1IM","either","3","378","","","","","","","0","1","0","","0.733657826","0.4","0.2","0.6","0.8","0.733657826","0.6390595606","0.4364097613","0.3034865557","","","","","","","","","","","","","","72","H","0","img/none_selected.jpg","","206","main_expt",""
"","bandit","286","785197","0.0-248.0-0.0","72755849","wem/bandit_party_2","A26ERTJPV1A1IM","either","3","697","","","","","","","1","0","0","0.6797091947","","0.4","0.2","0.6","0.8","","","","","0.6797091947","0.6022157482","0.4666062126","0.2688105372","","","","","","","","","","72","H","0","img/none_selected.jpg","","207","main_expt",""
"","bandit","287","786835","0.0-249.0-0.0","72755849","wem/bandit_party_2","A26ERTJPV1A1IM","either","3","102","","","","","","","0","0","1","","0.472157919","0.4","0.2","0.6","0.8","0.472157919","0.6598502583","0.4594719295","0.2240001326","","","","","","","","","","","","","","72","H","0","img/none_selected.jpg","","208","main_expt",""
"","bandit","288","788470","0.0-250.0-0.0","72755849","wem/bandit_party_2","A26ERTJPV1A1IM","either","3","101","","","","","","","1","0","0","0.4993955773","","0.4","0.2","0.6","0.8","","","","","0.4993955773","0.6329069529","0.5415101973","0.3284172364","","","","","","","","","","72","H","0","img/none_selected.jpg","","209","main_expt",""
"","bandit","289","790721","0.0-251.0-0.0","72755849","wem/bandit_party_2","A26ERTJPV1A1IM","either","3","715","","","","","","","0","0","1","","0.3923888982","0.4","0.2","0.6","0.8","0.3923888982","0.5418549626","0.5627952802","0.3178667136","","","","","","","","","","","","","","72","H","0","img/none_selected.jpg","","210","main_expt",""
"","bandit","290","792381","0.0-252.0-0.0","72755849","wem/bandit_party_2","A26ERTJPV1A1IM","either","3","127","","","","","","","0","0","1","0.4183885941","","0.4","0.2","0.6","0.8","","","","","0.4183885941","0.7265410197","0.5779033475","0.278360526","","","","","","","","","","72","H","0","img/none_selected.jpg","","211","main_expt",""
"","bandit","291","795269","0.0-253.0-0.0","72755849","wem/bandit_party_2","A26ERTJPV1A1IM","either","3","1363","","","","","","","0","1","0","","0.6550819281","0.4","0.2","0.6","0.8","0.5367383083","0.6550819281","0.6169713091","0.2720231684","","","","","","","","","","","","","","74","J","1","","","212","main_expt",""
"","bandit","292","797092","0.0-254.0-0.0","72755849","wem/bandit_party_2","A26ERTJPV1A1IM","either","3","290","","","","","","","0","0","1","","0.5812500281","0.4","0.2","0.6","0.8","0.5779451767","0.5812500281","0.5688165975","0.3445332441","","","","","","","","","","","","","","74","J","1","","","213","main_expt",""
"","bandit","293","798622","0.0-255.0-0.0","72755849","wem/bandit_party_2","A26ERTJPV1A1IM","either","3","1","","","","","","","0","0","1","0.6912727382","","0.4","0.2","0.6","0.8","","","","","0.5615700258","0.6912727382","0.5354690829","0.331154659","","","","","","","","","","74","J","1","","","214","main_expt",""
"","bandit","294","800547","0.0-256.0-0.0","72755849","wem/bandit_party_2","A26ERTJPV1A1IM","either","3","395","","","","","","","0","0","1","0.4395706401","","0.4","0.2","0.6","0.8","","","","","0.5361399643","0.695573978","0.4395706401","0.3168016653","","","","","","","","","","75","K","2","","","215","main_expt",""
"","bandit","295","802097","0.0-257.0-0.0","72755849","wem/bandit_party_2","A26ERTJPV1A1IM","either","3","20","","","","","","","0","0","1","","0.4522294324","0.4","0.2","0.6","0.8","0.620750855","0.6531454011","0.4522294324","0.2870858596","","","","","","","","","","","","","","75","K","2","","","216","main_expt",""
"","bandit","296","803979","0.0-258.0-0.0","72755849","wem/bandit_party_2","A26ERTJPV1A1IM","either","3","350","","","","","","","1","0","0","0.2877345098","","0.4","0.2","0.6","0.8","","","","","0.4812239037","0.6459690495","0.4141575353","0.2877345098","","","","","","","","","","76","L","3","","","217","main_expt",""
"","bandit","297","805997","0.0-259.0-0.0","72755849","wem/bandit_party_2","A26ERTJPV1A1IM","either","3","482","","","","","","","0","0","1","","0.3608492067","0.4","0.2","0.6","0.8","0.4028497994","0.6679944541","0.3009722504","0.3608492067","","","","","","","","","","","","","","76","L","3","","","218","main_expt",""
"","bandit","298","807544","0.0-260.0-0.0","72755849","wem/bandit_party_2","A26ERTJPV1A1IM","either","3","18","","","","","","","0","0","1","0.4380407461","","0.4","0.2","0.6","0.8","","","","","0.4441021312","0.7159195147","0.2706893249","0.4380407461","","","","","","","","","","76","L","3","","","219","main_expt",""
"","bandit","299","809425","0.0-261.0-0.0","72755849","wem/bandit_party_2","A26ERTJPV1A1IM","either","3","342","","","","","","","0","0","1","0.4769938592","","0.4","0.2","0.6","0.8","","","","","0.4867825248","0.6874484601","0.3821277721","0.4769938592","","","","","","","","","","76","L","3","","","220","main_expt",""
"","bandit","300","811071","0.0-262.0-0.0","72755849","wem/bandit_party_2","A26ERTJPV1A1IM","either","3","116","","","","","","","0","1","0","","0.5428062785","0.4","0.2","0.6","0.8","0.5428062785","0.6528128226","0.4534214389","0.4612627877","","","","","","","","","","","","","","72","H","0","img/none_selected.jpg","","221","main_expt",""
"","bandit","301","813506","0.0-263.0-0.0","72755849","wem/bandit_party_2","A26ERTJPV1A1IM","either","3","900","","","","","","","1","0","0","0.5993321864","","0.4","0.2","0.6","0.8","","","","","0.5993321864","0.6836467719","0.6049712458","0.4192901336","","","","","","","","","","72","H","0","img/none_selected.jpg","","222","main_expt",""
"","bandit","302","815957","0.0-264.0-0.0","72755849","wem/bandit_party_2","A26ERTJPV1A1IM","either","3","911","","","","","","","1","0","0","0.4920604154","","0.4","0.2","0.6","0.8","","","","","0.4920604154","0.7820879334","0.6389506418","0.5559965486","","","","","","","","","","72","H","0","img/none_selected.jpg","","223","main_expt",""
"","bandit","303","817666","0.0-265.0-0.0","72755849","wem/bandit_party_2","A26ERTJPV1A1IM","either","3","181","","","","","","","1","0","0","0.5344282052","","0.4","0.2","0.6","0.8","","","","","0.5344282052","0.763226653","0.6677375732","0.6687933923","","","","","","","","","","72","H","0","img/none_selected.jpg","","224","main_expt",""
"","bandit","304","820612","0.0-266.0-0.0","72755849","wem/bandit_party_2","A26ERTJPV1A1IM","either","3","1409","","","","","","","0","0","1","","0.5583452501","0.4","0.2","0.6","0.8","0.5583452501","0.6931961842","0.7706853934","0.5954484576","","","","","","","","","","","","","","72","H","0","img/none_selected.jpg","","225","main_expt",""
"","bandit","305","822317","0.0-267.0-0.0","72755849","wem/bandit_party_2","A26ERTJPV1A1IM","either","3","170","","","","","","","0","1","0","","0.5126042404","0.4","0.2","0.6","0.8","0.5126042404","0.6633974694","0.7624197083","0.6152447968","","","","","","","","","","","","","","72","H","0","img/none_selected.jpg","","226","main_expt",""
"","bandit","306","824245","0.0-268.0-0.0","72755849","wem/bandit_party_2","A26ERTJPV1A1IM","either","3","396","","","","","","","0","0","1","","0.5720595628","0.4","0.2","0.6","0.8","0.5720595628","0.6567175756","0.7287840805","0.6597553912","","","","","","","","","","","","","","72","H","0","img/none_selected.jpg","","227","main_expt",""
"","bandit","307","826030","0.0-269.0-0.0","72755849","wem/bandit_party_2","A26ERTJPV1A1IM","either","3","252","","","","","","","0","0","1","","0.6134710885","0.4","0.2","0.6","0.8","0.6134710885","0.6052730858","0.7993891034","0.594895186","","","","","","","","","","","","","","72","H","0","img/none_selected.jpg","","228","main_expt",""
"","bandit","308","828929","0.0-270.0-0.0","72755849","wem/bandit_party_2","A26ERTJPV1A1IM","either","3","1364","","","","","","","0","0","1","","0.5548990383","0.4","0.2","0.6","0.8","0.5669106804","0.5548990383","0.8374027748","0.5722559027","","","","","","","","","","","","","","74","J","1","","","229","main_expt",""
"","bandit","309","832190","0.0-271.0-0.0","72755849","wem/bandit_party_2","A26ERTJPV1A1IM","either","3","1731","","","","","","","0","0","1","","0.8414873787","0.4","0.2","0.6","0.8","0.6286782819","0.6017114108","0.8414873787","0.5409090622","","","","","","","","","","","","","","75","K","2","","","230","main_expt",""
"","bandit","310","836057","0.0-272.0-0.0","72755849","wem/bandit_party_2","A26ERTJPV1A1IM","either","3","2337","","","","","","","0","0","1","0.518727512","","0.4","0.2","0.6","0.8","","","","","0.5594948871","0.5525336349","0.8531648874","0.518727512","","","","","","","","","","76","L","3","","","231","main_expt",""
"","bandit","311","839378","0.0-273.0-0.0","72755849","wem/bandit_party_2","A26ERTJPV1A1IM","either","3","1794","","","","","","","0","0","1","","0.5200298571","0.4","0.2","0.6","0.8","0.5817998964","0.4493361955","0.8813812612","0.5200298571","","","","","","","","","","","","","","76","L","3","","","232","main_expt",""
"","bandit","312","841003","0.0-274.0-0.0","72755849","wem/bandit_party_2","A26ERTJPV1A1IM","either","3","97","","","","","","","0","0","1","0.5971875981","","0.4","0.2","0.6","0.8","","","","","0.5971875981","0.5280832246","0.8916766345","0.4564343731","","","","","","","","","","72","H","0","img/none_selected.jpg","","233","main_expt",""
"","bandit","313","842982","0.0-275.0-0.0","72755849","wem/bandit_party_2","A26ERTJPV1A1IM","either","3","442","","","","","","","0","0","1","0.5227237997","","0.4","0.2","0.6","0.8","","","","","0.5227237997","0.6814540918","0.842820862","0.4168065644","","","","","","","","","","72","H","0","img/none_selected.jpg","","234","main_expt",""
