"consent","trial_type","trial_index","time_elapsed","internal_node_id","subjID","study","MID","cond","drift","rt","responses","button_pressed","key_press","like","value","connected","gems","bombs","no_reward","GemPrChosen","BombPrChosen","GainOverPainPr_0","GainOverPainPr_1","GainOverPainPr_2","GainOverPainPr_3","LosePr_0","LosePr_1","LosePr_2","LosePr_3","WinPr_0","WinPr_1","WinPr_2","WinPr_3","Q0","Q1","Q2","gender","age","ethnicity","label","expt_phase","target","respCharCode","respKey","respChoiceNum","respChoice","practice","trial_counter","trial_label","Q0_index","view_history"
"GDM/GDM_behavioral_consent_30min_online.html","consent","0","4506","0.0-0.0","73063733","wem/bandit_party_2","A28FA9S6Y1M1I7","either","1","","","","","","","","","","","","","","","","","","","","","","","","","","","","","","","","","","","","","","","","","",""
"","survey-text","1","8355","0.0-1.0","73063733","wem/bandit_party_2","A28FA9S6Y1M1I7","either","1","2842","{""Q0"":""A28FA9S6Y1M1I7""}","","","","","","","","","","","","","","","","","","","","","","","","","","","","","","","","","","","","","","","",""
"","button-response","2","10774","0.0-2.0","73063733","wem/bandit_party_2","A28FA9S6Y1M1I7","either","1","1414","","1","","","","","","","","","","","","","","","","","","","","","","","","","","","","","","","","","","","","","","",""
"","text-replacement","3","16385","0.0-3.0","73063733","wem/bandit_party_2","A28FA9S6Y1M1I7","either","1","4609","","","32","","","","","","","","","","","","","","","","","","","","","","","","","","","","","","","","","","","","","",""
"","text-replacement","4","17762","0.0-4.0","73063733","wem/bandit_party_2","A28FA9S6Y1M1I7","either","1","1373","","","32","","","","","","","","","","","","","","","","","","","","","","","","","","","","","","","","","","","","","",""
"","identification","5","25635","0.0-6.0-0.0","73063733","wem/bandit_party_2","A28FA9S6Y1M1I7","either","1","7858","","","","3","1","0","","","","","","","","","","","","","","","","","","","","","","","","pre","identification_pre","the Democratic Party","","","","","","","","",""
"","identification","6","30638","0.0-6.0-1.0","73063733","wem/bandit_party_2","A28FA9S6Y1M1I7","either","1","3990","","","","1","0","0","","","","","","","","","","","","","","","","","","","","","","","","pre","identification_pre","the Republican Party","","","","","","","","",""
"","text-replacement","7","33751","0.0-7.0","73063733","wem/bandit_party_2","A28FA9S6Y1M1I7","either","1","2109","","","32","","","","","","","","","","","","","","","","","","","","","","","","","","","","","","","","","","","","","",""
"","text-replacement","8","34191","0.0-8.0","73063733","wem/bandit_party_2","A28FA9S6Y1M1I7","either","1","439","","","32","","","","","","","","","","","","","","","","","","","","","","","","","","","","","","","","","","","","","",""
"","text-replacement","9","34456","0.0-9.0","73063733","wem/bandit_party_2","A28FA9S6Y1M1I7","either","1","263","","","32","","","","","","","","","","","","","","","","","","","","","","","","","","","","","","","","","","","","","",""
"","text-replacement","10","34671","0.0-10.0","73063733","wem/bandit_party_2","A28FA9S6Y1M1I7","either","1","213","","","32","","","","","","","","","","","","","","","","","","","","","","","","","","","","","","","","","","","","","",""
"","text-replacement","11","34871","0.0-11.0","73063733","wem/bandit_party_2","A28FA9S6Y1M1I7","either","1","199","","","32","","","","","","","","","","","","","","","","","","","","","","","","","","","","","","","","","","","","","",""
"","bandit","12","38482","0.0-12.0-0.0","73063733","wem/bandit_party_2","A28FA9S6Y1M1I7","either","1","2101","","","","","","","0","0","1","0","0","","","","","0","","","","0","","","","","","","","","","","","","74","J","0","img/none_selected_demo.jpg","true","0","","",""
"","bandit","13","40784","0.0-13.0-0.0","73063733","wem/bandit_party_2","A28FA9S6Y1M1I7","either","1","795","","","","","","","0","0","1","0","0","","","","","0","","","","0","","","","","","","","","","","","","75","K","0","img/none_selected_demo.jpg","true","0","","",""
"","text-replacement","14","42199","0.0-14.0","73063733","wem/bandit_party_2","A28FA9S6Y1M1I7","either","1","1413","","","32","","","","","","","","","","","","","","","","","","","","","","","","","","","","","","","","","","","","","",""
"","text-replacement","15","42391","0.0-15.0","73063733","wem/bandit_party_2","A28FA9S6Y1M1I7","either","1","190","","","32","","","","","","","","","","","","","","","","","","","","","","","","","","","","","","","","","","","","","",""
"","text-replacement","16","42574","0.0-16.0","73063733","wem/bandit_party_2","A28FA9S6Y1M1I7","either","1","183","","","32","","","","","","","","","","","","","","","","","","","","","","","","","","","","","","","","","","","","","",""
"","text-replacement","17","42718","0.0-17.0","73063733","wem/bandit_party_2","A28FA9S6Y1M1I7","either","1","143","","","32","","","","","","","","","","","","","","","","","","","","","","","","","","","","","","","","","","","","","",""
"","bandit","18","45416","0.0-18.0-0.0","73063733","wem/bandit_party_2","A28FA9S6Y1M1I7","either","1","1191","","","","","","","1","0","0","0.8","","0.5","0.5","","","","","","","0.8","0.2","","","","","","","","","","","","74","J","0","img/none_selected_demo.jpg","true","0","80_20_practice","",""
"","bandit","19","47606","0.0-18.0-1.0","73063733","wem/bandit_party_2","A28FA9S6Y1M1I7","either","1","684","","","","","","","0","1","0","","0.8","0.5","0.5","","","0.8","0.2","","","","","","","","","","","","","","","","74","J","0","img/none_selected_demo.jpg","true","0","80_20_practice","",""
"","bandit","20","49265","0.0-18.0-2.0","73063733","wem/bandit_party_2","A28FA9S6Y1M1I7","either","1","151","","","","","","","0","0","1","0.8","","0.5","0.5","","","","","","","0.8","0.2","","","","","","","","","","","","74","J","0","img/none_selected_demo.jpg","true","0","80_20_practice","",""
"","bandit","21","51497","0.0-18.0-3.0","73063733","wem/bandit_party_2","A28FA9S6Y1M1I7","either","1","724","","","","","","","0","0","1","","0.8","0.5","0.5","","","0.8","0.2","","","","","","","","","","","","","","","","74","J","0","img/none_selected_demo.jpg","true","0","80_20_practice","",""
"","bandit","22","53183","0.0-18.0-4.0","73063733","wem/bandit_party_2","A28FA9S6Y1M1I7","either","1","180","","","","","","","0","0","1","0.2","","0.5","0.5","","","","","","","0.8","0.2","","","","","","","","","","","","75","K","1","","true","0","80_20_practice","",""
"","bandit","23","54734","0.0-18.0-5.0","73063733","wem/bandit_party_2","A28FA9S6Y1M1I7","either","1","46","","","","","","","0","0","1","","0.2","0.5","0.5","","","0.8","0.2","","","","","","","","","","","","","","","","75","K","1","","true","0","80_20_practice","",""
"","bandit","24","56433","0.0-18.0-6.0","73063733","wem/bandit_party_2","A28FA9S6Y1M1I7","either","1","191","","","","","","","1","0","0","0.8","","0.5","0.5","","","","","","","0.8","0.2","","","","","","","","","","","","74","J","0","img/none_selected_demo.jpg","true","0","80_20_practice","",""
"","bandit","25","57967","0.0-18.0-7.0","73063733","wem/bandit_party_2","A28FA9S6Y1M1I7","either","1","28","","","","","","","1","0","0","0.8","","0.5","0.5","","","","","","","0.8","0.2","","","","","","","","","","","","74","J","0","img/none_selected_demo.jpg","true","0","80_20_practice","",""
"","bandit","26","59554","0.0-18.0-8.0","73063733","wem/bandit_party_2","A28FA9S6Y1M1I7","either","1","79","","","","","","","0","0","1","0.2","","0.5","0.5","","","","","","","0.8","0.2","","","","","","","","","","","","75","K","1","","true","0","80_20_practice","",""
"","bandit","27","61175","0.0-18.0-9.0","73063733","wem/bandit_party_2","A28FA9S6Y1M1I7","either","1","116","","","","","","","1","0","0","0.8","","0.5","0.5","","","","","","","0.8","0.2","","","","","","","","","","","","74","J","0","img/none_selected_demo.jpg","true","0","80_20_practice","",""
"","bandit","28","62989","0.0-18.0-10.0","73063733","wem/bandit_party_2","A28FA9S6Y1M1I7","either","1","301","","","","","","","1","0","0","0.8","","0.5","0.5","","","","","","","0.8","0.2","","","","","","","","","","","","74","J","0","img/none_selected_demo.jpg","true","0","80_20_practice","",""
"","bandit","29","64500","0.0-18.0-11.0","73063733","wem/bandit_party_2","A28FA9S6Y1M1I7","either","1","0","","","","","","","0","1","0","","0.8","0.5","0.5","","","0.8","0.2","","","","","","","","","","","","","","","","74","J","0","img/none_selected_demo.jpg","true","0","80_20_practice","",""
"","bandit","30","66118","0.0-18.0-12.0","73063733","wem/bandit_party_2","A28FA9S6Y1M1I7","either","1","113","","","","","","","1","0","0","0.8","","0.5","0.5","","","","","","","0.8","0.2","","","","","","","","","","","","74","J","0","img/none_selected_demo.jpg","true","0","80_20_practice","",""
"","bandit","31","71590","0.0-18.0-13.0","73063733","wem/bandit_party_2","A28FA9S6Y1M1I7","either","1","3968","","","","","","","1","0","0","0.8","","0.5","0.5","","","","","","","0.8","0.2","","","","","","","","","","","","74","J","0","img/none_selected_demo.jpg","true","0","80_20_practice","",""
"","bandit","32","73113","0.0-18.0-14.0","73063733","wem/bandit_party_2","A28FA9S6Y1M1I7","either","1","14","","","","","","","0","0","1","","0.2","0.5","0.5","","","0.8","0.2","","","","","","","","","","","","","","","","75","K","1","","true","0","80_20_practice","",""
"","bandit","33","74648","0.0-18.0-15.0","73063733","wem/bandit_party_2","A28FA9S6Y1M1I7","either","1","26","","","","","","","1","0","0","0.8","","0.5","0.5","","","","","","","0.8","0.2","","","","","","","","","","","","74","J","0","img/none_selected_demo.jpg","true","0","80_20_practice","",""
"","bandit","34","76309","0.0-18.0-16.0","73063733","wem/bandit_party_2","A28FA9S6Y1M1I7","either","1","154","","","","","","","1","0","0","0.8","","0.5","0.5","","","","","","","0.8","0.2","","","","","","","","","","","","74","J","0","img/none_selected_demo.jpg","true","0","80_20_practice","",""
"","bandit","35","77896","0.0-18.0-17.0","73063733","wem/bandit_party_2","A28FA9S6Y1M1I7","either","1","74","","","","","","","1","0","0","0.8","","0.5","0.5","","","","","","","0.8","0.2","","","","","","","","","","","","74","J","0","img/none_selected_demo.jpg","true","0","80_20_practice","",""
"","bandit","36","79401","0.0-18.0-18.0","73063733","wem/bandit_party_2","A28FA9S6Y1M1I7","either","1","1","","","","","","","0","0","1","0.8","","0.5","0.5","","","","","","","0.8","0.2","","","","","","","","","","","","74","J","0","img/none_selected_demo.jpg","true","0","80_20_practice","",""
"","bandit","37","80926","0.0-18.0-19.0","73063733","wem/bandit_party_2","A28FA9S6Y1M1I7","either","1","19","","","","","","","0","0","1","","0.8","0.5","0.5","","","0.8","0.2","","","","","","","","","","","","","","","","74","J","0","img/none_selected_demo.jpg","true","0","80_20_practice","",""
"","text-replacement","38","83047","0.0-19.0","73063733","wem/bandit_party_2","A28FA9S6Y1M1I7","either","1","2117","","","32","","","","","","","","","","","","","","","","","","","","","","","","","","","","","","","","","","","","","",""
"","bandit","39","85200","0.0-20.0-0.0","73063733","wem/bandit_party_2","A28FA9S6Y1M1I7","either","1","647","","","","","","","1","0","0","1","0","","","","","0","1","","","1","0","","","","","","","","","","","","74","J","0","img/none_selected_demo.jpg","true","0","","",""
"","text-replacement","40","85281","0.0-21.0","73063733","wem/bandit_party_2","A28FA9S6Y1M1I7","either","1","79","","","74","","","","","","","","","","","","","","","","","","","","","","","","","","","","","","","","","","","","","",""
"","text-replacement","41","87729","0.0-22.0","73063733","wem/bandit_party_2","A28FA9S6Y1M1I7","either","1","2444","","","32","","","","","","","","","","","","","","","","","","","","","","","","","","","","","","","","","","","","","",""
"","text-replacement","42","87983","0.0-23.0","73063733","wem/bandit_party_2","A28FA9S6Y1M1I7","either","1","250","","","32","","","","","","","","","","","","","","","","","","","","","","","","","","","","","","","","","","","","","",""
"","text-replacement","43","88401","0.0-24.0","73063733","wem/bandit_party_2","A28FA9S6Y1M1I7","either","1","416","","","32","","","","","","","","","","","","","","","","","","","","","","","","","","","","","","","","","","","","","",""
"","text-replacement","44","88848","0.0-25.0","73063733","wem/bandit_party_2","A28FA9S6Y1M1I7","either","1","443","","","32","","","","","","","","","","","","","","","","","","","","","","","","","","","","","","","","","","","","","",""
"","text-replacement","45","89071","0.0-26.0","73063733","wem/bandit_party_2","A28FA9S6Y1M1I7","either","1","220","","","32","","","","","","","","","","","","","","","","","","","","","","","","","","","","","","","","","","","","","",""
"","text-replacement","46","89314","0.0-27.0","73063733","wem/bandit_party_2","A28FA9S6Y1M1I7","either","1","241","","","32","","","","","","","","","","","","","","","","","","","","","","","","","","","","","","","","","","","","","",""
"","text-replacement","47","89530","0.0-28.0","73063733","wem/bandit_party_2","A28FA9S6Y1M1I7","either","1","212","","","32","","","","","","","","","","","","","","","","","","","","","","","","","","","","","","","","","","","","","",""
"","text-replacement","48","89728","0.0-29.0","73063733","wem/bandit_party_2","A28FA9S6Y1M1I7","either","1","194","","","32","","","","","","","","","","","","","","","","","","","","","","","","","","","","","","","","","","","","","",""
"","text-replacement","49","89927","0.0-30.0","73063733","wem/bandit_party_2","A28FA9S6Y1M1I7","either","1","195","","","32","","","","","","","","","","","","","","","","","","","","","","","","","","","","","","","","","","","","","",""
"","text-replacement","50","90126","0.0-31.0","73063733","wem/bandit_party_2","A28FA9S6Y1M1I7","either","1","197","","","32","","","","","","","","","","","","","","","","","","","","","","","","","","","","","","","","","","","","","",""
"","bandit","51","92468","0.0-32.0-0.0","73063733","wem/bandit_party_2","A28FA9S6Y1M1I7","either","1","826","","","","","","","0","0","1","0.2","","0.5","0.5","0.5","0.5","","","","","0.8","0.2","0.6","0.2","","","","","","","","","","74","J","1","","true","0","full_practice","",""
"","bandit","52","94054","0.0-32.0-1.0","73063733","wem/bandit_party_2","A28FA9S6Y1M1I7","either","1","81","","","","","","","1","0","0","0.2","","0.5","0.5","0.5","0.5","","","","","0.8","0.2","0.6","0.2","","","","","","","","","","76","L","3","","true","0","full_practice","",""
"","bandit","53","95634","0.0-32.0-2.0","73063733","wem/bandit_party_2","A28FA9S6Y1M1I7","either","1","72","","","","","","","0","1","0","","0.6","0.5","0.5","0.5","0.5","0.8","0.2","0.6","0.2","","","","","","","","","","","","","","75","K","2","","true","0","full_practice","",""
"","bandit","54","97201","0.0-32.0-3.0","73063733","wem/bandit_party_2","A28FA9S6Y1M1I7","either","1","60","","","","","","","0","0","1","","0.2","0.5","0.5","0.5","0.5","0.8","0.2","0.6","0.2","","","","","","","","","","","","","","74","J","1","","true","0","full_practice","",""
"","bandit","55","98768","0.0-32.0-4.0","73063733","wem/bandit_party_2","A28FA9S6Y1M1I7","either","1","61","","","","","","","0","1","0","","0.8","0.5","0.5","0.5","0.5","0.8","0.2","0.6","0.2","","","","","","","","","","","","","","72","H","0","img/none_selected.jpg","true","0","full_practice","",""
"","bandit","56","100368","0.0-32.0-5.0","73063733","wem/bandit_party_2","A28FA9S6Y1M1I7","either","1","93","","","","","","","0","0","1","0.2","","0.5","0.5","0.5","0.5","","","","","0.8","0.2","0.6","0.2","","","","","","","","","","76","L","3","","true","0","full_practice","",""
"","bandit","57","101886","0.0-32.0-6.0","73063733","wem/bandit_party_2","A28FA9S6Y1M1I7","either","1","13","","","","","","","0","0","1","","0.8","0.5","0.5","0.5","0.5","0.8","0.2","0.6","0.2","","","","","","","","","","","","","","72","H","0","img/none_selected.jpg","true","0","full_practice","",""
"","bandit","58","103418","0.0-32.0-7.0","73063733","wem/bandit_party_2","A28FA9S6Y1M1I7","either","1","24","","","","","","","1","0","0","0.2","","0.5","0.5","0.5","0.5","","","","","0.8","0.2","0.6","0.2","","","","","","","","","","76","L","3","","true","0","full_practice","",""
"","bandit","59","104989","0.0-32.0-8.0","73063733","wem/bandit_party_2","A28FA9S6Y1M1I7","either","1","66","","","","","","","0","1","0","","0.2","0.5","0.5","0.5","0.5","0.8","0.2","0.6","0.2","","","","","","","","","","","","","","74","J","1","","true","0","full_practice","",""
"","bandit","60","106550","0.0-32.0-9.0","73063733","wem/bandit_party_2","A28FA9S6Y1M1I7","either","1","55","","","","","","","1","0","0","0.2","","0.5","0.5","0.5","0.5","","","","","0.8","0.2","0.6","0.2","","","","","","","","","","76","L","3","","true","0","full_practice","",""
"","bandit","61","108113","0.0-32.0-10.0","73063733","wem/bandit_party_2","A28FA9S6Y1M1I7","either","1","53","","","","","","","1","0","0","0.2","","0.5","0.5","0.5","0.5","","","","","0.8","0.2","0.6","0.2","","","","","","","","","","76","L","3","","true","0","full_practice","",""
"","bandit","62","109714","0.0-32.0-11.0","73063733","wem/bandit_party_2","A28FA9S6Y1M1I7","either","1","89","","","","","","","0","0","1","0.2","","0.5","0.5","0.5","0.5","","","","","0.8","0.2","0.6","0.2","","","","","","","","","","74","J","1","","true","0","full_practice","",""
"","bandit","63","111283","0.0-32.0-12.0","73063733","wem/bandit_party_2","A28FA9S6Y1M1I7","either","1","58","","","","","","","0","0","1","0.2","","0.5","0.5","0.5","0.5","","","","","0.8","0.2","0.6","0.2","","","","","","","","","","74","J","1","","true","0","full_practice","",""
"","bandit","64","112957","0.0-32.0-13.0","73063733","wem/bandit_party_2","A28FA9S6Y1M1I7","either","1","168","","","","","","","0","0","1","0.2","","0.5","0.5","0.5","0.5","","","","","0.8","0.2","0.6","0.2","","","","","","","","","","76","L","3","","true","0","full_practice","",""
"","bandit","65","114568","0.0-32.0-14.0","73063733","wem/bandit_party_2","A28FA9S6Y1M1I7","either","1","106","","","","","","","1","0","0","0.8","","0.5","0.5","0.5","0.5","","","","","0.8","0.2","0.6","0.2","","","","","","","","","","72","H","0","img/none_selected.jpg","true","0","full_practice","",""
"","bandit","66","116285","0.0-32.0-15.0","73063733","wem/bandit_party_2","A28FA9S6Y1M1I7","either","1","213","","","","","","","0","0","1","0.2","","0.5","0.5","0.5","0.5","","","","","0.8","0.2","0.6","0.2","","","","","","","","","","76","L","3","","true","0","full_practice","",""
"","bandit","67","117821","0.0-32.0-16.0","73063733","wem/bandit_party_2","A28FA9S6Y1M1I7","either","1","32","","","","","","","1","0","0","0.8","","0.5","0.5","0.5","0.5","","","","","0.8","0.2","0.6","0.2","","","","","","","","","","72","H","0","img/none_selected.jpg","true","0","full_practice","",""
"","bandit","68","119449","0.0-32.0-17.0","73063733","wem/bandit_party_2","A28FA9S6Y1M1I7","either","1","119","","","","","","","0","1","0","","0.8","0.5","0.5","0.5","0.5","0.8","0.2","0.6","0.2","","","","","","","","","","","","","","72","H","0","img/none_selected.jpg","true","0","full_practice","",""
"","bandit","69","121035","0.0-32.0-18.0","73063733","wem/bandit_party_2","A28FA9S6Y1M1I7","either","1","75","","","","","","","0","0","1","0.6","","0.5","0.5","0.5","0.5","","","","","0.8","0.2","0.6","0.2","","","","","","","","","","75","K","2","","true","0","full_practice","",""
"","bandit","70","122651","0.0-32.0-19.0","73063733","wem/bandit_party_2","A28FA9S6Y1M1I7","either","1","104","","","","","","","0","0","1","0.8","","0.5","0.5","0.5","0.5","","","","","0.8","0.2","0.6","0.2","","","","","","","","","","72","H","0","img/none_selected.jpg","true","0","full_practice","",""
"","text","71","134716","0.0-33.0","73063733","wem/bandit_party_2","A28FA9S6Y1M1I7","either","1","12056","","","32","","","","","","","","","","","","","","","","","","","","","","","","","","","","","","","","","","","","","",""
"","text-replacement","72","136786","0.0-34.0","73063733","wem/bandit_party_2","A28FA9S6Y1M1I7","either","1","1064","","","32","","","","","","","","","","","","","","","","","","","","","","","","","","","","","","","","","","","","","",""
"","text-replacement","73","136990","0.0-35.0","73063733","wem/bandit_party_2","A28FA9S6Y1M1I7","either","1","202","","","32","","","","","","","","","","","","","","","","","","","","","","","","","","","","","","","","","","","","","",""
"","text-replacement","74","137342","0.0-36.0","73063733","wem/bandit_party_2","A28FA9S6Y1M1I7","either","1","351","","","32","","","","","","","","","","","","","","","","","","","","","","","","","","","","","","","","","","","","","",""
"","text-replacement","75","137606","0.0-37.0","73063733","wem/bandit_party_2","A28FA9S6Y1M1I7","either","1","263","","","32","","","","","","","","","","","","","","","","","","","","","","","","","","","","","","","","","","","","","",""
"","text-replacement","76","138328","0.0-38.0","73063733","wem/bandit_party_2","A28FA9S6Y1M1I7","either","1","718","","","32","","","","","","","","","","","","","","","","","","","","","","","","","","","","","","","","","","","","","",""
"","survey-multi-choice-replacement","77","142553","0.0-39.0-0.0","73063733","wem/bandit_party_2","A28FA9S6Y1M1I7","either","1","4217","","","","","","","","","","","","","","","","","","","","","","","","Money will be added to the pool for <span style='color:blue;'>DEMOCRATS</span>","","","","","","","attn_check","","","","","","","","","0",""
"","survey-multi-choice-replacement","78","146117","0.0-40.0-0.0","73063733","wem/bandit_party_2","A28FA9S6Y1M1I7","either","1","2556","","","","","","","","","","","","","","","","","","","","","","","","Money will be subtracted from the pool for <span style='color:red;'>REPUBLICANS</span>","","","","","","","attn_check","","","","","","","","","1",""
"","instructions","79","148086","0.0-40.0-1.0-0.0","73063733","wem/bandit_party_2","A28FA9S6Y1M1I7","either","1","965","","","","","","","","","","","","","","","","","","","","","","","","","","","","","","","","","","","","","","","","","[{""page_index"":0,""viewing_time"":965}]"
"","survey-multi-choice-replacement","80","150871","0.0-40.1-0.1","73063733","wem/bandit_party_2","A28FA9S6Y1M1I7","either","1","1778","","","","","","","","","","","","","","","","","","","","","","","","Equal amounts of money will be added to the pool for <span style='color:blue;'>DEMOCRATS</span> and subtracted from the pool for <span style='color:red;'>REPUBLICANS</span>","","","","","","","attn_check","","","","","","","","","2",""
"","survey-multi-choice-replacement","81","153785","0.0-41.0-0.0","73063733","wem/bandit_party_2","A28FA9S6Y1M1I7","either","1","1907","","","","","","","","","","","","","","","","","","","","","","","","No money will be added to either pool","","","","","","","attn_check","","","","","","","","","3",""
"","bandit","82","157818","0.0-42.0-0.0","73063733","wem/bandit_party_2","A28FA9S6Y1M1I7","either","1","1524","","","","","","","0","1","0","","0.8101107889","0.2","0.6","0.4","0.8","0.8101107889","0.4995060561","0.5202783506","0.7674833066","","","","","","","","","","","","","","72","H","0","img/none_selected.jpg","","1","main_expt","",""
"","bandit","83","159340","0.0-43.0-0.0","73063733","wem/bandit_party_2","A28FA9S6Y1M1I7","either","1","18","","","","","","","0","1","0","","0.8827976921","0.2","0.6","0.4","0.8","0.8827976921","0.4452888422","0.4559554218","0.7786696111","","","","","","","","","","","","","","72","H","0","img/none_selected.jpg","","2","main_expt","",""
"","bandit","84","160925","0.0-44.0-0.0","73063733","wem/bandit_party_2","A28FA9S6Y1M1I7","either","1","80","","","","","","","1","0","0","0.3791335739","","0.2","0.6","0.4","0.8","","","","","0.918633781","0.4956599627","0.3791335739","0.7883912796","","","","","","","","","","75","K","2","","","3","main_expt","",""
"","bandit","85","162454","0.0-45.0-0.0","73063733","wem/bandit_party_2","A28FA9S6Y1M1I7","either","1","17","","","","","","","0","1","0","","0.8961075186","0.2","0.6","0.4","0.8","0.8961075186","0.3939226057","0.362446662","0.8311681014","","","","","","","","","","","","","","72","H","0","img/none_selected.jpg","","4","main_expt","",""
"","bandit","86","164168","0.0-46.0-0.0","73063733","wem/bandit_party_2","A28FA9S6Y1M1I7","either","1","207","","","","","","","1","0","0","0.9065038385","","0.2","0.6","0.4","0.8","","","","","0.9065038385","0.4737796053","0.4337427147","0.706748425","","","","","","","","","","72","H","0","img/none_selected.jpg","","5","main_expt","",""
"","bandit","87","165702","0.0-47.0-0.0","73063733","wem/bandit_party_2","A28FA9S6Y1M1I7","either","1","29","","","","","","","0","0","1","","0.5798080576","0.2","0.6","0.4","0.8","0.9628954729","0.5798080576","0.4260566605","0.7246132019","","","","","","","","","","","","","","74","J","1","","","6","main_expt","",""
"","bandit","88","168753","0.0-48.0-0.0","73063733","wem/bandit_party_2","A28FA9S6Y1M1I7","either","1","1544","","","","","","","0","1","0","","0.6184433593","0.2","0.6","0.4","0.8","0.9244273404","0.6184433593","0.5595739282","0.822103072","","","","","","","","","","","","","","74","J","1","","","7","main_expt","",""
"","bandit","89","170269","0.0-49.0-0.0","73063733","wem/bandit_party_2","A28FA9S6Y1M1I7","either","1","11","","","","","","","0","1","0","","0.9214665689","0.2","0.6","0.4","0.8","0.9214665689","0.5380809204","0.5757792393","0.8176183596","","","","","","","","","","","","","","72","H","0","img/none_selected.jpg","","8","main_expt","",""
"","bandit","90","171957","0.0-50.0-0.0","73063733","wem/bandit_party_2","A28FA9S6Y1M1I7","either","1","183","","","","","","","0","1","0","","0.4884558296","0.2","0.6","0.4","0.8","0.9604963414","0.4884558296","0.5508288143","0.7421782695","","","","","","","","","","","","","","74","J","1","","","9","main_expt","",""
"","bandit","91","173601","0.0-51.0-0.0","73063733","wem/bandit_party_2","A28FA9S6Y1M1I7","either","1","136","","","","","","","1","0","0","0.6062827564","","0.2","0.6","0.4","0.8","","","","","0.973544224","0.6062827564","0.4615344473","0.7112185725","","","","","","","","","","74","J","1","","","10","main_expt","",""
"","bandit","92","175302","0.0-52.0-0.0","73063733","wem/bandit_party_2","A28FA9S6Y1M1I7","either","1","197","","","","","","","1","0","0","0.6618996933","","0.2","0.6","0.4","0.8","","","","","0.9756729976","0.6618996933","0.4731032433","0.6656122322","","","","","","","","","","74","J","1","","","11","main_expt","",""
"","bandit","93","176988","0.0-53.0-0.0","73063733","wem/bandit_party_2","A28FA9S6Y1M1I7","either","1","181","","","","","","","0","0","1","0.6589688621","","0.2","0.6","0.4","0.8","","","","","0.9824084628","0.6589688621","0.5028989732","0.632951522","","","","","","","","","","74","J","1","","","12","main_expt","",""
"","bandit","94","178503","0.0-54.0-0.0","73063733","wem/bandit_party_2","A28FA9S6Y1M1I7","either","1","7","","","","","","","0","0","1","0.7483501345","","0.2","0.6","0.4","0.8","","","","","0.9852841122","0.7483501345","0.5252386458","0.6428643634","","","","","","","","","","74","J","1","","","13","main_expt","",""
"","bandit","95","180190","0.0-55.0-0.0","73063733","wem/bandit_party_2","A28FA9S6Y1M1I7","either","1","181","","","","","","","1","0","0","0.7642220585","","0.2","0.6","0.4","0.8","","","","","0.9844185579","0.7642220585","0.4883642101","0.5693663763","","","","","","","","","","74","J","1","","","14","main_expt","",""
"","bandit","96","181805","0.0-56.0-0.0","73063733","wem/bandit_party_2","A28FA9S6Y1M1I7","either","1","110","","","","","","","1","0","0","0.8255663415","","0.2","0.6","0.4","0.8","","","","","0.9716790186","0.8255663415","0.5125695872","0.6354763258","","","","","","","","","","74","J","1","","","15","main_expt","",""
"","bandit","97","183465","0.0-57.0-0.0","73063733","wem/bandit_party_2","A28FA9S6Y1M1I7","either","1","151","","","","","","","0","0","1","0.8262734196","","0.2","0.6","0.4","0.8","","","","","0.9724226268","0.8262734196","0.483313844","0.6074668868","","","","","","","","","","74","J","1","","","16","main_expt","",""
"","bandit","98","185136","0.0-58.0-0.0","73063733","wem/bandit_party_2","A28FA9S6Y1M1I7","either","1","163","","","","","","","1","0","0","0.8957105494","","0.2","0.6","0.4","0.8","","","","","0.969397438","0.8957105494","0.4764119597","0.634379517","","","","","","","","","","74","J","1","","","17","main_expt","",""
"","bandit","99","186692","0.0-59.0-0.0","73063733","wem/bandit_party_2","A28FA9S6Y1M1I7","either","1","34","","","","","","","0","1","0","","0.8243017832","0.2","0.6","0.4","0.8","0.9487821198","0.8243017832","0.4742144938","0.7399013172","","","","","","","","","","","","","","74","J","1","","","18","main_expt","",""
"","bandit","100","188269","0.0-60.0-0.0","73063733","wem/bandit_party_2","A28FA9S6Y1M1I7","either","1","65","","","","","","","0","0","1","0.8174393347","","0.2","0.6","0.4","0.8","","","","","0.8822386923","0.8174393347","0.5445729057","0.6892422428","","","","","","","","","","74","J","1","","","19","main_expt","",""
"","bandit","101","189853","0.0-61.0-0.0","73063733","wem/bandit_party_2","A28FA9S6Y1M1I7","either","1","79","","","","","","","0","0","1","0.8457625901","","0.2","0.6","0.4","0.8","","","","","0.8658452863","0.8457625901","0.5114357523","0.5544472153","","","","","","","","","","74","J","1","","","20","main_expt","",""
"","bandit","102","191536","0.0-62.0-0.0","73063733","wem/bandit_party_2","A28FA9S6Y1M1I7","either","1","176","","","","","","","0","1","0","","0.8565453533","0.2","0.6","0.4","0.8","0.8597265301","0.8565453533","0.4948626968","0.4705077418","","","","","","","","","","","","","","74","J","1","","","21","main_expt","",""
"","bandit","103","193201","0.0-63.0-0.0","73063733","wem/bandit_party_2","A28FA9S6Y1M1I7","either","1","157","","","","","","","0","1","0","","0.5364913494","0.2","0.6","0.4","0.8","0.929530396","0.8821281293","0.3750889156","0.5364913494","","","","","","","","","","","","","","76","L","3","","","22","main_expt","",""
"","bandit","104","194903","0.0-64.0-0.0","73063733","wem/bandit_party_2","A28FA9S6Y1M1I7","either","1","197","","","","","","","1","0","0","0.8253896901","","0.2","0.6","0.4","0.8","","","","","0.9149061772","0.8253896901","0.3874093852","0.5450887529","","","","","","","","","","74","J","1","","","23","main_expt","",""
"","bandit","105","196588","0.0-65.0-0.0","73063733","wem/bandit_party_2","A28FA9S6Y1M1I7","either","1","181","","","","","","","0","0","1","","0.4126546177","0.2","0.6","0.4","0.8","0.9389899916","0.8682133559","0.4126546177","0.6013055931","","","","","","","","","","","","","","75","K","2","","","24","main_expt","",""
"","bandit","106","198237","0.0-66.0-0.0","73063733","wem/bandit_party_2","A28FA9S6Y1M1I7","either","1","144","","","","","","","0","0","1","0.3871809826","","0.2","0.6","0.4","0.8","","","","","0.9583062328","0.8186134727","0.3871809826","0.7116226269","","","","","","","","","","75","K","2","","","25","main_expt","",""
"","bandit","107","199758","0.0-67.0-0.0","73063733","wem/bandit_party_2","A28FA9S6Y1M1I7","either","1","14","","","","","","","0","0","1","0.4162773602","","0.2","0.6","0.4","0.8","","","","","0.9349434311","0.841170918","0.4162773602","0.7284905038","","","","","","","","","","75","K","2","","","26","main_expt","",""
"","bandit","108","201417","0.0-68.0-0.0","73063733","wem/bandit_party_2","A28FA9S6Y1M1I7","either","1","145","","","","","","","0","1","0","","0.9147743466","0.2","0.6","0.4","0.8","0.9147743466","0.8332298301","0.4153433109","0.7007901837","","","","","","","","","","","","","","72","H","0","img/none_selected.jpg","","27","main_expt","",""
"","bandit","109","203018","0.0-69.0-0.0","73063733","wem/bandit_party_2","A28FA9S6Y1M1I7","either","1","93","","","","","","","1","0","0","0.7197690037","","0.2","0.6","0.4","0.8","","","","","0.8913744663","0.8340804883","0.3083156359","0.7197690037","","","","","","","","","","76","L","3","","","28","main_expt","",""
"","bandit","110","204709","0.0-70.0-0.0","73063733","wem/bandit_party_2","A28FA9S6Y1M1I7","either","1","185","","","","","","","0","0","1","0.9004815278","","0.2","0.6","0.4","0.8","","","","","0.9004815278","0.8800986549","0.4048150761","0.7569205749","","","","","","","","","","72","H","0","img/none_selected.jpg","","29","main_expt","",""
"","bandit","111","206221","0.0-71.0-0.0","73063733","wem/bandit_party_2","A28FA9S6Y1M1I7","either","1","2","","","","","","","0","1","0","","0.8335499875","0.2","0.6","0.4","0.8","0.8335499875","0.800988266","0.5604470694","0.7007062976","","","","","","","","","","","","","","72","H","0","img/none_selected.jpg","","30","main_expt","",""
"","bandit","112","207819","0.0-72.0-0.0","73063733","wem/bandit_party_2","A28FA9S6Y1M1I7","either","1","85","","","","","","","0","1","0","","0.5114456598","0.2","0.6","0.4","0.8","0.7904098286","0.8092707987","0.5114456598","0.6218809145","","","","","","","","","","","","","","75","K","2","","","31","main_expt","",""
"","bandit","113","209683","0.0-73.0-0.0","73063733","wem/bandit_party_2","A28FA9S6Y1M1I7","either","1","353","","","","","","","0","1","0","","0.5448888872","0.2","0.6","0.4","0.8","0.8156470634","0.7600689364","0.5195843055","0.5448888872","","","","","","","","","","","","","","76","L","3","","","32","main_expt","",""
"","bandit","114","211267","0.0-74.0-0.0","73063733","wem/bandit_party_2","A28FA9S6Y1M1I7","either","1","72","","","","","","","0","1","0","","0.7458483223","0.2","0.6","0.4","0.8","0.7458483223","0.7268405739","0.4278216128","0.4396040002","","","","","","","","","","","","","","72","H","0","img/none_selected.jpg","","33","main_expt","",""
"","bandit","115","212909","0.0-75.0-0.0","73063733","wem/bandit_party_2","A28FA9S6Y1M1I7","either","1","134","","","","","","","0","1","0","","0.8745519215","0.2","0.6","0.4","0.8","0.8745519215","0.7867385379","0.4581725564","0.3418027302","","","","","","","","","","","","","","72","H","0","img/none_selected.jpg","","34","main_expt","",""
"","bandit","116","214420","0.0-76.0-0.0","73063733","wem/bandit_party_2","A28FA9S6Y1M1I7","either","1","3","","","","","","","0","0","1","0.3770378826","","0.2","0.6","0.4","0.8","","","","","0.8761773117","0.7776722478","0.5170179058","0.3770378826","","","","","","","","","","76","L","3","","","35","main_expt","",""
"","bandit","117","215942","0.0-77.0-0.0","73063733","wem/bandit_party_2","A28FA9S6Y1M1I7","either","1","15","","","","","","","1","0","0","0.8110731924","","0.2","0.6","0.4","0.8","","","","","0.8898579413","0.8110731924","0.5761285305","0.3264650107","","","","","","","","","","74","J","1","","","36","main_expt","",""
"","bandit","118","217585","0.0-78.0-0.0","73063733","wem/bandit_party_2","A28FA9S6Y1M1I7","either","1","130","","","","","","","0","1","0","","0.9189960073","0.2","0.6","0.4","0.8","0.9189960073","0.8371501114","0.5824592389","0.1696248696","","","","","","","","","","","","","","72","H","0","img/none_selected.jpg","","37","main_expt","",""
"","bandit","119","219158","0.0-79.0-0.0","73063733","wem/bandit_party_2","A28FA9S6Y1M1I7","either","1","68","","","","","","","0","0","1","0.5039158184","","0.2","0.6","0.4","0.8","","","","","0.9429067042","0.801984358","0.5039158184","0.3008725236","","","","","","","","","","75","K","2","","","38","main_expt","",""
"","bandit","120","220739","0.0-80.0-0.0","73063733","wem/bandit_party_2","A28FA9S6Y1M1I7","either","1","69","","","","","","","0","1","0","","0.8860185862","0.2","0.6","0.4","0.8","0.8860185862","0.836760671","0.4906961915","0.3612597963","","","","","","","","","","","","","","72","H","0","img/none_selected.jpg","","39","main_expt","",""
"","bandit","121","222400","0.0-81.0-0.0","73063733","wem/bandit_party_2","A28FA9S6Y1M1I7","either","1","154","","","","","","","0","0","1","","0.5118773476","0.2","0.6","0.4","0.8","0.8958725565","0.7930168878","0.5118773476","0.3316001813","","","","","","","","","","","","","","75","K","2","","","40","main_expt","",""
"","bandit","122","223936","0.0-82.0-0.0","73063733","wem/bandit_party_2","A28FA9S6Y1M1I7","either","1","28","","","","","","","0","1","0","","0.8369757826","0.2","0.6","0.4","0.8","0.8369757826","0.6758505439","0.5207000815","0.251761063","","","","","","","","","","","","","","72","H","0","img/none_selected.jpg","","41","main_expt","",""
"","bandit","123","225454","0.0-83.0-0.0","73063733","wem/bandit_party_2","A28FA9S6Y1M1I7","either","1","10","","","","","","","0","1","0","","0.8724413244","0.2","0.6","0.4","0.8","0.8724413244","0.669091732","0.6208632684","0.3764367217","","","","","","","","","","","","","","72","H","0","img/none_selected.jpg","","42","main_expt","",""
"","bandit","124","227156","0.0-84.0-0.0","73063733","wem/bandit_party_2","A28FA9S6Y1M1I7","either","1","197","","","","","","","0","1","0","","0.5774386383","0.2","0.6","0.4","0.8","0.8721156492","0.5774386383","0.6736877605","0.4280411123","","","","","","","","","","","","","","74","J","1","","","43","main_expt","",""
"","bandit","125","228703","0.0-85.0-0.0","73063733","wem/bandit_party_2","A28FA9S6Y1M1I7","either","1","39","","","","","","","1","0","0","0.6770598463","","0.2","0.6","0.4","0.8","","","","","0.874486911","0.5402750746","0.6770598463","0.4250007774","","","","","","","","","","75","K","2","","","44","main_expt","",""
"","bandit","126","230233","0.0-86.0-0.0","73063733","wem/bandit_party_2","A28FA9S6Y1M1I7","either","1","21","","","","","","","0","1","0","","0.7653026016","0.2","0.6","0.4","0.8","0.7653026016","0.4769525635","0.6811336834","0.3964774122","","","","","","","","","","","","","","72","H","0","img/none_selected.jpg","","45","main_expt","",""
"","bandit","127","231774","0.0-87.0-0.0","73063733","wem/bandit_party_2","A28FA9S6Y1M1I7","either","1","34","","","","","","","0","1","0","","0.7409040253","0.2","0.6","0.4","0.8","0.6884850605","0.460739512","0.7409040253","0.3755541509","","","","","","","","","","","","","","75","K","2","","","46","main_expt","",""
"","bandit","128","233388","0.0-88.0-0.0","73063733","wem/bandit_party_2","A28FA9S6Y1M1I7","either","1","107","","","","","","","1","0","0","0.3698766084","","0.2","0.6","0.4","0.8","","","","","0.6869729855","0.3953603582","0.8602274841","0.3698766084","","","","","","","","","","76","L","3","","","47","main_expt","",""
"","bandit","129","234985","0.0-89.0-0.0","73063733","wem/bandit_party_2","A28FA9S6Y1M1I7","either","1","90","","","","","","","0","1","0","","0.624749708","0.2","0.6","0.4","0.8","0.624749708","0.5194217752","0.8947369126","0.2924141828","","","","","","","","","","","","","","72","H","0","img/none_selected.jpg","","48","main_expt","",""
"","bandit","130","236535","0.0-90.0-0.0","73063733","wem/bandit_party_2","A28FA9S6Y1M1I7","either","1","44","","","","","","","1","0","0","0.6269608649","","0.2","0.6","0.4","0.8","","","","","0.6269608649","0.5015721984","0.9071052574","0.2506794134","","","","","","","","","","72","H","0","img/none_selected.jpg","","49","main_expt","",""
"","bandit","131","238053","0.0-91.0-0.0","73063733","wem/bandit_party_2","A28FA9S6Y1M1I7","either","1","12","","","","","","","0","0","1","","0.5394470416","0.2","0.6","0.4","0.8","0.5394470416","0.4427204185","0.8569531155","0.2200095001","","","","","","","","","","","","","","72","H","0","img/none_selected.jpg","","50","main_expt","",""
"","bandit","132","239853","0.0-92.0-0.0","73063733","wem/bandit_party_2","A28FA9S6Y1M1I7","either","1","294","","","","","","","1","0","0","0.8728609703","","0.2","0.6","0.4","0.8","","","","","0.4991806479","0.5194544998","0.8728609703","0.2703780474","","","","","","","","","","75","K","2","","","51","main_expt","",""
"","bandit","133","241368","0.0-93.0-0.0","73063733","wem/bandit_party_2","A28FA9S6Y1M1I7","either","1","6","","","","","","","0","0","1","0.3215640211","","0.2","0.6","0.4","0.8","","","","","0.5431464126","0.4420680866","0.902184381","0.3215640211","","","","","","","","","","76","L","3","","","52","main_expt","",""
"","bandit","134","242903","0.0-94.0-0.0","73063733","wem/bandit_party_2","A28FA9S6Y1M1I7","either","1","29","","","","","","","1","0","0","0.5541791803","","0.2","0.6","0.4","0.8","","","","","0.4799783957","0.5541791803","0.8975054296","0.2918797996","","","","","","","","","","74","J","1","","","53","main_expt","",""
"","bandit","135","244448","0.0-95.0-0.0","73063733","wem/bandit_party_2","A28FA9S6Y1M1I7","either","1","36","","","","","","","0","0","1","","0.3946877269","0.2","0.6","0.4","0.8","0.3946877269","0.6187664305","0.9436546011","0.2432815539","","","","","","","","","","","","","","72","H","0","img/none_selected.jpg","","54","main_expt","",""
"","bandit","136","246035","0.0-96.0-0.0","73063733","wem/bandit_party_2","A28FA9S6Y1M1I7","either","1","74","","","","","","","1","0","0","0.3892466866","","0.2","0.6","0.4","0.8","","","","","0.3892466866","0.538030076","0.9411334538","0.1993500609","","","","","","","","","","72","H","0","img/none_selected.jpg","","55","main_expt","",""
"","bandit","137","247785","0.0-97.0-0.0","73063733","wem/bandit_party_2","A28FA9S6Y1M1I7","either","1","242","","","","","","","1","0","0","0.5137881872","","0.2","0.6","0.4","0.8","","","","","0.347268188","0.5137881872","0.862285227","0.1832364248","","","","","","","","","","74","J","1","","","56","main_expt","",""
"","bandit","138","249510","0.0-98.0-0.0","73063733","wem/bandit_party_2","A28FA9S6Y1M1I7","either","1","219","","","","","","","0","0","1","","0.3462231845","0.2","0.6","0.4","0.8","0.3462231845","0.6274604021","0.9034803314","0.1703919496","","","","","","","","","","","","","","72","H","0","img/none_selected.jpg","","57","main_expt","",""
"","bandit","139","251141","0.0-99.0-0.0","73063733","wem/bandit_party_2","A28FA9S6Y1M1I7","either","1","120","","","","","","","0","0","1","0.3707442777","","0.2","0.6","0.4","0.8","","","","","0.3707442777","0.5636132077","0.9062052911","0.2146973212","","","","","","","","","","72","H","0","img/none_selected.jpg","","58","main_expt","",""
"","bandit","140","252741","0.0-100.0-0.0","73063733","wem/bandit_party_2","A28FA9S6Y1M1I7","either","1","88","","","","","","","0","1","0","","0.6555757088","0.2","0.6","0.4","0.8","0.4530366532","0.6555757088","0.9169546289","0.2118107272","","","","","","","","","","","","","","74","J","1","","","59","main_expt","",""
"","bandit","141","254481","0.0-101.0-0.0","73063733","wem/bandit_party_2","A28FA9S6Y1M1I7","either","1","230","","","","","","","0","1","0","","0.6555481193","0.2","0.6","0.4","0.8","0.4335409142","0.6555481193","0.9048679239","0.2096036334","","","","","","","","","","","","","","74","J","1","","","60","main_expt","",""
"","bandit","142","255989","0.0-102.0-0.0","73063733","wem/bandit_party_2","A28FA9S6Y1M1I7","either","1","1","","","","","","","1","0","0","0.6988977931","","0.2","0.6","0.4","0.8","","","","","0.3601573371","0.6988977931","0.9346572725","0.1985607356","","","","","","","","","","74","J","1","","","61","main_expt","",""
"","bandit","143","257536","0.0-103.0-0.0","73063733","wem/bandit_party_2","A28FA9S6Y1M1I7","either","1","39","","","","","","","0","1","0","","0.3187004912","0.2","0.6","0.4","0.8","0.3187004912","0.6124712875","0.9332729597","0.2352246004","","","","","","","","","","","","","","72","H","0","img/none_selected.jpg","","62","main_expt","",""
"","bandit","144","259082","0.0-104.0-0.0","73063733","wem/bandit_party_2","A28FA9S6Y1M1I7","either","1","35","","","","","","","0","0","1","","0.331276396","0.2","0.6","0.4","0.8","0.331276396","0.4881994696","0.9300142507","0.1989126294","","","","","","","","","","","","","","72","H","0","img/none_selected.jpg","","63","main_expt","",""
"","bandit","145","260725","0.0-105.0-0.0","73063733","wem/bandit_party_2","A28FA9S6Y1M1I7","either","1","136","","","","","","","0","1","0","","0.5007509184","0.2","0.6","0.4","0.8","0.3984677","0.5007509184","0.8992917639","0.2231035509","","","","","","","","","","","","","","74","J","1","","","64","main_expt","",""
"","bandit","146","262249","0.0-106.0-0.0","73063733","wem/bandit_party_2","A28FA9S6Y1M1I7","either","1","8","","","","","","","0","1","0","","0.7939475476","0.2","0.6","0.4","0.8","0.3012021372","0.6077525222","0.7939475476","0.174077904","","","","","","","","","","","","","","75","K","2","","","65","main_expt","",""
"","bandit","147","263877","0.0-107.0-0.0","73063733","wem/bandit_party_2","A28FA9S6Y1M1I7","either","1","121","","","","","","","0","0","1","0.2848395029","","0.2","0.6","0.4","0.8","","","","","0.2848395029","0.4876759876","0.7848839068","0.1505104035","","","","","","","","","","72","H","0","img/none_selected.jpg","","66","main_expt","",""
"","bandit","148","265556","0.0-108.0-0.0","73063733","wem/bandit_party_2","A28FA9S6Y1M1I7","either","1","171","","","","","","","0","0","1","","0.2908363747","0.2","0.6","0.4","0.8","0.2908363747","0.4705728971","0.7712869283","0.1706094741","","","","","","","","","","","","","","72","H","0","img/none_selected.jpg","","67","main_expt","",""
"","bandit","149","267190","0.0-109.0-0.0","73063733","wem/bandit_party_2","A28FA9S6Y1M1I7","either","1","127","","","","","","","0","1","0","","0.5822594153","0.2","0.6","0.4","0.8","0.3226378352","0.5822594153","0.7426915226","0.193375558","","","","","","","","","","","","","","74","J","1","","","68","main_expt","",""
"","bandit","150","269141","0.0-110.0-0.0","73063733","wem/bandit_party_2","A28FA9S6Y1M1I7","either","1","437","","","","","","","0","1","0","","0.4490581071","0.2","0.6","0.4","0.8","0.4490581071","0.6189715015","0.592712881","0.226811003","","","","","","","","","","","","","","72","H","0","img/none_selected.jpg","","69","main_expt","",""
"","bandit","151","270693","0.0-111.0-0.0","73063733","wem/bandit_party_2","A28FA9S6Y1M1I7","either","1","39","","","","","","","0","0","1","","0.5307799745","0.2","0.6","0.4","0.8","0.42365523","0.5307799745","0.6587085967","0.191142909","","","","","","","","","","","","","","74","J","1","","","70","main_expt","",""
"","bandit","152","272341","0.0-112.0-0.0","73063733","wem/bandit_party_2","A28FA9S6Y1M1I7","either","1","138","","","","","","","1","0","0","0.7562029562","","0.2","0.6","0.4","0.8","","","","","0.427101634","0.5205551237","0.7562029562","0.2371486809","","","","","","","","","","75","K","2","","","71","main_expt","",""
"","bandit","153","273855","0.0-113.0-0.0","73063733","wem/bandit_party_2","A28FA9S6Y1M1I7","either","1","8","","","","","","","0","1","0","","0.670676276","0.2","0.6","0.4","0.8","0.5387899421","0.5913901284","0.670676276","0.2602117984","","","","","","","","","","","","","","75","K","2","","","72","main_expt","",""
"","bandit","154","275649","0.0-114.0-0.0","73063733","wem/bandit_party_2","A28FA9S6Y1M1I7","either","1","284","","","","","","","0","0","1","0.4931252492","","0.2","0.6","0.4","0.8","","","","","0.4931252492","0.7127465592","0.6870219419","0.1837165363","","","","","","","","","","72","H","0","img/none_selected.jpg","","73","main_expt","",""
"","bandit","155","277260","0.0-115.0-0.0","73063733","wem/bandit_party_2","A28FA9S6Y1M1I7","either","1","103","","","","","","","0","0","1","","0.582898469","0.2","0.6","0.4","0.8","0.3888626504","0.7804212289","0.582898469","0.2032334464","","","","","","","","","","","","","","75","K","2","","","74","main_expt","",""
"","bandit","156","278892","0.0-116.0-0.0","73063733","wem/bandit_party_2","A28FA9S6Y1M1I7","either","1","124","","","","","","","0","1","0","","0.3866429177","0.2","0.6","0.4","0.8","0.3866429177","0.7966502287","0.6452442043","0.2782751631","","","","","","","","","","","","","","72","H","0","img/none_selected.jpg","","75","main_expt","",""
"","bandit","157","280621","0.0-117.0-0.0","73063733","wem/bandit_party_2","A28FA9S6Y1M1I7","either","1","218","","","","","","","1","0","0","0.7775959854","","0.2","0.6","0.4","0.8","","","","","0.3948468247","0.7775959854","0.7031137023","0.3318782676","","","","","","","","","","74","J","1","","","76","main_expt","",""
"","bandit","158","282264","0.0-118.0-0.0","73063733","wem/bandit_party_2","A28FA9S6Y1M1I7","either","1","135","","","","","","","1","0","0","0.4853082722","","0.2","0.6","0.4","0.8","","","","","0.4853082722","0.8523583745","0.6096498107","0.312607664","","","","","","","","","","72","H","0","img/none_selected.jpg","","77","main_expt","",""
"","bandit","159","284005","0.0-119.0-0.0","73063733","wem/bandit_party_2","A28FA9S6Y1M1I7","either","1","232","","","","","","","0","1","0","","0.4971609959","0.2","0.6","0.4","0.8","0.4971609959","0.7707034136","0.532302087","0.3250695504","","","","","","","","","","","","","","72","H","0","img/none_selected.jpg","","78","main_expt","",""
"","bandit","160","285540","0.0-120.0-0.0","73063733","wem/bandit_party_2","A28FA9S6Y1M1I7","either","1","30","","","","","","","0","0","1","","0.277144637","0.2","0.6","0.4","0.8","0.5349041547","0.7919080975","0.4448734945","0.277144637","","","","","","","","","","","","","","76","L","3","","","79","main_expt","",""
"","bandit","161","287071","0.0-121.0-0.0","73063733","wem/bandit_party_2","A28FA9S6Y1M1I7","either","1","16","","","","","","","0","0","1","","0.34513516","0.2","0.6","0.4","0.8","0.4713204996","0.8107458935","0.34513516","0.293018971","","","","","","","","","","","","","","75","K","2","","","80","main_expt","",""
"","bandit","162","288617","0.0-122.0-0.0","73063733","wem/bandit_party_2","A28FA9S6Y1M1I7","either","1","37","","","","","","","0","1","0","","0.4132476049","0.2","0.6","0.4","0.8","0.4132476049","0.7851591746","0.406584365","0.2730851157","","","","","","","","","","","","","","72","H","0","img/none_selected.jpg","","81","main_expt","",""
"","bandit","163","290288","0.0-123.0-0.0","73063733","wem/bandit_party_2","A28FA9S6Y1M1I7","either","1","165","","","","","","","0","0","1","","0.4640808921","0.2","0.6","0.4","0.8","0.4640808921","0.8067558171","0.5068312928","0.2436011542","","","","","","","","","","","","","","72","H","0","img/none_selected.jpg","","82","main_expt","",""
"","bandit","164","291805","0.0-124.0-0.0","73063733","wem/bandit_party_2","A28FA9S6Y1M1I7","either","1","10","","","","","","","0","0","1","0.5209063211","","0.2","0.6","0.4","0.8","","","","","0.442115463","0.7777816444","0.5209063211","0.2009218657","","","","","","","","","","75","K","2","","","83","main_expt","",""
"","bandit","165","293438","0.0-125.0-0.0","73063733","wem/bandit_party_2","A28FA9S6Y1M1I7","either","1","126","","","","","","","0","0","1","0.6221591745","","0.2","0.6","0.4","0.8","","","","","0.5117806844","0.7801041195","0.6221591745","0.1550904625","","","","","","","","","","75","K","2","","","84","main_expt","",""
"","bandit","166","294970","0.0-126.0-0.0","73063733","wem/bandit_party_2","A28FA9S6Y1M1I7","either","1","19","","","","","","","0","1","0","","0.6939346182","0.2","0.6","0.4","0.8","0.5309627618","0.7593249252","0.6939346182","0.1193398435","","","","","","","","","","","","","","75","K","2","","","85","main_expt","",""
"","bandit","167","296542","0.0-127.0-0.0","73063733","wem/bandit_party_2","A28FA9S6Y1M1I7","either","1","64","","","","","","","0","0","1","0.1398572341","","0.2","0.6","0.4","0.8","","","","","0.5482659382","0.7911667705","0.7533471596","0.1398572341","","","","","","","","","","76","L","3","","","86","main_expt","",""
"","bandit","168","298309","0.0-128.0-0.0","73063733","wem/bandit_party_2","A28FA9S6Y1M1I7","either","1","256","","","","","","","0","1","0","","0.8040573679","0.2","0.6","0.4","0.8","0.4772076429","0.8480662183","0.8040573679","0.1941505275","","","","","","","","","","","","","","75","K","2","","","87","main_expt","",""
"","bandit","169","300251","0.0-129.0-0.0","73063733","wem/bandit_party_2","A28FA9S6Y1M1I7","either","1","426","","","","","","","0","0","1","0.09645570925","","0.2","0.6","0.4","0.8","","","","","0.5202977678","0.8110462569","0.7800800897","0.09645570925","","","","","","","","","","76","L","3","","","88","main_expt","",""
"","bandit","170","301802","0.0-130.0-0.0","73063733","wem/bandit_party_2","A28FA9S6Y1M1I7","either","1","39","","","","","","","0","0","1","","0.4970482359","0.2","0.6","0.4","0.8","0.4970482359","0.7924414871","0.7329239748","0.1304326216","","","","","","","","","","","","","","72","H","0","img/none_selected.jpg","","89","main_expt","",""
"","bandit","171","303521","0.0-131.0-0.0","73063733","wem/bandit_party_2","A28FA9S6Y1M1I7","either","1","211","","","","","","","0","0","1","","0.4671205494","0.2","0.6","0.4","0.8","0.4671205494","0.8190855249","0.7202813078","0.1410434261","","","","","","","","","","","","","","72","H","0","img/none_selected.jpg","","90","main_expt","",""
"","bandit","172","305174","0.0-132.0-0.0","73063733","wem/bandit_party_2","A28FA9S6Y1M1I7","either","1","143","","","","","","","0","1","0","","0.698586111","0.2","0.6","0.4","0.8","0.5518401665","0.858270253","0.698586111","0.1277095213","","","","","","","","","","","","","","75","K","2","","","91","main_expt","",""
"","bandit","173","306771","0.0-133.0-0.0","73063733","wem/bandit_party_2","A28FA9S6Y1M1I7","either","1","90","","","","","","","1","0","0","0.8583259383","","0.2","0.6","0.4","0.8","","","","","0.620788192","0.8583259383","0.6054304462","0.08596821216","","","","","","","","","","74","J","1","","","92","main_expt","",""
"","bandit","174","308404","0.0-134.0-0.0","73063733","wem/bandit_party_2","A28FA9S6Y1M1I7","either","1","128","","","","","","","0","0","1","0.05652587691","","0.2","0.6","0.4","0.8","","","","","0.679669404","0.8335107661","0.6829204303","0.05652587691","","","","","","","","","","76","L","3","","","93","main_expt","",""
"","bandit","175","309952","0.0-135.0-0.0","73063733","wem/bandit_party_2","A28FA9S6Y1M1I7","either","1","41","","","","","","","0","1","0","","0.6084783934","0.2","0.6","0.4","0.8","0.6726581754","0.8849423118","0.6084783934","0.07490457358","","","","","","","","","","","","","","75","K","2","","","94","main_expt","",""
"","bandit","176","311573","0.0-136.0-0.0","73063733","wem/bandit_party_2","A28FA9S6Y1M1I7","either","1","115","","","","","","","0","1","0","","0.5983950962","0.2","0.6","0.4","0.8","0.5983950962","0.9175662658","0.51962455","0.05201682933","","","","","","","","","","","","","","72","H","0","img/none_selected.jpg","","95","main_expt","",""
"","bandit","177","313120","0.0-137.0-0.0","73063733","wem/bandit_party_2","A28FA9S6Y1M1I7","either","1","39","","","","","","","1","0","0","0.6316158747","","0.2","0.6","0.4","0.8","","","","","0.6316158747","0.8726153548","0.453067158","0.0353667714","","","","","","","","","","72","H","0","img/none_selected.jpg","","96","main_expt","",""
"","bandit","178","314740","0.0-138.0-0.0","73063733","wem/bandit_party_2","A28FA9S6Y1M1I7","either","1","109","","","","","","","0","0","1","0.04301306848","","0.2","0.6","0.4","0.8","","","","","0.6660601513","0.7260562137","0.4090095009","0.04301306848","","","","","","","","","","76","L","3","","","97","main_expt","",""
"","bandit","179","316252","0.0-139.0-0.0","73063733","wem/bandit_party_2","A28FA9S6Y1M1I7","either","1","1","","","","","","","0","0","1","0.6506148609","","0.2","0.6","0.4","0.8","","","","","0.6185462561","0.6506148609","0.360727585","0.03950067624","","","","","","","","","","74","J","1","","","98","main_expt","",""
"","bandit","180","317970","0.0-140.0-0.0","73063733","wem/bandit_party_2","A28FA9S6Y1M1I7","either","1","211","","","","","","","0","0","1","","0.3351327477","0.2","0.6","0.4","0.8","0.581128502","0.5816342488","0.3351327477","0.03156699585","","","","","","","","","","","","","","75","K","2","","","99","main_expt","",""
"","bandit","181","319654","0.0-141.0-0.0","73063733","wem/bandit_party_2","A28FA9S6Y1M1I7","either","1","179","","","","","","","0","0","1","0.0248161238","","0.2","0.6","0.4","0.8","","","","","0.479775063","0.5521464449","0.3491912274","0.0248161238","","","","","","","","","","76","L","3","","","100","main_expt","",""
"","bandit","182","321602","0.0-142.0-0.0","73063733","wem/bandit_party_2","A28FA9S6Y1M1I7","either","1","431","","","","","","","0","0","1","0.02218075004","","0.2","0.6","0.4","0.8","","","","","0.5114647241","0.6063232436","0.4105375765","0.02218075004","","","","","","","","","","76","L","3","","","101","main_expt","",""
"","bandit","183","323821","0.0-143.0-0.0","73063733","wem/bandit_party_2","A28FA9S6Y1M1I7","either","1","705","","","","","","","0","0","1","","0.438632671","0.2","0.6","0.4","0.8","0.4718740674","0.5636213764","0.438632671","0.01802152149","","","","","","","","","","","","","","75","K","2","","","102","main_expt","",""
"","bandit","184","325670","0.0-144.0-0.0","73063733","wem/bandit_party_2","A28FA9S6Y1M1I7","either","1","341","","","","","","","1","0","0","0.372838406","","0.2","0.6","0.4","0.8","","","","","0.5245129891","0.5370473259","0.372838406","0.01877214671","","","","","","","","","","75","K","2","","","103","main_expt","",""
"","bandit","185","327270","0.0-145.0-0.0","73063733","wem/bandit_party_2","A28FA9S6Y1M1I7","either","1","94","","","","","","","0","0","1","0.01556743346","","0.2","0.6","0.4","0.8","","","","","0.5170751474","0.549647281","0.3057692375","0.01556743346","","","","","","","","","","76","L","3","","","104","main_expt","",""
"","bandit","186","328869","0.0-146.0-0.0","73063733","wem/bandit_party_2","A28FA9S6Y1M1I7","either","1","93","","","","","","","0","0","1","","0.4225976111","0.2","0.6","0.4","0.8","0.472330124","0.4225976111","0.37369274","0.03717147126","","","","","","","","","","","","","","74","J","1","","","105","main_expt","",""
"","bandit","187","330470","0.0-147.0-0.0","73063733","wem/bandit_party_2","A28FA9S6Y1M1I7","either","1","91","","","","","","","1","0","0","0.5005163425","","0.2","0.6","0.4","0.8","","","","","0.568133852","0.5005163425","0.3179799449","0.07687033395","","","","","","","","","","74","J","1","","","106","main_expt","",""
"","bandit","188","332071","0.0-148.0-0.0","73063733","wem/bandit_party_2","A28FA9S6Y1M1I7","either","1","95","","","","","","","0","1","0","","0.536018559","0.2","0.6","0.4","0.8","0.536018559","0.3995396385","0.3053765494","0.07659049968","","","","","","","","","","","","","","72","H","0","img/none_selected.jpg","","107","main_expt","",""
"","bandit","189","333693","0.0-149.0-0.0","73063733","wem/bandit_party_2","A28FA9S6Y1M1I7","either","1","116","","","","","","","0","0","1","0.2732860947","","0.2","0.6","0.4","0.8","","","","","0.3880888981","0.3855926336","0.2732860947","0.07827602418","","","","","","","","","","75","K","2","","","108","main_expt","",""
"","bandit","190","336021","0.0-150.0-0.0","73063733","wem/bandit_party_2","A28FA9S6Y1M1I7","either","1","808","","","","","","","0","0","1","","0.2624197952","0.2","0.6","0.4","0.8","0.3675045314","0.3059937163","0.2624197952","0.1352418701","","","","","","","","","","","","","","75","K","2","","","109","main_expt","",""
"","bandit","191","337687","0.0-151.0-0.0","73063733","wem/bandit_party_2","A28FA9S6Y1M1I7","either","1","158","","","","","","","0","1","0","","0.3303210632","0.2","0.6","0.4","0.8","0.4560700489","0.2752892785","0.3303210632","0.1705666919","","","","","","","","","","","","","","75","K","2","","","110","main_expt","",""
"","bandit","192","339357","0.0-152.0-0.0","73063733","wem/bandit_party_2","A28FA9S6Y1M1I7","either","1","163","","","","","","","0","0","1","","0.3541452024","0.2","0.6","0.4","0.8","0.5366389876","0.3038626008","0.3541452024","0.2202970635","","","","","","","","","","","","","","75","K","2","","","111","main_expt","",""
"","bandit","193","340871","0.0-153.0-0.0","73063733","wem/bandit_party_2","A28FA9S6Y1M1I7","either","1","1","","","","","","","0","0","1","0.2308866464","","0.2","0.6","0.4","0.8","","","","","0.5742054707","0.2308866464","0.4468573219","0.2368742277","","","","","","","","","","74","J","1","","","112","main_expt","",""
"","bandit","194","342472","0.0-154.0-0.0","73063733","wem/bandit_party_2","A28FA9S6Y1M1I7","either","1","91","","","","","","","0","1","0","","0.6014260319","0.2","0.6","0.4","0.8","0.6014260319","0.2420052043","0.5163231944","0.2487241586","","","","","","","","","","","","","","72","H","0","img/none_selected.jpg","","113","main_expt","",""
"","bandit","195","344034","0.0-155.0-0.0","73063733","wem/bandit_party_2","A28FA9S6Y1M1I7","either","1","50","","","","","","","0","0","1","","0.5398035654","0.2","0.6","0.4","0.8","0.5398035654","0.3277817495","0.4064640458","0.238824581","","","","","","","","","","","","","","72","H","0","img/none_selected.jpg","","114","main_expt","",""
"","bandit","196","345589","0.0-156.0-0.0","73063733","wem/bandit_party_2","A28FA9S6Y1M1I7","either","1","49","","","","","","","1","0","0","0.1480638281","","0.2","0.6","0.4","0.8","","","","","0.5008208772","0.3280884562","0.4085425191","0.1480638281","","","","","","","","","","76","L","3","","","115","main_expt","",""
"","bandit","197","347100","0.0-157.0-0.0","73063733","wem/bandit_party_2","A28FA9S6Y1M1I7","either","1","1","","","","","","","0","0","1","0.4200837231","","0.2","0.6","0.4","0.8","","","","","0.4200837231","0.4137256642","0.4412864427","0.1246447603","","","","","","","","","","72","H","0","img/none_selected.jpg","","116","main_expt","",""
"","bandit","198","348887","0.0-158.0-0.0","73063733","wem/bandit_party_2","A28FA9S6Y1M1I7","either","1","280","","","","","","","0","0","1","0.372751341","","0.2","0.6","0.4","0.8","","","","","0.4094987027","0.372751341","0.5188885271","0.1308085784","","","","","","","","","","74","J","1","","","117","main_expt","",""
"","bandit","199","350920","0.0-159.0-0.0","73063733","wem/bandit_party_2","A28FA9S6Y1M1I7","either","1","526","","","","","","","1","0","0","0.09076242324","","0.2","0.6","0.4","0.8","","","","","0.3862907493","0.4225631273","0.5728151575","0.09076242324","","","","","","","","","","76","L","3","","","118","main_expt","",""
"","bandit","200","352503","0.0-160.0-0.0","73063733","wem/bandit_party_2","A28FA9S6Y1M1I7","either","1","76","","","","","","","0","0","1","","0.4437318585","0.2","0.6","0.4","0.8","0.4437318585","0.4188482812","0.5065624602","0.09057925276","","","","","","","","","","","","","","72","H","0","img/none_selected.jpg","","119","main_expt","",""
"","bandit","201","354071","0.0-161.0-0.0","73063733","wem/bandit_party_2","A28FA9S6Y1M1I7","either","1","61","","","","","","","0","0","1","0.4064427813","","0.2","0.6","0.4","0.8","","","","","0.293469011","0.3729077829","0.4064427813","0.1288926122","","","","","","","","","","75","K","2","","","120","main_expt","",""
"","bandit","202","355802","0.0-162.0-0.0","73063733","wem/bandit_party_2","A28FA9S6Y1M1I7","either","1","218","","","","","","","0","0","1","","0.2141601759","0.2","0.6","0.4","0.8","0.2141601759","0.3817262037","0.3948988447","0.1479701512","","","","","","","","","","","","","","72","H","0","img/none_selected.jpg","","121","main_expt","",""
"","bandit","203","357541","0.0-163.0-0.0","73063733","wem/bandit_party_2","A28FA9S6Y1M1I7","either","1","231","","","","","","","0","0","1","0.1663524813","","0.2","0.6","0.4","0.8","","","","","0.2594293103","0.3537210734","0.316823658","0.1663524813","","","","","","","","","","76","L","3","","","122","main_expt","",""
"","bandit","204","359238","0.0-164.0-0.0","73063733","wem/bandit_party_2","A28FA9S6Y1M1I7","either","1","190","","","","","","","0","0","1","0.1993917655","","0.2","0.6","0.4","0.8","","","","","0.1519240937","0.3633727708","0.3045978244","0.1993917655","","","","","","","","","","76","L","3","","","123","main_expt","",""
"","bandit","205","360790","0.0-165.0-0.0","73063733","wem/bandit_party_2","A28FA9S6Y1M1I7","either","1","45","","","","","","","0","0","1","0.2389028675","","0.2","0.6","0.4","0.8","","","","","0.2311656533","0.4139908316","0.2389028675","0.2948689786","","","","","","","","","","75","K","2","","","124","main_expt","",""
"","bandit","206","362325","0.0-166.0-0.0","73063733","wem/bandit_party_2","A28FA9S6Y1M1I7","either","1","28","","","","","","","0","0","1","","0.1956748967","0.2","0.6","0.4","0.8","0.1956748967","0.3619800754","0.2166803268","0.4054398129","","","","","","","","","","","","","","72","H","0","img/none_selected.jpg","","125","main_expt","",""
"","bandit","207","363893","0.0-167.0-0.0","73063733","wem/bandit_party_2","A28FA9S6Y1M1I7","either","1","57","","","","","","","0","1","0","","0.1613674106","0.2","0.6","0.4","0.8","0.1419383156","0.353362548","0.1613674106","0.5337661481","","","","","","","","","","","","","","75","K","2","","","126","main_expt","",""
"","bandit","208","365556","0.0-168.0-0.0","73063733","wem/bandit_party_2","A28FA9S6Y1M1I7","either","1","151","","","","","","","0","0","1","","0.1768105291","0.2","0.6","0.4","0.8","0.1768105291","0.2888217425","0.1682412955","0.5510518781","","","","","","","","","","","","","","72","H","0","img/none_selected.jpg","","127","main_expt","",""
"","bandit","209","367169","0.0-169.0-0.0","73063733","wem/bandit_party_2","A28FA9S6Y1M1I7","either","1","104","","","","","","","0","0","1","0.3131893798","","0.2","0.6","0.4","0.8","","","","","0.1187699492","0.3131893798","0.1655910943","0.4746642732","","","","","","","","","","74","J","1","","","128","main_expt","",""
"","bandit","210","368752","0.0-170.0-0.0","73063733","wem/bandit_party_2","A28FA9S6Y1M1I7","either","1","76","","","","","","","0","0","1","","0.5345142674","0.2","0.6","0.4","0.8","0.1860330609","0.2826861836","0.1845506081","0.5345142674","","","","","","","","","","","","","","76","L","3","","","129","main_expt","",""
"","bandit","211","370310","0.0-171.0-0.0","73063733","wem/bandit_party_2","A28FA9S6Y1M1I7","either","1","51","","","","","","","0","0","1","","0.6617219445","0.2","0.6","0.4","0.8","0.09722607165","0.3434973012","0.1548240476","0.6617219445","","","","","","","","","","","","","","76","L","3","","","130","main_expt","",""
"","bandit","212","372141","0.0-172.0-0.0","73063733","wem/bandit_party_2","A28FA9S6Y1M1I7","either","1","321","","","","","","","0","0","1","0.3848082556","","0.2","0.6","0.4","0.8","","","","","0.05626421391","0.3848082556","0.1503989","0.6183560712","","","","","","","","","","74","J","1","","","131","main_expt","",""
"","bandit","213","373741","0.0-173.0-0.0","73063733","wem/bandit_party_2","A28FA9S6Y1M1I7","either","1","87","","","","","","","0","0","1","","0.1149854728","0.2","0.6","0.4","0.8","0.1149854728","0.4140069858","0.1199593994","0.7009512511","","","","","","","","","","","","","","72","H","0","img/none_selected.jpg","","132","main_expt","",""
"","bandit","214","375417","0.0-174.0-0.0","73063733","wem/bandit_party_2","A28FA9S6Y1M1I7","either","1","166","","","","","","","0","1","0","","0.1698175541","0.2","0.6","0.4","0.8","0.1698175541","0.3745017877","0.1518383839","0.5838974895","","","","","","","","","","","","","","72","H","0","img/none_selected.jpg","","133","main_expt","",""
"","bandit","215","379272","0.0-175.0-0.0","73063733","wem/bandit_party_2","A28FA9S6Y1M1I7","either","1","2342","","","","","","","0","0","1","","0.1855528241","0.2","0.6","0.4","0.8","0.1925371395","0.3918835711","0.1855528241","0.6628563986","","","","","","","","","","","","","","75","K","2","","","134","main_expt","",""
"","bandit","216","380985","0.0-176.0-0.0","73063733","wem/bandit_party_2","A28FA9S6Y1M1I7","either","1","203","","","","","","","0","0","1","0.3405764209","","0.2","0.6","0.4","0.8","","","","","0.246136332","0.3405764209","0.2187769305","0.5610912218","","","","","","","","","","74","J","1","","","135","main_expt","",""
"","bandit","217","382494","0.0-177.0-0.0","73063733","wem/bandit_party_2","A28FA9S6Y1M1I7","either","1","1","","","","","","","0","0","1","0.2001534018","","0.2","0.6","0.4","0.8","","","","","0.2277518718","0.4155430462","0.2001534018","0.4834649218","","","","","","","","","","75","K","2","","","136","main_expt","",""
"","bandit","218","384109","0.0-178.0-0.0","73063733","wem/bandit_party_2","A28FA9S6Y1M1I7","either","1","105","","","","","","","0","0","1","","0.252962458","0.2","0.6","0.4","0.8","0.252962458","0.3389252929","0.176995917","0.513072369","","","","","","","","","","","","","","72","H","0","img/none_selected.jpg","","137","main_expt","",""
"","bandit","219","385707","0.0-179.0-0.0","73063733","wem/bandit_party_2","A28FA9S6Y1M1I7","either","1","87","","","","","","","0","0","1","","0.5502636267","0.2","0.6","0.4","0.8","0.3018696236","0.2698753193","0.1460019238","0.5502636267","","","","","","","","","","","","","","76","L","3","","","138","main_expt","",""
"","bandit","220","387309","0.0-180.0-0.0","73063733","wem/bandit_party_2","A28FA9S6Y1M1I7","either","1","96","","","","","","","0","0","1","","0.347353107","0.2","0.6","0.4","0.8","0.347353107","0.2821570394","0.06707115951","0.4564922144","","","","","","","","","","","","","","72","H","0","img/none_selected.jpg","","139","main_expt","",""
"","bandit","221","388941","0.0-181.0-0.0","73063733","wem/bandit_party_2","A28FA9S6Y1M1I7","either","1","120","","","","","","","0","0","1","0.2477375586","","0.2","0.6","0.4","0.8","","","","","0.2477375586","0.3577533322","0.1071331831","0.4116013625","","","","","","","","","","72","H","0","img/none_selected.jpg","","140","main_expt","",""
"","bandit","222","390487","0.0-182.0-0.0","73063733","wem/bandit_party_2","A28FA9S6Y1M1I7","either","1","37","","","","","","","1","0","0","0.4498847811","","0.2","0.6","0.4","0.8","","","","","0.2880826197","0.4250900652","0.1224459691","0.4498847811","","","","","","","","","","76","L","3","","","141","main_expt","",""
"","bandit","223","392001","0.0-183.0-0.0","73063733","wem/bandit_party_2","A28FA9S6Y1M1I7","either","1","3","","","","","","","0","1","0","","0.3451055681","0.2","0.6","0.4","0.8","0.2287108423","0.3451055681","0.1127900777","0.4822150968","","","","","","","","","","","","","","74","J","1","","","142","main_expt","",""
"","bandit","224","393520","0.0-184.0-0.0","73063733","wem/bandit_party_2","A28FA9S6Y1M1I7","either","1","9","","","","","","","0","0","1","0.2096850542","","0.2","0.6","0.4","0.8","","","","","0.2096850542","0.4661026996","0.1736101882","0.513506041","","","","","","","","","","72","H","0","img/none_selected.jpg","","143","main_expt","",""
"","bandit","225","395053","0.0-185.0-0.0","73063733","wem/bandit_party_2","A28FA9S6Y1M1I7","either","1","26","","","","","","","1","0","0","0.4683168179","","0.2","0.6","0.4","0.8","","","","","0.2214165798","0.4683168179","0.1231714597","0.556822441","","","","","","","","","","74","J","1","","","144","main_expt","",""
"","bandit","226","396704","0.0-186.0-0.0","73063733","wem/bandit_party_2","A28FA9S6Y1M1I7","either","1","140","","","","","","","0","1","0","","0.448697065","0.2","0.6","0.4","0.8","0.2412424024","0.448697065","0.10514291","0.5633269006","","","","","","","","","","","","","","74","J","1","","","145","main_expt","",""
"","bandit","227","398237","0.0-187.0-0.0","73063733","wem/bandit_party_2","A28FA9S6Y1M1I7","either","1","25","","","","","","","0","0","1","","0.0972381369","0.2","0.6","0.4","0.8","0.1841611904","0.4560677512","0.0972381369","0.6482805244","","","","","","","","","","","","","","75","K","2","","","146","main_expt","",""
"","bandit","228","399887","0.0-188.0-0.0","73063733","wem/bandit_party_2","A28FA9S6Y1M1I7","either","1","141","","","","","","","0","0","1","0.513472809","","0.2","0.6","0.4","0.8","","","","","0.1577922033","0.513472809","0.1897119627","0.6036290043","","","","","","","","","","74","J","1","","","147","main_expt","",""
"","bandit","229","401569","0.0-189.0-0.0","73063733","wem/bandit_party_2","A28FA9S6Y1M1I7","either","1","173","","","","","","","0","0","1","","0.3820674583","0.2","0.6","0.4","0.8","0.1663963597","0.3820674583","0.1759094881","0.6110248825","","","","","","","","","","","","","","74","J","1","","","148","main_expt","",""
"","bandit","230","403309","0.0-190.0-0.0","73063733","wem/bandit_party_2","A28FA9S6Y1M1I7","either","1","235","","","","","","","1","0","0","0.6453676348","","0.2","0.6","0.4","0.8","","","","","0.319747154","0.3116557105","0.2204336569","0.6453676348","","","","","","","","","","76","L","3","","","149","main_expt","",""
"","bandit","231","404989","0.0-191.0-0.0","73063733","wem/bandit_party_2","A28FA9S6Y1M1I7","either","1","169","","","","","","","0","1","0","","0.5410110608","0.2","0.6","0.4","0.8","0.5410110608","0.3039338698","0.2328853871","0.66235511","","","","","","","","","","","","","","72","H","0","img/none_selected.jpg","","150","main_expt","",""
"","bandit","232","406552","0.0-192.0-0.0","73063733","wem/bandit_party_2","A28FA9S6Y1M1I7","either","1","55","","","","","","","0","0","1","0.3092958796","","0.2","0.6","0.4","0.8","","","","","0.5584745132","0.3092958796","0.2652525627","0.5547575852","","","","","","","","","","74","J","1","","","151","main_expt","",""
"","bandit","233","408077","0.0-193.0-0.0","73063733","wem/bandit_party_2","A28FA9S6Y1M1I7","either","1","18","","","","","","","0","0","1","","0.3097370874","0.2","0.6","0.4","0.8","0.5709378499","0.3097370874","0.2654363334","0.5223098228","","","","","","","","","","","","","","74","J","1","","","152","main_expt","",""
"","bandit","234","409602","0.0-194.0-0.0","73063733","wem/bandit_party_2","A28FA9S6Y1M1I7","either","1","6","","","","","","","1","0","0","0.5137303037","","0.2","0.6","0.4","0.8","","","","","0.6314515046","0.2955649657","0.3505589273","0.5137303037","","","","","","","","","","76","L","3","","","153","main_expt","",""
"","bandit","235","411201","0.0-195.0-0.0","73063733","wem/bandit_party_2","A28FA9S6Y1M1I7","either","1","88","","","","","","","1","0","0","0.5193194566","","0.2","0.6","0.4","0.8","","","","","0.6734276465","0.221553637","0.39889796","0.5193194566","","","","","","","","","","76","L","3","","","154","main_expt","",""
"","bandit","236","412854","0.0-196.0-0.0","73063733","wem/bandit_party_2","A28FA9S6Y1M1I7","either","1","146","","","","","","","0","1","0","","0.7019144477","0.2","0.6","0.4","0.8","0.7019144477","0.2231547498","0.4202606707","0.4736812385","","","","","","","","","","","","","","72","H","0","img/none_selected.jpg","","155","main_expt","",""
"","bandit","237","414585","0.0-197.0-0.0","73063733","wem/bandit_party_2","A28FA9S6Y1M1I7","either","1","223","","","","","","","1","0","0","0.4814159609","","0.2","0.6","0.4","0.8","","","","","0.6695455193","0.2750957943","0.4814159609","0.4616442501","","","","","","","","","","75","K","2","","","156","main_expt","",""
"","bandit","238","416201","0.0-198.0-0.0","73063733","wem/bandit_party_2","A28FA9S6Y1M1I7","either","1","105","","","","","","","0","1","0","","0.6179864128","0.2","0.6","0.4","0.8","0.6179864128","0.2005793054","0.5316807058","0.5025740222","","","","","","","","","","","","","","72","H","0","img/none_selected.jpg","","157","main_expt","",""
"","bandit","239","417737","0.0-199.0-0.0","73063733","wem/bandit_party_2","A28FA9S6Y1M1I7","either","1","27","","","","","","","1","0","0","0.4548105643","","0.2","0.6","0.4","0.8","","","","","0.7380689997","0.2502080146","0.5429668589","0.4548105643","","","","","","","","","","76","L","3","","","158","main_expt","",""
"","bandit","240","419308","0.0-200.0-0.0","73063733","wem/bandit_party_2","A28FA9S6Y1M1I7","either","1","65","","","","","","","0","0","1","","0.5991419929","0.2","0.6","0.4","0.8","0.7632184112","0.2729805177","0.5991419929","0.4622667215","","","","","","","","","","","","","","75","K","2","","","159","main_expt","",""
"","bandit","241","420838","0.0-201.0-0.0","73063733","wem/bandit_party_2","A28FA9S6Y1M1I7","either","1","14","","","","","","","1","0","0","0.4600517474","","0.2","0.6","0.4","0.8","","","","","0.6917664031","0.2801697818","0.6480894682","0.4600517474","","","","","","","","","","76","L","3","","","160","main_expt","",""
"","bandit","242","422454","0.0-202.0-0.0","73063733","wem/bandit_party_2","A28FA9S6Y1M1I7","either","1","109","","","","","","","1","0","0","0.7106531984","","0.2","0.6","0.4","0.8","","","","","0.7106531984","0.2437938608","0.6776161973","0.481388234","","","","","","","","","","72","H","0","img/none_selected.jpg","","161","main_expt","",""
"","bandit","243","424061","0.0-203.0-0.0","73063733","wem/bandit_party_2","A28FA9S6Y1M1I7","either","1","100","","","","","","","1","0","0","0.3850106192","","0.2","0.6","0.4","0.8","","","","","0.809310282","0.2687553501","0.7134031715","0.3850106192","","","","","","","","","","76","L","3","","","162","main_expt","",""
"","bandit","244","425724","0.0-204.0-0.0","73063733","wem/bandit_party_2","A28FA9S6Y1M1I7","either","1","152","","","","","","","0","0","1","","0.7492875705","0.2","0.6","0.4","0.8","0.7492875705","0.245991677","0.6215635068","0.3498723973","","","","","","","","","","","","","","72","H","0","img/none_selected.jpg","","163","main_expt","",""
"","bandit","245","427277","0.0-205.0-0.0","73063733","wem/bandit_party_2","A28FA9S6Y1M1I7","either","1","43","","","","","","","1","0","0","0.4287417444","","0.2","0.6","0.4","0.8","","","","","0.7561394707","0.270385563","0.5219240024","0.4287417444","","","","","","","","","","76","L","3","","","164","main_expt","",""
"","bandit","246","428850","0.0-206.0-0.0","73063733","wem/bandit_party_2","A28FA9S6Y1M1I7","either","1","55","","","","","","","0","1","0","","0.8111415702","0.2","0.6","0.4","0.8","0.8111415702","0.3037855967","0.4727302842","0.3150145745","","","","","","","","","","","","","","72","H","0","img/none_selected.jpg","","165","main_expt","",""
"","bandit","247","430421","0.0-207.0-0.0","73063733","wem/bandit_party_2","A28FA9S6Y1M1I7","either","1","64","","","","","","","0","0","1","","0.7759938205","0.2","0.6","0.4","0.8","0.7759938205","0.3395577104","0.5181018645","0.2927018344","","","","","","","","","","","","","","72","H","0","img/none_selected.jpg","","166","main_expt","",""
"","bandit","248","431970","0.0-208.0-0.0","73063733","wem/bandit_party_2","A28FA9S6Y1M1I7","either","1","38","","","","","","","0","1","0","","0.3443901906","0.2","0.6","0.4","0.8","0.8267633335","0.3443901906","0.5280433419","0.3610256338","","","","","","","","","","","","","","74","J","1","","","167","main_expt","",""
"","bandit","249","433621","0.0-209.0-0.0","73063733","wem/bandit_party_2","A28FA9S6Y1M1I7","either","1","144","","","","","","","0","1","0","","0.8136073627","0.2","0.6","0.4","0.8","0.8136073627","0.2552323567","0.5470010145","0.3137127159","","","","","","","","","","","","","","72","H","0","img/none_selected.jpg","","168","main_expt","",""
"","bandit","250","435188","0.0-210.0-0.0","73063733","wem/bandit_party_2","A28FA9S6Y1M1I7","either","1","61","","","","","","","0","1","0","","0.5558845962","0.2","0.6","0.4","0.8","0.7308533614","0.289352286","0.5558845962","0.2292796242","","","","","","","","","","","","","","75","K","2","","","169","main_expt","",""
"","bandit","251","436758","0.0-211.0-0.0","73063733","wem/bandit_party_2","A28FA9S6Y1M1I7","either","1","62","","","","","","","1","0","0","0.7090730391","","0.2","0.6","0.4","0.8","","","","","0.7090730391","0.2262743404","0.5799309324","0.221948569","","","","","","","","","","72","H","0","img/none_selected.jpg","","170","main_expt","",""
"","bandit","252","438326","0.0-212.0-0.0","73063733","wem/bandit_party_2","A28FA9S6Y1M1I7","either","1","56","","","","","","","0","0","1","0.2644351609","","0.2","0.6","0.4","0.8","","","","","0.7229684446","0.2644351609","0.6643953266","0.159615594","","","","","","","","","","74","J","1","","","171","main_expt","",""
"","bandit","253","440193","0.0-213.0-0.0","73063733","wem/bandit_party_2","A28FA9S6Y1M1I7","either","1","357","","","","","","","0","0","1","","0.7610666705","0.2","0.6","0.4","0.8","0.6612043244","0.4136296373","0.7610666705","0.1303854457","","","","","","","","","","","","","","75","K","2","","","172","main_expt","",""
"","bandit","254","441909","0.0-214.0-0.0","73063733","wem/bandit_party_2","A28FA9S6Y1M1I7","either","1","197","","","","","","","0","0","1","0.07729024622","","0.2","0.6","0.4","0.8","","","","","0.7669021743","0.491318492","0.8006149786","0.07729024622","","","","","","","","","","76","L","3","","","173","main_expt","",""
"","bandit","255","444341","0.0-215.0-0.0","73063733","wem/bandit_party_2","A28FA9S6Y1M1I7","either","1","920","","","","","","","1","0","0","0.4966763124","","0.2","0.6","0.4","0.8","","","","","0.8111867287","0.4966763124","0.791095403","0.1227026474","","","","","","","","","","74","J","1","","","174","main_expt","",""
"","bandit","256","446206","0.0-216.0-0.0","73063733","wem/bandit_party_2","A28FA9S6Y1M1I7","either","1","353","","","","","","","1","0","0","0.8192498968","","0.2","0.6","0.4","0.8","","","","","0.8192498968","0.5109350621","0.8572088762","0.09483306355","","","","","","","","","","72","H","0","img/none_selected.jpg","","175","main_expt","",""
"","bandit","257","447724","0.0-217.0-0.0","73063733","wem/bandit_party_2","A28FA9S6Y1M1I7","either","1","12","","","","","","","0","0","1","0.143069758","","0.2","0.6","0.4","0.8","","","","","0.8371283275","0.6321295754","0.8576080684","0.143069758","","","","","","","","","","76","L","3","","","176","main_expt","",""
"","bandit","258","449239","0.0-218.0-0.0","73063733","wem/bandit_party_2","A28FA9S6Y1M1I7","either","1","1","","","","","","","1","0","0","0.8678158231","","0.2","0.6","0.4","0.8","","","","","0.8545140947","0.5515755996","0.8678158231","0.1741656422","","","","","","","","","","75","K","2","","","177","main_expt","",""
"","bandit","259","450757","0.0-219.0-0.0","73063733","wem/bandit_party_2","A28FA9S6Y1M1I7","either","1","11","","","","","","","0","1","0","","0.8794893657","0.2","0.6","0.4","0.8","0.8794893657","0.5086275016","0.8820542777","0.1904086474","","","","","","","","","","","","","","72","H","0","img/none_selected.jpg","","178","main_expt","",""
"","bandit","260","452439","0.0-220.0-0.0","73063733","wem/bandit_party_2","A28FA9S6Y1M1I7","either","1","174","","","","","","","0","0","1","","0.1778905233","0.2","0.6","0.4","0.8","0.8939587296","0.5215192908","0.8907334788","0.1778905233","","","","","","","","","","","","","","76","L","3","","","179","main_expt","",""
"","bandit","261","454110","0.0-221.0-0.0","73063733","wem/bandit_party_2","A28FA9S6Y1M1I7","either","1","162","","","","","","","0","1","0","","0.9161653667","0.2","0.6","0.4","0.8","0.868077767","0.5193414217","0.9161653667","0.2112817454","","","","","","","","","","","","","","75","K","2","","","180","main_expt","",""
"","bandit","262","455655","0.0-222.0-0.0","73063733","wem/bandit_party_2","A28FA9S6Y1M1I7","either","1","28","","","","","","","0","1","0","","0.9327112184","0.2","0.6","0.4","0.8","0.9295405476","0.4613460131","0.9327112184","0.2236312472","","","","","","","","","","","","","","75","K","2","","","181","main_expt","",""
"","bandit","263","457244","0.0-223.0-0.0","73063733","wem/bandit_party_2","A28FA9S6Y1M1I7","either","1","83","","","","","","","1","0","0","0.4468633868","","0.2","0.6","0.4","0.8","","","","","0.9213574857","0.4468633868","0.9284398706","0.264467441","","","","","","","","","","74","J","1","","","182","main_expt","",""
"","bandit","264","458757","0.0-224.0-0.0","73063733","wem/bandit_party_2","A28FA9S6Y1M1I7","either","1","1","","","","","","","0","0","1","0.2240632979","","0.2","0.6","0.4","0.8","","","","","0.9374560388","0.4985091709","0.89591471","0.2240632979","","","","","","","","","","76","L","3","","","183","main_expt","",""
"","bandit","265","460417","0.0-225.0-0.0","73063733","wem/bandit_party_2","A28FA9S6Y1M1I7","either","1","145","","","","","","","0","1","0","","0.9120054929","0.2","0.6","0.4","0.8","0.9120054929","0.6057575335","0.9146434193","0.1671404848","","","","","","","","","","","","","","72","H","0","img/none_selected.jpg","","184","main_expt","",""
"","bandit","266","461957","0.0-226.0-0.0","73063733","wem/bandit_party_2","A28FA9S6Y1M1I7","either","1","28","","","","","","","0","1","0","","0.8428471033","0.2","0.6","0.4","0.8","0.8428471033","0.4915456485","0.8575823977","0.1932257563","","","","","","","","","","","","","","72","H","0","img/none_selected.jpg","","185","main_expt","",""
"","bandit","267","463693","0.0-227.0-0.0","73063733","wem/bandit_party_2","A28FA9S6Y1M1I7","either","1","223","","","","","","","1","0","0","0.8487952361","","0.2","0.6","0.4","0.8","","","","","0.7734335662","0.5976273718","0.8487952361","0.155472597","","","","","","","","","","75","K","2","","","186","main_expt","",""
"","bandit","268","465271","0.0-228.0-0.0","73063733","wem/bandit_party_2","A28FA9S6Y1M1I7","either","1","65","","","","","","","0","1","0","","0.8603972339","0.2","0.6","0.4","0.8","0.7667319261","0.5743595779","0.8603972339","0.1895871356","","","","","","","","","","","","","","75","K","2","","","187","main_expt","",""
"","bandit","269","467110","0.0-229.0-0.0","73063733","wem/bandit_party_2","A28FA9S6Y1M1I7","either","1","330","","","","","","","0","0","1","0.2119556673","","0.2","0.6","0.4","0.8","","","","","0.5945875292","0.6833173747","0.8834510925","0.2119556673","","","","","","","","","","76","L","3","","","188","main_expt","",""
"","bandit","270","468771","0.0-230.0-0.0","73063733","wem/bandit_party_2","A28FA9S6Y1M1I7","either","1","146","","","","","","","0","0","1","","0.651089354","0.2","0.6","0.4","0.8","0.7406569186","0.651089354","0.8973947779","0.2255007403","","","","","","","","","","","","","","74","J","1","","","189","main_expt","",""
"","bandit","271","470336","0.0-231.0-0.0","73063733","wem/bandit_party_2","A28FA9S6Y1M1I7","either","1","57","","","","","","","0","1","0","","0.8824587855","0.2","0.6","0.4","0.8","0.7371931777","0.6599652607","0.8824587855","0.1754842532","","","","","","","","","","","","","","75","K","2","","","190","main_expt","",""
"","bandit","272","472044","0.0-232.0-0.0","73063733","wem/bandit_party_2","A28FA9S6Y1M1I7","either","1","202","","","","","","","0","1","0","","0.7019705866","0.2","0.6","0.4","0.8","0.7019705866","0.6960236584","0.9076431997","0.1936311571","","","","","","","","","","","","","","72","H","0","img/none_selected.jpg","","191","main_expt","",""
"","bandit","273","473590","0.0-233.0-0.0","73063733","wem/bandit_party_2","A28FA9S6Y1M1I7","either","1","32","","","","","","","1","0","0","0.6198122665","","0.2","0.6","0.4","0.8","","","","","0.6198122665","0.6713911156","0.8673165995","0.215612591","","","","","","","","","","72","H","0","img/none_selected.jpg","","192","main_expt","",""
"","bandit","274","475352","0.0-234.0-0.0","73063733","wem/bandit_party_2","A28FA9S6Y1M1I7","either","1","252","","","","","","","0","0","1","","0.6100930929","0.2","0.6","0.4","0.8","0.6100930929","0.7244072205","0.8264401474","0.2818734505","","","","","","","","","","","","","","72","H","0","img/none_selected.jpg","","193","main_expt","",""
"","bandit","275","476872","0.0-235.0-0.0","73063733","wem/bandit_party_2","A28FA9S6Y1M1I7","either","1","9","","","","","","","0","1","0","","0.6332739585","0.2","0.6","0.4","0.8","0.6332739585","0.7397798508","0.8546086414","0.3616108755","","","","","","","","","","","","","","72","H","0","img/none_selected.jpg","","194","main_expt","",""
"","bandit","276","478493","0.0-236.0-0.0","73063733","wem/bandit_party_2","A28FA9S6Y1M1I7","either","1","114","","","","","","","0","0","1","0.609207161","","0.2","0.6","0.4","0.8","","","","","0.609207161","0.7602069811","0.7914914872","0.3979961615","","","","","","","","","","72","H","0","img/none_selected.jpg","","195","main_expt","",""
"","bandit","277","480054","0.0-237.0-0.0","73063733","wem/bandit_party_2","A28FA9S6Y1M1I7","either","1","48","","","","","","","0","1","0","","0.6560649547","0.2","0.6","0.4","0.8","0.6560649547","0.7114092524","0.7608346536","0.4366641927","","","","","","","","","","","","","","72","H","0","img/none_selected.jpg","","196","main_expt","",""
"","bandit","278","481740","0.0-238.0-0.0","73063733","wem/bandit_party_2","A28FA9S6Y1M1I7","either","1","178","","","","","","","1","0","0","0.7003784325","","0.2","0.6","0.4","0.8","","","","","0.6656533059","0.6917424169","0.7003784325","0.560782874","","","","","","","","","","75","K","2","","","197","main_expt","",""
"","bandit","279","483304","0.0-239.0-0.0","73063733","wem/bandit_party_2","A28FA9S6Y1M1I7","either","1","53","","","","","","","0","1","0","","0.6841747727","0.2","0.6","0.4","0.8","0.6841747727","0.6561069913","0.6036075577","0.5649388288","","","","","","","","","","","","","","72","H","0","img/none_selected.jpg","","198","main_expt","",""
"","bandit","280","485002","0.0-240.0-0.0","73063733","wem/bandit_party_2","A28FA9S6Y1M1I7","either","1","185","","","","","","","0","1","0","","0.6948346643","0.2","0.6","0.4","0.8","0.7105065455","0.6948346643","0.5843314555","0.5375892324","","","","","","","","","","","","","","74","J","1","","","199","main_expt","",""
"","bandit","281","486602","0.0-241.0-0.0","73063733","wem/bandit_party_2","A28FA9S6Y1M1I7","either","1","88","","","","","","","0","0","1","0.5625167851","","0.2","0.6","0.4","0.8","","","","","0.7380433654","0.7369743936","0.539414212","0.5625167851","","","","","","","","","","76","L","3","","","200","main_expt","",""
"","bandit","282","488170","0.0-242.0-0.0","73063733","wem/bandit_party_2","A28FA9S6Y1M1I7","either","1","56","","","","","","","0","0","1","0.3774065742","","0.2","0.6","0.4","0.8","","","","","0.6432951689","0.8347268415","0.3774065742","0.6266810217","","","","","","","","","","75","K","2","","","201","main_expt","",""
"","bandit","283","489985","0.0-243.0-0.0","73063733","wem/bandit_party_2","A28FA9S6Y1M1I7","either","1","303","","","","","","","0","0","1","","0.4995879772","0.2","0.6","0.4","0.8","0.4995879772","0.7612264534","0.2824615609","0.6661075828","","","","","","","","","","","","","","72","H","0","img/none_selected.jpg","","202","main_expt","",""
"","bandit","284","491892","0.0-244.0-0.0","73063733","wem/bandit_party_2","A28FA9S6Y1M1I7","either","1","400","","","","","","","0","1","0","","0.6904596671","0.2","0.6","0.4","0.8","0.4767352753","0.6904596671","0.210170224","0.7534099026","","","","","","","","","","","","","","74","J","1","","","203","main_expt","",""
"","bandit","285","493570","0.0-245.0-0.0","73063733","wem/bandit_party_2","A28FA9S6Y1M1I7","either","1","163","","","","","","","0","1","0","","0.3680612217","0.2","0.6","0.4","0.8","0.3680612217","0.6855485072","0.2708138581","0.7033522103","","","","","","","","","","","","","","72","H","0","img/none_selected.jpg","","204","main_expt","",""
"","bandit","286","495218","0.0-246.0-0.0","73063733","wem/bandit_party_2","A28FA9S6Y1M1I7","either","1","136","","","","","","","0","0","1","","0.3404512965","0.2","0.6","0.4","0.8","0.3404512965","0.7006332368","0.3319820794","0.6105989365","","","","","","","","","","","","","","72","H","0","img/none_selected.jpg","","205","main_expt","",""
"","bandit","287","496727","0.0-247.0-0.0","73063733","wem/bandit_party_2","A28FA9S6Y1M1I7","either","1","0","","","","","","","0","0","1","","0.2774568564","0.2","0.6","0.4","0.8","0.2774568564","0.7533130943","0.3517339603","0.725137222","","","","","","","","","","","","","","72","H","0","img/none_selected.jpg","","206","main_expt","",""
"","bandit","288","498325","0.0-248.0-0.0","73063733","wem/bandit_party_2","A28FA9S6Y1M1I7","either","1","85","","","","","","","0","0","1","0.2228883469","","0.2","0.6","0.4","0.8","","","","","0.2228883469","0.7191760557","0.2871079035","0.5888984072","","","","","","","","","","72","H","0","img/none_selected.jpg","","207","main_expt","",""
"","bandit","289","500093","0.0-249.0-0.0","73063733","wem/bandit_party_2","A28FA9S6Y1M1I7","either","1","259","","","","","","","0","0","1","","0.2829247412","0.2","0.6","0.4","0.8","0.2829247412","0.6264293856","0.2642306377","0.4650323514","","","","","","","","","","","","","","72","H","0","img/none_selected.jpg","","208","main_expt","",""
"","bandit","290","501621","0.0-250.0-0.0","73063733","wem/bandit_party_2","A28FA9S6Y1M1I7","either","1","14","","","","","","","0","0","1","0.3169104167","","0.2","0.6","0.4","0.8","","","","","0.3169104167","0.6500478562","0.3587725811","0.4100719568","","","","","","","","","","72","H","0","img/none_selected.jpg","","209","main_expt","",""
"","bandit","291","503254","0.0-251.0-0.0","73063733","wem/bandit_party_2","A28FA9S6Y1M1I7","either","1","125","","","","","","","0","0","1","","0.3103342645","0.2","0.6","0.4","0.8","0.2090062306","0.6498865343","0.3103342645","0.5177296744","","","","","","","","","","","","","","75","K","2","","","210","main_expt","",""
"","bandit","292","504802","0.0-252.0-0.0","73063733","wem/bandit_party_2","A28FA9S6Y1M1I7","either","1","36","","","","","","","0","1","0","","0.1481662818","0.2","0.6","0.4","0.8","0.1481662818","0.6056301442","0.3760595068","0.5950812693","","","","","","","","","","","","","","72","H","0","img/none_selected.jpg","","211","main_expt","",""
"","bandit","293","506373","0.0-253.0-0.0","73063733","wem/bandit_party_2","A28FA9S6Y1M1I7","either","1","55","","","","","","","0","1","0","","0.2114888193","0.2","0.6","0.4","0.8","0.2114888193","0.5524844402","0.447023013","0.7169745983","","","","","","","","","","","","","","72","H","0","img/none_selected.jpg","","212","main_expt","",""
"","bandit","294","507885","0.0-254.0-0.0","73063733","wem/bandit_party_2","A28FA9S6Y1M1I7","either","1","4","","","","","","","0","1","0","","0.4529182837","0.2","0.6","0.4","0.8","0.2234642754","0.6984249358","0.4529182837","0.6766124197","","","","","","","","","","","","","","75","K","2","","","213","main_expt","",""
"","bandit","295","509402","0.0-255.0-0.0","73063733","wem/bandit_party_2","A28FA9S6Y1M1I7","either","1","4","","","","","","","0","0","1","","0.2315139555","0.2","0.6","0.4","0.8","0.2315139555","0.5996975418","0.4306534983","0.8005648136","","","","","","","","","","","","","","72","H","0","img/none_selected.jpg","","214","main_expt","",""
"","bandit","296","511021","0.0-256.0-0.0","73063733","wem/bandit_party_2","A28FA9S6Y1M1I7","either","1","111","","","","","","","0","0","1","","0.1949488974","0.2","0.6","0.4","0.8","0.1949488974","0.6067129047","0.4314469479","0.8487964291","","","","","","","","","","","","","","72","H","0","img/none_selected.jpg","","215","main_expt","",""
"","bandit","297","512629","0.0-257.0-0.0","73063733","wem/bandit_party_2","A28FA9S6Y1M1I7","either","1","100","","","","","","","0","0","1","","0.45439575","0.2","0.6","0.4","0.8","0.2333303883","0.6297976658","0.45439575","0.8674123454","","","","","","","","","","","","","","75","K","2","","","216","main_expt","",""
"","bandit","298","514184","0.0-258.0-0.0","73063733","wem/bandit_party_2","A28FA9S6Y1M1I7","either","1","38","","","","","","","0","0","1","","0.5228861726","0.2","0.6","0.4","0.8","0.2027763819","0.6095272491","0.5228861726","0.8774404243","","","","","","","","","","","","","","75","K","2","","","217","main_expt","",""
"","bandit","299","515819","0.0-259.0-0.0","73063733","wem/bandit_party_2","A28FA9S6Y1M1I7","either","1","120","","","","","","","0","0","1","","0.1895874514","0.2","0.6","0.4","0.8","0.1895874514","0.7058099393","0.463703458","0.8836448068","","","","","","","","","","","","","","72","H","0","img/none_selected.jpg","","218","main_expt","",""
"","bandit","300","517444","0.0-260.0-0.0","73063733","wem/bandit_party_2","A28FA9S6Y1M1I7","either","1","117","","","","","","","1","0","0","0.880498508","","0.2","0.6","0.4","0.8","","","","","0.1537120117","0.7396246451","0.4522864467","0.880498508","","","","","","","","","","76","L","3","","","219","main_expt","",""
"","bandit","301","519108","0.0-261.0-0.0","73063733","wem/bandit_party_2","A28FA9S6Y1M1I7","either","1","152","","","","","","","0","0","1","","0.2022747423","0.2","0.6","0.4","0.8","0.2022747423","0.7091968036","0.4561576612","0.8740874997","","","","","","","","","","","","","","72","H","0","img/none_selected.jpg","","220","main_expt","",""
"","bandit","302","520725","0.0-262.0-0.0","73063733","wem/bandit_party_2","A28FA9S6Y1M1I7","either","1","105","","","","","","","0","0","1","","0.3174413427","0.2","0.6","0.4","0.8","0.3174413427","0.7116308873","0.4264657168","0.8527830905","","","","","","","","","","","","","","72","H","0","img/none_selected.jpg","","221","main_expt","",""
"","bandit","303","522239","0.0-263.0-0.0","73063733","wem/bandit_party_2","A28FA9S6Y1M1I7","either","1","1","","","","","","","0","0","1","0.2315667073","","0.2","0.6","0.4","0.8","","","","","0.2315667073","0.769465391","0.3055141729","0.7717907476","","","","","","","","","","72","H","0","img/none_selected.jpg","","222","main_expt","",""
"","bandit","304","524704","0.0-264.0-0.0","73063733","wem/bandit_party_2","A28FA9S6Y1M1I7","either","1","955","","","","","","","0","0","1","","0.2261006122","0.2","0.6","0.4","0.8","0.2261006122","0.7509006974","0.2868954791","0.8359700354","","","","","","","","","","","","","","72","H","0","img/none_selected.jpg","","223","main_expt","",""
"","bandit","305","526261","0.0-265.0-0.0","73063733","wem/bandit_party_2","A28FA9S6Y1M1I7","either","1","48","","","","","","","0","0","1","","0.2662378096","0.2","0.6","0.4","0.8","0.2662378096","0.7007688409","0.2698185242","0.819670806","","","","","","","","","","","","","","72","H","0","img/none_selected.jpg","","224","main_expt","",""
"","bandit","306","527871","0.0-266.0-0.0","73063733","wem/bandit_party_2","A28FA9S6Y1M1I7","either","1","96","","","","","","","0","0","1","0.2163280173","","0.2","0.6","0.4","0.8","","","","","0.2163280173","0.7409020096","0.213842325","0.8512382749","","","","","","","","","","72","H","0","img/none_selected.jpg","","225","main_expt","",""
"","bandit","307","529740","0.0-267.0-0.0","73063733","wem/bandit_party_2","A28FA9S6Y1M1I7","either","1","361","","","","","","","0","0","1","","0.1616408491","0.2","0.6","0.4","0.8","0.2809353625","0.7052945704","0.1616408491","0.8342861847","","","","","","","","","","","","","","75","K","2","","","226","main_expt","",""
"","bandit","308","531273","0.0-268.0-0.0","73063733","wem/bandit_party_2","A28FA9S6Y1M1I7","either","1","16","","","","","","","0","0","1","0.2396571279","","0.2","0.6","0.4","0.8","","","","","0.2396571279","0.606091252","0.1777599287","0.7736041865","","","","","","","","","","72","H","0","img/none_selected.jpg","","227","main_expt","",""
"","bandit","309","533006","0.0-269.0-0.0","73063733","wem/bandit_party_2","A28FA9S6Y1M1I7","either","1","225","","","","","","","0","0","1","0.5834203199","","0.2","0.6","0.4","0.8","","","","","0.3430446928","0.5834203199","0.2866543064","0.8094350608","","","","","","","","","","74","J","1","","","228","main_expt","",""
"","bandit","310","534574","0.0-270.0-0.0","73063733","wem/bandit_party_2","A28FA9S6Y1M1I7","either","1","60","","","","","","","0","0","1","","0.2886233194","0.2","0.6","0.4","0.8","0.2886233194","0.5466214007","0.3948293382","0.8078722129","","","","","","","","","","","","","","72","H","0","img/none_selected.jpg","","229","main_expt","",""
"","bandit","311","536356","0.0-271.0-0.0","73063733","wem/bandit_party_2","A28FA9S6Y1M1I7","either","1","275","","","","","","","1","0","0","0.5519014059","","0.2","0.6","0.4","0.8","","","","","0.3213731463","0.5519014059","0.3291786684","0.7719043616","","","","","","","","","","74","J","1","","","230","main_expt","",""
"","bandit","312","538005","0.0-272.0-0.0","73063733","wem/bandit_party_2","A28FA9S6Y1M1I7","either","1","141","","","","","","","0","0","1","","0.2378236032","0.2","0.6","0.4","0.8","0.2771614906","0.4527164215","0.2378236032","0.8049264475","","","","","","","","","","","","","","75","K","2","","","231","main_expt","",""
