"consent","trial_type","trial_index","time_elapsed","internal_node_id","subjID","study","MID","cond","drift","rt","responses","button_pressed","key_press","like","value","connected","gems","bombs","no_reward","GemPrChosen","BombPrChosen","GainOverPainPr_0","GainOverPainPr_1","GainOverPainPr_2","GainOverPainPr_3","LosePr_0","LosePr_1","LosePr_2","LosePr_3","WinPr_0","WinPr_1","WinPr_2","WinPr_3","Q0","Q1","Q2","gender","age","ethnicity","label","expt_phase","target","respCharCode","respKey","respChoiceNum","respChoice","practice","trial_counter","trial_label","Q0_index"
"GDM/GDM_behavioral_consent_30min_online.html","consent","0","11266","0.0-0.0","73119746","wem/bandit_party_2","AQSB97UW88SO2","either","6","","","","","","","","","","","","","","","","","","","","","","","","","","","","","","","","","","","","","","","","",""
"","survey-text","1","14916","0.0-1.0","73119746","wem/bandit_party_2","AQSB97UW88SO2","either","6","2643","{""Q0"":""AQSB97UW88SO2""}","","","","","","","","","","","","","","","","","","","","","","","","","","","","","","","","","","","","","","",""
"","button-response","2","17426","0.0-2.0","73119746","wem/bandit_party_2","AQSB97UW88SO2","either","6","1507","","2","","","","","","","","","","","","","","","","","","","","","","","","","","","","","","","","","","","","","",""
"","text-replacement","3","23125","0.0-3.0","73119746","wem/bandit_party_2","AQSB97UW88SO2","either","6","4695","","","32","","","","","","","","","","","","","","","","","","","","","","","","","","","","","","","","","","","","",""
"","text-replacement","4","35161","0.0-4.0","73119746","wem/bandit_party_2","AQSB97UW88SO2","either","6","12036","","","32","","","","","","","","","","","","","","","","","","","","","","","","","","","","","","","","","","","","",""
"","text-replacement","5","58835","0.0-5.0-0.0","73119746","wem/bandit_party_2","AQSB97UW88SO2","either","6","23671","","","32","","","","","","","","","","","","","","","","","","","","","","","","","","","","","","","","","","","","",""
"","identification","6","88187","0.0-6.0-0.0","73119746","wem/bandit_party_2","AQSB97UW88SO2","either","6","29337","","","","3","3","3","","","","","","","","","","","","","","","","","","","","","","","","pre","identification_pre","the Democratic Party","","","","","","","",""
"","identification","7","92472","0.0-6.0-1.0","73119746","wem/bandit_party_2","AQSB97UW88SO2","either","6","3276","","","","3","3","3","","","","","","","","","","","","","","","","","","","","","","","","pre","identification_pre","the Republican Party","","","","","","","",""
"","text-replacement","8","103769","0.0-7.0","73119746","wem/bandit_party_2","AQSB97UW88SO2","either","6","10296","","","32","","","","","","","","","","","","","","","","","","","","","","","","","","","","","","","","","","","","",""
"","text-replacement","9","112793","0.0-8.0","73119746","wem/bandit_party_2","AQSB97UW88SO2","either","6","9022","","","32","","","","","","","","","","","","","","","","","","","","","","","","","","","","","","","","","","","","",""
"","text-replacement","10","122858","0.0-9.0","73119746","wem/bandit_party_2","AQSB97UW88SO2","either","6","10063","","","32","","","","","","","","","","","","","","","","","","","","","","","","","","","","","","","","","","","","",""
"","text-replacement","11","129163","0.0-10.0","73119746","wem/bandit_party_2","AQSB97UW88SO2","either","6","6303","","","32","","","","","","","","","","","","","","","","","","","","","","","","","","","","","","","","","","","","",""
"","text-replacement","12","140562","0.0-11.0","73119746","wem/bandit_party_2","AQSB97UW88SO2","either","6","11398","","","32","","","","","","","","","","","","","","","","","","","","","","","","","","","","","","","","","","","","",""
"","bandit","13","145449","0.0-12.0-0.0","73119746","wem/bandit_party_2","AQSB97UW88SO2","either","6","3381","","","","","","","0","0","1","0","0","","","","","0","","","","0","","","","","","","","","","","","","74","J","0","img/none_selected_demo.jpg","true","0","",""
"","bandit","14","147578","0.0-13.0-0.0","73119746","wem/bandit_party_2","AQSB97UW88SO2","either","6","624","","","","","","","0","0","1","0","0","","","","","0","","","","0","","","","","","","","","","","","","75","K","0","img/none_selected_demo.jpg","true","0","",""
"","text-replacement","15","156706","0.0-14.0","73119746","wem/bandit_party_2","AQSB97UW88SO2","either","6","9127","","","32","","","","","","","","","","","","","","","","","","","","","","","","","","","","","","","","","","","","",""
"","text-replacement","16","166434","0.0-15.0","73119746","wem/bandit_party_2","AQSB97UW88SO2","either","6","9727","","","32","","","","","","","","","","","","","","","","","","","","","","","","","","","","","","","","","","","","",""
"","text-replacement","17","181666","0.0-16.0","73119746","wem/bandit_party_2","AQSB97UW88SO2","either","6","15231","","","32","","","","","","","","","","","","","","","","","","","","","","","","","","","","","","","","","","","","",""
"","text-replacement","18","187562","0.0-17.0","73119746","wem/bandit_party_2","AQSB97UW88SO2","either","6","5894","","","32","","","","","","","","","","","","","","","","","","","","","","","","","","","","","","","","","","","","",""
"","bandit","19","189993","0.0-18.0-0.0","73119746","wem/bandit_party_2","AQSB97UW88SO2","either","6","925","","","","","","","1","0","0","0.8","","0.5","0.5","","","","","","","0.8","0.2","","","","","","","","","","","","74","J","0","img/none_selected_demo.jpg","true","0","80_20_practice",""
"","bandit","20","192024","0.0-18.0-1.0","73119746","wem/bandit_party_2","AQSB97UW88SO2","either","6","527","","","","","","","0","1","0","","0.8","0.5","0.5","","","0.8","0.2","","","","","","","","","","","","","","","","74","J","0","img/none_selected_demo.jpg","true","0","80_20_practice",""
"","bandit","21","194362","0.0-18.0-2.0","73119746","wem/bandit_party_2","AQSB97UW88SO2","either","6","832","","","","","","","0","1","0","","0.8","0.5","0.5","","","0.8","0.2","","","","","","","","","","","","","","","","74","J","0","img/none_selected_demo.jpg","true","0","80_20_practice",""
"","bandit","22","196536","0.0-18.0-3.0","73119746","wem/bandit_party_2","AQSB97UW88SO2","either","6","669","","","","","","","1","0","0","0.8","","0.5","0.5","","","","","","","0.8","0.2","","","","","","","","","","","","74","J","0","img/none_selected_demo.jpg","true","0","80_20_practice",""
"","bandit","23","199784","0.0-18.0-4.0","73119746","wem/bandit_party_2","AQSB97UW88SO2","either","6","1744","","","","","","","0","1","0","","0.8","0.5","0.5","","","0.8","0.2","","","","","","","","","","","","","","","","74","J","0","img/none_selected_demo.jpg","true","0","80_20_practice",""
"","bandit","24","202072","0.0-18.0-5.0","73119746","wem/bandit_party_2","AQSB97UW88SO2","either","6","784","","","","","","","1","0","0","0.8","","0.5","0.5","","","","","","","0.8","0.2","","","","","","","","","","","","74","J","0","img/none_selected_demo.jpg","true","0","80_20_practice",""
"","bandit","25","204657","0.0-18.0-6.0","73119746","wem/bandit_party_2","AQSB97UW88SO2","either","6","1080","","","","","","","0","1","0","","0.8","0.5","0.5","","","0.8","0.2","","","","","","","","","","","","","","","","74","J","0","img/none_selected_demo.jpg","true","0","80_20_practice",""
"","bandit","26","206465","0.0-18.0-7.0","73119746","wem/bandit_party_2","AQSB97UW88SO2","either","6","303","","","","","","","0","0","1","","0.2","0.5","0.5","","","0.8","0.2","","","","","","","","","","","","","","","","75","K","1","","true","0","80_20_practice",""
"","bandit","27","208353","0.0-18.0-8.0","73119746","wem/bandit_party_2","AQSB97UW88SO2","either","6","384","","","","","","","0","0","1","","0.2","0.5","0.5","","","0.8","0.2","","","","","","","","","","","","","","","","75","K","1","","true","0","80_20_practice",""
"","bandit","28","210289","0.0-18.0-9.0","73119746","wem/bandit_party_2","AQSB97UW88SO2","either","6","431","","","","","","","0","0","1","0.2","","0.5","0.5","","","","","","","0.8","0.2","","","","","","","","","","","","75","K","1","","true","0","80_20_practice",""
"","bandit","29","212105","0.0-18.0-10.0","73119746","wem/bandit_party_2","AQSB97UW88SO2","either","6","309","","","","","","","1","0","0","0.2","","0.5","0.5","","","","","","","0.8","0.2","","","","","","","","","","","","75","K","1","","true","0","80_20_practice",""
"","bandit","30","213936","0.0-18.0-11.0","73119746","wem/bandit_party_2","AQSB97UW88SO2","either","6","327","","","","","","","0","1","0","","0.2","0.5","0.5","","","0.8","0.2","","","","","","","","","","","","","","","","75","K","1","","true","0","80_20_practice",""
"","bandit","31","215634","0.0-18.0-12.0","73119746","wem/bandit_party_2","AQSB97UW88SO2","either","6","193","","","","","","","0","0","1","","0.2","0.5","0.5","","","0.8","0.2","","","","","","","","","","","","","","","","75","K","1","","true","0","80_20_practice",""
"","bandit","32","217241","0.0-18.0-13.0","73119746","wem/bandit_party_2","AQSB97UW88SO2","either","6","102","","","","","","","0","0","1","0.2","","0.5","0.5","","","","","","","0.8","0.2","","","","","","","","","","","","75","K","1","","true","0","80_20_practice",""
"","bandit","33","219105","0.0-18.0-14.0","73119746","wem/bandit_party_2","AQSB97UW88SO2","either","6","358","","","","","","","1","0","0","0.2","","0.5","0.5","","","","","","","0.8","0.2","","","","","","","","","","","","75","K","1","","true","0","80_20_practice",""
"","bandit","34","220986","0.0-18.0-15.0","73119746","wem/bandit_party_2","AQSB97UW88SO2","either","6","376","","","","","","","0","1","0","","0.2","0.5","0.5","","","0.8","0.2","","","","","","","","","","","","","","","","75","K","1","","true","0","80_20_practice",""
"","bandit","35","222825","0.0-18.0-16.0","73119746","wem/bandit_party_2","AQSB97UW88SO2","either","6","330","","","","","","","1","0","0","0.2","","0.5","0.5","","","","","","","0.8","0.2","","","","","","","","","","","","75","K","1","","true","0","80_20_practice",""
"","bandit","36","224400","0.0-18.0-17.0","73119746","wem/bandit_party_2","AQSB97UW88SO2","either","6","71","","","","","","","0","0","1","","0.8","0.5","0.5","","","0.8","0.2","","","","","","","","","","","","","","","","74","J","0","img/none_selected_demo.jpg","true","0","80_20_practice",""
"","bandit","37","226106","0.0-18.0-18.0","73119746","wem/bandit_party_2","AQSB97UW88SO2","either","6","200","","","","","","","0","1","0","","0.8","0.5","0.5","","","0.8","0.2","","","","","","","","","","","","","","","","74","J","0","img/none_selected_demo.jpg","true","0","80_20_practice",""
"","bandit","38","227713","0.0-18.0-19.0","73119746","wem/bandit_party_2","AQSB97UW88SO2","either","6","102","","","","","","","0","1","0","","0.8","0.5","0.5","","","0.8","0.2","","","","","","","","","","","","","","","","74","J","0","img/none_selected_demo.jpg","true","0","80_20_practice",""
"","text-replacement","39","236283","0.0-19.0","73119746","wem/bandit_party_2","AQSB97UW88SO2","either","6","8568","","","32","","","","","","","","","","","","","","","","","","","","","","","","","","","","","","","","","","","","",""
"","bandit","40","242777","0.0-20.0-0.0","73119746","wem/bandit_party_2","AQSB97UW88SO2","either","6","4989","","","","","","","0","1","0","0","1","","","","","0","1","","","1","0","","","","","","","","","","","","75","K","1","","true","0","",""
"","text-replacement","41","250905","0.0-21.0","73119746","wem/bandit_party_2","AQSB97UW88SO2","either","6","8127","","","32","","","","","","","","","","","","","","","","","","","","","","","","","","","","","","","","","","","","",""
"","text-replacement","42","256513","0.0-22.0","73119746","wem/bandit_party_2","AQSB97UW88SO2","either","6","5607","","","32","","","","","","","","","","","","","","","","","","","","","","","","","","","","","","","","","","","","",""
"","text-replacement","43","259809","0.0-23.0","73119746","wem/bandit_party_2","AQSB97UW88SO2","either","6","3295","","","32","","","","","","","","","","","","","","","","","","","","","","","","","","","","","","","","","","","","",""
"","text-replacement","44","263770","0.0-24.0","73119746","wem/bandit_party_2","AQSB97UW88SO2","either","6","3959","","","32","","","","","","","","","","","","","","","","","","","","","","","","","","","","","","","","","","","","",""
"","text-replacement","45","271841","0.0-25.0","73119746","wem/bandit_party_2","AQSB97UW88SO2","either","6","8070","","","32","","","","","","","","","","","","","","","","","","","","","","","","","","","","","","","","","","","","",""
"","text-replacement","46","274705","0.0-26.0","73119746","wem/bandit_party_2","AQSB97UW88SO2","either","6","2863","","","32","","","","","","","","","","","","","","","","","","","","","","","","","","","","","","","","","","","","",""
"","text-replacement","47","278849","0.0-27.0","73119746","wem/bandit_party_2","AQSB97UW88SO2","either","6","4142","","","32","","","","","","","","","","","","","","","","","","","","","","","","","","","","","","","","","","","","",""
"","text-replacement","48","281441","0.0-28.0","73119746","wem/bandit_party_2","AQSB97UW88SO2","either","6","2591","","","32","","","","","","","","","","","","","","","","","","","","","","","","","","","","","","","","","","","","",""
"","text-replacement","49","288681","0.0-29.0","73119746","wem/bandit_party_2","AQSB97UW88SO2","either","6","7239","","","32","","","","","","","","","","","","","","","","","","","","","","","","","","","","","","","","","","","","",""
"","text-replacement","50","290673","0.0-30.0","73119746","wem/bandit_party_2","AQSB97UW88SO2","either","6","1991","","","32","","","","","","","","","","","","","","","","","","","","","","","","","","","","","","","","","","","","",""
"","text-replacement","51","295273","0.0-31.0","73119746","wem/bandit_party_2","AQSB97UW88SO2","either","6","4597","","","32","","","","","","","","","","","","","","","","","","","","","","","","","","","","","","","","","","","","",""
"","bandit","52","297464","0.0-32.0-0.0","73119746","wem/bandit_party_2","AQSB97UW88SO2","either","6","687","","","","","","","1","0","0","0.8","","0.5","0.5","0.5","0.5","","","","","0.8","0.2","0.6","0.2","","","","","","","","","","72","H","0","img/none_selected.jpg","true","0","full_practice",""
"","bandit","53","299272","0.0-32.0-1.0","73119746","wem/bandit_party_2","AQSB97UW88SO2","either","6","303","","","","","","","0","0","1","0.2","","0.5","0.5","0.5","0.5","","","","","0.8","0.2","0.6","0.2","","","","","","","","","","74","J","1","","true","0","full_practice",""
"","bandit","54","301039","0.0-32.0-2.0","73119746","wem/bandit_party_2","AQSB97UW88SO2","either","6","263","","","","","","","0","0","1","","0.6","0.5","0.5","0.5","0.5","0.8","0.2","0.6","0.2","","","","","","","","","","","","","","75","K","2","","true","0","full_practice",""
"","bandit","55","302856","0.0-32.0-3.0","73119746","wem/bandit_party_2","AQSB97UW88SO2","either","6","310","","","","","","","0","0","1","0.2","","0.5","0.5","0.5","0.5","","","","","0.8","0.2","0.6","0.2","","","","","","","","","","76","L","3","","true","0","full_practice",""
"","bandit","56","304665","0.0-32.0-4.0","73119746","wem/bandit_party_2","AQSB97UW88SO2","either","6","304","","","","","","","0","1","0","","0.8","0.5","0.5","0.5","0.5","0.8","0.2","0.6","0.2","","","","","","","","","","","","","","72","H","0","img/none_selected.jpg","true","0","full_practice",""
"","bandit","57","306466","0.0-32.0-5.0","73119746","wem/bandit_party_2","AQSB97UW88SO2","either","6","293","","","","","","","1","0","0","0.8","","0.5","0.5","0.5","0.5","","","","","0.8","0.2","0.6","0.2","","","","","","","","","","72","H","0","img/none_selected.jpg","true","0","full_practice",""
"","bandit","58","308297","0.0-32.0-6.0","73119746","wem/bandit_party_2","AQSB97UW88SO2","either","6","324","","","","","","","0","0","1","","0.8","0.5","0.5","0.5","0.5","0.8","0.2","0.6","0.2","","","","","","","","","","","","","","72","H","0","img/none_selected.jpg","true","0","full_practice",""
"","bandit","59","310247","0.0-32.0-7.0","73119746","wem/bandit_party_2","AQSB97UW88SO2","either","6","445","","","","","","","0","0","1","0.2","","0.5","0.5","0.5","0.5","","","","","0.8","0.2","0.6","0.2","","","","","","","","","","74","J","1","","true","0","full_practice",""
"","bandit","60","312049","0.0-32.0-8.0","73119746","wem/bandit_party_2","AQSB97UW88SO2","either","6","297","","","","","","","0","0","1","0.2","","0.5","0.5","0.5","0.5","","","","","0.8","0.2","0.6","0.2","","","","","","","","","","76","L","3","","true","0","full_practice",""
"","bandit","61","313816","0.0-32.0-9.0","73119746","wem/bandit_party_2","AQSB97UW88SO2","either","6","263","","","","","","","0","0","1","0.6","","0.5","0.5","0.5","0.5","","","","","0.8","0.2","0.6","0.2","","","","","","","","","","75","K","2","","true","0","full_practice",""
"","bandit","62","315553","0.0-32.0-10.0","73119746","wem/bandit_party_2","AQSB97UW88SO2","either","6","232","","","","","","","0","1","0","","0.8","0.5","0.5","0.5","0.5","0.8","0.2","0.6","0.2","","","","","","","","","","","","","","72","H","0","img/none_selected.jpg","true","0","full_practice",""
"","bandit","63","317351","0.0-32.0-11.0","73119746","wem/bandit_party_2","AQSB97UW88SO2","either","6","292","","","","","","","0","1","0","","0.8","0.5","0.5","0.5","0.5","0.8","0.2","0.6","0.2","","","","","","","","","","","","","","72","H","0","img/none_selected.jpg","true","0","full_practice",""
"","bandit","64","319178","0.0-32.0-12.0","73119746","wem/bandit_party_2","AQSB97UW88SO2","either","6","321","","","","","","","0","1","0","","0.8","0.5","0.5","0.5","0.5","0.8","0.2","0.6","0.2","","","","","","","","","","","","","","72","H","0","img/none_selected.jpg","true","0","full_practice",""
"","bandit","65","320985","0.0-32.0-13.0","73119746","wem/bandit_party_2","AQSB97UW88SO2","either","6","301","","","","","","","0","1","0","","0.8","0.5","0.5","0.5","0.5","0.8","0.2","0.6","0.2","","","","","","","","","","","","","","72","H","0","img/none_selected.jpg","true","0","full_practice",""
"","bandit","66","322784","0.0-32.0-14.0","73119746","wem/bandit_party_2","AQSB97UW88SO2","either","6","295","","","","","","","1","0","0","0.8","","0.5","0.5","0.5","0.5","","","","","0.8","0.2","0.6","0.2","","","","","","","","","","72","H","0","img/none_selected.jpg","true","0","full_practice",""
"","bandit","67","324448","0.0-32.0-15.0","73119746","wem/bandit_party_2","AQSB97UW88SO2","either","6","159","","","","","","","0","1","0","","0.8","0.5","0.5","0.5","0.5","0.8","0.2","0.6","0.2","","","","","","","","","","","","","","72","H","0","img/none_selected.jpg","true","0","full_practice",""
"","bandit","68","326056","0.0-32.0-16.0","73119746","wem/bandit_party_2","AQSB97UW88SO2","either","6","104","","","","","","","0","1","0","","0.8","0.5","0.5","0.5","0.5","0.8","0.2","0.6","0.2","","","","","","","","","","","","","","72","H","0","img/none_selected.jpg","true","0","full_practice",""
"","bandit","69","327655","0.0-32.0-17.0","73119746","wem/bandit_party_2","AQSB97UW88SO2","either","6","96","","","","","","","1","0","0","0.8","","0.5","0.5","0.5","0.5","","","","","0.8","0.2","0.6","0.2","","","","","","","","","","72","H","0","img/none_selected.jpg","true","0","full_practice",""
"","bandit","70","329321","0.0-32.0-18.0","73119746","wem/bandit_party_2","AQSB97UW88SO2","either","6","160","","","","","","","0","1","0","","0.8","0.5","0.5","0.5","0.5","0.8","0.2","0.6","0.2","","","","","","","","","","","","","","72","H","0","img/none_selected.jpg","true","0","full_practice",""
"","bandit","71","331041","0.0-32.0-19.0","73119746","wem/bandit_party_2","AQSB97UW88SO2","either","6","207","","","","","","","1","0","0","0.8","","0.5","0.5","0.5","0.5","","","","","0.8","0.2","0.6","0.2","","","","","","","","","","72","H","0","img/none_selected.jpg","true","0","full_practice",""
"","text","72","334745","0.0-33.0","73119746","wem/bandit_party_2","AQSB97UW88SO2","either","6","3701","","","32","","","","","","","","","","","","","","","","","","","","","","","","","","","","","","","","","","","","",""
"","text-replacement","73","353769","0.0-34.0","73119746","wem/bandit_party_2","AQSB97UW88SO2","either","6","18022","","","32","","","","","","","","","","","","","","","","","","","","","","","","","","","","","","","","","","","","",""
"","text-replacement","74","369330","0.0-35.0","73119746","wem/bandit_party_2","AQSB97UW88SO2","either","6","15558","","","32","","","","","","","","","","","","","","","","","","","","","","","","","","","","","","","","","","","","",""
"","text-replacement","75","374865","0.0-36.0","73119746","wem/bandit_party_2","AQSB97UW88SO2","either","6","5532","","","32","","","","","","","","","","","","","","","","","","","","","","","","","","","","","","","","","","","","",""
"","text-replacement","76","385202","0.0-37.0","73119746","wem/bandit_party_2","AQSB97UW88SO2","either","6","10335","","","32","","","","","","","","","","","","","","","","","","","","","","","","","","","","","","","","","","","","",""
"","text-replacement","77","395177","0.0-38.0","73119746","wem/bandit_party_2","AQSB97UW88SO2","either","6","9973","","","32","","","","","","","","","","","","","","","","","","","","","","","","","","","","","","","","","","","","",""
"","survey-multi-choice-replacement","78","405834","0.0-39.0-0.0","73119746","wem/bandit_party_2","AQSB97UW88SO2","either","6","10651","","","","","","","","","","","","","","","","","","","","","","","","Money will be added to the pool for <span style='color:blue;'>DEMOCRATS</span>","","","","","","","attn_check","","","","","","","","","0"
"","survey-multi-choice-replacement","79","436303","0.0-40.0-0.0","73119746","wem/bandit_party_2","AQSB97UW88SO2","either","6","29462","","","","","","","","","","","","","","","","","","","","","","","","Equal amounts of money will be added to the pool for <span style='color:blue;'>DEMOCRATS</span> and subtracted from the pool for <span style='color:red;'>REPUBLICANS</span>","","","","","","","attn_check","","","","","","","","","2"
"","survey-multi-choice-replacement","80","441617","0.0-41.0-0.0","73119746","wem/bandit_party_2","AQSB97UW88SO2","either","6","4308","","","","","","","","","","","","","","","","","","","","","","","","No money will be added to either pool","","","","","","","attn_check","","","","","","","","","3"
"","bandit","81","446081","0.0-42.0-0.0","73119746","wem/bandit_party_2","AQSB97UW88SO2","either","6","1956","","","","","","","1","0","0","0.7197236342","","0.2","0.4","0.8","0.6","","","","","0.7197236342","0.2309914537","0.1947351938","0.3049938501","","","","","","","","","","72","H","0","img/none_selected.jpg","","1","main_expt",""
"","bandit","82","448632","0.0-43.0-0.0","73119746","wem/bandit_party_2","AQSB97UW88SO2","either","6","1045","","","","","","","0","1","0","","0.7453792406","0.2","0.4","0.8","0.6","0.7453792406","0.2351366282","0.1865171684","0.3105507028","","","","","","","","","","","","","","72","H","0","img/none_selected.jpg","","2","main_expt",""
"","bandit","83","451264","0.0-44.0-0.0","73119746","wem/bandit_party_2","AQSB97UW88SO2","either","6","1127","","","","","","","0","1","0","","0.7422746785","0.2","0.4","0.8","0.6","0.7422746785","0.3338792953","0.1578482069","0.347932066","","","","","","","","","","","","","","72","H","0","img/none_selected.jpg","","3","main_expt",""
"","bandit","84","454017","0.0-45.0-0.0","73119746","wem/bandit_party_2","AQSB97UW88SO2","either","6","1247","","","","","","","0","0","1","","0.8152876082","0.2","0.4","0.8","0.6","0.8152876082","0.2578124611","0.1733557992","0.294099503","","","","","","","","","","","","","","72","H","0","img/none_selected.jpg","","4","main_expt",""
"","bandit","85","456633","0.0-46.0-0.0","73119746","wem/bandit_party_2","AQSB97UW88SO2","either","6","1110","","","","","","","0","0","1","","0.8494846052","0.2","0.4","0.8","0.6","0.8494846052","0.152782507","0.1275681293","0.256228135","","","","","","","","","","","","","","72","H","0","img/none_selected.jpg","","5","main_expt",""
"","bandit","86","458880","0.0-47.0-0.0","73119746","wem/bandit_party_2","AQSB97UW88SO2","either","6","741","","","","","","","0","1","0","","0.1776351543","0.2","0.4","0.8","0.6","0.8036792828","0.200224935","0.1776351543","0.3142053347","","","","","","","","","","","","","","75","K","2","","","6","main_expt",""
"","bandit","87","461544","0.0-48.0-0.0","73119746","wem/bandit_party_2","AQSB97UW88SO2","either","6","1159","","","","","","","0","0","1","0.1412615145","","0.2","0.4","0.8","0.6","","","","","0.8659664865","0.2200442108","0.1412615145","0.2382568898","","","","","","","","","","75","K","2","","","7","main_expt",""
"","bandit","88","463960","0.0-49.0-0.0","73119746","wem/bandit_party_2","AQSB97UW88SO2","either","6","912","","","","","","","1","0","0","0.1508054742","","0.2","0.4","0.8","0.6","","","","","0.8475436228","0.1516915951","0.1508054742","0.220471749","","","","","","","","","","75","K","2","","","8","main_expt",""
"","bandit","89","466465","0.0-50.0-0.0","73119746","wem/bandit_party_2","AQSB97UW88SO2","either","6","995","","","","","","","0","0","1","0.1882404854","","0.2","0.4","0.8","0.6","","","","","0.8034999265","0.1468829212","0.1882404854","0.2842820234","","","","","","","","","","75","K","2","","","9","main_expt",""
"","bandit","90","469113","0.0-51.0-0.0","73119746","wem/bandit_party_2","AQSB97UW88SO2","either","6","1142","","","","","","","0","0","1","","0.3392415315","0.2","0.4","0.8","0.6","0.7148412232","0.1507643719","0.1731305678","0.3392415315","","","","","","","","","","","","","","76","L","3","","","10","main_expt",""
"","bandit","91","472808","0.0-52.0-0.0","73119746","wem/bandit_party_2","AQSB97UW88SO2","either","6","2190","","","","","","","0","0","1","0.18301","","0.2","0.4","0.8","0.6","","","","","0.7213030285","0.18301","0.2475279461","0.4470346709","","","","","","","","","","74","J","1","","","11","main_expt",""
"","bandit","92","474679","0.0-53.0-0.0","73119746","wem/bandit_party_2","AQSB97UW88SO2","either","6","366","","","","","","","0","0","1","0.209562337","","0.2","0.4","0.8","0.6","","","","","0.7396148754","0.209562337","0.2068792089","0.5143820195","","","","","","","","","","74","J","1","","","12","main_expt",""
"","bandit","93","476552","0.0-54.0-0.0","73119746","wem/bandit_party_2","AQSB97UW88SO2","either","6","368","","","","","","","0","0","1","0.1594062408","","0.2","0.4","0.8","0.6","","","","","0.6870781676","0.2133897639","0.1594062408","0.4934308908","","","","","","","","","","75","K","2","","","13","main_expt",""
"","bandit","94","478665","0.0-55.0-0.0","73119746","wem/bandit_party_2","AQSB97UW88SO2","either","6","606","","","","","","","0","0","1","","0.6561171826","0.2","0.4","0.8","0.6","0.6561171826","0.1865122749","0.1808320347","0.5884397519","","","","","","","","","","","","","","72","H","0","img/none_selected.jpg","","14","main_expt",""
"","bandit","95","480712","0.0-56.0-0.0","73119746","wem/bandit_party_2","AQSB97UW88SO2","either","6","542","","","","","","","0","0","1","","0.425765204","0.2","0.4","0.8","0.6","0.6255101569","0.3169691733","0.2401125286","0.425765204","","","","","","","","","","","","","","76","L","3","","","15","main_expt",""
"","bandit","96","482528","0.0-57.0-0.0","73119746","wem/bandit_party_2","AQSB97UW88SO2","either","6","311","","","","","","","0","0","1","0.4458974369","","0.2","0.4","0.8","0.6","","","","","0.6101220295","0.3927767979","0.1823220599","0.4458974369","","","","","","","","","","76","L","3","","","16","main_expt",""
"","bandit","97","484864","0.0-58.0-0.0","73119746","wem/bandit_party_2","AQSB97UW88SO2","either","6","831","","","","","","","0","0","1","","0.2076179308","0.2","0.4","0.8","0.6","0.6233337625","0.2882183284","0.2076179308","0.4907358526","","","","","","","","","","","","","","75","K","2","","","17","main_expt",""
"","bandit","98","486649","0.0-59.0-0.0","73119746","wem/bandit_party_2","AQSB97UW88SO2","either","6","267","","","","","","","0","0","1","0.2310064443","","0.2","0.4","0.8","0.6","","","","","0.598865074","0.3212622409","0.2310064443","0.4895096529","","","","","","","","","","75","K","2","","","18","main_expt",""
"","bandit","99","488503","0.0-60.0-0.0","73119746","wem/bandit_party_2","AQSB97UW88SO2","either","6","346","","","","","","","0","0","1","","0.3678238944","0.2","0.4","0.8","0.6","0.6318918302","0.3678238944","0.1919199612","0.5437378015","","","","","","","","","","","","","","74","J","1","","","19","main_expt",""
"","bandit","100","490304","0.0-61.0-0.0","73119746","wem/bandit_party_2","AQSB97UW88SO2","either","6","296","","","","","","","0","1","0","","0.4357360734","0.2","0.4","0.8","0.6","0.5667690756","0.4357360734","0.2150176637","0.543071052","","","","","","","","","","","","","","74","J","1","","","20","main_expt",""
"","bandit","101","492497","0.0-62.0-0.0","73119746","wem/bandit_party_2","AQSB97UW88SO2","either","6","686","","","","","","","0","1","0","","0.4486518506","0.2","0.4","0.8","0.6","0.6364396753","0.4486518506","0.2980309021","0.5457928974","","","","","","","","","","","","","","74","J","1","","","21","main_expt",""
"","bandit","102","494497","0.0-63.0-0.0","73119746","wem/bandit_party_2","AQSB97UW88SO2","either","6","492","","","","","","","0","1","0","","0.5145372488","0.2","0.4","0.8","0.6","0.5563436533","0.5145372488","0.3238742104","0.4531799458","","","","","","","","","","","","","","74","J","1","","","22","main_expt",""
"","bandit","103","496544","0.0-64.0-0.0","73119746","wem/bandit_party_2","AQSB97UW88SO2","either","6","540","","","","","","","1","0","0","0.6324996067","","0.2","0.4","0.8","0.6","","","","","0.4555064456","0.6324996067","0.4158928209","0.4321579995","","","","","","","","","","74","J","1","","","23","main_expt",""
"","bandit","104","498689","0.0-65.0-0.0","73119746","wem/bandit_party_2","AQSB97UW88SO2","either","6","639","","","","","","","0","0","1","","0.6665025749","0.2","0.4","0.8","0.6","0.4398961724","0.6665025749","0.2798670784","0.3892872195","","","","","","","","","","","","","","74","J","1","","","24","main_expt",""
"","bandit","105","500537","0.0-66.0-0.0","73119746","wem/bandit_party_2","AQSB97UW88SO2","either","6","340","","","","","","","0","0","1","","0.3810464824","0.2","0.4","0.8","0.6","0.3810464824","0.5316582614","0.3932164435","0.4322880781","","","","","","","","","","","","","","72","H","0","img/none_selected.jpg","","25","main_expt",""
"","bandit","106","502599","0.0-67.0-0.0","73119746","wem/bandit_party_2","AQSB97UW88SO2","either","6","557","","","","","","","0","0","1","0.451695138","","0.2","0.4","0.8","0.6","","","","","0.451695138","0.4282094451","0.3243459504","0.4560392573","","","","","","","","","","72","H","0","img/none_selected.jpg","","26","main_expt",""
"","bandit","107","504521","0.0-68.0-0.0","73119746","wem/bandit_party_2","AQSB97UW88SO2","either","6","416","","","","","","","1","0","0","0.4266302179","","0.2","0.4","0.8","0.6","","","","","0.4423729324","0.4711380508","0.4266302179","0.5372901799","","","","","","","","","","75","K","2","","","27","main_expt",""
"","bandit","108","506897","0.0-69.0-0.0","73119746","wem/bandit_party_2","AQSB97UW88SO2","either","6","870","","","","","","","1","0","0","0.4206607535","","0.2","0.4","0.8","0.6","","","","","0.4221124674","0.4539290932","0.4206607535","0.6619872032","","","","","","","","","","75","K","2","","","28","main_expt",""
"","bandit","109","509168","0.0-70.0-0.0","73119746","wem/bandit_party_2","AQSB97UW88SO2","either","6","766","","","","","","","0","0","1","0.440099583","","0.2","0.4","0.8","0.6","","","","","0.489207998","0.4378511583","0.440099583","0.5939885142","","","","","","","","","","75","K","2","","","29","main_expt",""
"","bandit","110","511497","0.0-71.0-0.0","73119746","wem/bandit_party_2","AQSB97UW88SO2","either","6","822","","","","","","","1","0","0","0.3982168329","","0.2","0.4","0.8","0.6","","","","","0.4406356357","0.3425428874","0.3982168329","0.5602145404","","","","","","","","","","75","K","2","","","30","main_expt",""
"","bandit","111","513984","0.0-72.0-0.0","73119746","wem/bandit_party_2","AQSB97UW88SO2","either","6","982","","","","","","","1","0","0","0.3573437221","","0.2","0.4","0.8","0.6","","","","","0.484130952","0.2354865125","0.3573437221","0.5376870091","","","","","","","","","","75","K","2","","","31","main_expt",""
"","bandit","112","516433","0.0-73.0-0.0","73119746","wem/bandit_party_2","AQSB97UW88SO2","either","6","942","","","","","","","0","0","1","0.3712986889","","0.2","0.4","0.8","0.6","","","","","0.432294219","0.2552437171","0.3712986889","0.6346195819","","","","","","","","","","75","K","2","","","32","main_expt",""
"","bandit","113","518768","0.0-74.0-0.0","73119746","wem/bandit_party_2","AQSB97UW88SO2","either","6","830","","","","","","","0","0","1","0.45096985","","0.2","0.4","0.8","0.6","","","","","0.4821309474","0.2470382599","0.45096985","0.7540961955","","","","","","","","","","75","K","2","","","33","main_expt",""
"","bandit","114","520603","0.0-75.0-0.0","73119746","wem/bandit_party_2","AQSB97UW88SO2","either","6","328","","","","","","","1","0","0","0.699797925","","0.2","0.4","0.8","0.6","","","","","0.4702474349","0.2951894024","0.5559331637","0.699797925","","","","","","","","","","76","L","3","","","34","main_expt",""
"","bandit","115","523256","0.0-76.0-0.0","73119746","wem/bandit_party_2","AQSB97UW88SO2","either","6","1147","","","","","","","1","0","0","0.7410295452","","0.2","0.4","0.8","0.6","","","","","0.5363697359","0.2596626779","0.7354386419","0.7410295452","","","","","","","","","","76","L","3","","","35","main_expt",""
"","bandit","116","525720","0.0-77.0-0.0","73119746","wem/bandit_party_2","AQSB97UW88SO2","either","6","959","","","","","","","1","0","0","0.7332281969","","0.2","0.4","0.8","0.6","","","","","0.602250539","0.3164764808","0.6934166837","0.7332281969","","","","","","","","","","76","L","3","","","36","main_expt",""
"","bandit","117","527864","0.0-78.0-0.0","73119746","wem/bandit_party_2","AQSB97UW88SO2","either","6","638","","","","","","","0","0","1","","0.736713329","0.2","0.4","0.8","0.6","0.5337433964","0.3672962009","0.6311869688","0.736713329","","","","","","","","","","","","","","76","L","3","","","37","main_expt",""
"","bandit","118","530113","0.0-79.0-0.0","73119746","wem/bandit_party_2","AQSB97UW88SO2","either","6","743","","","","","","","0","1","0","","0.6860808007","0.2","0.4","0.8","0.6","0.5970413872","0.4056598401","0.6583504975","0.6860808007","","","","","","","","","","","","","","76","L","3","","","38","main_expt",""
"","bandit","119","532601","0.0-80.0-0.0","73119746","wem/bandit_party_2","AQSB97UW88SO2","either","6","982","","","","","","","0","1","0","","0.7498761973","0.2","0.4","0.8","0.6","0.6529448079","0.4236995386","0.5861321806","0.7498761973","","","","","","","","","","","","","","76","L","3","","","39","main_expt",""
"","bandit","120","534888","0.0-81.0-0.0","73119746","wem/bandit_party_2","AQSB97UW88SO2","either","6","782","","","","","","","0","0","1","0.7043283504","","0.2","0.4","0.8","0.6","","","","","0.6612991154","0.4365163158","0.4892836735","0.7043283504","","","","","","","","","","76","L","3","","","40","main_expt",""
"","bandit","121","537168","0.0-82.0-0.0","73119746","wem/bandit_party_2","AQSB97UW88SO2","either","6","774","","","","","","","0","1","0","","0.6469690382","0.2","0.4","0.8","0.6","0.7390431107","0.4854269132","0.3479900608","0.6469690382","","","","","","","","","","","","","","76","L","3","","","41","main_expt",""
"","bandit","122","539656","0.0-83.0-0.0","73119746","wem/bandit_party_2","AQSB97UW88SO2","either","6","982","","","","","","","0","0","1","","0.6388905256","0.2","0.4","0.8","0.6","0.7609423287","0.4753587859","0.376709287","0.6388905256","","","","","","","","","","","","","","76","L","3","","","42","main_expt",""
"","bandit","123","542202","0.0-84.0-0.0","73119746","wem/bandit_party_2","AQSB97UW88SO2","either","6","1038","","","","","","","0","0","1","0.6383372244","","0.2","0.4","0.8","0.6","","","","","0.8039673949","0.452202747","0.4319300722","0.6383372244","","","","","","","","","","76","L","3","","","43","main_expt",""
"","bandit","124","544167","0.0-85.0-0.0","73119746","wem/bandit_party_2","AQSB97UW88SO2","either","6","461","","","","","","","0","1","0","","0.8216753652","0.2","0.4","0.8","0.6","0.8216753652","0.5522191005","0.4458636389","0.6247854939","","","","","","","","","","","","","","72","H","0","img/none_selected.jpg","","44","main_expt",""
"","bandit","125","546841","0.0-86.0-0.0","73119746","wem/bandit_party_2","AQSB97UW88SO2","either","6","1167","","","","","","","0","0","1","","0.7636866317","0.2","0.4","0.8","0.6","0.7636866317","0.4878962787","0.4323480181","0.6341880498","","","","","","","","","","","","","","72","H","0","img/none_selected.jpg","","45","main_expt",""
"","bandit","126","549209","0.0-87.0-0.0","73119746","wem/bandit_party_2","AQSB97UW88SO2","either","6","861","","","","","","","0","1","0","","0.8203755575","0.2","0.4","0.8","0.6","0.8203755575","0.487595293","0.4348202433","0.5081310512","","","","","","","","","","","","","","72","H","0","img/none_selected.jpg","","46","main_expt",""
"","bandit","127","551544","0.0-88.0-0.0","73119746","wem/bandit_party_2","AQSB97UW88SO2","either","6","830","","","","","","","1","0","0","0.8706375764","","0.2","0.4","0.8","0.6","","","","","0.8706375764","0.444754188","0.3430847618","0.4202927251","","","","","","","","","","72","H","0","img/none_selected.jpg","","47","main_expt",""
"","bandit","128","553792","0.0-89.0-0.0","73119746","wem/bandit_party_2","AQSB97UW88SO2","either","6","743","","","","","","","0","0","1","0.8019506245","","0.2","0.4","0.8","0.6","","","","","0.8019506245","0.5044276746","0.2601977795","0.4767868938","","","","","","","","","","72","H","0","img/none_selected.jpg","","48","main_expt",""
"","bandit","129","556232","0.0-90.0-0.0","73119746","wem/bandit_party_2","AQSB97UW88SO2","either","6","934","","","","","","","0","0","1","0.3766714482","","0.2","0.4","0.8","0.6","","","","","0.7331224435","0.3766714482","0.2368144698","0.3749468019","","","","","","","","","","74","J","1","","","49","main_expt",""
"","bandit","130","558280","0.0-91.0-0.0","73119746","wem/bandit_party_2","AQSB97UW88SO2","either","6","542","","","","","","","0","1","0","","0.7908344101","0.2","0.4","0.8","0.6","0.7908344101","0.406992786","0.2484527115","0.3532902347","","","","","","","","","","","","","","72","H","0","img/none_selected.jpg","","50","main_expt",""
"","bandit","131","560960","0.0-92.0-0.0","73119746","wem/bandit_party_2","AQSB97UW88SO2","either","6","1174","","","","","","","0","0","1","","0.7922828235","0.2","0.4","0.8","0.6","0.7922828235","0.3854505747","0.230268934","0.2413466802","","","","","","","","","","","","","","72","H","0","img/none_selected.jpg","","51","main_expt",""
"","bandit","132","565065","0.0-93.0-0.0","73119746","wem/bandit_party_2","AQSB97UW88SO2","either","6","2596","","","","","","","0","1","0","","0.7485378942","0.2","0.4","0.8","0.6","0.7485378942","0.3956915145","0.3429002399","0.2673723166","","","","","","","","","","","","","","72","H","0","img/none_selected.jpg","","52","main_expt",""
"","bandit","133","567240","0.0-94.0-0.0","73119746","wem/bandit_party_2","AQSB97UW88SO2","either","6","670","","","","","","","0","1","0","","0.6603794952","0.2","0.4","0.8","0.6","0.6603794952","0.3062348001","0.2871029552","0.2806035608","","","","","","","","","","","","","","72","H","0","img/none_selected.jpg","","53","main_expt",""
"","bandit","134","569648","0.0-95.0-0.0","73119746","wem/bandit_party_2","AQSB97UW88SO2","either","6","903","","","","","","","0","1","0","","0.6931449795","0.2","0.4","0.8","0.6","0.6931449795","0.2996500993","0.2594444468","0.2544312064","","","","","","","","","","","","","","72","H","0","img/none_selected.jpg","","54","main_expt",""
"","bandit","135","572031","0.0-96.0-0.0","73119746","wem/bandit_party_2","AQSB97UW88SO2","either","6","877","","","","","","","0","1","0","","0.7553272845","0.2","0.4","0.8","0.6","0.7553272845","0.2518247787","0.3333749245","0.3362815808","","","","","","","","","","","","","","72","H","0","img/none_selected.jpg","","55","main_expt",""
"","bandit","136","574353","0.0-97.0-0.0","73119746","wem/bandit_party_2","AQSB97UW88SO2","either","6","815","","","","","","","0","1","0","","0.7231548626","0.2","0.4","0.8","0.6","0.7231548626","0.3014763065","0.3049104067","0.3798256012","","","","","","","","","","","","","","72","H","0","img/none_selected.jpg","","56","main_expt",""
"","bandit","137","576849","0.0-98.0-0.0","73119746","wem/bandit_party_2","AQSB97UW88SO2","either","6","988","","","","","","","0","1","0","","0.7485901337","0.2","0.4","0.8","0.6","0.7485901337","0.2730843718","0.3623273811","0.3989549393","","","","","","","","","","","","","","72","H","0","img/none_selected.jpg","","57","main_expt",""
"","bandit","138","579176","0.0-99.0-0.0","73119746","wem/bandit_party_2","AQSB97UW88SO2","either","6","820","","","","","","","0","1","0","","0.797082508","0.2","0.4","0.8","0.6","0.797082508","0.367239041","0.3621169042","0.3373398956","","","","","","","","","","","","","","72","H","0","img/none_selected.jpg","","58","main_expt",""
"","bandit","139","581360","0.0-100.0-0.0","73119746","wem/bandit_party_2","AQSB97UW88SO2","either","6","678","","","","","","","0","1","0","","0.7466963627","0.2","0.4","0.8","0.6","0.7466963627","0.4005220403","0.3672848169","0.3381045731","","","","","","","","","","","","","","72","H","0","img/none_selected.jpg","","59","main_expt",""
"","bandit","140","583682","0.0-101.0-0.0","73119746","wem/bandit_party_2","AQSB97UW88SO2","either","6","815","","","","","","","1","0","0","0.6359615323","","0.2","0.4","0.8","0.6","","","","","0.6359615323","0.4863912708","0.5123874715","0.4838111383","","","","","","","","","","72","H","0","img/none_selected.jpg","","60","main_expt",""
"","bandit","141","585800","0.0-102.0-0.0","73119746","wem/bandit_party_2","AQSB97UW88SO2","either","6","613","","","","","","","0","0","1","0.7125939799","","0.2","0.4","0.8","0.6","","","","","0.7125939799","0.5220595343","0.5218319631","0.4290776342","","","","","","","","","","72","H","0","img/none_selected.jpg","","61","main_expt",""
"","bandit","142","588056","0.0-103.0-0.0","73119746","wem/bandit_party_2","AQSB97UW88SO2","either","6","750","","","","","","","0","1","0","","0.5978650666","0.2","0.4","0.8","0.6","0.5978650666","0.5447889898","0.6482151027","0.4387439774","","","","","","","","","","","","","","72","H","0","img/none_selected.jpg","","62","main_expt",""
"","bandit","143","590448","0.0-104.0-0.0","73119746","wem/bandit_party_2","AQSB97UW88SO2","either","6","887","","","","","","","0","0","1","","0.5166338879","0.2","0.4","0.8","0.6","0.5166338879","0.5517390004","0.6966290852","0.3670418014","","","","","","","","","","","","","","72","H","0","img/none_selected.jpg","","63","main_expt",""
"","bandit","144","593008","0.0-105.0-0.0","73119746","wem/bandit_party_2","AQSB97UW88SO2","either","6","1054","","","","","","","0","0","1","","0.4901650138","0.2","0.4","0.8","0.6","0.4901650138","0.6576188384","0.6497033777","0.3470393933","","","","","","","","","","","","","","72","H","0","img/none_selected.jpg","","64","main_expt",""
"","bandit","145","594883","0.0-106.0-0.0","73119746","wem/bandit_party_2","AQSB97UW88SO2","either","6","366","","","","","","","0","0","1","","0.5156176703","0.2","0.4","0.8","0.6","0.459365688","0.5156176703","0.6925184903","0.3361574661","","","","","","","","","","","","","","74","J","1","","","65","main_expt",""
"","bandit","146","597130","0.0-107.0-0.0","73119746","wem/bandit_party_2","AQSB97UW88SO2","either","6","737","","","","","","","1","0","0","0.3851410914","","0.2","0.4","0.8","0.6","","","","","0.4666104807","0.3851410914","0.8298767513","0.34308242","","","","","","","","","","74","J","1","","","66","main_expt",""
"","bandit","147","599481","0.0-108.0-0.0","73119746","wem/bandit_party_2","AQSB97UW88SO2","either","6","845","","","","","","","0","1","0","","0.3925250542","0.2","0.4","0.8","0.6","0.5547259005","0.3925250542","0.8506596021","0.3730603492","","","","","","","","","","","","","","74","J","1","","","67","main_expt",""
"","bandit","148","601848","0.0-109.0-0.0","73119746","wem/bandit_party_2","AQSB97UW88SO2","either","6","861","","","","","","","1","0","0","0.3884113518","","0.2","0.4","0.8","0.6","","","","","0.6038719492","0.3884113518","0.8536910832","0.4089949532","","","","","","","","","","74","J","1","","","68","main_expt",""
"","bandit","149","603967","0.0-110.0-0.0","73119746","wem/bandit_party_2","AQSB97UW88SO2","either","6","615","","","","","","","0","0","1","","0.3434478979","0.2","0.4","0.8","0.6","0.6148283845","0.3434478979","0.8642538991","0.3749002533","","","","","","","","","","","","","","74","J","1","","","69","main_expt",""
"","bandit","150","605872","0.0-111.0-0.0","73119746","wem/bandit_party_2","AQSB97UW88SO2","either","6","400","","","","","","","0","1","0","","0.4426642051","0.2","0.4","0.8","0.6","0.6683283761","0.4426642051","0.8073802352","0.4133869845","","","","","","","","","","","","","","74","J","1","","","70","main_expt",""
"","bandit","151","607816","0.0-112.0-0.0","73119746","wem/bandit_party_2","AQSB97UW88SO2","either","6","438","","","","","","","0","0","1","0.4518046004","","0.2","0.4","0.8","0.6","","","","","0.738459761","0.4518046004","0.8059201048","0.3302164541","","","","","","","","","","74","J","1","","","71","main_expt",""
"","bandit","152","610441","0.0-113.0-0.0","73119746","wem/bandit_party_2","AQSB97UW88SO2","either","6","1115","","","","","","","0","0","1","","0.4903223245","0.2","0.4","0.8","0.6","0.6525166508","0.4903223245","0.8262275011","0.2570952275","","","","","","","","","","","","","","74","J","1","","","72","main_expt",""
"","bandit","153","612032","0.0-114.0-0.0","73119746","wem/bandit_party_2","AQSB97UW88SO2","either","6","83","","","","","","","1","0","0","0.7334390718","","0.2","0.4","0.8","0.6","","","","","0.5715134512","0.5296083002","0.7334390718","0.2042885023","","","","","","","","","","75","K","2","","","73","main_expt",""
"","bandit","154","613896","0.0-115.0-0.0","73119746","wem/bandit_party_2","AQSB97UW88SO2","either","6","359","","","","","","","0","0","1","0.7490977197","","0.2","0.4","0.8","0.6","","","","","0.6228045854","0.4883026933","0.7490977197","0.2152837516","","","","","","","","","","75","K","2","","","74","main_expt",""
"","bandit","155","615720","0.0-116.0-0.0","73119746","wem/bandit_party_2","AQSB97UW88SO2","either","6","318","","","","","","","0","0","1","0.7554087461","","0.2","0.4","0.8","0.6","","","","","0.613630376","0.4914171484","0.7554087461","0.2044775694","","","","","","","","","","75","K","2","","","75","main_expt",""
"","bandit","156","617538","0.0-117.0-0.0","73119746","wem/bandit_party_2","AQSB97UW88SO2","either","6","310","","","","","","","0","0","1","0.2247613499","","0.2","0.4","0.8","0.6","","","","","0.7047266053","0.6059218973","0.804443878","0.2247613499","","","","","","","","","","76","L","3","","","76","main_expt",""
"","bandit","157","619523","0.0-118.0-0.0","73119746","wem/bandit_party_2","AQSB97UW88SO2","either","6","476","","","","","","","0","0","1","0.2266335256","","0.2","0.4","0.8","0.6","","","","","0.6910360943","0.553792366","0.6656620098","0.2266335256","","","","","","","","","","76","L","3","","","77","main_expt",""
"","bandit","158","621530","0.0-119.0-0.0","73119746","wem/bandit_party_2","AQSB97UW88SO2","either","6","501","","","","","","","0","1","0","","0.6884193839","0.2","0.4","0.8","0.6","0.5515992215","0.6884193839","0.5898140708","0.1659731505","","","","","","","","","","","","","","74","J","1","","","78","main_expt",""
"","bandit","159","623825","0.0-120.0-0.0","73119746","wem/bandit_party_2","AQSB97UW88SO2","either","6","789","","","","","","","0","1","0","","0.7214277645","0.2","0.4","0.8","0.6","0.6448399581","0.7214277645","0.613215191","0.2343921172","","","","","","","","","","","","","","74","J","1","","","79","main_expt",""
"","bandit","160","626057","0.0-121.0-0.0","73119746","wem/bandit_party_2","AQSB97UW88SO2","either","6","727","","","","","","","0","1","0","","0.7328142644","0.2","0.4","0.8","0.6","0.739479497","0.7328142644","0.4605925783","0.2164054515","","","","","","","","","","","","","","74","J","1","","","80","main_expt",""
"","bandit","161","628162","0.0-122.0-0.0","73119746","wem/bandit_party_2","AQSB97UW88SO2","either","6","598","","","","","","","1","0","0","0.7101675561","","0.2","0.4","0.8","0.6","","","","","0.6956071838","0.7101675561","0.5390789087","0.1361232007","","","","","","","","","","74","J","1","","","81","main_expt",""
"","bandit","162","630073","0.0-123.0-0.0","73119746","wem/bandit_party_2","AQSB97UW88SO2","either","6","405","","","","","","","0","1","0","","0.6984384541","0.2","0.4","0.8","0.6","0.5886517937","0.6984384541","0.621290364","0.2275447725","","","","","","","","","","","","","","74","J","1","","","82","main_expt",""
"","bandit","163","632018","0.0-124.0-0.0","73119746","wem/bandit_party_2","AQSB97UW88SO2","either","6","438","","","","","","","0","0","1","","0.7447883659","0.2","0.4","0.8","0.6","0.4764182235","0.7447883659","0.6359424421","0.1900607051","","","","","","","","","","","","","","74","J","1","","","83","main_expt",""
"","bandit","164","633897","0.0-125.0-0.0","73119746","wem/bandit_party_2","AQSB97UW88SO2","either","6","374","","","","","","","1","0","0","0.6900592863","","0.2","0.4","0.8","0.6","","","","","0.5149027494","0.6900592863","0.6133664729","0.1306868958","","","","","","","","","","74","J","1","","","84","main_expt",""
"","bandit","165","635833","0.0-126.0-0.0","73119746","wem/bandit_party_2","AQSB97UW88SO2","either","6","428","","","","","","","0","0","1","","0.7010597455","0.2","0.4","0.8","0.6","0.4908067213","0.7010597455","0.7815463305","0.1683201849","","","","","","","","","","","","","","74","J","1","","","85","main_expt",""
"","bandit","166","637834","0.0-127.0-0.0","73119746","wem/bandit_party_2","AQSB97UW88SO2","either","6","494","","","","","","","0","1","0","","0.6171062652","0.2","0.4","0.8","0.6","0.4139472458","0.6171062652","0.7355789231","0.1290314955","","","","","","","","","","","","","","74","J","1","","","86","main_expt",""
"","bandit","167","639939","0.0-128.0-0.0","73119746","wem/bandit_party_2","AQSB97UW88SO2","either","6","596","","","","","","","1","0","0","0.5629375242","","0.2","0.4","0.8","0.6","","","","","0.4253818619","0.5629375242","0.7267399876","0.2297537383","","","","","","","","","","74","J","1","","","87","main_expt",""
"","bandit","168","642017","0.0-129.0-0.0","73119746","wem/bandit_party_2","AQSB97UW88SO2","either","6","569","","","","","","","0","0","1","0.6434443074","","0.2","0.4","0.8","0.6","","","","","0.4448862761","0.6434443074","0.7703195612","0.1878263516","","","","","","","","","","74","J","1","","","88","main_expt",""
"","bandit","169","643825","0.0-130.0-0.0","73119746","wem/bandit_party_2","AQSB97UW88SO2","either","6","302","","","","","","","0","0","1","","0.7296698787","0.2","0.4","0.8","0.6","0.4295642349","0.7296698787","0.81872988","0.1896964823","","","","","","","","","","","","","","74","J","1","","","89","main_expt",""
"","bandit","170","645665","0.0-131.0-0.0","73119746","wem/bandit_party_2","AQSB97UW88SO2","either","6","334","","","","","","","0","1","0","","0.7042864347","0.2","0.4","0.8","0.6","0.3655203192","0.7042864347","0.8032570632","0.1614970172","","","","","","","","","","","","","","74","J","1","","","90","main_expt",""
"","bandit","171","647690","0.0-132.0-0.0","73119746","wem/bandit_party_2","AQSB97UW88SO2","either","6","517","","","","","","","0","0","1","0.7606559624","","0.2","0.4","0.8","0.6","","","","","0.402428746","0.7606559624","0.8257352781","0.2107705911","","","","","","","","","","74","J","1","","","91","main_expt",""
"","bandit","172","649586","0.0-133.0-0.0","73119746","wem/bandit_party_2","AQSB97UW88SO2","either","6","386","","","","","","","0","1","0","","0.8466818248","0.2","0.4","0.8","0.6","0.452733603","0.8466818248","0.7762210657","0.1317951273","","","","","","","","","","","","","","74","J","1","","","92","main_expt",""
"","bandit","173","651619","0.0-134.0-0.0","73119746","wem/bandit_party_2","AQSB97UW88SO2","either","6","525","","","","","","","0","0","1","","0.8181600593","0.2","0.4","0.8","0.6","0.5416456901","0.8181600593","0.8293629201","0.09268613222","","","","","","","","","","","","","","74","J","1","","","93","main_expt",""
"","bandit","174","653457","0.0-135.0-0.0","73119746","wem/bandit_party_2","AQSB97UW88SO2","either","6","331","","","","","","","0","0","1","","0.7259749053","0.2","0.4","0.8","0.6","0.5246039132","0.7259749053","0.7849393417","0.06418168538","","","","","","","","","","","","","","74","J","1","","","94","main_expt",""
"","bandit","175","654985","0.0-136.0-0.0","73119746","wem/bandit_party_2","AQSB97UW88SO2","either","6","20","","","","","","","1","0","0","0.7850226125","","0.2","0.4","0.8","0.6","","","","","0.606801291","0.6538641892","0.7850226125","0.100072779","","","","","","","","","","75","K","2","","","95","main_expt",""
"","bandit","176","657065","0.0-137.0-0.0","73119746","wem/bandit_party_2","AQSB97UW88SO2","either","6","572","","","","","","","1","0","0","0.8013150942","","0.2","0.4","0.8","0.6","","","","","0.7175242067","0.6384360591","0.8013150942","0.09628221604","","","","","","","","","","75","K","2","","","96","main_expt",""
"","bandit","177","659090","0.0-138.0-0.0","73119746","wem/bandit_party_2","AQSB97UW88SO2","either","6","516","","","","","","","1","0","0","0.70340399","","0.2","0.4","0.8","0.6","","","","","0.7706560561","0.6836118029","0.70340399","0.1335622201","","","","","","","","","","75","K","2","","","97","main_expt",""
"","bandit","178","660945","0.0-139.0-0.0","73119746","wem/bandit_party_2","AQSB97UW88SO2","either","6","349","","","","","","","0","1","0","","0.7562517051","0.2","0.4","0.8","0.6","0.7234704616","0.659457158","0.7562517051","0.167202632","","","","","","","","","","","","","","75","K","2","","","98","main_expt",""
"","bandit","179","662769","0.0-140.0-0.0","73119746","wem/bandit_party_2","AQSB97UW88SO2","either","6","319","","","","","","","1","0","0","0.6514659141","","0.2","0.4","0.8","0.6","","","","","0.6582042781","0.7726162223","0.6514659141","0.1216125457","","","","","","","","","","75","K","2","","","99","main_expt",""
"","bandit","180","664666","0.0-141.0-0.0","73119746","wem/bandit_party_2","AQSB97UW88SO2","either","6","389","","","","","","","0","0","1","","0.7112237606","0.2","0.4","0.8","0.6","0.6530973887","0.8446518706","0.7112237606","0.1163239148","","","","","","","","","","","","","","75","K","2","","","100","main_expt",""
"","bandit","181","666473","0.0-142.0-0.0","73119746","wem/bandit_party_2","AQSB97UW88SO2","either","6","301","","","","","","","1","0","0","0.6865981462","","0.2","0.4","0.8","0.6","","","","","0.6690961394","0.8784151442","0.6865981462","0.1037928869","","","","","","","","","","75","K","2","","","101","main_expt",""
"","bandit","182","668547","0.0-143.0-0.0","73119746","wem/bandit_party_2","AQSB97UW88SO2","either","6","565","","","","","","","0","0","1","0.6663704066","","0.2","0.4","0.8","0.6","","","","","0.6268844929","0.8781202538","0.6663704066","0.0991068806","","","","","","","","","","75","K","2","","","102","main_expt",""
"","bandit","183","670338","0.0-144.0-0.0","73119746","wem/bandit_party_2","AQSB97UW88SO2","either","6","280","","","","","","","0","0","1","0.6006744832","","0.2","0.4","0.8","0.6","","","","","0.6657789595","0.8123732176","0.6006744832","0.1226752409","","","","","","","","","","75","K","2","","","103","main_expt",""
"","bandit","184","672497","0.0-145.0-0.0","73119746","wem/bandit_party_2","AQSB97UW88SO2","either","6","654","","","","","","","1","0","0","0.518723913","","0.2","0.4","0.8","0.6","","","","","0.6951589836","0.8461937008","0.518723913","0.1552466415","","","","","","","","","","75","K","2","","","104","main_expt",""
"","bandit","185","674418","0.0-146.0-0.0","73119746","wem/bandit_party_2","AQSB97UW88SO2","either","6","412","","","","","","","0","0","1","0.5343999165","","0.2","0.4","0.8","0.6","","","","","0.6382729445","0.8664825842","0.5343999165","0.1702138509","","","","","","","","","","75","K","2","","","105","main_expt",""
"","bandit","186","676010","0.0-147.0-0.0","73119746","wem/bandit_party_2","AQSB97UW88SO2","either","6","81","","","","","","","0","0","1","","0.2021425125","0.2","0.4","0.8","0.6","0.7139624249","0.8703997655","0.4959998489","0.2021425125","","","","","","","","","","","","","","76","L","3","","","106","main_expt",""
"","bandit","187","678320","0.0-148.0-0.0","73119746","wem/bandit_party_2","AQSB97UW88SO2","either","6","805","","","","","","","0","1","0","","0.7718136471","0.2","0.4","0.8","0.6","0.7718136471","0.8964314806","0.5052663648","0.2196373816","","","","","","","","","","","","","","72","H","0","img/none_selected.jpg","","107","main_expt",""
"","bandit","188","680632","0.0-149.0-0.0","73119746","wem/bandit_party_2","AQSB97UW88SO2","either","6","806","","","","","","","1","0","0","0.8818715302","","0.2","0.4","0.8","0.6","","","","","0.8818715302","0.9080126319","0.4859582203","0.2393661099","","","","","","","","","","72","H","0","img/none_selected.jpg","","108","main_expt",""
"","bandit","189","682536","0.0-150.0-0.0","73119746","wem/bandit_party_2","AQSB97UW88SO2","either","6","399","","","","","","","0","1","0","","0.8757741924","0.2","0.4","0.8","0.6","0.8757741924","0.8880845243","0.523617738","0.2516352594","","","","","","","","","","","","","","72","H","0","img/none_selected.jpg","","109","main_expt",""
"","bandit","190","684400","0.0-151.0-0.0","73119746","wem/bandit_party_2","AQSB97UW88SO2","either","6","359","","","","","","","1","0","0","0.8657151097","","0.2","0.4","0.8","0.6","","","","","0.8657151097","0.899251136","0.5492010791","0.2424291788","","","","","","","","","","72","H","0","img/none_selected.jpg","","110","main_expt",""
"","bandit","191","686337","0.0-152.0-0.0","73119746","wem/bandit_party_2","AQSB97UW88SO2","either","6","430","","","","","","","0","1","0","","0.8457624762","0.2","0.4","0.8","0.6","0.8457624762","0.9019514556","0.5467154696","0.2033086481","","","","","","","","","","","","","","72","H","0","img/none_selected.jpg","","111","main_expt",""
"","bandit","192","688169","0.0-153.0-0.0","73119746","wem/bandit_party_2","AQSB97UW88SO2","either","6","325","","","","","","","0","0","1","0.8756116827","","0.2","0.4","0.8","0.6","","","","","0.8756116827","0.9315537639","0.5396215981","0.208613213","","","","","","","","","","72","H","0","img/none_selected.jpg","","112","main_expt",""
"","bandit","193","690002","0.0-154.0-0.0","73119746","wem/bandit_party_2","AQSB97UW88SO2","either","6","326","","","","","","","0","0","1","","0.8773181328","0.2","0.4","0.8","0.6","0.8773181328","0.9254394702","0.5542875214","0.2743958833","","","","","","","","","","","","","","72","H","0","img/none_selected.jpg","","113","main_expt",""
"","bandit","194","692064","0.0-155.0-0.0","73119746","wem/bandit_party_2","AQSB97UW88SO2","either","6","556","","","","","","","1","0","0","0.8842236373","","0.2","0.4","0.8","0.6","","","","","0.8842236373","0.9394904604","0.6411428718","0.2657329006","","","","","","","","","","72","H","0","img/none_selected.jpg","","114","main_expt",""
"","bandit","195","693968","0.0-156.0-0.0","73119746","wem/bandit_party_2","AQSB97UW88SO2","either","6","398","","","","","","","0","1","0","","0.8499121835","0.2","0.4","0.8","0.6","0.8499121835","0.9533355239","0.7261400339","0.3234316928","","","","","","","","","","","","","","72","H","0","img/none_selected.jpg","","115","main_expt",""
"","bandit","196","696096","0.0-157.0-0.0","73119746","wem/bandit_party_2","AQSB97UW88SO2","either","6","623","","","","","","","0","1","0","","0.7890056153","0.2","0.4","0.8","0.6","0.7890056153","0.960842596","0.7395407697","0.3625587123","","","","","","","","","","","","","","72","H","0","img/none_selected.jpg","","116","main_expt",""
"","bandit","197","698154","0.0-158.0-0.0","73119746","wem/bandit_party_2","AQSB97UW88SO2","either","6","546","","","","","","","0","1","0","","0.7709890197","0.2","0.4","0.8","0.6","0.7709890197","0.937733065","0.8231731708","0.4946904956","","","","","","","","","","","","","","72","H","0","img/none_selected.jpg","","117","main_expt",""
"","bandit","198","700225","0.0-159.0-0.0","73119746","wem/bandit_party_2","AQSB97UW88SO2","either","6","564","","","","","","","0","0","1","","0.7459937787","0.2","0.4","0.8","0.6","0.7459937787","0.9561499645","0.8278750807","0.6246330079","","","","","","","","","","","","","","72","H","0","img/none_selected.jpg","","118","main_expt",""
"","bandit","199","702137","0.0-160.0-0.0","73119746","wem/bandit_party_2","AQSB97UW88SO2","either","6","405","","","","","","","0","1","0","","0.716881491","0.2","0.4","0.8","0.6","0.716881491","0.9595118281","0.8715827524","0.5818097722","","","","","","","","","","","","","","72","H","0","img/none_selected.jpg","","119","main_expt",""
"","bandit","200","704209","0.0-161.0-0.0","73119746","wem/bandit_party_2","AQSB97UW88SO2","either","6","564","","","","","","","0","0","1","0.6595649419","","0.2","0.4","0.8","0.6","","","","","0.6595649419","0.9548463758","0.8522670476","0.5990025551","","","","","","","","","","72","H","0","img/none_selected.jpg","","120","main_expt",""
"","bandit","201","706289","0.0-162.0-0.0","73119746","wem/bandit_party_2","AQSB97UW88SO2","either","6","571","","","","","","","0","1","0","","0.6576447048","0.2","0.4","0.8","0.6","0.6576447048","0.958085665","0.8266542562","0.6534424477","","","","","","","","","","","","","","72","H","0","img/none_selected.jpg","","121","main_expt",""
"","bandit","202","708354","0.0-163.0-0.0","73119746","wem/bandit_party_2","AQSB97UW88SO2","either","6","558","","","","","","","0","1","0","","0.6391957719","0.2","0.4","0.8","0.6","0.6391957719","0.9630601427","0.81688531","0.5952731017","","","","","","","","","","","","","","72","H","0","img/none_selected.jpg","","122","main_expt",""
"","bandit","203","710345","0.0-164.0-0.0","73119746","wem/bandit_party_2","AQSB97UW88SO2","either","6","484","","","","","","","0","1","0","","0.5873908865","0.2","0.4","0.8","0.6","0.5873908865","0.9790283764","0.8307363081","0.6469086187","","","","","","","","","","","","","","72","H","0","img/none_selected.jpg","","123","main_expt",""
"","bandit","204","712192","0.0-165.0-0.0","73119746","wem/bandit_party_2","AQSB97UW88SO2","either","6","341","","","","","","","0","1","0","","0.6592760984","0.2","0.4","0.8","0.6","0.6592760984","0.9718765302","0.6943824695","0.6911454426","","","","","","","","","","","","","","72","H","0","img/none_selected.jpg","","124","main_expt",""
"","bandit","205","714266","0.0-166.0-0.0","73119746","wem/bandit_party_2","AQSB97UW88SO2","either","6","564","","","","","","","1","0","0","0.6012083746","","0.2","0.4","0.8","0.6","","","","","0.6012083746","0.9845173964","0.7137568944","0.750572215","","","","","","","","","","72","H","0","img/none_selected.jpg","","125","main_expt",""
"","bandit","206","716353","0.0-167.0-0.0","73119746","wem/bandit_party_2","AQSB97UW88SO2","either","6","580","","","","","","","0","1","0","","0.6043440275","0.2","0.4","0.8","0.6","0.6043440275","0.9804670004","0.6878742658","0.8108432581","","","","","","","","","","","","","","72","H","0","img/none_selected.jpg","","126","main_expt",""
"","bandit","207","718322","0.0-168.0-0.0","73119746","wem/bandit_party_2","AQSB97UW88SO2","either","6","461","","","","","","","0","0","1","0.5043142332","","0.2","0.4","0.8","0.6","","","","","0.5043142332","0.9792667249","0.6175454059","0.8338196277","","","","","","","","","","72","H","0","img/none_selected.jpg","","127","main_expt",""
"","bandit","208","720281","0.0-169.0-0.0","73119746","wem/bandit_party_2","AQSB97UW88SO2","either","6","448","","","","","","","0","0","1","","0.5556505876","0.2","0.4","0.8","0.6","0.5778209799","0.9853815399","0.5556505876","0.8624128669","","","","","","","","","","","","","","75","K","2","","","128","main_expt",""
"","bandit","209","722257","0.0-170.0-0.0","73119746","wem/bandit_party_2","AQSB97UW88SO2","either","6","469","","","","","","","1","0","0","0.9026068167","","0.2","0.4","0.8","0.6","","","","","0.5806273004","0.9838319732","0.5948532478","0.9026068167","","","","","","","","","","76","L","3","","","129","main_expt",""
"","bandit","210","724553","0.0-171.0-0.0","73119746","wem/bandit_party_2","AQSB97UW88SO2","either","6","789","","","","","","","0","1","0","","0.8983636673","0.2","0.4","0.8","0.6","0.4152233618","0.9798768453","0.6646968067","0.8983636673","","","","","","","","","","","","","","76","L","3","","","130","main_expt",""
"","bandit","211","726736","0.0-172.0-0.0","73119746","wem/bandit_party_2","AQSB97UW88SO2","either","6","677","","","","","","","1","0","0","0.888478962","","0.2","0.4","0.8","0.6","","","","","0.4527057242","0.9628017066","0.6676177377","0.888478962","","","","","","","","","","76","L","3","","","131","main_expt",""
"","bandit","212","728896","0.0-173.0-0.0","73119746","wem/bandit_party_2","AQSB97UW88SO2","either","6","653","","","","","","","1","0","0","0.8470567254","","0.2","0.4","0.8","0.6","","","","","0.5185753891","0.9723970119","0.7638630926","0.8470567254","","","","","","","","","","76","L","3","","","132","main_expt",""
"","bandit","213","730784","0.0-174.0-0.0","73119746","wem/bandit_party_2","AQSB97UW88SO2","either","6","381","","","","","","","0","0","1","","0.8852081265","0.2","0.4","0.8","0.6","0.4567386081","0.9754432393","0.726350598","0.8852081265","","","","","","","","","","","","","","76","L","3","","","133","main_expt",""
"","bandit","214","732816","0.0-175.0-0.0","73119746","wem/bandit_party_2","AQSB97UW88SO2","either","6","525","","","","","","","1","0","0","0.8317422298","","0.2","0.4","0.8","0.6","","","","","0.4494056808","0.9635376407","0.7638059904","0.8317422298","","","","","","","","","","76","L","3","","","134","main_expt",""
"","bandit","215","734745","0.0-176.0-0.0","73119746","wem/bandit_party_2","AQSB97UW88SO2","either","6","422","","","","","","","0","1","0","","0.8121858422","0.2","0.4","0.8","0.6","0.4608562393","0.9304273523","0.7337835984","0.8121858422","","","","","","","","","","","","","","76","L","3","","","135","main_expt",""
"","bandit","216","736744","0.0-177.0-0.0","73119746","wem/bandit_party_2","AQSB97UW88SO2","either","6","487","","","","","","","1","0","0","0.8473276522","","0.2","0.4","0.8","0.6","","","","","0.6684020244","0.9295592062","0.7869055623","0.8473276522","","","","","","","","","","76","L","3","","","136","main_expt",""
"","bandit","217","738786","0.0-178.0-0.0","73119746","wem/bandit_party_2","AQSB97UW88SO2","either","6","534","","","","","","","0","1","0","","0.8251243182","0.2","0.4","0.8","0.6","0.614137061","0.9343332129","0.8033651193","0.8251243182","","","","","","","","","","","","","","76","L","3","","","137","main_expt",""
"","bandit","218","740825","0.0-179.0-0.0","73119746","wem/bandit_party_2","AQSB97UW88SO2","either","6","533","","","","","","","0","1","0","","0.7892590299","0.2","0.4","0.8","0.6","0.711021659","0.9325781127","0.7620089345","0.7892590299","","","","","","","","","","","","","","76","L","3","","","138","main_expt",""
"","bandit","219","742776","0.0-180.0-0.0","73119746","wem/bandit_party_2","AQSB97UW88SO2","either","6","444","","","","","","","0","0","1","0.753698647","","0.2","0.4","0.8","0.6","","","","","0.5731932267","0.9687763229","0.8098853196","0.753698647","","","","","","","","","","76","L","3","","","139","main_expt",""
"","bandit","220","744778","0.0-181.0-0.0","73119746","wem/bandit_party_2","AQSB97UW88SO2","either","6","495","","","","","","","0","1","0","","0.7281837229","0.2","0.4","0.8","0.6","0.6553783698","0.9520204639","0.8737133651","0.7281837229","","","","","","","","","","","","","","76","L","3","","","140","main_expt",""
"","bandit","221","746801","0.0-182.0-0.0","73119746","wem/bandit_party_2","AQSB97UW88SO2","either","6","514","","","","","","","1","0","0","0.7913145473","","0.2","0.4","0.8","0.6","","","","","0.5665224918","0.9615613541","0.8464817719","0.7913145473","","","","","","","","","","76","L","3","","","141","main_expt",""
"","bandit","222","748681","0.0-183.0-0.0","73119746","wem/bandit_party_2","AQSB97UW88SO2","either","6","371","","","","","","","0","0","1","","0.7498898283","0.2","0.4","0.8","0.6","0.5230460729","0.9438722422","0.8457688645","0.7498898283","","","","","","","","","","","","","","76","L","3","","","142","main_expt",""
"","bandit","223","751065","0.0-184.0-0.0","73119746","wem/bandit_party_2","AQSB97UW88SO2","either","6","877","","","","","","","1","0","0","0.9419241064","","0.2","0.4","0.8","0.6","","","","","0.5401897842","0.9419241064","0.8801682128","0.723110339","","","","","","","","","","74","J","1","","","143","main_expt",""
"","bandit","224","753240","0.0-185.0-0.0","73119746","wem/bandit_party_2","AQSB97UW88SO2","either","6","669","","","","","","","0","1","0","","0.9383966058","0.2","0.4","0.8","0.6","0.5495292383","0.9383966058","0.7806105972","0.7697142539","","","","","","","","","","","","","","74","J","1","","","144","main_expt",""
"","bandit","225","755408","0.0-186.0-0.0","73119746","wem/bandit_party_2","AQSB97UW88SO2","either","6","659","","","","","","","1","0","0","0.9442204223","","0.2","0.4","0.8","0.6","","","","","0.4718854897","0.9442204223","0.7384744451","0.8279494337","","","","","","","","","","74","J","1","","","145","main_expt",""
"","bandit","226","757472","0.0-187.0-0.0","73119746","wem/bandit_party_2","AQSB97UW88SO2","either","6","556","","","","","","","0","0","1","","0.9461270134","0.2","0.4","0.8","0.6","0.3790577705","0.9461270134","0.7078417075","0.747104877","","","","","","","","","","","","","","74","J","1","","","146","main_expt",""
"","bandit","227","759586","0.0-188.0-0.0","73119746","wem/bandit_party_2","AQSB97UW88SO2","either","6","607","","","","","","","0","1","0","","0.7671729372","0.2","0.4","0.8","0.6","0.3671333747","0.9677113618","0.7671729372","0.7635883185","","","","","","","","","","","","","","75","K","2","","","147","main_expt",""
"","bandit","228","761698","0.0-189.0-0.0","73119746","wem/bandit_party_2","AQSB97UW88SO2","either","6","604","","","","","","","1","0","0","0.7515071201","","0.2","0.4","0.8","0.6","","","","","0.4462771912","0.9603287673","0.7515071201","0.6650729927","","","","","","","","","","75","K","2","","","148","main_expt",""
"","bandit","229","763799","0.0-190.0-0.0","73119746","wem/bandit_party_2","AQSB97UW88SO2","either","6","597","","","","","","","0","0","1","0.7582160768","","0.2","0.4","0.8","0.6","","","","","0.3929125452","0.9256305183","0.7582160768","0.594527628","","","","","","","","","","75","K","2","","","149","main_expt",""
"","bandit","230","765664","0.0-191.0-0.0","73119746","wem/bandit_party_2","AQSB97UW88SO2","either","6","358","","","","","","","0","0","1","","0.3825194633","0.2","0.4","0.8","0.6","0.3825194633","0.9222609783","0.6843302658","0.5101412162","","","","","","","","","","","","","","72","H","0","img/none_selected.jpg","","150","main_expt",""
"","bandit","231","767536","0.0-192.0-0.0","73119746","wem/bandit_party_2","AQSB97UW88SO2","either","6","366","","","","","","","1","0","0","0.4980827124","","0.2","0.4","0.8","0.6","","","","","0.3889652011","0.9522131909","0.4980827124","0.5755011036","","","","","","","","","","75","K","2","","","151","main_expt",""
"","bandit","232","769769","0.0-193.0-0.0","73119746","wem/bandit_party_2","AQSB97UW88SO2","either","6","726","","","","","","","1","0","0","0.5418861514","","0.2","0.4","0.8","0.6","","","","","0.372169082","0.9351777179","0.5418861514","0.5415628766","","","","","","","","","","75","K","2","","","152","main_expt",""
"","bandit","233","771864","0.0-194.0-0.0","73119746","wem/bandit_party_2","AQSB97UW88SO2","either","6","589","","","","","","","1","0","0","0.6424708626","","0.2","0.4","0.8","0.6","","","","","0.4275919172","0.9526549669","0.6424708626","0.6392888902","","","","","","","","","","75","K","2","","","153","main_expt",""
"","bandit","234","773967","0.0-195.0-0.0","73119746","wem/bandit_party_2","AQSB97UW88SO2","either","6","597","","","","","","","0","0","1","","0.6200403258","0.2","0.4","0.8","0.6","0.3978897223","0.944677936","0.6200403258","0.6798835142","","","","","","","","","","","","","","75","K","2","","","154","main_expt",""
"","bandit","235","775929","0.0-196.0-0.0","73119746","wem/bandit_party_2","AQSB97UW88SO2","either","6","455","","","","","","","0","1","0","","0.7376683638","0.2","0.4","0.8","0.6","0.4922143253","0.9443948233","0.5087788092","0.7376683638","","","","","","","","","","","","","","76","L","3","","","155","main_expt",""
"","bandit","236","778041","0.0-197.0-0.0","73119746","wem/bandit_party_2","AQSB97UW88SO2","either","6","603","","","","","","","0","1","0","","0.7740838489","0.2","0.4","0.8","0.6","0.5060601407","0.9312029685","0.4397360723","0.7740838489","","","","","","","","","","","","","","76","L","3","","","156","main_expt",""
"","bandit","237","780130","0.0-198.0-0.0","73119746","wem/bandit_party_2","AQSB97UW88SO2","either","6","581","","","","","","","0","0","1","0.7526352547","","0.2","0.4","0.8","0.6","","","","","0.56460533","0.9009413449","0.4529934193","0.7526352547","","","","","","","","","","76","L","3","","","157","main_expt",""
"","bandit","238","781977","0.0-199.0-0.0","73119746","wem/bandit_party_2","AQSB97UW88SO2","either","6","340","","","","","","","0","1","0","","0.8799225656","0.2","0.4","0.8","0.6","0.5551408743","0.8799225656","0.522014142","0.807066173","","","","","","","","","","","","","","74","J","1","","","158","main_expt",""
"","bandit","239","784089","0.0-200.0-0.0","73119746","wem/bandit_party_2","AQSB97UW88SO2","either","6","605","","","","","","","0","1","0","","0.9103166083","0.2","0.4","0.8","0.6","0.6362487126","0.9103166083","0.447178695","0.8348587906","","","","","","","","","","","","","","74","J","1","","","159","main_expt",""
"","bandit","240","786048","0.0-201.0-0.0","73119746","wem/bandit_party_2","AQSB97UW88SO2","either","6","453","","","","","","","1","0","0","0.9575168601","","0.2","0.4","0.8","0.6","","","","","0.5818198138","0.9575168601","0.4293784973","0.8054329593","","","","","","","","","","74","J","1","","","160","main_expt",""
"","bandit","241","788104","0.0-202.0-0.0","73119746","wem/bandit_party_2","AQSB97UW88SO2","either","6","548","","","","","","","0","1","0","","0.9323430526","0.2","0.4","0.8","0.6","0.5079421761","0.9323430526","0.4263694152","0.8263011938","","","","","","","","","","","","","","74","J","1","","","161","main_expt",""
"","bandit","242","790096","0.0-203.0-0.0","73119746","wem/bandit_party_2","AQSB97UW88SO2","either","6","486","","","","","","","0","1","0","","0.8731035433","0.2","0.4","0.8","0.6","0.3944353318","0.8731035433","0.4394756583","0.8468561623","","","","","","","","","","","","","","74","J","1","","","162","main_expt",""
"","bandit","243","792040","0.0-204.0-0.0","73119746","wem/bandit_party_2","AQSB97UW88SO2","either","6","438","","","","","","","0","1","0","","0.860239847","0.2","0.4","0.8","0.6","0.4560534757","0.860239847","0.4632532181","0.866861138","","","","","","","","","","","","","","74","J","1","","","163","main_expt",""
"","bandit","244","794016","0.0-205.0-0.0","73119746","wem/bandit_party_2","AQSB97UW88SO2","either","6","470","","","","","","","1","0","0","0.8327160304","","0.2","0.4","0.8","0.6","","","","","0.4338988853","0.8327160304","0.469091439","0.8621839131","","","","","","","","","","74","J","1","","","164","main_expt",""
"","bandit","245","795954","0.0-206.0-0.0","73119746","wem/bandit_party_2","AQSB97UW88SO2","either","6","429","","","","","","","1","0","0","0.8780399083","","0.2","0.4","0.8","0.6","","","","","0.3640020004","0.8780399083","0.4691854483","0.8368369455","","","","","","","","","","74","J","1","","","165","main_expt",""
"","bandit","246","797913","0.0-207.0-0.0","73119746","wem/bandit_party_2","AQSB97UW88SO2","either","6","451","","","","","","","0","1","0","","0.8659509199","0.2","0.4","0.8","0.6","0.4433911144","0.8659509199","0.424594696","0.8543831227","","","","","","","","","","","","","","74","J","1","","","166","main_expt",""
"","bandit","247","799857","0.0-208.0-0.0","73119746","wem/bandit_party_2","AQSB97UW88SO2","either","6","436","","","","","","","1","0","0","0.8458676595","","0.2","0.4","0.8","0.6","","","","","0.4852122499","0.8458676595","0.4691217736","0.8444257961","","","","","","","","","","74","J","1","","","167","main_expt",""
"","bandit","248","801793","0.0-209.0-0.0","73119746","wem/bandit_party_2","AQSB97UW88SO2","either","6","430","","","","","","","1","0","0","0.7368025647","","0.2","0.4","0.8","0.6","","","","","0.4829488348","0.7368025647","0.4605946041","0.8895061166","","","","","","","","","","74","J","1","","","168","main_expt",""
"","bandit","249","803650","0.0-210.0-0.0","73119746","wem/bandit_party_2","AQSB97UW88SO2","either","6","349","","","","","","","0","0","1","0.6811301937","","0.2","0.4","0.8","0.6","","","","","0.467087579","0.6811301937","0.4302520818","0.8980662015","","","","","","","","","","74","J","1","","","169","main_expt",""
"","bandit","250","805616","0.0-211.0-0.0","73119746","wem/bandit_party_2","AQSB97UW88SO2","either","6","458","","","","","","","0","0","1","","0.3575164989","0.2","0.4","0.8","0.6","0.3575164989","0.6781719117","0.3846086554","0.9399190154","","","","","","","","","","","","","","72","H","0","img/none_selected.jpg","","170","main_expt",""
"","bandit","251","807371","0.0-212.0-0.0","73119746","wem/bandit_party_2","AQSB97UW88SO2","either","6","248","","","","","","","0","0","1","0.4938912128","","0.2","0.4","0.8","0.6","","","","","0.3433755155","0.5779776893","0.4938912128","0.9199626721","","","","","","","","","","75","K","2","","","171","main_expt",""
"","bandit","252","809177","0.0-213.0-0.0","73119746","wem/bandit_party_2","AQSB97UW88SO2","either","6","299","","","","","","","1","0","0","0.5461867433","","0.2","0.4","0.8","0.6","","","","","0.2921203137","0.5461867433","0.5409242696","0.8885959212","","","","","","","","","","74","J","1","","","172","main_expt",""
"","bandit","253","811289","0.0-214.0-0.0","73119746","wem/bandit_party_2","AQSB97UW88SO2","either","6","603","","","","","","","0","1","0","","0.5898781272","0.2","0.4","0.8","0.6","0.3237382503","0.5898781272","0.4899310385","0.8502068985","","","","","","","","","","","","","","74","J","1","","","173","main_expt",""
"","bandit","254","813131","0.0-215.0-0.0","73119746","wem/bandit_party_2","AQSB97UW88SO2","either","6","334","","","","","","","0","0","1","0.5990225055","","0.2","0.4","0.8","0.6","","","","","0.2935635685","0.5990225055","0.4464532747","0.9054067092","","","","","","","","","","74","J","1","","","174","main_expt",""
"","bandit","255","815036","0.0-216.0-0.0","73119746","wem/bandit_party_2","AQSB97UW88SO2","either","6","395","","","","","","","0","1","0","","0.6129624105","0.2","0.4","0.8","0.6","0.2797951809","0.6129624105","0.4363040476","0.9096893241","","","","","","","","","","","","","","74","J","1","","","175","main_expt",""
"","bandit","256","816929","0.0-217.0-0.0","73119746","wem/bandit_party_2","AQSB97UW88SO2","either","6","386","","","","","","","0","1","0","","0.5434192492","0.2","0.4","0.8","0.6","0.2067270565","0.5434192492","0.4198776974","0.9081003197","","","","","","","","","","","","","","74","J","1","","","176","main_expt",""
"","bandit","257","818801","0.0-218.0-0.0","73119746","wem/bandit_party_2","AQSB97UW88SO2","either","6","365","","","","","","","1","0","0","0.5893108522","","0.2","0.4","0.8","0.6","","","","","0.19266164","0.5893108522","0.4001478854","0.8417535431","","","","","","","","","","74","J","1","","","177","main_expt",""
"","bandit","258","820657","0.0-219.0-0.0","73119746","wem/bandit_party_2","AQSB97UW88SO2","either","6","348","","","","","","","1","0","0","0.4862463398","","0.2","0.4","0.8","0.6","","","","","0.1393448617","0.4862463398","0.3015477047","0.8045518304","","","","","","","","","","74","J","1","","","178","main_expt",""
"","bandit","259","822474","0.0-220.0-0.0","73119746","wem/bandit_party_2","AQSB97UW88SO2","either","6","310","","","","","","","0","0","1","0.4227787996","","0.2","0.4","0.8","0.6","","","","","0.1149816072","0.4227787996","0.2700131006","0.8250115846","","","","","","","","","","74","J","1","","","179","main_expt",""
"","bandit","260","824449","0.0-221.0-0.0","73119746","wem/bandit_party_2","AQSB97UW88SO2","either","6","469","","","","","","","0","0","1","","0.3583368423","0.2","0.4","0.8","0.6","0.1231561222","0.3583368423","0.3473069","0.7418096358","","","","","","","","","","","","","","74","J","1","","","180","main_expt",""
"","bandit","261","826241","0.0-222.0-0.0","73119746","wem/bandit_party_2","AQSB97UW88SO2","either","6","283","","","","","","","0","1","0","","0.7180260456","0.2","0.4","0.8","0.6","0.1134989143","0.3820052134","0.3478804011","0.7180260456","","","","","","","","","","","","","","76","L","3","","","181","main_expt",""
"","bandit","262","828265","0.0-223.0-0.0","73119746","wem/bandit_party_2","AQSB97UW88SO2","either","6","512","","","","","","","1","0","0","0.6777378447","","0.2","0.4","0.8","0.6","","","","","0.07317944644","0.437769555","0.3304981007","0.6777378447","","","","","","","","","","76","L","3","","","182","main_expt",""
"","bandit","263","830225","0.0-224.0-0.0","73119746","wem/bandit_party_2","AQSB97UW88SO2","either","6","453","","","","","","","0","1","0","","0.6331465848","0.2","0.4","0.8","0.6","0.05085611098","0.3951330089","0.2578466268","0.6331465848","","","","","","","","","","","","","","76","L","3","","","183","main_expt",""
"","bandit","264","832124","0.0-225.0-0.0","73119746","wem/bandit_party_2","AQSB97UW88SO2","either","6","389","","","","","","","0","0","1","0.6578519513","","0.2","0.4","0.8","0.6","","","","","0.07152820202","0.4062376343","0.3550464129","0.6578519513","","","","","","","","","","76","L","3","","","184","main_expt",""
"","bandit","265","833929","0.0-226.0-0.0","73119746","wem/bandit_party_2","AQSB97UW88SO2","either","6","298","","","","","","","0","0","1","","0.2993299556","0.2","0.4","0.8","0.6","0.08814522307","0.4035727276","0.2993299556","0.7160298793","","","","","","","","","","","","","","75","K","2","","","185","main_expt",""
"","bandit","266","835770","0.0-227.0-0.0","73119746","wem/bandit_party_2","AQSB97UW88SO2","either","6","333","","","","","","","0","1","0","","0.0931487442","0.2","0.4","0.8","0.6","0.0931487442","0.4595565904","0.3985972224","0.7081703269","","","","","","","","","","","","","","72","H","0","img/none_selected.jpg","","186","main_expt",""
"","bandit","267","837874","0.0-228.0-0.0","73119746","wem/bandit_party_2","AQSB97UW88SO2","either","6","596","","","","","","","0","0","1","","0.05847154344","0.2","0.4","0.8","0.6","0.05847154344","0.4956959756","0.4563810555","0.7670757258","","","","","","","","","","","","","","72","H","0","img/none_selected.jpg","","187","main_expt",""
"","bandit","268","839698","0.0-229.0-0.0","73119746","wem/bandit_party_2","AQSB97UW88SO2","either","6","316","","","","","","","0","0","1","","0.05005107021","0.2","0.4","0.8","0.6","0.05005107021","0.4295585103","0.4621092719","0.7986884496","","","","","","","","","","","","","","72","H","0","img/none_selected.jpg","","188","main_expt",""
"","bandit","269","841514","0.0-230.0-0.0","73119746","wem/bandit_party_2","AQSB97UW88SO2","either","6","308","","","","","","","0","0","1","","0.4121259827","0.2","0.4","0.8","0.6","0.05158958255","0.4121259827","0.4214675273","0.8113194514","","","","","","","","","","","","","","74","J","1","","","189","main_expt",""
"","bandit","270","843370","0.0-231.0-0.0","73119746","wem/bandit_party_2","AQSB97UW88SO2","either","6","349","","","","","","","1","0","0","0.8311477635","","0.2","0.4","0.8","0.6","","","","","0.0530996007","0.40505342","0.4445162903","0.8311477635","","","","","","","","","","76","L","3","","","190","main_expt",""
"","bandit","271","845771","0.0-232.0-0.0","73119746","wem/bandit_party_2","AQSB97UW88SO2","either","6","892","","","","","","","0","1","0","","0.7941336253","0.2","0.4","0.8","0.6","0.05342003941","0.3671493273","0.4077799102","0.7941336253","","","","","","","","","","","","","","76","L","3","","","191","main_expt",""
"","bandit","272","847971","0.0-233.0-0.0","73119746","wem/bandit_party_2","AQSB97UW88SO2","either","6","688","","","","","","","0","1","0","","0.841847859","0.2","0.4","0.8","0.6","0.05264216412","0.3367263454","0.413117206","0.841847859","","","","","","","","","","","","","","76","L","3","","","192","main_expt",""
"","bandit","273","850001","0.0-234.0-0.0","73119746","wem/bandit_party_2","AQSB97UW88SO2","either","6","523","","","","","","","0","1","0","","0.865127625","0.2","0.4","0.8","0.6","0.07418965368","0.2587514209","0.374663265","0.865127625","","","","","","","","","","","","","","76","L","3","","","193","main_expt",""
"","bandit","274","851817","0.0-235.0-0.0","73119746","wem/bandit_party_2","AQSB97UW88SO2","either","6","309","","","","","","","0","0","1","","0.8369883383","0.2","0.4","0.8","0.6","0.1148515542","0.2123696513","0.2792309937","0.8369883383","","","","","","","","","","","","","","76","L","3","","","194","main_expt",""
"","bandit","275","853809","0.0-236.0-0.0","73119746","wem/bandit_party_2","AQSB97UW88SO2","either","6","485","","","","","","","1","0","0","0.8226177272","","0.2","0.4","0.8","0.6","","","","","0.1102075851","0.2551117677","0.3090424304","0.8226177272","","","","","","","","","","76","L","3","","","195","main_expt",""
"","bandit","276","855665","0.0-237.0-0.0","73119746","wem/bandit_party_2","AQSB97UW88SO2","either","6","350","","","","","","","1","0","0","0.8759919892","","0.2","0.4","0.8","0.6","","","","","0.09307195637","0.2948177706","0.2254203465","0.8759919892","","","","","","","","","","76","L","3","","","196","main_expt",""
"","bandit","277","857665","0.0-238.0-0.0","73119746","wem/bandit_party_2","AQSB97UW88SO2","either","6","487","","","","","","","0","1","0","","0.9413038234","0.2","0.4","0.8","0.6","0.08341332984","0.2864074111","0.2104085952","0.9413038234","","","","","","","","","","","","","","76","L","3","","","197","main_expt",""
"","bandit","278","859521","0.0-239.0-0.0","73119746","wem/bandit_party_2","AQSB97UW88SO2","either","6","350","","","","","","","0","1","0","","0.9384937307","0.2","0.4","0.8","0.6","0.06206278739","0.3044962429","0.1686499416","0.9384937307","","","","","","","","","","","","","","76","L","3","","","198","main_expt",""
"","bandit","279","861504","0.0-240.0-0.0","73119746","wem/bandit_party_2","AQSB97UW88SO2","either","6","476","","","","","","","1","0","0","0.927250614","","0.2","0.4","0.8","0.6","","","","","0.1015706687","0.2804127106","0.1696058054","0.927250614","","","","","","","","","","76","L","3","","","199","main_expt",""
"","bandit","280","863561","0.0-241.0-0.0","73119746","wem/bandit_party_2","AQSB97UW88SO2","either","6","549","","","","","","","1","0","0","0.8840406778","","0.2","0.4","0.8","0.6","","","","","0.07348353789","0.3151112274","0.1940139532","0.8840406778","","","","","","","","","","76","L","3","","","200","main_expt",""
"","bandit","281","865441","0.0-242.0-0.0","73119746","wem/bandit_party_2","AQSB97UW88SO2","either","6","369","","","","","","","0","0","1","0.8866639954","","0.2","0.4","0.8","0.6","","","","","0.09218994405","0.3124471347","0.2384341862","0.8866639954","","","","","","","","","","76","L","3","","","201","main_expt",""
"","bandit","282","867385","0.0-243.0-0.0","73119746","wem/bandit_party_2","AQSB97UW88SO2","either","6","437","","","","","","","0","0","1","0.8188103646","","0.2","0.4","0.8","0.6","","","","","0.1662378481","0.3418115628","0.2069173963","0.8188103646","","","","","","","","","","76","L","3","","","202","main_expt",""
"","bandit","283","869209","0.0-244.0-0.0","73119746","wem/bandit_party_2","AQSB97UW88SO2","either","6","316","","","","","","","0","0","1","0.2502389624","","0.2","0.4","0.8","0.6","","","","","0.1808123801","0.2676578736","0.2502389624","0.8026106274","","","","","","","","","","75","K","2","","","203","main_expt",""
"","bandit","284","871024","0.0-245.0-0.0","73119746","wem/bandit_party_2","AQSB97UW88SO2","either","6","309","","","","","","","0","0","1","","0.2011980288","0.2","0.4","0.8","0.6","0.2011980288","0.2513587973","0.2226806","0.6613987003","","","","","","","","","","","","","","72","H","0","img/none_selected.jpg","","204","main_expt",""
"","bandit","285","872936","0.0-246.0-0.0","73119746","wem/bandit_party_2","AQSB97UW88SO2","either","6","404","","","","","","","0","0","1","0.2733703365","","0.2","0.4","0.8","0.6","","","","","0.1877492959","0.2733703365","0.2327973494","0.7402115251","","","","","","","","","","74","J","1","","","205","main_expt",""
"","bandit","286","874512","0.0-247.0-0.0","73119746","wem/bandit_party_2","AQSB97UW88SO2","either","6","69","","","","","","","0","1","0","","0.3212331514","0.2","0.4","0.8","0.6","0.1891298069","0.3212331514","0.3134624789","0.6792505986","","","","","","","","","","","","","","74","J","1","","","206","main_expt",""
"","bandit","287","876784","0.0-248.0-0.0","73119746","wem/bandit_party_2","AQSB97UW88SO2","either","6","766","","","","","","","0","1","0","","0.3381772831","0.2","0.4","0.8","0.6","0.2092890992","0.3381772831","0.3808856429","0.6510378203","","","","","","","","","","","","","","74","J","1","","","207","main_expt",""
"","bandit","288","879040","0.0-249.0-0.0","73119746","wem/bandit_party_2","AQSB97UW88SO2","either","6","748","","","","","","","0","0","1","","0.2370260631","0.2","0.4","0.8","0.6","0.2563161799","0.2370260631","0.318509643","0.5971377862","","","","","","","","","","","","","","74","J","1","","","208","main_expt",""
"","bandit","289","880993","0.0-250.0-0.0","73119746","wem/bandit_party_2","AQSB97UW88SO2","either","6","443","","","","","","","0","0","1","0.2157004535","","0.2","0.4","0.8","0.6","","","","","0.2643940457","0.2157004535","0.2932847295","0.6040603887","","","","","","","","","","74","J","1","","","209","main_expt",""
"","bandit","290","882865","0.0-251.0-0.0","73119746","wem/bandit_party_2","AQSB97UW88SO2","either","6","363","","","","","","","0","1","0","","0.2710870001","0.2","0.4","0.8","0.6","0.2710870001","0.2655169153","0.2230023122","0.7794442159","","","","","","","","","","","","","","72","H","0","img/none_selected.jpg","","210","main_expt",""
"","bandit","291","884985","0.0-252.0-0.0","73119746","wem/bandit_party_2","AQSB97UW88SO2","either","6","611","","","","","","","0","0","1","","0.2056380183","0.2","0.4","0.8","0.6","0.2056380183","0.2359505063","0.1899351836","0.8397026392","","","","","","","","","","","","","","72","H","0","img/none_selected.jpg","","211","main_expt",""
"","bandit","292","886866","0.0-253.0-0.0","73119746","wem/bandit_party_2","AQSB97UW88SO2","either","6","369","","","","","","","0","0","1","","0.2487045614","0.2","0.4","0.8","0.6","0.2487045614","0.2431981852","0.2593929449","0.7883870126","","","","","","","","","","","","","","72","H","0","img/none_selected.jpg","","212","main_expt",""
"","bandit","293","888722","0.0-254.0-0.0","73119746","wem/bandit_party_2","AQSB97UW88SO2","either","6","346","","","","","","","0","1","0","","0.2304425673","0.2","0.4","0.8","0.6","0.3520378668","0.3385658967","0.2304425673","0.7160446845","","","","","","","","","","","","","","75","K","2","","","213","main_expt",""
"","bandit","294","890591","0.0-255.0-0.0","73119746","wem/bandit_party_2","AQSB97UW88SO2","either","6","363","","","","","","","0","0","1","0.2849244028","","0.2","0.4","0.8","0.6","","","","","0.3455661114","0.445002088","0.2849244028","0.7501162241","","","","","","","","","","75","K","2","","","214","main_expt",""
"","bandit","295","892440","0.0-256.0-0.0","73119746","wem/bandit_party_2","AQSB97UW88SO2","either","6","343","","","","","","","0","0","1","","0.3184819088","0.2","0.4","0.8","0.6","0.3290646698","0.4340580748","0.3184819088","0.7574589115","","","","","","","","","","","","","","75","K","2","","","215","main_expt",""
"","bandit","296","894072","0.0-257.0-0.0","73119746","wem/bandit_party_2","AQSB97UW88SO2","either","6","118","","","","","","","0","0","1","0.7376674805","","0.2","0.4","0.8","0.6","","","","","0.2737258078","0.3996931216","0.2989728513","0.7376674805","","","","","","","","","","76","L","3","","","216","main_expt",""
"","bandit","297","895976","0.0-258.0-0.0","73119746","wem/bandit_party_2","AQSB97UW88SO2","either","6","397","","","","","","","1","0","0","0.67262171","","0.2","0.4","0.8","0.6","","","","","0.2401291484","0.453570069","0.5538830624","0.67262171","","","","","","","","","","76","L","3","","","217","main_expt",""
"","bandit","298","898017","0.0-259.0-0.0","73119746","wem/bandit_party_2","AQSB97UW88SO2","either","6","523","","","","","","","1","0","0","0.6309662891","","0.2","0.4","0.8","0.6","","","","","0.2395298113","0.3566620654","0.5331458927","0.6309662891","","","","","","","","","","76","L","3","","","218","main_expt",""
"","bandit","299","900007","0.0-260.0-0.0","73119746","wem/bandit_party_2","AQSB97UW88SO2","either","6","484","","","","","","","0","0","1","","0.610488243","0.2","0.4","0.8","0.6","0.2333127667","0.3114207129","0.409279481","0.610488243","","","","","","","","","","","","","","76","L","3","","","219","main_expt",""
"","bandit","300","902576","0.0-261.0-0.0","73119746","wem/bandit_party_2","AQSB97UW88SO2","either","6","1062","","","","","","","1","0","0","0.6741838821","","0.2","0.4","0.8","0.6","","","","","0.2097963002","0.348491043","0.3910907299","0.6741838821","","","","","","","","","","76","L","3","","","220","main_expt",""
"","bandit","301","904472","0.0-262.0-0.0","73119746","wem/bandit_party_2","AQSB97UW88SO2","either","6","390","","","","","","","0","1","0","","0.6938787555","0.2","0.4","0.8","0.6","0.1761429423","0.325682353","0.37386253","0.6938787555","","","","","","","","","","","","","","76","L","3","","","221","main_expt",""
"","bandit","302","906288","0.0-263.0-0.0","73119746","wem/bandit_party_2","AQSB97UW88SO2","either","6","308","","","","","","","0","1","0","","0.622086605","0.2","0.4","0.8","0.6","0.1770547834","0.3582518194","0.5460784034","0.622086605","","","","","","","","","","","","","","76","L","3","","","222","main_expt",""
"","bandit","303","908168","0.0-264.0-0.0","73119746","wem/bandit_party_2","AQSB97UW88SO2","either","6","372","","","","","","","1","0","0","0.6190419158","","0.2","0.4","0.8","0.6","","","","","0.1494166006","0.3596631187","0.5484594206","0.6190419158","","","","","","","","","","76","L","3","","","223","main_expt",""
"","bandit","304","910176","0.0-265.0-0.0","73119746","wem/bandit_party_2","AQSB97UW88SO2","either","6","500","","","","","","","0","0","1","","0.6525227655","0.2","0.4","0.8","0.6","0.1444184755","0.4757784632","0.5156266917","0.6525227655","","","","","","","","","","","","","","76","L","3","","","224","main_expt",""
"","bandit","305","912050","0.0-266.0-0.0","73119746","wem/bandit_party_2","AQSB97UW88SO2","either","6","364","","","","","","","0","1","0","","0.5739960468","0.2","0.4","0.8","0.6","0.2381889698","0.5384710229","0.5120039273","0.5739960468","","","","","","","","","","","","","","76","L","3","","","225","main_expt",""
"","bandit","306","914097","0.0-267.0-0.0","73119746","wem/bandit_party_2","AQSB97UW88SO2","either","6","533","","","","","","","0","1","0","","0.6038380469","0.2","0.4","0.8","0.6","0.1429230379","0.5308581489","0.5568413113","0.6038380469","","","","","","","","","","","","","","76","L","3","","","226","main_expt",""
"","bandit","307","916041","0.0-268.0-0.0","73119746","wem/bandit_party_2","AQSB97UW88SO2","either","6","433","","","","","","","1","0","0","0.5203417309","","0.2","0.4","0.8","0.6","","","","","0.124100867","0.488482713","0.5277183188","0.5203417309","","","","","","","","","","76","L","3","","","227","main_expt",""
"","bandit","308","917905","0.0-269.0-0.0","73119746","wem/bandit_party_2","AQSB97UW88SO2","either","6","354","","","","","","","0","0","1","0.4263922038","","0.2","0.4","0.8","0.6","","","","","0.1762219884","0.4406219513","0.5041270258","0.4263922038","","","","","","","","","","76","L","3","","","228","main_expt",""
"","bandit","309","920249","0.0-270.0-0.0","73119746","wem/bandit_party_2","AQSB97UW88SO2","either","6","836","","","","","","","0","0","1","0.3475105047","","0.2","0.4","0.8","0.6","","","","","0.1910325121","0.4892119921","0.4541369304","0.3475105047","","","","","","","","","","76","L","3","","","229","main_expt",""
"","bandit","310","922009","0.0-271.0-0.0","73119746","wem/bandit_party_2","AQSB97UW88SO2","either","6","251","","","","","","","0","0","1","","0.2571549068","0.2","0.4","0.8","0.6","0.2571549068","0.5129573662","0.4504381994","0.3353007417","","","","","","","","","","","","","","72","H","0","img/none_selected.jpg","","230","main_expt",""
"","bandit","311","924025","0.0-272.0-0.0","73119746","wem/bandit_party_2","AQSB97UW88SO2","either","6","507","","","","","","","0","0","1","","0.1781345747","0.2","0.4","0.8","0.6","0.1781345747","0.4382888871","0.4698668598","0.2870546929","","","","","","","","","","","","","","72","H","0","img/none_selected.jpg","","231","main_expt",""
"","bandit","312","925834","0.0-273.0-0.0","73119746","wem/bandit_party_2","AQSB97UW88SO2","either","6","299","","","","","","","0","0","1","0.42174841","","0.2","0.4","0.8","0.6","","","","","0.1748933913","0.42174841","0.5460008395","0.3092655517","","","","","","","","","","74","J","1","","","232","main_expt",""
"","bandit","313","927808","0.0-274.0-0.0","73119746","wem/bandit_party_2","AQSB97UW88SO2","either","6","462","","","","","","","1","0","0","0.4297142637","","0.2","0.4","0.8","0.6","","","","","0.2196371411","0.4297142637","0.5345299581","0.4231157335","","","","","","","","","","74","J","1","","","233","main_expt",""
"","bandit","314","929856","0.0-275.0-0.0","73119746","wem/bandit_party_2","AQSB97UW88SO2","either","6","541","","","","","","","1","0","0","0.3016140143","","0.2","0.4","0.8","0.6","","","","","0.2052749597","0.3016140143","0.508060833","0.5525929145","","","","","","","","","","74","J","1","","","234","main_expt",""
"","bandit","315","931865","0.0-276.0-0.0","73119746","wem/bandit_party_2","AQSB97UW88SO2","either","6","501","","","","","","","1","0","0","0.2735586703","","0.2","0.4","0.8","0.6","","","","","0.3158924645","0.2735586703","0.4956589368","0.7239072418","","","","","","","","","","74","J","1","","","235","main_expt",""
"","bandit","316","933687","0.0-277.0-0.0","73119746","wem/bandit_party_2","AQSB97UW88SO2","either","6","316","","","","","","","1","0","0","0.2536827631","","0.2","0.4","0.8","0.6","","","","","0.3668106878","0.2536827631","0.5514737959","0.8076920848","","","","","","","","","","74","J","1","","","236","main_expt",""
"","bandit","317","935673","0.0-278.0-0.0","73119746","wem/bandit_party_2","AQSB97UW88SO2","either","6","478","","","","","","","0","1","0","","0.2478783488","0.2","0.4","0.8","0.6","0.3866395083","0.2478783488","0.5183580196","0.7703095863","","","","","","","","","","","","","","74","J","1","","","237","main_expt",""
