"consent","trial_type","trial_index","time_elapsed","internal_node_id","subjID","study","MID","cond","drift","rt","responses","button_pressed","key_press","like","value","connected","gems","bombs","no_reward","GemPrChosen","BombPrChosen","GainOverPainPr_0","GainOverPainPr_1","GainOverPainPr_2","GainOverPainPr_3","LosePr_0","LosePr_1","LosePr_2","LosePr_3","WinPr_0","WinPr_1","WinPr_2","WinPr_3","Q0","Q1","Q2","gender","age","ethnicity","label","expt_phase","target","respCharCode","respKey","respChoiceNum","respChoice","practice","trial_counter","trial_label","Q0_index"
"GDM/GDM_behavioral_consent_30min_online.html","consent","0","4965","0.0-0.0","73137510","wem/bandit_party_2","A1X5IZPCRLL0Z7","either","8","","","","","","","","","","","","","","","","","","","","","","","","","","","","","","","","","","","","","","","","",""
"","survey-text","1","9479","0.0-1.0","73137510","wem/bandit_party_2","A1X5IZPCRLL0Z7","either","8","3506","{""Q0"":""A1X5IZPCRLL0Z7""}","","","","","","","","","","","","","","","","","","","","","","","","","","","","","","","","","","","","","","",""
"","button-response","2","11710","0.0-2.0","73137510","wem/bandit_party_2","A1X5IZPCRLL0Z7","either","8","1224","","1","","","","","","","","","","","","","","","","","","","","","","","","","","","","","","","","","","","","","",""
"","text-replacement","3","24961","0.0-3.0","73137510","wem/bandit_party_2","A1X5IZPCRLL0Z7","either","8","12248","","","32","","","","","","","","","","","","","","","","","","","","","","","","","","","","","","","","","","","","",""
"","text-replacement","4","30439","0.0-4.0","73137510","wem/bandit_party_2","A1X5IZPCRLL0Z7","either","8","5475","","","32","","","","","","","","","","","","","","","","","","","","","","","","","","","","","","","","","","","","",""
"","identification","5","35911","0.0-6.0-0.0","73137510","wem/bandit_party_2","A1X5IZPCRLL0Z7","either","8","5456","","","","6","5","5","","","","","","","","","","","","","","","","","","","","","","","","pre","identification_pre","the Democratic Party","","","","","","","",""
"","identification","6","40439","0.0-6.0-1.0","73137510","wem/bandit_party_2","A1X5IZPCRLL0Z7","either","8","3515","","","","0","0","0","","","","","","","","","","","","","","","","","","","","","","","","pre","identification_pre","the Republican Party","","","","","","","",""
"","text-replacement","7","46126","0.0-7.0","73137510","wem/bandit_party_2","A1X5IZPCRLL0Z7","either","8","4685","","","32","","","","","","","","","","","","","","","","","","","","","","","","","","","","","","","","","","","","",""
"","text-replacement","8","51080","0.0-8.0","73137510","wem/bandit_party_2","A1X5IZPCRLL0Z7","either","8","4951","","","32","","","","","","","","","","","","","","","","","","","","","","","","","","","","","","","","","","","","",""
"","text-replacement","9","60567","0.0-9.0","73137510","wem/bandit_party_2","A1X5IZPCRLL0Z7","either","8","9484","","","32","","","","","","","","","","","","","","","","","","","","","","","","","","","","","","","","","","","","",""
"","text-replacement","10","63119","0.0-10.0","73137510","wem/bandit_party_2","A1X5IZPCRLL0Z7","either","8","2549","","","32","","","","","","","","","","","","","","","","","","","","","","","","","","","","","","","","","","","","",""
"","text-replacement","11","65175","0.0-11.0","73137510","wem/bandit_party_2","A1X5IZPCRLL0Z7","either","8","2054","","","32","","","","","","","","","","","","","","","","","","","","","","","","","","","","","","","","","","","","",""
"","bandit","12","67375","0.0-12.0-0.0","73137510","wem/bandit_party_2","A1X5IZPCRLL0Z7","either","8","692","","","","","","","0","0","1","0","0","","","","","0","","","","0","","","","","","","","","","","","","74","J","0","img/none_selected_demo.jpg","true","0","",""
"","bandit","13","69109","0.0-13.0-0.0","73137510","wem/bandit_party_2","A1X5IZPCRLL0Z7","either","8","229","","","","","","","0","0","1","0","0","","","","","0","","","","0","","","","","","","","","","","","","75","K","0","img/none_selected_demo.jpg","true","0","",""
"","text-replacement","14","72841","0.0-14.0","73137510","wem/bandit_party_2","A1X5IZPCRLL0Z7","either","8","3730","","","32","","","","","","","","","","","","","","","","","","","","","","","","","","","","","","","","","","","","",""
"","text-replacement","15","75480","0.0-15.0","73137510","wem/bandit_party_2","A1X5IZPCRLL0Z7","either","8","2637","","","32","","","","","","","","","","","","","","","","","","","","","","","","","","","","","","","","","","","","",""
"","text-replacement","16","79159","0.0-16.0","73137510","wem/bandit_party_2","A1X5IZPCRLL0Z7","either","8","3677","","","32","","","","","","","","","","","","","","","","","","","","","","","","","","","","","","","","","","","","",""
"","text-replacement","17","80439","0.0-17.0","73137510","wem/bandit_party_2","A1X5IZPCRLL0Z7","either","8","1277","","","32","","","","","","","","","","","","","","","","","","","","","","","","","","","","","","","","","","","","",""
"","bandit","18","82463","0.0-18.0-0.0","73137510","wem/bandit_party_2","A1X5IZPCRLL0Z7","either","8","516","","","","","","","0","0","1","","0.8","0.5","0.5","","","0.8","0.2","","","","","","","","","","","","","","","","74","J","0","img/none_selected_demo.jpg","true","0","80_20_practice",""
"","bandit","19","84237","0.0-18.0-1.0","73137510","wem/bandit_party_2","A1X5IZPCRLL0Z7","either","8","269","","","","","","","1","0","0","0.8","","0.5","0.5","","","","","","","0.8","0.2","","","","","","","","","","","","74","J","0","img/none_selected_demo.jpg","true","0","80_20_practice",""
"","bandit","20","85822","0.0-18.0-2.0","73137510","wem/bandit_party_2","A1X5IZPCRLL0Z7","either","8","80","","","","","","","0","1","0","","0.8","0.5","0.5","","","0.8","0.2","","","","","","","","","","","","","","","","74","J","0","img/none_selected_demo.jpg","true","0","80_20_practice",""
"","bandit","21","87582","0.0-18.0-3.0","73137510","wem/bandit_party_2","A1X5IZPCRLL0Z7","either","8","255","","","","","","","0","1","0","","0.8","0.5","0.5","","","0.8","0.2","","","","","","","","","","","","","","","","74","J","0","img/none_selected_demo.jpg","true","0","80_20_practice",""
"","bandit","22","89182","0.0-18.0-4.0","73137510","wem/bandit_party_2","A1X5IZPCRLL0Z7","either","8","95","","","","","","","0","0","1","","0.8","0.5","0.5","","","0.8","0.2","","","","","","","","","","","","","","","","74","J","0","img/none_selected_demo.jpg","true","0","80_20_practice",""
"","bandit","23","90710","0.0-18.0-5.0","73137510","wem/bandit_party_2","A1X5IZPCRLL0Z7","either","8","22","","","","","","","1","0","0","0.8","","0.5","0.5","","","","","","","0.8","0.2","","","","","","","","","","","","74","J","0","img/none_selected_demo.jpg","true","0","80_20_practice",""
"","bandit","24","92550","0.0-18.0-6.0","73137510","wem/bandit_party_2","A1X5IZPCRLL0Z7","either","8","334","","","","","","","0","1","0","","0.2","0.5","0.5","","","0.8","0.2","","","","","","","","","","","","","","","","75","K","1","","true","0","80_20_practice",""
"","bandit","25","94284","0.0-18.0-7.0","73137510","wem/bandit_party_2","A1X5IZPCRLL0Z7","either","8","230","","","","","","","0","0","1","","0.2","0.5","0.5","","","0.8","0.2","","","","","","","","","","","","","","","","75","K","1","","true","0","80_20_practice",""
"","bandit","26","96273","0.0-18.0-8.0","73137510","wem/bandit_party_2","A1X5IZPCRLL0Z7","either","8","483","","","","","","","0","0","1","0.2","","0.5","0.5","","","","","","","0.8","0.2","","","","","","","","","","","","75","K","1","","true","0","80_20_practice",""
"","bandit","27","97908","0.0-18.0-9.0","73137510","wem/bandit_party_2","A1X5IZPCRLL0Z7","either","8","131","","","","","","","0","0","1","","0.2","0.5","0.5","","","0.8","0.2","","","","","","","","","","","","","","","","75","K","1","","true","0","80_20_practice",""
"","bandit","28","99661","0.0-18.0-10.0","73137510","wem/bandit_party_2","A1X5IZPCRLL0Z7","either","8","248","","","","","","","0","1","0","","0.2","0.5","0.5","","","0.8","0.2","","","","","","","","","","","","","","","","75","K","1","","true","0","80_20_practice",""
"","bandit","29","101420","0.0-18.0-11.0","73137510","wem/bandit_party_2","A1X5IZPCRLL0Z7","either","8","255","","","","","","","1","0","0","0.2","","0.5","0.5","","","","","","","0.8","0.2","","","","","","","","","","","","75","K","1","","true","0","80_20_practice",""
"","bandit","30","103173","0.0-18.0-12.0","73137510","wem/bandit_party_2","A1X5IZPCRLL0Z7","either","8","248","","","","","","","0","0","1","","0.2","0.5","0.5","","","0.8","0.2","","","","","","","","","","","","","","","","75","K","1","","true","0","80_20_practice",""
"","bandit","31","104813","0.0-18.0-13.0","73137510","wem/bandit_party_2","A1X5IZPCRLL0Z7","either","8","136","","","","","","","0","0","1","","0.2","0.5","0.5","","","0.8","0.2","","","","","","","","","","","","","","","","75","K","1","","true","0","80_20_practice",""
"","bandit","32","106319","0.0-18.0-14.0","73137510","wem/bandit_party_2","A1X5IZPCRLL0Z7","either","8","1","","","","","","","0","1","0","","0.8","0.5","0.5","","","0.8","0.2","","","","","","","","","","","","","","","","74","J","0","img/none_selected_demo.jpg","true","0","80_20_practice",""
"","bandit","33","108020","0.0-18.0-15.0","73137510","wem/bandit_party_2","A1X5IZPCRLL0Z7","either","8","196","","","","","","","1","0","0","0.8","","0.5","0.5","","","","","","","0.8","0.2","","","","","","","","","","","","74","J","0","img/none_selected_demo.jpg","true","0","80_20_practice",""
"","bandit","34","109709","0.0-18.0-16.0","73137510","wem/bandit_party_2","A1X5IZPCRLL0Z7","either","8","184","","","","","","","1","0","0","0.8","","0.5","0.5","","","","","","","0.8","0.2","","","","","","","","","","","","74","J","0","img/none_selected_demo.jpg","true","0","80_20_practice",""
"","bandit","35","111303","0.0-18.0-17.0","73137510","wem/bandit_party_2","A1X5IZPCRLL0Z7","either","8","87","","","","","","","1","0","0","0.8","","0.5","0.5","","","","","","","0.8","0.2","","","","","","","","","","","","74","J","0","img/none_selected_demo.jpg","true","0","80_20_practice",""
"","bandit","36","112908","0.0-18.0-18.0","73137510","wem/bandit_party_2","A1X5IZPCRLL0Z7","either","8","101","","","","","","","0","1","0","","0.8","0.5","0.5","","","0.8","0.2","","","","","","","","","","","","","","","","74","J","0","img/none_selected_demo.jpg","true","0","80_20_practice",""
"","bandit","37","114709","0.0-18.0-19.0","73137510","wem/bandit_party_2","A1X5IZPCRLL0Z7","either","8","295","","","","","","","0","1","0","","0.8","0.5","0.5","","","0.8","0.2","","","","","","","","","","","","","","","","74","J","0","img/none_selected_demo.jpg","true","0","80_20_practice",""
"","text-replacement","38","116961","0.0-19.0","73137510","wem/bandit_party_2","A1X5IZPCRLL0Z7","either","8","2249","","","32","","","","","","","","","","","","","","","","","","","","","","","","","","","","","","","","","","","","",""
"","bandit","39","118862","0.0-20.0-0.0","73137510","wem/bandit_party_2","A1X5IZPCRLL0Z7","either","8","394","","","","","","","1","0","0","1","0","","","","","0","1","","","1","0","","","","","","","","","","","","74","J","0","img/none_selected_demo.jpg","true","0","",""
"","text-replacement","40","120847","0.0-21.0","73137510","wem/bandit_party_2","A1X5IZPCRLL0Z7","either","8","1982","","","74","","","","","","","","","","","","","","","","","","","","","","","","","","","","","","","","","","","","",""
"","text-replacement","41","123751","0.0-22.0","73137510","wem/bandit_party_2","A1X5IZPCRLL0Z7","either","8","2901","","","32","","","","","","","","","","","","","","","","","","","","","","","","","","","","","","","","","","","","",""
"","text-replacement","42","125783","0.0-23.0","73137510","wem/bandit_party_2","A1X5IZPCRLL0Z7","either","8","2029","","","32","","","","","","","","","","","","","","","","","","","","","","","","","","","","","","","","","","","","",""
"","text-replacement","43","127713","0.0-24.0","73137510","wem/bandit_party_2","A1X5IZPCRLL0Z7","either","8","1927","","","32","","","","","","","","","","","","","","","","","","","","","","","","","","","","","","","","","","","","",""
"","text-replacement","44","131879","0.0-25.0","73137510","wem/bandit_party_2","A1X5IZPCRLL0Z7","either","8","4164","","","32","","","","","","","","","","","","","","","","","","","","","","","","","","","","","","","","","","","","",""
"","text-replacement","45","133799","0.0-26.0","73137510","wem/bandit_party_2","A1X5IZPCRLL0Z7","either","8","1918","","","32","","","","","","","","","","","","","","","","","","","","","","","","","","","","","","","","","","","","",""
"","text-replacement","46","135952","0.0-27.0","73137510","wem/bandit_party_2","A1X5IZPCRLL0Z7","either","8","2149","","","32","","","","","","","","","","","","","","","","","","","","","","","","","","","","","","","","","","","","",""
"","text-replacement","47","140529","0.0-28.0","73137510","wem/bandit_party_2","A1X5IZPCRLL0Z7","either","8","4575","","","32","","","","","","","","","","","","","","","","","","","","","","","","","","","","","","","","","","","","",""
"","text-replacement","48","143063","0.0-29.0","73137510","wem/bandit_party_2","A1X5IZPCRLL0Z7","either","8","2531","","","32","","","","","","","","","","","","","","","","","","","","","","","","","","","","","","","","","","","","",""
"","text-replacement","49","144351","0.0-30.0","73137510","wem/bandit_party_2","A1X5IZPCRLL0Z7","either","8","1286","","","32","","","","","","","","","","","","","","","","","","","","","","","","","","","","","","","","","","","","",""
"","text-replacement","50","146207","0.0-31.0","73137510","wem/bandit_party_2","A1X5IZPCRLL0Z7","either","8","1853","","","32","","","","","","","","","","","","","","","","","","","","","","","","","","","","","","","","","","","","",""
"","bandit","51","148214","0.0-32.0-0.0","73137510","wem/bandit_party_2","A1X5IZPCRLL0Z7","either","8","501","","","","","","","1","0","0","0.8","","0.5","0.5","0.5","0.5","","","","","0.8","0.2","0.6","0.2","","","","","","","","","","72","H","0","img/none_selected.jpg","true","0","full_practice",""
"","bandit","52","149988","0.0-32.0-1.0","73137510","wem/bandit_party_2","A1X5IZPCRLL0Z7","either","8","268","","","","","","","0","1","0","","0.8","0.5","0.5","0.5","0.5","0.8","0.2","0.6","0.2","","","","","","","","","","","","","","72","H","0","img/none_selected.jpg","true","0","full_practice",""
"","bandit","53","151701","0.0-32.0-2.0","73137510","wem/bandit_party_2","A1X5IZPCRLL0Z7","either","8","207","","","","","","","1","0","0","0.8","","0.5","0.5","0.5","0.5","","","","","0.8","0.2","0.6","0.2","","","","","","","","","","72","H","0","img/none_selected.jpg","true","0","full_practice",""
"","bandit","54","153456","0.0-32.0-3.0","73137510","wem/bandit_party_2","A1X5IZPCRLL0Z7","either","8","248","","","","","","","0","0","1","","0.8","0.5","0.5","0.5","0.5","0.8","0.2","0.6","0.2","","","","","","","","","","","","","","72","H","0","img/none_selected.jpg","true","0","full_practice",""
"","bandit","55","155245","0.0-32.0-4.0","73137510","wem/bandit_party_2","A1X5IZPCRLL0Z7","either","8","283","","","","","","","0","0","1","","0.2","0.5","0.5","0.5","0.5","0.8","0.2","0.6","0.2","","","","","","","","","","","","","","74","J","1","","true","0","full_practice",""
"","bandit","56","157028","0.0-32.0-5.0","73137510","wem/bandit_party_2","A1X5IZPCRLL0Z7","either","8","278","","","","","","","1","0","0","0.6","","0.5","0.5","0.5","0.5","","","","","0.8","0.2","0.6","0.2","","","","","","","","","","75","K","2","","true","0","full_practice",""
"","bandit","57","159268","0.0-32.0-6.0","73137510","wem/bandit_party_2","A1X5IZPCRLL0Z7","either","8","734","","","","","","","1","0","0","0.2","","0.5","0.5","0.5","0.5","","","","","0.8","0.2","0.6","0.2","","","","","","","","","","76","L","3","","true","0","full_practice",""
"","bandit","58","161014","0.0-32.0-7.0","73137510","wem/bandit_party_2","A1X5IZPCRLL0Z7","either","8","239","","","","","","","0","1","0","","0.6","0.5","0.5","0.5","0.5","0.8","0.2","0.6","0.2","","","","","","","","","","","","","","75","K","2","","true","0","full_practice",""
"","bandit","59","162694","0.0-32.0-8.0","73137510","wem/bandit_party_2","A1X5IZPCRLL0Z7","either","8","173","","","","","","","0","1","0","","0.6","0.5","0.5","0.5","0.5","0.8","0.2","0.6","0.2","","","","","","","","","","","","","","75","K","2","","true","0","full_practice",""
"","bandit","60","164446","0.0-32.0-9.0","73137510","wem/bandit_party_2","A1X5IZPCRLL0Z7","either","8","247","","","","","","","0","0","1","0.6","","0.5","0.5","0.5","0.5","","","","","0.8","0.2","0.6","0.2","","","","","","","","","","75","K","2","","true","0","full_practice",""
"","bandit","61","166101","0.0-32.0-10.0","73137510","wem/bandit_party_2","A1X5IZPCRLL0Z7","either","8","148","","","","","","","0","1","0","","0.6","0.5","0.5","0.5","0.5","0.8","0.2","0.6","0.2","","","","","","","","","","","","","","75","K","2","","true","0","full_practice",""
"","bandit","62","167837","0.0-32.0-11.0","73137510","wem/bandit_party_2","A1X5IZPCRLL0Z7","either","8","231","","","","","","","0","1","0","","0.6","0.5","0.5","0.5","0.5","0.8","0.2","0.6","0.2","","","","","","","","","","","","","","75","K","2","","true","0","full_practice",""
"","bandit","63","169500","0.0-32.0-12.0","73137510","wem/bandit_party_2","A1X5IZPCRLL0Z7","either","8","159","","","","","","","0","1","0","","0.6","0.5","0.5","0.5","0.5","0.8","0.2","0.6","0.2","","","","","","","","","","","","","","75","K","2","","true","0","full_practice",""
"","bandit","64","171109","0.0-32.0-13.0","73137510","wem/bandit_party_2","A1X5IZPCRLL0Z7","either","8","104","","","","","","","1","0","0","0.6","","0.5","0.5","0.5","0.5","","","","","0.8","0.2","0.6","0.2","","","","","","","","","","75","K","2","","true","0","full_practice",""
"","bandit","65","172869","0.0-32.0-14.0","73137510","wem/bandit_party_2","A1X5IZPCRLL0Z7","either","8","253","","","","","","","1","0","0","0.6","","0.5","0.5","0.5","0.5","","","","","0.8","0.2","0.6","0.2","","","","","","","","","","75","K","2","","true","0","full_practice",""
"","bandit","66","174550","0.0-32.0-15.0","73137510","wem/bandit_party_2","A1X5IZPCRLL0Z7","either","8","176","","","","","","","0","0","1","","0.6","0.5","0.5","0.5","0.5","0.8","0.2","0.6","0.2","","","","","","","","","","","","","","75","K","2","","true","0","full_practice",""
"","bandit","67","176102","0.0-32.0-16.0","73137510","wem/bandit_party_2","A1X5IZPCRLL0Z7","either","8","45","","","","","","","0","0","1","","0.6","0.5","0.5","0.5","0.5","0.8","0.2","0.6","0.2","","","","","","","","","","","","","","75","K","2","","true","0","full_practice",""
"","bandit","68","177734","0.0-32.0-17.0","73137510","wem/bandit_party_2","A1X5IZPCRLL0Z7","either","8","125","","","","","","","0","1","0","","0.6","0.5","0.5","0.5","0.5","0.8","0.2","0.6","0.2","","","","","","","","","","","","","","75","K","2","","true","0","full_practice",""
"","bandit","69","179396","0.0-32.0-18.0","73137510","wem/bandit_party_2","A1X5IZPCRLL0Z7","either","8","156","","","","","","","1","0","0","0.6","","0.5","0.5","0.5","0.5","","","","","0.8","0.2","0.6","0.2","","","","","","","","","","75","K","2","","true","0","full_practice",""
"","bandit","70","181061","0.0-32.0-19.0","73137510","wem/bandit_party_2","A1X5IZPCRLL0Z7","either","8","159","","","","","","","0","0","1","","0.6","0.5","0.5","0.5","0.5","0.8","0.2","0.6","0.2","","","","","","","","","","","","","","75","K","2","","true","0","full_practice",""
"","text","71","183114","0.0-33.0","73137510","wem/bandit_party_2","A1X5IZPCRLL0Z7","either","8","2038","","","32","","","","","","","","","","","","","","","","","","","","","","","","","","","","","","","","","","","","",""
"","text-replacement","72","191127","0.0-34.0","73137510","wem/bandit_party_2","A1X5IZPCRLL0Z7","either","8","7010","","","32","","","","","","","","","","","","","","","","","","","","","","","","","","","","","","","","","","","","",""
"","text-replacement","73","199177","0.0-35.0","73137510","wem/bandit_party_2","A1X5IZPCRLL0Z7","either","8","8046","","","32","","","","","","","","","","","","","","","","","","","","","","","","","","","","","","","","","","","","",""
"","text-replacement","74","202592","0.0-36.0","73137510","wem/bandit_party_2","A1X5IZPCRLL0Z7","either","8","3412","","","32","","","","","","","","","","","","","","","","","","","","","","","","","","","","","","","","","","","","",""
"","text-replacement","75","205775","0.0-37.0","73137510","wem/bandit_party_2","A1X5IZPCRLL0Z7","either","8","3179","","","32","","","","","","","","","","","","","","","","","","","","","","","","","","","","","","","","","","","","",""
"","text-replacement","76","207823","0.0-38.0","73137510","wem/bandit_party_2","A1X5IZPCRLL0Z7","either","8","2045","","","32","","","","","","","","","","","","","","","","","","","","","","","","","","","","","","","","","","","","",""
"","survey-multi-choice-replacement","77","211551","0.0-39.0-0.0","73137510","wem/bandit_party_2","A1X5IZPCRLL0Z7","either","8","3718","","","","","","","","","","","","","","","","","","","","","","","","Money will be added to the pool for <span style='color:blue;'>DEMOCRATS</span>","","","","","","","attn_check","","","","","","","","","0"
"","survey-multi-choice-replacement","78","216626","0.0-40.0-0.0","73137510","wem/bandit_party_2","A1X5IZPCRLL0Z7","either","8","4064","","","","","","","","","","","","","","","","","","","","","","","","Equal amounts of money will be added to the pool for <span style='color:blue;'>DEMOCRATS</span> and subtracted from the pool for <span style='color:red;'>REPUBLICANS</span>","","","","","","","attn_check","","","","","","","","","2"
"","survey-multi-choice-replacement","79","219270","0.0-41.0-0.0","73137510","wem/bandit_party_2","A1X5IZPCRLL0Z7","either","8","1633","","","","","","","","","","","","","","","","","","","","","","","","No money will be added to either pool","","","","","","","attn_check","","","","","","","","","3"
"","bandit","80","223142","0.0-42.0-0.0","73137510","wem/bandit_party_2","A1X5IZPCRLL0Z7","either","8","1363","","","","","","","0","1","0","","0.6337563202","0.6","0.2","0.8","0.4","0.3040937467","0.6337563202","0.2428949588","0.4468950172","","","","","","","","","","","","","","74","J","1","","","1","main_expt",""
"","bandit","81","224790","0.0-43.0-0.0","73137510","wem/bandit_party_2","A1X5IZPCRLL0Z7","either","8","139","","","","","","","0","0","1","0.7380673114","","0.6","0.2","0.8","0.4","","","","","0.2687625136","0.7380673114","0.248961424","0.3846124694","","","","","","","","","","74","J","1","","","2","main_expt",""
"","bandit","82","226604","0.0-44.0-0.0","73137510","wem/bandit_party_2","A1X5IZPCRLL0Z7","either","8","308","","","","","","","0","1","0","","0.7715549737","0.6","0.2","0.8","0.4","0.3017919557","0.7715549737","0.1878604038","0.3885967974","","","","","","","","","","","","","","74","J","1","","","3","main_expt",""
"","bandit","83","228357","0.0-45.0-0.0","73137510","wem/bandit_party_2","A1X5IZPCRLL0Z7","either","8","248","","","","","","","0","1","0","","0.8257013646","0.6","0.2","0.8","0.4","0.3388517529","0.8257013646","0.1194049449","0.2891644394","","","","","","","","","","","","","","74","J","1","","","4","main_expt",""
"","bandit","84","230196","0.0-46.0-0.0","73137510","wem/bandit_party_2","A1X5IZPCRLL0Z7","either","8","333","","","","","","","1","0","0","0.8617886559","","0.6","0.2","0.8","0.4","","","","","0.389096829","0.8617886559","0.197046458","0.2654579937","","","","","","","","","","74","J","1","","","5","main_expt",""
"","bandit","85","231789","0.0-47.0-0.0","73137510","wem/bandit_party_2","A1X5IZPCRLL0Z7","either","8","87","","","","","","","0","1","0","","0.8452125903","0.6","0.2","0.8","0.4","0.4799636182","0.8452125903","0.2312720201","0.355160999","","","","","","","","","","","","","","74","J","1","","","6","main_expt",""
"","bandit","86","233446","0.0-48.0-0.0","73137510","wem/bandit_party_2","A1X5IZPCRLL0Z7","either","8","151","","","","","","","0","1","0","","0.8765288384","0.6","0.2","0.8","0.4","0.5316557606","0.8765288384","0.3255591742","0.4733904832","","","","","","","","","","","","","","74","J","1","","","7","main_expt",""
"","bandit","87","234957","0.0-49.0-0.0","73137510","wem/bandit_party_2","A1X5IZPCRLL0Z7","either","8","4","","","","","","","0","1","0","","0.8625068071","0.6","0.2","0.8","0.4","0.4935712437","0.8625068071","0.163151729","0.4900136729","","","","","","","","","","","","","","74","J","1","","","8","main_expt",""
"","bandit","88","236598","0.0-50.0-0.0","73137510","wem/bandit_party_2","A1X5IZPCRLL0Z7","either","8","134","","","","","","","0","1","0","","0.8385781597","0.6","0.2","0.8","0.4","0.5400450001","0.8385781597","0.1671639775","0.4543552171","","","","","","","","","","","","","","74","J","1","","","9","main_expt",""
"","bandit","89","238166","0.0-51.0-0.0","73137510","wem/bandit_party_2","A1X5IZPCRLL0Z7","either","8","58","","","","","","","0","1","0","","0.833356221","0.6","0.2","0.8","0.4","0.6510952772","0.833356221","0.1315225434","0.4523920981","","","","","","","","","","","","","","74","J","1","","","10","main_expt",""
"","bandit","90","239877","0.0-52.0-0.0","73137510","wem/bandit_party_2","A1X5IZPCRLL0Z7","either","8","204","","","","","","","0","1","0","","0.9030756702","0.6","0.2","0.8","0.4","0.6117649901","0.9030756702","0.1287002637","0.4053083118","","","","","","","","","","","","","","74","J","1","","","11","main_expt",""
"","bandit","91","242213","0.0-53.0-0.0","73137510","wem/bandit_party_2","A1X5IZPCRLL0Z7","either","8","829","","","","","","","0","1","0","","0.9129290363","0.6","0.2","0.8","0.4","0.6360746298","0.9129290363","0.1026596936","0.4059907931","","","","","","","","","","","","","","74","J","1","","","12","main_expt",""
"","bandit","92","243767","0.0-54.0-0.0","73137510","wem/bandit_party_2","A1X5IZPCRLL0Z7","either","8","47","","","","","","","0","1","0","","0.8638417716","0.6","0.2","0.8","0.4","0.5673960652","0.8638417716","0.1287514256","0.2934167972","","","","","","","","","","","","","","74","J","1","","","13","main_expt",""
"","bandit","93","245493","0.0-55.0-0.0","73137510","wem/bandit_party_2","A1X5IZPCRLL0Z7","either","8","219","","","","","","","1","0","0","0.787806988","","0.6","0.2","0.8","0.4","","","","","0.6747725803","0.787806988","0.1786171179","0.3260927596","","","","","","","","","","74","J","1","","","14","main_expt",""
"","bandit","94","247102","0.0-56.0-0.0","73137510","wem/bandit_party_2","A1X5IZPCRLL0Z7","either","8","102","","","","","","","1","0","0","0.7254212376","","0.6","0.2","0.8","0.4","","","","","0.6277188345","0.7254212376","0.1459410532","0.3355382734","","","","","","","","","","74","J","1","","","15","main_expt",""
"","bandit","95","248678","0.0-57.0-0.0","73137510","wem/bandit_party_2","A1X5IZPCRLL0Z7","either","8","68","","","","","","","0","0","1","0.7238415528","","0.6","0.2","0.8","0.4","","","","","0.5435568235","0.7238415528","0.2255600906","0.3040928121","","","","","","","","","","74","J","1","","","16","main_expt",""
"","bandit","96","250549","0.0-58.0-0.0","73137510","wem/bandit_party_2","A1X5IZPCRLL0Z7","either","8","363","","","","","","","0","1","0","","0.7796243455","0.6","0.2","0.8","0.4","0.4180161478","0.7796243455","0.2052013943","0.2730366263","","","","","","","","","","","","","","74","J","1","","","17","main_expt",""
"","bandit","97","252057","0.0-59.0-0.0","73137510","wem/bandit_party_2","A1X5IZPCRLL0Z7","either","8","1","","","","","","","0","0","1","","0.6928902724","0.6","0.2","0.8","0.4","0.4961111773","0.6928902724","0.1780354615","0.4105298721","","","","","","","","","","","","","","74","J","1","","","18","main_expt",""
"","bandit","98","253855","0.0-60.0-0.0","73137510","wem/bandit_party_2","A1X5IZPCRLL0Z7","either","8","290","","","","","","","1","0","0","0.445530788","","0.6","0.2","0.8","0.4","","","","","0.445530788","0.7658630901","0.1576496117","0.3586923344","","","","","","","","","","72","H","0","img/none_selected.jpg","","19","main_expt",""
"","bandit","99","255510","0.0-61.0-0.0","73137510","wem/bandit_party_2","A1X5IZPCRLL0Z7","either","8","145","","","","","","","0","0","1","","0.3443163705","0.6","0.2","0.8","0.4","0.3443163705","0.7584200513","0.1618752313","0.3220075653","","","","","","","","","","","","","","72","H","0","img/none_selected.jpg","","20","main_expt",""
"","bandit","100","257101","0.0-62.0-0.0","73137510","wem/bandit_party_2","A1X5IZPCRLL0Z7","either","8","85","","","","","","","0","0","1","0.3012808647","","0.6","0.2","0.8","0.4","","","","","0.3012808647","0.7727038765","0.2152187387","0.2729660799","","","","","","","","","","72","H","0","img/none_selected.jpg","","21","main_expt",""
"","bandit","101","258797","0.0-63.0-0.0","73137510","wem/bandit_party_2","A1X5IZPCRLL0Z7","either","8","190","","","","","","","0","0","1","0.3547982299","","0.6","0.2","0.8","0.4","","","","","0.2882062485","0.8152565923","0.3547982299","0.2712352107","","","","","","","","","","75","K","2","","","22","main_expt",""
"","bandit","102","260541","0.0-64.0-0.0","73137510","wem/bandit_party_2","A1X5IZPCRLL0Z7","either","8","238","","","","","","","0","0","1","","0.323805638","0.6","0.2","0.8","0.4","0.2113421372","0.7537075358","0.323805638","0.3390855774","","","","","","","","","","","","","","75","K","2","","","23","main_expt",""
"","bandit","103","262101","0.0-65.0-0.0","73137510","wem/bandit_party_2","A1X5IZPCRLL0Z7","either","8","54","","","","","","","0","0","1","0.3588909826","","0.6","0.2","0.8","0.4","","","","","0.2201805416","0.7108822858","0.3588909826","0.3483259141","","","","","","","","","","75","K","2","","","24","main_expt",""
"","bandit","104","263613","0.0-66.0-0.0","73137510","wem/bandit_party_2","A1X5IZPCRLL0Z7","either","8","4","","","","","","","0","1","0","","0.3416976173","0.6","0.2","0.8","0.4","0.2580956466","0.6930515954","0.3885553436","0.3416976173","","","","","","","","","","","","","","76","L","3","","","25","main_expt",""
"","bandit","105","265398","0.0-67.0-0.0","73137510","wem/bandit_party_2","A1X5IZPCRLL0Z7","either","8","277","","","","","","","0","0","1","","0.4243476322","0.6","0.2","0.8","0.4","0.2153432854","0.6905393417","0.4871556374","0.4243476322","","","","","","","","","","","","","","76","L","3","","","26","main_expt",""
"","bandit","106","267149","0.0-68.0-0.0","73137510","wem/bandit_party_2","A1X5IZPCRLL0Z7","either","8","244","","","","","","","0","1","0","","0.5257754898","0.6","0.2","0.8","0.4","0.1727955236","0.7531652131","0.4934119911","0.5257754898","","","","","","","","","","","","","","76","L","3","","","27","main_expt",""
"","bandit","107","268756","0.0-69.0-0.0","73137510","wem/bandit_party_2","A1X5IZPCRLL0Z7","either","8","101","","","","","","","0","0","1","","0.5246232361","0.6","0.2","0.8","0.4","0.1894296703","0.8001777041","0.4322092846","0.5246232361","","","","","","","","","","","","","","76","L","3","","","28","main_expt",""
"","bandit","108","270501","0.0-70.0-0.0","73137510","wem/bandit_party_2","A1X5IZPCRLL0Z7","either","8","239","","","","","","","0","1","0","","0.8118404327","0.6","0.2","0.8","0.4","0.2128919211","0.8118404327","0.3459113699","0.375994784","","","","","","","","","","","","","","74","J","1","","","29","main_expt",""
"","bandit","109","272285","0.0-71.0-0.0","73137510","wem/bandit_party_2","A1X5IZPCRLL0Z7","either","8","276","","","","","","","0","1","0","","0.7839534503","0.6","0.2","0.8","0.4","0.206056468","0.7839534503","0.280789843","0.2936890161","","","","","","","","","","","","","","74","J","1","","","30","main_expt",""
"","bandit","110","273950","0.0-72.0-0.0","73137510","wem/bandit_party_2","A1X5IZPCRLL0Z7","either","8","157","","","","","","","1","0","0","0.8066372971","","0.6","0.2","0.8","0.4","","","","","0.1725623241","0.8066372971","0.2613810438","0.2878812258","","","","","","","","","","74","J","1","","","31","main_expt",""
"","bandit","111","275558","0.0-73.0-0.0","73137510","wem/bandit_party_2","A1X5IZPCRLL0Z7","either","8","102","","","","","","","0","0","1","","0.8049259064","0.6","0.2","0.8","0.4","0.1629883914","0.8049259064","0.3821585683","0.2451492808","","","","","","","","","","","","","","74","J","1","","","32","main_expt",""
"","bandit","112","277253","0.0-74.0-0.0","73137510","wem/bandit_party_2","A1X5IZPCRLL0Z7","either","8","188","","","","","","","0","0","1","","0.7891664673","0.6","0.2","0.8","0.4","0.2107911223","0.7891664673","0.2714925976","0.2802113289","","","","","","","","","","","","","","74","J","1","","","33","main_expt",""
"","bandit","113","278889","0.0-75.0-0.0","73137510","wem/bandit_party_2","A1X5IZPCRLL0Z7","either","8","125","","","","","","","0","1","0","","0.7854278051","0.6","0.2","0.8","0.4","0.1025901997","0.7854278051","0.2755575364","0.2892342718","","","","","","","","","","","","","","74","J","1","","","34","main_expt",""
"","bandit","114","280628","0.0-76.0-0.0","73137510","wem/bandit_party_2","A1X5IZPCRLL0Z7","either","8","232","","","","","","","0","1","0","","0.7260182018","0.6","0.2","0.8","0.4","0.1289879153","0.7260182018","0.2697856654","0.2486893666","","","","","","","","","","","","","","74","J","1","","","35","main_expt",""
"","bandit","115","282255","0.0-77.0-0.0","73137510","wem/bandit_party_2","A1X5IZPCRLL0Z7","either","8","119","","","","","","","0","1","0","","0.7910957192","0.6","0.2","0.8","0.4","0.1645491317","0.7910957192","0.2483646443","0.3536408983","","","","","","","","","","","","","","74","J","1","","","36","main_expt",""
"","bandit","116","283966","0.0-78.0-0.0","73137510","wem/bandit_party_2","A1X5IZPCRLL0Z7","either","8","203","","","","","","","0","1","0","","0.7996551039","0.6","0.2","0.8","0.4","0.1698046746","0.7996551039","0.2103950957","0.2493566902","","","","","","","","","","","","","","74","J","1","","","37","main_expt",""
"","bandit","117","285557","0.0-79.0-0.0","73137510","wem/bandit_party_2","A1X5IZPCRLL0Z7","either","8","84","","","","","","","0","0","1","","0.6717479894","0.6","0.2","0.8","0.4","0.2281502886","0.6717479894","0.2128944509","0.2948354516","","","","","","","","","","","","","","74","J","1","","","38","main_expt",""
"","bandit","118","287253","0.0-80.0-0.0","73137510","wem/bandit_party_2","A1X5IZPCRLL0Z7","either","8","188","","","","","","","0","1","0","","0.7121128808","0.6","0.2","0.8","0.4","0.1561271762","0.7121128808","0.2965153327","0.3373274679","","","","","","","","","","","","","","74","J","1","","","39","main_expt",""
"","bandit","119","288892","0.0-81.0-0.0","73137510","wem/bandit_party_2","A1X5IZPCRLL0Z7","either","8","134","","","","","","","0","1","0","","0.7157410044","0.6","0.2","0.8","0.4","0.1543620621","0.7157410044","0.4447532253","0.4138768052","","","","","","","","","","","","","","74","J","1","","","40","main_expt",""
"","bandit","120","290630","0.0-82.0-0.0","73137510","wem/bandit_party_2","A1X5IZPCRLL0Z7","either","8","230","","","","","","","0","1","0","","0.681196038","0.6","0.2","0.8","0.4","0.2271499981","0.681196038","0.5330008696","0.438096834","","","","","","","","","","","","","","74","J","1","","","41","main_expt",""
"","bandit","121","292140","0.0-83.0-0.0","73137510","wem/bandit_party_2","A1X5IZPCRLL0Z7","either","8","4","","","","","","","0","0","1","","0.6504320647","0.6","0.2","0.8","0.4","0.2882452936","0.6504320647","0.573861049","0.4185173612","","","","","","","","","","","","","","74","J","1","","","42","main_expt",""
"","bandit","122","293661","0.0-84.0-0.0","73137510","wem/bandit_party_2","A1X5IZPCRLL0Z7","either","8","14","","","","","","","1","0","0","0.7369830744","","0.6","0.2","0.8","0.4","","","","","0.298522686","0.7369830744","0.6654349765","0.3796335567","","","","","","","","","","74","J","1","","","43","main_expt",""
"","bandit","123","295213","0.0-85.0-0.0","73137510","wem/bandit_party_2","A1X5IZPCRLL0Z7","either","8","46","","","","","","","0","1","0","","0.6797935378","0.6","0.2","0.8","0.4","0.3188886026","0.6797935378","0.691198465","0.31766129","","","","","","","","","","","","","","74","J","1","","","44","main_expt",""
"","bandit","124","296804","0.0-86.0-0.0","73137510","wem/bandit_party_2","A1X5IZPCRLL0Z7","either","8","84","","","","","","","0","1","0","","0.6507473666","0.6","0.2","0.8","0.4","0.2705760174","0.6507473666","0.7652674903","0.4047397141","","","","","","","","","","","","","","74","J","1","","","45","main_expt",""
"","bandit","125","298492","0.0-87.0-0.0","73137510","wem/bandit_party_2","A1X5IZPCRLL0Z7","either","8","182","","","","","","","0","0","1","","0.6334510787","0.6","0.2","0.8","0.4","0.2506880939","0.6334510787","0.8065230058","0.4961613307","","","","","","","","","","","","","","74","J","1","","","46","main_expt",""
"","bandit","126","300028","0.0-88.0-0.0","73137510","wem/bandit_party_2","A1X5IZPCRLL0Z7","either","8","29","","","","","","","0","0","1","","0.6143175143","0.6","0.2","0.8","0.4","0.2491585872","0.6143175143","0.7774474893","0.4624468315","","","","","","","","","","","","","","74","J","1","","","47","main_expt",""
"","bandit","127","301605","0.0-89.0-0.0","73137510","wem/bandit_party_2","A1X5IZPCRLL0Z7","either","8","70","","","","","","","0","0","1","","0.6404512611","0.6","0.2","0.8","0.4","0.1997021219","0.6404512611","0.7693176975","0.4886537242","","","","","","","","","","","","","","74","J","1","","","48","main_expt",""
"","bandit","128","303181","0.0-90.0-0.0","73137510","wem/bandit_party_2","A1X5IZPCRLL0Z7","either","8","67","","","","","","","0","1","0","","0.4270302022","0.6","0.2","0.8","0.4","0.2119577724","0.6758621215","0.807419373","0.4270302022","","","","","","","","","","","","","","76","L","3","","","49","main_expt",""
"","bandit","129","304724","0.0-91.0-0.0","73137510","wem/bandit_party_2","A1X5IZPCRLL0Z7","either","8","36","","","","","","","0","0","1","","0.5151345658","0.6","0.2","0.8","0.4","0.2615271711","0.6873234502","0.8562769227","0.5151345658","","","","","","","","","","","","","","76","L","3","","","50","main_expt",""
"","bandit","130","306285","0.0-92.0-0.0","73137510","wem/bandit_party_2","A1X5IZPCRLL0Z7","either","8","52","","","","","","","0","0","1","","0.5134524181","0.6","0.2","0.8","0.4","0.2764427577","0.7776044395","0.8705114925","0.5134524181","","","","","","","","","","","","","","76","L","3","","","51","main_expt",""
"","bandit","131","307867","0.0-93.0-0.0","73137510","wem/bandit_party_2","A1X5IZPCRLL0Z7","either","8","76","","","","","","","0","0","1","0.4842684999","","0.6","0.2","0.8","0.4","","","","","0.3833776697","0.8403410939","0.9310361031","0.4842684999","","","","","","","","","","76","L","3","","","52","main_expt",""
"","bandit","132","309856","0.0-94.0-0.0","73137510","wem/bandit_party_2","A1X5IZPCRLL0Z7","either","8","479","","","","","","","1","0","0","0.905794742","","0.6","0.2","0.8","0.4","","","","","0.4356502318","0.8151983534","0.905794742","0.4412850773","","","","","","","","","","75","K","2","","","53","main_expt",""
"","bandit","133","311645","0.0-95.0-0.0","73137510","wem/bandit_party_2","A1X5IZPCRLL0Z7","either","8","281","","","","","","","0","1","0","","0.9391541593","0.6","0.2","0.8","0.4","0.4120588364","0.8081222638","0.9391541593","0.4397693946","","","","","","","","","","","","","","75","K","2","","","54","main_expt",""
"","bandit","134","313287","0.0-96.0-0.0","73137510","wem/bandit_party_2","A1X5IZPCRLL0Z7","either","8","132","","","","","","","1","0","0","0.9596285882","","0.6","0.2","0.8","0.4","","","","","0.2714296105","0.742009976","0.9596285882","0.3928202278","","","","","","","","","","75","K","2","","","55","main_expt",""
"","bandit","135","314798","0.0-97.0-0.0","73137510","wem/bandit_party_2","A1X5IZPCRLL0Z7","either","8","3","","","","","","","1","0","0","0.9565658233","","0.6","0.2","0.8","0.4","","","","","0.2122311877","0.7065076074","0.9565658233","0.4593665993","","","","","","","","","","75","K","2","","","56","main_expt",""
"","bandit","136","316517","0.0-98.0-0.0","73137510","wem/bandit_party_2","A1X5IZPCRLL0Z7","either","8","211","","","","","","","1","0","0","0.9681540372","","0.6","0.2","0.8","0.4","","","","","0.2282278588","0.6860695476","0.9681540372","0.4006145211","","","","","","","","","","75","K","2","","","57","main_expt",""
"","bandit","137","318230","0.0-99.0-0.0","73137510","wem/bandit_party_2","A1X5IZPCRLL0Z7","either","8","204","","","","","","","0","1","0","","0.9207083952","0.6","0.2","0.8","0.4","0.1392076118","0.742301155","0.9207083952","0.4597890412","","","","","","","","","","","","","","75","K","2","","","58","main_expt",""
"","bandit","138","321159","0.0-100.0-0.0","73137510","wem/bandit_party_2","A1X5IZPCRLL0Z7","either","8","1418","","","","","","","1","0","0","0.9178227258","","0.6","0.2","0.8","0.4","","","","","0.1706239206","0.5291004622","0.9178227258","0.4232266093","","","","","","","","","","75","K","2","","","59","main_expt",""
"","bandit","139","323013","0.0-101.0-0.0","73137510","wem/bandit_party_2","A1X5IZPCRLL0Z7","either","8","347","","","","","","","1","0","0","0.8951285427","","0.6","0.2","0.8","0.4","","","","","0.1674269281","0.6348838793","0.8951285427","0.3565880291","","","","","","","","","","75","K","2","","","60","main_expt",""
"","bandit","140","325117","0.0-102.0-0.0","73137510","wem/bandit_party_2","A1X5IZPCRLL0Z7","either","8","593","","","","","","","1","0","0","0.8506814954","","0.6","0.2","0.8","0.4","","","","","0.2182313474","0.6796423313","0.8506814954","0.3663276413","","","","","","","","","","75","K","2","","","61","main_expt",""
"","bandit","141","326748","0.0-103.0-0.0","73137510","wem/bandit_party_2","A1X5IZPCRLL0Z7","either","8","123","","","","","","","1","0","0","0.8513854559","","0.6","0.2","0.8","0.4","","","","","0.2949218256","0.6928172916","0.8513854559","0.3193005293","","","","","","","","","","75","K","2","","","62","main_expt",""
"","bandit","142","328637","0.0-104.0-0.0","73137510","wem/bandit_party_2","A1X5IZPCRLL0Z7","either","8","381","","","","","","","0","1","0","","0.8927579502","0.6","0.2","0.8","0.4","0.3170222383","0.6996506825","0.8927579502","0.1562068481","","","","","","","","","","","","","","75","K","2","","","63","main_expt",""
"","bandit","143","330589","0.0-105.0-0.0","73137510","wem/bandit_party_2","A1X5IZPCRLL0Z7","either","8","443","","","","","","","1","0","0","0.9217936765","","0.6","0.2","0.8","0.4","","","","","0.3033511374","0.7294442249","0.9217936765","0.2300477965","","","","","","","","","","75","K","2","","","64","main_expt",""
"","bandit","144","332261","0.0-106.0-0.0","73137510","wem/bandit_party_2","A1X5IZPCRLL0Z7","either","8","165","","","","","","","1","0","0","0.9357047413","","0.6","0.2","0.8","0.4","","","","","0.3973690147","0.6605354899","0.9357047413","0.2869838185","","","","","","","","","","75","K","2","","","65","main_expt",""
"","bandit","145","334166","0.0-107.0-0.0","73137510","wem/bandit_party_2","A1X5IZPCRLL0Z7","either","8","395","","","","","","","1","0","0","0.910343843","","0.6","0.2","0.8","0.4","","","","","0.4320294497","0.6959621059","0.910343843","0.3287476356","","","","","","","","","","75","K","2","","","66","main_expt",""
"","bandit","146","335725","0.0-108.0-0.0","73137510","wem/bandit_party_2","A1X5IZPCRLL0Z7","either","8","51","","","","","","","1","0","0","0.9022080512","","0.6","0.2","0.8","0.4","","","","","0.3208465419","0.653899752","0.9022080512","0.3018365728","","","","","","","","","","75","K","2","","","67","main_expt",""
"","bandit","147","337509","0.0-109.0-0.0","73137510","wem/bandit_party_2","A1X5IZPCRLL0Z7","either","8","275","","","","","","","1","0","0","0.8492414063","","0.6","0.2","0.8","0.4","","","","","0.3570730799","0.6517851336","0.8492414063","0.3208616414","","","","","","","","","","75","K","2","","","68","main_expt",""
"","bandit","148","339262","0.0-110.0-0.0","73137510","wem/bandit_party_2","A1X5IZPCRLL0Z7","either","8","245","","","","","","","1","0","0","0.768219052","","0.6","0.2","0.8","0.4","","","","","0.3451514791","0.7011615004","0.768219052","0.386863802","","","","","","","","","","75","K","2","","","69","main_expt",""
"","bandit","149","341246","0.0-111.0-0.0","73137510","wem/bandit_party_2","A1X5IZPCRLL0Z7","either","8","474","","","","","","","0","0","1","0.7996218848","","0.6","0.2","0.8","0.4","","","","","0.3127714871","0.6278947594","0.7996218848","0.3628244161","","","","","","","","","","75","K","2","","","70","main_expt",""
"","bandit","150","343004","0.0-112.0-0.0","73137510","wem/bandit_party_2","A1X5IZPCRLL0Z7","either","8","252","","","","","","","1","0","0","0.9130189757","","0.6","0.2","0.8","0.4","","","","","0.3855297895","0.688517509","0.9130189757","0.2969295023","","","","","","","","","","75","K","2","","","71","main_expt",""
"","bandit","151","344784","0.0-113.0-0.0","73137510","wem/bandit_party_2","A1X5IZPCRLL0Z7","either","8","269","","","","","","","0","1","0","","0.9016843832","0.6","0.2","0.8","0.4","0.3555010044","0.6125440106","0.9016843832","0.3512325323","","","","","","","","","","","","","","75","K","2","","","72","main_expt",""
"","bandit","152","346726","0.0-114.0-0.0","73137510","wem/bandit_party_2","A1X5IZPCRLL0Z7","either","8","433","","","","","","","0","1","0","","0.9166584401","0.6","0.2","0.8","0.4","0.3278360739","0.4884410468","0.9166584401","0.3845321254","","","","","","","","","","","","","","75","K","2","","","73","main_expt",""
"","bandit","153","348501","0.0-115.0-0.0","73137510","wem/bandit_party_2","A1X5IZPCRLL0Z7","either","8","268","","","","","","","1","0","0","0.8699410266","","0.6","0.2","0.8","0.4","","","","","0.3275161349","0.5800760741","0.8699410266","0.3760614253","","","","","","","","","","75","K","2","","","74","main_expt",""
"","bandit","154","350181","0.0-116.0-0.0","73137510","wem/bandit_party_2","A1X5IZPCRLL0Z7","either","8","172","","","","","","","1","0","0","0.8192171788","","0.6","0.2","0.8","0.4","","","","","0.3454333807","0.6614390465","0.8192171788","0.370831352","","","","","","","","","","75","K","2","","","75","main_expt",""
"","bandit","155","351910","0.0-117.0-0.0","73137510","wem/bandit_party_2","A1X5IZPCRLL0Z7","either","8","218","","","","","","","1","0","0","0.8990587115","","0.6","0.2","0.8","0.4","","","","","0.4213924804","0.6861570843","0.8990587115","0.4008199491","","","","","","","","","","75","K","2","","","76","main_expt",""
"","bandit","156","353580","0.0-118.0-0.0","73137510","wem/bandit_party_2","A1X5IZPCRLL0Z7","either","8","163","","","","","","","1","0","0","0.9062137116","","0.6","0.2","0.8","0.4","","","","","0.439510692","0.5980737028","0.9062137116","0.3928984844","","","","","","","","","","75","K","2","","","77","main_expt",""
"","bandit","157","355318","0.0-119.0-0.0","73137510","wem/bandit_party_2","A1X5IZPCRLL0Z7","either","8","228","","","","","","","0","1","0","","0.9215914722","0.6","0.2","0.8","0.4","0.4419424199","0.6754083514","0.9215914722","0.4709058574","","","","","","","","","","","","","","75","K","2","","","78","main_expt",""
"","bandit","158","357262","0.0-120.0-0.0","73137510","wem/bandit_party_2","A1X5IZPCRLL0Z7","either","8","437","","","","","","","0","1","0","","0.895443078","0.6","0.2","0.8","0.4","0.5056762283","0.7012934339","0.895443078","0.4971614577","","","","","","","","","","","","","","75","K","2","","","79","main_expt",""
"","bandit","159","358807","0.0-121.0-0.0","73137510","wem/bandit_party_2","A1X5IZPCRLL0Z7","either","8","35","","","","","","","0","0","1","0.7789772955","","0.6","0.2","0.8","0.4","","","","","0.4558190996","0.7067798052","0.7789772955","0.4828267768","","","","","","","","","","75","K","2","","","80","main_expt",""
"","bandit","160","360838","0.0-122.0-0.0","73137510","wem/bandit_party_2","A1X5IZPCRLL0Z7","either","8","522","","","","","","","0","0","1","0.755426824","","0.6","0.2","0.8","0.4","","","","","0.4774921548","0.7259433061","0.755426824","0.4280570329","","","","","","","","","","75","K","2","","","81","main_expt",""
"","bandit","161","362581","0.0-123.0-0.0","73137510","wem/bandit_party_2","A1X5IZPCRLL0Z7","either","8","236","","","","","","","0","1","0","","0.8356426425","0.6","0.2","0.8","0.4","0.3611036613","0.7022130872","0.8356426425","0.486136241","","","","","","","","","","","","","","75","K","2","","","82","main_expt",""
"","bandit","162","364341","0.0-124.0-0.0","73137510","wem/bandit_party_2","A1X5IZPCRLL0Z7","either","8","251","","","","","","","1","0","0","0.8783145762","","0.6","0.2","0.8","0.4","","","","","0.3341354767","0.75927227","0.8783145762","0.3539143083","","","","","","","","","","75","K","2","","","83","main_expt",""
"","bandit","163","366093","0.0-125.0-0.0","73137510","wem/bandit_party_2","A1X5IZPCRLL0Z7","either","8","245","","","","","","","1","0","0","0.9087743635","","0.6","0.2","0.8","0.4","","","","","0.288479151","0.8556046088","0.9087743635","0.374811954","","","","","","","","","","75","K","2","","","84","main_expt",""
"","bandit","164","367831","0.0-126.0-0.0","73137510","wem/bandit_party_2","A1X5IZPCRLL0Z7","either","8","229","","","","","","","1","0","0","0.8632011641","","0.6","0.2","0.8","0.4","","","","","0.3061923995","0.7835234447","0.8632011641","0.4518264681","","","","","","","","","","75","K","2","","","85","main_expt",""
"","bandit","165","369613","0.0-127.0-0.0","73137510","wem/bandit_party_2","A1X5IZPCRLL0Z7","either","8","274","","","","","","","1","0","0","0.8341253046","","0.6","0.2","0.8","0.4","","","","","0.3370204437","0.7037548709","0.8341253046","0.461936863","","","","","","","","","","75","K","2","","","86","main_expt",""
"","bandit","166","371303","0.0-128.0-0.0","73137510","wem/bandit_party_2","A1X5IZPCRLL0Z7","either","8","180","","","","","","","0","0","1","0.8728746981","","0.6","0.2","0.8","0.4","","","","","0.3900809043","0.6903674631","0.8728746981","0.3681660755","","","","","","","","","","75","K","2","","","87","main_expt",""
"","bandit","167","372886","0.0-129.0-0.0","73137510","wem/bandit_party_2","A1X5IZPCRLL0Z7","either","8","73","","","","","","","0","0","1","0.8408980459","","0.6","0.2","0.8","0.4","","","","","0.4296615172","0.5883284312","0.8408980459","0.3788462328","","","","","","","","","","75","K","2","","","88","main_expt",""
"","bandit","168","374533","0.0-130.0-0.0","73137510","wem/bandit_party_2","A1X5IZPCRLL0Z7","either","8","138","","","","","","","0","0","1","","0.8585781628","0.6","0.2","0.8","0.4","0.4636560077","0.5258490985","0.8585781628","0.3316952272","","","","","","","","","","","","","","75","K","2","","","89","main_expt",""
"","bandit","169","376043","0.0-131.0-0.0","73137510","wem/bandit_party_2","A1X5IZPCRLL0Z7","either","8","1","","","","","","","0","0","1","0.438068917","","0.6","0.2","0.8","0.4","","","","","0.4463585346","0.6395041767","0.925840658","0.438068917","","","","","","","","","","76","L","3","","","90","main_expt",""
"","bandit","170","377670","0.0-132.0-0.0","73137510","wem/bandit_party_2","A1X5IZPCRLL0Z7","either","8","116","","","","","","","1","0","0","0.4734463503","","0.6","0.2","0.8","0.4","","","","","0.4734463503","0.6931091445","0.9201841885","0.5158843935","","","","","","","","","","72","H","0","img/none_selected.jpg","","91","main_expt",""
"","bandit","171","379223","0.0-133.0-0.0","73137510","wem/bandit_party_2","A1X5IZPCRLL0Z7","either","8","44","","","","","","","0","0","1","","0.5248255385","0.6","0.2","0.8","0.4","0.5248255385","0.6725373887","0.8508076908","0.5182757575","","","","","","","","","","","","","","72","H","0","img/none_selected.jpg","","92","main_expt",""
"","bandit","172","380789","0.0-134.0-0.0","73137510","wem/bandit_party_2","A1X5IZPCRLL0Z7","either","8","53","","","","","","","0","0","1","0.3386726181","","0.6","0.2","0.8","0.4","","","","","0.3386726181","0.7388835399","0.8106711147","0.5498130742","","","","","","","","","","72","H","0","img/none_selected.jpg","","93","main_expt",""
"","bandit","173","382510","0.0-135.0-0.0","73137510","wem/bandit_party_2","A1X5IZPCRLL0Z7","either","8","209","","","","","","","0","0","1","0.3718894848","","0.6","0.2","0.8","0.4","","","","","0.3718894848","0.697373586","0.8543263914","0.6049407638","","","","","","","","","","72","H","0","img/none_selected.jpg","","94","main_expt",""
"","bandit","174","384463","0.0-136.0-0.0","73137510","wem/bandit_party_2","A1X5IZPCRLL0Z7","either","8","443","","","","","","","1","0","0","0.7550322224","","0.6","0.2","0.8","0.4","","","","","0.4005278521","0.7550322224","0.8387782901","0.6604115927","","","","","","","","","","74","J","1","","","95","main_expt",""
"","bandit","175","386221","0.0-137.0-0.0","73137510","wem/bandit_party_2","A1X5IZPCRLL0Z7","either","8","250","","","","","","","0","1","0","","0.6576962358","0.6","0.2","0.8","0.4","0.3694595514","0.6576962358","0.8208071174","0.7003847986","","","","","","","","","","","","","","74","J","1","","","96","main_expt",""
"","bandit","176","387966","0.0-138.0-0.0","73137510","wem/bandit_party_2","A1X5IZPCRLL0Z7","either","8","233","","","","","","","1","0","0","0.6802484638","","0.6","0.2","0.8","0.4","","","","","0.3186037095","0.6802484638","0.765358829","0.6793148949","","","","","","","","","","74","J","1","","","97","main_expt",""
"","bandit","177","389545","0.0-139.0-0.0","73137510","wem/bandit_party_2","A1X5IZPCRLL0Z7","either","8","67","","","","","","","0","0","1","0.7042077447","","0.6","0.2","0.8","0.4","","","","","0.2786717818","0.7042077447","0.7823463211","0.6204607354","","","","","","","","","","74","J","1","","","98","main_expt",""
"","bandit","178","391205","0.0-140.0-0.0","73137510","wem/bandit_party_2","A1X5IZPCRLL0Z7","either","8","150","","","","","","","0","1","0","","0.7355617892","0.6","0.2","0.8","0.4","0.32929866","0.7355617892","0.7523003034","0.6166262367","","","","","","","","","","","","","","74","J","1","","","99","main_expt",""
"","bandit","179","392974","0.0-141.0-0.0","73137510","wem/bandit_party_2","A1X5IZPCRLL0Z7","either","8","260","","","","","","","0","1","0","","0.7117411671","0.6","0.2","0.8","0.4","0.3115323478","0.7117411671","0.7174790615","0.5347115766","","","","","","","","","","","","","","74","J","1","","","100","main_expt",""
"","bandit","180","394797","0.0-142.0-0.0","73137510","wem/bandit_party_2","A1X5IZPCRLL0Z7","either","8","314","","","","","","","0","0","1","","0.7263903312","0.6","0.2","0.8","0.4","0.4221749579","0.7263903312","0.7660578318","0.3418016043","","","","","","","","","","","","","","74","J","1","","","101","main_expt",""
"","bandit","181","396405","0.0-143.0-0.0","73137510","wem/bandit_party_2","A1X5IZPCRLL0Z7","either","8","99","","","","","","","0","1","0","","0.7357346189","0.6","0.2","0.8","0.4","0.2718078598","0.7357346189","0.7201180075","0.2550922237","","","","","","","","","","","","","","74","J","1","","","102","main_expt",""
"","bandit","182","398277","0.0-144.0-0.0","73137510","wem/bandit_party_2","A1X5IZPCRLL0Z7","either","8","362","","","","","","","0","1","0","","0.7026134783","0.6","0.2","0.8","0.4","0.3011307106","0.7026134783","0.8452780714","0.3181696353","","","","","","","","","","","","","","74","J","1","","","103","main_expt",""
"","bandit","183","400048","0.0-145.0-0.0","73137510","wem/bandit_party_2","A1X5IZPCRLL0Z7","either","8","260","","","","","","","0","1","0","","0.8073666152","0.6","0.2","0.8","0.4","0.3659291838","0.8073666152","0.7236924273","0.3383579412","","","","","","","","","","","","","","74","J","1","","","104","main_expt",""
"","bandit","184","401750","0.0-146.0-0.0","73137510","wem/bandit_party_2","A1X5IZPCRLL0Z7","either","8","191","","","","","","","0","1","0","","0.824483439","0.6","0.2","0.8","0.4","0.3499435223","0.824483439","0.743719778","0.2354673658","","","","","","","","","","","","","","74","J","1","","","105","main_expt",""
"","bandit","185","403477","0.0-147.0-0.0","73137510","wem/bandit_party_2","A1X5IZPCRLL0Z7","either","8","219","","","","","","","1","0","0","0.9208810438","","0.6","0.2","0.8","0.4","","","","","0.3602262465","0.9208810438","0.7985687284","0.159398249","","","","","","","","","","74","J","1","","","106","main_expt",""
"","bandit","186","405037","0.0-148.0-0.0","73137510","wem/bandit_party_2","A1X5IZPCRLL0Z7","either","8","51","","","","","","","0","1","0","","0.8911910097","0.6","0.2","0.8","0.4","0.3252215163","0.8911910097","0.799345197","0.1295169146","","","","","","","","","","","","","","74","J","1","","","107","main_expt",""
"","bandit","187","406853","0.0-149.0-0.0","73137510","wem/bandit_party_2","A1X5IZPCRLL0Z7","either","8","307","","","","","","","0","0","1","0.8450149587","","0.6","0.2","0.8","0.4","","","","","0.2812406992","0.8450149587","0.8681690713","0.07754053308","","","","","","","","","","74","J","1","","","108","main_expt",""
"","bandit","188","408430","0.0-150.0-0.0","73137510","wem/bandit_party_2","A1X5IZPCRLL0Z7","either","8","68","","","","","","","0","1","0","","0.868327257","0.6","0.2","0.8","0.4","0.2559497519","0.868327257","0.8556732204","0.06591215473","","","","","","","","","","","","","","74","J","1","","","109","main_expt",""
"","bandit","189","410013","0.0-151.0-0.0","73137510","wem/bandit_party_2","A1X5IZPCRLL0Z7","either","8","75","","","","","","","0","1","0","","0.8868335222","0.6","0.2","0.8","0.4","0.2817400418","0.8868335222","0.8669893864","0.1189546392","","","","","","","","","","","","","","74","J","1","","","110","main_expt",""
"","bandit","190","411903","0.0-152.0-0.0","73137510","wem/bandit_party_2","A1X5IZPCRLL0Z7","either","8","379","","","","","","","0","1","0","","0.8770728171","0.6","0.2","0.8","0.4","0.2773620367","0.8770728171","0.799383849","0.09523351692","","","","","","","","","","","","","","74","J","1","","","111","main_expt",""
"","bandit","191","413694","0.0-153.0-0.0","73137510","wem/bandit_party_2","A1X5IZPCRLL0Z7","either","8","281","","","","","","","1","0","0","0.8481710002","","0.6","0.2","0.8","0.4","","","","","0.2833316415","0.8481710002","0.859799476","0.107489667","","","","","","","","","","74","J","1","","","112","main_expt",""
"","bandit","192","415517","0.0-154.0-0.0","73137510","wem/bandit_party_2","A1X5IZPCRLL0Z7","either","8","314","","","","","","","0","1","0","","0.8573528835","0.6","0.2","0.8","0.4","0.3433702059","0.8573528835","0.7932436089","0.1026187258","","","","","","","","","","","","","","74","J","1","","","113","main_expt",""
"","bandit","193","417430","0.0-155.0-0.0","73137510","wem/bandit_party_2","A1X5IZPCRLL0Z7","either","8","402","","","","","","","0","1","0","","0.8291807482","0.6","0.2","0.8","0.4","0.4828882278","0.8291807482","0.849407262","0.1044839951","","","","","","","","","","","","","","74","J","1","","","114","main_expt",""
"","bandit","194","419317","0.0-156.0-0.0","73137510","wem/bandit_party_2","A1X5IZPCRLL0Z7","either","8","379","","","","","","","0","1","0","","0.761972944","0.6","0.2","0.8","0.4","0.54932579","0.761972944","0.8882716547","0.1213931844","","","","","","","","","","","","","","74","J","1","","","115","main_expt",""
"","bandit","195","421326","0.0-157.0-0.0","73137510","wem/bandit_party_2","A1X5IZPCRLL0Z7","either","8","501","","","","","","","0","1","0","","0.786197192","0.6","0.2","0.8","0.4","0.6971345968","0.786197192","0.8741354715","0.1184144227","","","","","","","","","","","","","","74","J","1","","","116","main_expt",""
"","bandit","196","423173","0.0-158.0-0.0","73137510","wem/bandit_party_2","A1X5IZPCRLL0Z7","either","8","338","","","","","","","0","1","0","","0.7834453561","0.6","0.2","0.8","0.4","0.5396272374","0.7834453561","0.8083823922","0.1983931569","","","","","","","","","","","","","","74","J","1","","","117","main_expt",""
"","bandit","197","424860","0.0-159.0-0.0","73137510","wem/bandit_party_2","A1X5IZPCRLL0Z7","either","8","180","","","","","","","0","0","1","","0.6742380839","0.6","0.2","0.8","0.4","0.5544567993","0.6742380839","0.868525306","0.2840039584","","","","","","","","","","","","","","74","J","1","","","118","main_expt",""
"","bandit","198","426789","0.0-160.0-0.0","73137510","wem/bandit_party_2","A1X5IZPCRLL0Z7","either","8","419","","","","","","","0","1","0","","0.7350700153","0.6","0.2","0.8","0.4","0.5504896642","0.7350700153","0.8386471998","0.3563325119","","","","","","","","","","","","","","74","J","1","","","119","main_expt",""
"","bandit","199","428534","0.0-161.0-0.0","73137510","wem/bandit_party_2","A1X5IZPCRLL0Z7","either","8","236","","","","","","","0","0","1","","0.70601835","0.6","0.2","0.8","0.4","0.5812137135","0.70601835","0.8103559508","0.5682387565","","","","","","","","","","","","","","74","J","1","","","120","main_expt",""
"","bandit","200","430677","0.0-162.0-0.0","73137510","wem/bandit_party_2","A1X5IZPCRLL0Z7","either","8","633","","","","","","","1","0","0","0.7347719752","","0.6","0.2","0.8","0.4","","","","","0.6033058466","0.7347719752","0.8193015173","0.5189107771","","","","","","","","","","74","J","1","","","121","main_expt",""
"","bandit","201","432440","0.0-163.0-0.0","73137510","wem/bandit_party_2","A1X5IZPCRLL0Z7","either","8","253","","","","","","","0","1","0","","0.8270923978","0.6","0.2","0.8","0.4","0.6102220397","0.8270923978","0.8025146027","0.4428493372","","","","","","","","","","","","","","74","J","1","","","122","main_expt",""
"","bandit","202","433957","0.0-164.0-0.0","73137510","wem/bandit_party_2","A1X5IZPCRLL0Z7","either","8","7","","","","","","","0","1","0","","0.7980631313","0.6","0.2","0.8","0.4","0.6108151959","0.7980631313","0.8121847492","0.472724465","","","","","","","","","","","","","","74","J","1","","","123","main_expt",""
"","bandit","203","435573","0.0-165.0-0.0","73137510","wem/bandit_party_2","A1X5IZPCRLL0Z7","either","8","106","","","","","","","0","1","0","","0.7369852887","0.6","0.2","0.8","0.4","0.7117385939","0.7369852887","0.8299418439","0.4799585558","","","","","","","","","","","","","","74","J","1","","","124","main_expt",""
"","bandit","204","437140","0.0-166.0-0.0","73137510","wem/bandit_party_2","A1X5IZPCRLL0Z7","either","8","59","","","","","","","0","1","0","","0.7465944313","0.6","0.2","0.8","0.4","0.7554186078","0.7465944313","0.825688343","0.5080184993","","","","","","","","","","","","","","74","J","1","","","125","main_expt",""
"","bandit","205","439062","0.0-167.0-0.0","73137510","wem/bandit_party_2","A1X5IZPCRLL0Z7","either","8","413","","","","","","","0","1","0","","0.7596834852","0.6","0.2","0.8","0.4","0.8855751833","0.7596834852","0.8372054396","0.4555098289","","","","","","","","","","","","","","74","J","1","","","126","main_expt",""
"","bandit","206","441086","0.0-168.0-0.0","73137510","wem/bandit_party_2","A1X5IZPCRLL0Z7","either","8","513","","","","","","","0","0","1","","0.7398299979","0.6","0.2","0.8","0.4","0.8003015049","0.7398299979","0.7906689898","0.5475411796","","","","","","","","","","","","","","74","J","1","","","127","main_expt",""
"","bandit","207","442839","0.0-169.0-0.0","73137510","wem/bandit_party_2","A1X5IZPCRLL0Z7","either","8","244","","","","","","","0","1","0","","0.7764866849","0.6","0.2","0.8","0.4","0.8403113951","0.7764866849","0.8008571507","0.612647382","","","","","","","","","","","","","","74","J","1","","","128","main_expt",""
"","bandit","208","444596","0.0-170.0-0.0","73137510","wem/bandit_party_2","A1X5IZPCRLL0Z7","either","8","246","","","","","","","0","1","0","","0.6435675963","0.6","0.2","0.8","0.4","0.8826872071","0.6435675963","0.7829297973","0.7128970287","","","","","","","","","","","","","","74","J","1","","","129","main_expt",""
"","bandit","209","446526","0.0-171.0-0.0","73137510","wem/bandit_party_2","A1X5IZPCRLL0Z7","either","8","421","","","","","","","0","0","1","0.7030252038","","0.6","0.2","0.8","0.4","","","","","0.8641000085","0.7030252038","0.6898445721","0.7309911721","","","","","","","","","","74","J","1","","","130","main_expt",""
"","bandit","210","448334","0.0-172.0-0.0","73137510","wem/bandit_party_2","A1X5IZPCRLL0Z7","either","8","298","","","","","","","0","0","1","","0.6829232191","0.6","0.2","0.8","0.4","0.8752037592","0.6829232191","0.5864867529","0.73180147","","","","","","","","","","","","","","74","J","1","","","131","main_expt",""
"","bandit","211","450254","0.0-173.0-0.0","73137510","wem/bandit_party_2","A1X5IZPCRLL0Z7","either","8","410","","","","","","","0","0","1","","0.7406452387","0.6","0.2","0.8","0.4","0.8279556795","0.7406452387","0.560122833","0.8467134838","","","","","","","","","","","","","","74","J","1","","","132","main_expt",""
"","bandit","212","452022","0.0-174.0-0.0","73137510","wem/bandit_party_2","A1X5IZPCRLL0Z7","either","8","258","","","","","","","0","0","1","0.48439517","","0.6","0.2","0.8","0.4","","","","","0.8194722428","0.6666234363","0.48439517","0.8481264083","","","","","","","","","","75","K","2","","","133","main_expt",""
"","bandit","213","453703","0.0-175.0-0.0","73137510","wem/bandit_party_2","A1X5IZPCRLL0Z7","either","8","171","","","","","","","0","1","0","","0.8771050955","0.6","0.2","0.8","0.4","0.8037084922","0.680542061","0.3919863126","0.8771050955","","","","","","","","","","","","","","76","L","3","","","134","main_expt",""
"","bandit","214","455540","0.0-176.0-0.0","73137510","wem/bandit_party_2","A1X5IZPCRLL0Z7","either","8","328","","","","","","","1","0","0","0.9103241533","","0.6","0.2","0.8","0.4","","","","","0.8155916457","0.7006187635","0.5174750093","0.9103241533","","","","","","","","","","76","L","3","","","135","main_expt",""
"","bandit","215","457244","0.0-177.0-0.0","73137510","wem/bandit_party_2","A1X5IZPCRLL0Z7","either","8","195","","","","","","","1","0","0","0.9126032517","","0.6","0.2","0.8","0.4","","","","","0.8281957705","0.6936815578","0.4264762493","0.9126032517","","","","","","","","","","76","L","3","","","136","main_expt",""
"","bandit","216","459086","0.0-178.0-0.0","73137510","wem/bandit_party_2","A1X5IZPCRLL0Z7","either","8","331","","","","","","","0","1","0","","0.8983360858","0.6","0.2","0.8","0.4","0.7055403129","0.6531428085","0.5351999402","0.8983360858","","","","","","","","","","","","","","76","L","3","","","137","main_expt",""
"","bandit","217","460886","0.0-179.0-0.0","73137510","wem/bandit_party_2","A1X5IZPCRLL0Z7","either","8","290","","","","","","","0","1","0","","0.8851370462","0.6","0.2","0.8","0.4","0.6884351598","0.6769758131","0.4758748922","0.8851370462","","","","","","","","","","","","","","76","L","3","","","138","main_expt",""
"","bandit","218","462717","0.0-180.0-0.0","73137510","wem/bandit_party_2","A1X5IZPCRLL0Z7","either","8","321","","","","","","","1","0","0","0.8662270416","","0.6","0.2","0.8","0.4","","","","","0.6090423031","0.7649589049","0.4039793023","0.8662270416","","","","","","","","","","76","L","3","","","139","main_expt",""
"","bandit","219","464526","0.0-181.0-0.0","73137510","wem/bandit_party_2","A1X5IZPCRLL0Z7","either","8","300","","","","","","","0","0","1","0.8345767194","","0.6","0.2","0.8","0.4","","","","","0.7000077187","0.7674202191","0.384774136","0.8345767194","","","","","","","","","","76","L","3","","","140","main_expt",""
"","bandit","220","466070","0.0-182.0-0.0","73137510","wem/bandit_party_2","A1X5IZPCRLL0Z7","either","8","33","","","","","","","1","0","0","0.8783670964","","0.6","0.2","0.8","0.4","","","","","0.6643185619","0.8575114448","0.327254859","0.8783670964","","","","","","","","","","76","L","3","","","141","main_expt",""
"","bandit","221","467886","0.0-183.0-0.0","73137510","wem/bandit_party_2","A1X5IZPCRLL0Z7","either","8","304","","","","","","","1","0","0","0.8895828315","","0.6","0.2","0.8","0.4","","","","","0.7079845674","0.8134430427","0.4536641492","0.8895828315","","","","","","","","","","76","L","3","","","142","main_expt",""
"","bandit","222","469781","0.0-184.0-0.0","73137510","wem/bandit_party_2","A1X5IZPCRLL0Z7","either","8","386","","","","","","","0","1","0","","0.9053928798","0.6","0.2","0.8","0.4","0.6624187643","0.8345505038","0.4348486293","0.9053928798","","","","","","","","","","","","","","76","L","3","","","143","main_expt",""
"","bandit","223","471598","0.0-185.0-0.0","73137510","wem/bandit_party_2","A1X5IZPCRLL0Z7","either","8","306","","","","","","","0","1","0","","0.9033088386","0.6","0.2","0.8","0.4","0.6779247185","0.7482817554","0.4086594597","0.9033088386","","","","","","","","","","","","","","76","L","3","","","144","main_expt",""
"","bandit","224","473428","0.0-186.0-0.0","73137510","wem/bandit_party_2","A1X5IZPCRLL0Z7","either","8","321","","","","","","","0","0","1","","0.8572864227","0.6","0.2","0.8","0.4","0.7216102374","0.7400387939","0.4420772456","0.8572864227","","","","","","","","","","","","","","76","L","3","","","145","main_expt",""
"","bandit","225","475198","0.0-187.0-0.0","73137510","wem/bandit_party_2","A1X5IZPCRLL0Z7","either","8","261","","","","","","","0","1","0","","0.8687508917","0.6","0.2","0.8","0.4","0.7837267619","0.795971973","0.508741462","0.8687508917","","","","","","","","","","","","","","76","L","3","","","146","main_expt",""
"","bandit","226","477040","0.0-188.0-0.0","73137510","wem/bandit_party_2","A1X5IZPCRLL0Z7","either","8","329","","","","","","","0","1","0","","0.8657621525","0.6","0.2","0.8","0.4","0.7652264833","0.7503502301","0.4624398998","0.8657621525","","","","","","","","","","","","","","76","L","3","","","147","main_expt",""
"","bandit","227","478862","0.0-189.0-0.0","73137510","wem/bandit_party_2","A1X5IZPCRLL0Z7","either","8","312","","","","","","","1","0","0","0.8362891365","","0.6","0.2","0.8","0.4","","","","","0.7358716413","0.8200474043","0.4062589849","0.8362891365","","","","","","","","","","76","L","3","","","148","main_expt",""
"","bandit","228","480662","0.0-190.0-0.0","73137510","wem/bandit_party_2","A1X5IZPCRLL0Z7","either","8","288","","","","","","","0","1","0","","0.8144386017","0.6","0.2","0.8","0.4","0.7129200786","0.8509010271","0.4895331913","0.8144386017","","","","","","","","","","","","","","76","L","3","","","149","main_expt",""
"","bandit","229","482437","0.0-191.0-0.0","73137510","wem/bandit_party_2","A1X5IZPCRLL0Z7","either","8","266","","","","","","","0","0","1","0.6948055455","","0.6","0.2","0.8","0.4","","","","","0.705531668","0.8298908313","0.4704746919","0.6948055455","","","","","","","","","","76","L","3","","","150","main_expt",""
"","bandit","230","484102","0.0-192.0-0.0","73137510","wem/bandit_party_2","A1X5IZPCRLL0Z7","either","8","154","","","","","","","0","0","1","","0.6231991314","0.6","0.2","0.8","0.4","0.5744604188","0.7362749002","0.4725745774","0.6231991314","","","","","","","","","","","","","","76","L","3","","","151","main_expt",""
"","bandit","231","485815","0.0-193.0-0.0","73137510","wem/bandit_party_2","A1X5IZPCRLL0Z7","either","8","202","","","","","","","0","0","1","","0.7045057733","0.6","0.2","0.8","0.4","0.5372669321","0.7601791643","0.4943906398","0.7045057733","","","","","","","","","","","","","","76","L","3","","","152","main_expt",""
"","bandit","232","487628","0.0-194.0-0.0","73137510","wem/bandit_party_2","A1X5IZPCRLL0Z7","either","8","303","","","","","","","1","0","0","0.5331338622","","0.6","0.2","0.8","0.4","","","","","0.5447545218","0.7590648118","0.4639524782","0.5331338622","","","","","","","","","","76","L","3","","","153","main_expt",""
"","bandit","233","489548","0.0-195.0-0.0","73137510","wem/bandit_party_2","A1X5IZPCRLL0Z7","either","8","412","","","","","","","0","0","1","","0.5096720896","0.6","0.2","0.8","0.4","0.4191749193","0.7805387907","0.3935792086","0.5096720896","","","","","","","","","","","","","","76","L","3","","","154","main_expt",""
"","bandit","234","491189","0.0-196.0-0.0","73137510","wem/bandit_party_2","A1X5IZPCRLL0Z7","either","8","130","","","","","","","1","0","0","0.4719011365","","0.6","0.2","0.8","0.4","","","","","0.4269770229","0.8450805748","0.4127348605","0.4719011365","","","","","","","","","","76","L","3","","","155","main_expt",""
"","bandit","235","492892","0.0-197.0-0.0","73137510","wem/bandit_party_2","A1X5IZPCRLL0Z7","either","8","194","","","","","","","0","0","1","","0.5818713095","0.6","0.2","0.8","0.4","0.4589862704","0.8513110265","0.3697675558","0.5818713095","","","","","","","","","","","","","","76","L","3","","","156","main_expt",""
"","bandit","236","494679","0.0-198.0-0.0","73137510","wem/bandit_party_2","A1X5IZPCRLL0Z7","either","8","274","","","","","","","1","0","0","0.5804022203","","0.6","0.2","0.8","0.4","","","","","0.5370818316","0.8226236001","0.3604398023","0.5804022203","","","","","","","","","","76","L","3","","","157","main_expt",""
"","bandit","237","496439","0.0-199.0-0.0","73137510","wem/bandit_party_2","A1X5IZPCRLL0Z7","either","8","250","","","","","","","0","0","1","","0.4773166223","0.6","0.2","0.8","0.4","0.4757376888","0.8843141367","0.4061750625","0.4773166223","","","","","","","","","","","","","","76","L","3","","","158","main_expt",""
"","bandit","238","497997","0.0-200.0-0.0","73137510","wem/bandit_party_2","A1X5IZPCRLL0Z7","either","8","47","","","","","","","0","0","1","","0.419048585","0.6","0.2","0.8","0.4","0.4887287223","0.8078798749","0.4696417586","0.419048585","","","","","","","","","","","","","","76","L","3","","","159","main_expt",""
"","bandit","239","499520","0.0-201.0-0.0","73137510","wem/bandit_party_2","A1X5IZPCRLL0Z7","either","8","11","","","","","","","0","1","0","","0.4672574386","0.6","0.2","0.8","0.4","0.4588489809","0.7689164465","0.4659569923","0.4672574386","","","","","","","","","","","","","","76","L","3","","","160","main_expt",""
"","bandit","240","502581","0.0-202.0-0.0","73137510","wem/bandit_party_2","A1X5IZPCRLL0Z7","either","8","1551","","","","","","","1","0","0","0.4920004413","","0.6","0.2","0.8","0.4","","","","","0.4920004413","0.7863156869","0.3947207546","0.5612985374","","","","","","","","","","72","H","0","img/none_selected.jpg","","161","main_expt",""
"","bandit","241","504542","0.0-203.0-0.0","73137510","wem/bandit_party_2","A1X5IZPCRLL0Z7","either","8","450","","","","","","","1","0","0","0.5389881207","","0.6","0.2","0.8","0.4","","","","","0.5389881207","0.8098475403","0.2460097942","0.5288680036","","","","","","","","","","72","H","0","img/none_selected.jpg","","162","main_expt",""
"","bandit","242","506293","0.0-204.0-0.0","73137510","wem/bandit_party_2","A1X5IZPCRLL0Z7","either","8","241","","","","","","","1","0","0","0.6040136001","","0.6","0.2","0.8","0.4","","","","","0.6040136001","0.8222712862","0.3603606056","0.6096883849","","","","","","","","","","72","H","0","img/none_selected.jpg","","163","main_expt",""
"","bandit","243","508097","0.0-205.0-0.0","73137510","wem/bandit_party_2","A1X5IZPCRLL0Z7","either","8","292","","","","","","","1","0","0","0.623756827","","0.6","0.2","0.8","0.4","","","","","0.623756827","0.7876031225","0.2507209727","0.4868922288","","","","","","","","","","72","H","0","img/none_selected.jpg","","164","main_expt",""
"","bandit","244","509772","0.0-206.0-0.0","73137510","wem/bandit_party_2","A1X5IZPCRLL0Z7","either","8","166","","","","","","","1","0","0","0.6164515281","","0.6","0.2","0.8","0.4","","","","","0.6164515281","0.7435052823","0.2162043423","0.4055552053","","","","","","","","","","72","H","0","img/none_selected.jpg","","165","main_expt",""
"","bandit","245","511510","0.0-207.0-0.0","73137510","wem/bandit_party_2","A1X5IZPCRLL0Z7","either","8","225","","","","","","","1","0","0","0.4660222187","","0.6","0.2","0.8","0.4","","","","","0.4660222187","0.6545739251","0.2573409732","0.4748236382","","","","","","","","","","72","H","0","img/none_selected.jpg","","166","main_expt",""
"","bandit","246","513228","0.0-208.0-0.0","73137510","wem/bandit_party_2","A1X5IZPCRLL0Z7","either","8","209","","","","","","","0","0","1","0.3336058786","","0.6","0.2","0.8","0.4","","","","","0.3336058786","0.6645907447","0.4016088623","0.4725242185","","","","","","","","","","72","H","0","img/none_selected.jpg","","167","main_expt",""
"","bandit","247","514932","0.0-209.0-0.0","73137510","wem/bandit_party_2","A1X5IZPCRLL0Z7","either","8","195","","","","","","","0","0","1","0.2887723434","","0.6","0.2","0.8","0.4","","","","","0.2887723434","0.7243751722","0.5522858252","0.4775208721","","","","","","","","","","72","H","0","img/none_selected.jpg","","168","main_expt",""
"","bandit","248","516580","0.0-210.0-0.0","73137510","wem/bandit_party_2","A1X5IZPCRLL0Z7","either","8","138","","","","","","","0","0","1","","0.3357056981","0.6","0.2","0.8","0.4","0.3357056981","0.6453105543","0.5461138513","0.4682732781","","","","","","","","","","","","","","72","H","0","img/none_selected.jpg","","169","main_expt",""
"","bandit","249","518358","0.0-211.0-0.0","73137510","wem/bandit_party_2","A1X5IZPCRLL0Z7","either","8","269","","","","","","","0","0","1","","0.4179693295","0.6","0.2","0.8","0.4","0.4179693295","0.5334010147","0.4402798015","0.4246621539","","","","","","","","","","","","","","72","H","0","img/none_selected.jpg","","170","main_expt",""
"","bandit","250","520037","0.0-212.0-0.0","73137510","wem/bandit_party_2","A1X5IZPCRLL0Z7","either","8","168","","","","","","","0","0","1","","0.3050406521","0.6","0.2","0.8","0.4","0.3050406521","0.498122785","0.450294849","0.2843380906","","","","","","","","","","","","","","72","H","0","img/none_selected.jpg","","171","main_expt",""
"","bandit","251","521670","0.0-213.0-0.0","73137510","wem/bandit_party_2","A1X5IZPCRLL0Z7","either","8","121","","","","","","","0","0","1","0.3364500029","","0.6","0.2","0.8","0.4","","","","","0.3364500029","0.4356988635","0.6475755847","0.2668952485","","","","","","","","","","72","H","0","img/none_selected.jpg","","172","main_expt",""
"","bandit","252","523188","0.0-214.0-0.0","73137510","wem/bandit_party_2","A1X5IZPCRLL0Z7","either","8","8","","","","","","","0","0","1","","0.3964199688","0.6","0.2","0.8","0.4","0.421339117","0.3964199688","0.6095255177","0.3802819164","","","","","","","","","","","","","","74","J","1","","","173","main_expt",""
"","bandit","253","524814","0.0-215.0-0.0","73137510","wem/bandit_party_2","A1X5IZPCRLL0Z7","either","8","115","","","","","","","0","1","0","","0.3194345802","0.6","0.2","0.8","0.4","0.4913704717","0.3194345802","0.5003628493","0.4042455133","","","","","","","","","","","","","","74","J","1","","","174","main_expt",""
"","bandit","254","526566","0.0-216.0-0.0","73137510","wem/bandit_party_2","A1X5IZPCRLL0Z7","either","8","241","","","","","","","0","0","1","","0.2865230234","0.6","0.2","0.8","0.4","0.5882611891","0.2865230234","0.5576212716","0.4393989914","","","","","","","","","","","","","","74","J","1","","","175","main_expt",""
"","bandit","255","528078","0.0-217.0-0.0","73137510","wem/bandit_party_2","A1X5IZPCRLL0Z7","either","8","0","","","","","","","0","0","1","0.3352692614","","0.6","0.2","0.8","0.4","","","","","0.6313830356","0.3352692614","0.6230679906","0.4705173801","","","","","","","","","","74","J","1","","","176","main_expt",""
"","bandit","256","529685","0.0-218.0-0.0","73137510","wem/bandit_party_2","A1X5IZPCRLL0Z7","either","8","96","","","","","","","0","0","1","","0.6501784685","0.6","0.2","0.8","0.4","0.5531265137","0.3389264817","0.6501784685","0.4698597734","","","","","","","","","","","","","","75","K","2","","","177","main_expt",""
"","bandit","257","531342","0.0-219.0-0.0","73137510","wem/bandit_party_2","A1X5IZPCRLL0Z7","either","8","145","","","","","","","0","0","1","0.6334155083","","0.6","0.2","0.8","0.4","","","","","0.4621004187","0.3709673039","0.6334155083","0.3570804947","","","","","","","","","","75","K","2","","","178","main_expt",""
"","bandit","258","533188","0.0-220.0-0.0","73137510","wem/bandit_party_2","A1X5IZPCRLL0Z7","either","8","337","","","","","","","0","0","1","0.3441184995","","0.6","0.2","0.8","0.4","","","","","0.512884041","0.2940579202","0.7548338289","0.3441184995","","","","","","","","","","76","L","3","","","179","main_expt",""
"","bandit","259","534878","0.0-221.0-0.0","73137510","wem/bandit_party_2","A1X5IZPCRLL0Z7","either","8","177","","","","","","","0","0","1","0.3646136501","","0.6","0.2","0.8","0.4","","","","","0.506744284","0.3218724025","0.8074073351","0.3646136501","","","","","","","","","","76","L","3","","","180","main_expt",""
"","bandit","260","536812","0.0-222.0-0.0","73137510","wem/bandit_party_2","A1X5IZPCRLL0Z7","either","8","424","","","","","","","1","0","0","0.780721516","","0.6","0.2","0.8","0.4","","","","","0.4556494723","0.3633286182","0.780721516","0.3777688814","","","","","","","","","","75","K","2","","","181","main_expt",""
"","bandit","261","538398","0.0-223.0-0.0","73137510","wem/bandit_party_2","A1X5IZPCRLL0Z7","either","8","74","","","","","","","0","1","0","","0.7647415088","0.6","0.2","0.8","0.4","0.4494525508","0.3324048704","0.7647415088","0.4578236703","","","","","","","","","","","","","","75","K","2","","","182","main_expt",""
"","bandit","262","540153","0.0-224.0-0.0","73137510","wem/bandit_party_2","A1X5IZPCRLL0Z7","either","8","241","","","","","","","0","1","0","","0.7349307529","0.6","0.2","0.8","0.4","0.5189143621","0.3092830871","0.7349307529","0.4244895098","","","","","","","","","","","","","","75","K","2","","","183","main_expt",""
"","bandit","263","542012","0.0-225.0-0.0","73137510","wem/bandit_party_2","A1X5IZPCRLL0Z7","either","8","348","","","","","","","1","0","0","0.8298088288","","0.6","0.2","0.8","0.4","","","","","0.5167606333","0.3905692936","0.8298088288","0.3566779322","","","","","","","","","","75","K","2","","","184","main_expt",""
"","bandit","264","543573","0.0-226.0-0.0","73137510","wem/bandit_party_2","A1X5IZPCRLL0Z7","either","8","48","","","","","","","1","0","0","0.7894193193","","0.6","0.2","0.8","0.4","","","","","0.5270237034","0.4626192444","0.7894193193","0.3737416658","","","","","","","","","","75","K","2","","","185","main_expt",""
"","bandit","265","545357","0.0-227.0-0.0","73137510","wem/bandit_party_2","A1X5IZPCRLL0Z7","either","8","272","","","","","","","1","0","0","0.7665022487","","0.6","0.2","0.8","0.4","","","","","0.5556036571","0.6061762586","0.7665022487","0.3120176694","","","","","","","","","","75","K","2","","","186","main_expt",""
"","bandit","266","547126","0.0-228.0-0.0","73137510","wem/bandit_party_2","A1X5IZPCRLL0Z7","either","8","254","","","","","","","0","1","0","","0.7394266891","0.6","0.2","0.8","0.4","0.5865134094","0.530958695","0.7394266891","0.4134691065","","","","","","","","","","","","","","75","K","2","","","187","main_expt",""
"","bandit","267","548893","0.0-229.0-0.0","73137510","wem/bandit_party_2","A1X5IZPCRLL0Z7","either","8","254","","","","","","","1","0","0","0.6567361442","","0.6","0.2","0.8","0.4","","","","","0.5034866795","0.380024655","0.6567361442","0.4637770407","","","","","","","","","","75","K","2","","","188","main_expt",""
"","bandit","268","550623","0.0-230.0-0.0","73137510","wem/bandit_party_2","A1X5IZPCRLL0Z7","either","8","217","","","","","","","1","0","0","0.6572443956","","0.6","0.2","0.8","0.4","","","","","0.5761715841","0.4563575644","0.6572443956","0.5739034088","","","","","","","","","","75","K","2","","","189","main_expt",""
"","bandit","269","552453","0.0-231.0-0.0","73137510","wem/bandit_party_2","A1X5IZPCRLL0Z7","either","8","319","","","","","","","1","0","0","0.6735764162","","0.6","0.2","0.8","0.4","","","","","0.5325489933","0.4540853102","0.6735764162","0.5859504021","","","","","","","","","","75","K","2","","","190","main_expt",""
"","bandit","270","554125","0.0-232.0-0.0","73137510","wem/bandit_party_2","A1X5IZPCRLL0Z7","either","8","159","","","","","","","1","0","0","0.5997518312","","0.6","0.2","0.8","0.4","","","","","0.5614919892","0.4328006462","0.5997518312","0.5325822721","","","","","","","","","","75","K","2","","","191","main_expt",""
"","bandit","271","555642","0.0-233.0-0.0","73137510","wem/bandit_party_2","A1X5IZPCRLL0Z7","either","8","1","","","","","","","1","0","0","0.6582178794","","0.6","0.2","0.8","0.4","","","","","0.5972832049","0.4979354652","0.6582178794","0.4622441745","","","","","","","","","","75","K","2","","","192","main_expt",""
"","bandit","272","557436","0.0-234.0-0.0","73137510","wem/bandit_party_2","A1X5IZPCRLL0Z7","either","8","283","","","","","","","1","0","0","0.7246172867","","0.6","0.2","0.8","0.4","","","","","0.6997951875","0.4887187701","0.7246172867","0.4765036663","","","","","","","","","","75","K","2","","","193","main_expt",""
"","bandit","273","559285","0.0-235.0-0.0","73137510","wem/bandit_party_2","A1X5IZPCRLL0Z7","either","8","337","","","","","","","1","0","0","0.7721250451","","0.6","0.2","0.8","0.4","","","","","0.7511051992","0.4993882896","0.7721250451","0.4504155567","","","","","","","","","","75","K","2","","","194","main_expt",""
"","bandit","274","561104","0.0-236.0-0.0","73137510","wem/bandit_party_2","A1X5IZPCRLL0Z7","either","8","305","","","","","","","1","0","0","0.8366496483","","0.6","0.2","0.8","0.4","","","","","0.8281457055","0.5011331455","0.8366496483","0.4354252764","","","","","","","","","","75","K","2","","","195","main_expt",""
"","bandit","275","562830","0.0-237.0-0.0","73137510","wem/bandit_party_2","A1X5IZPCRLL0Z7","either","8","211","","","","","","","1","0","0","0.8484646997","","0.6","0.2","0.8","0.4","","","","","0.8248544968","0.4487960683","0.8484646997","0.4170899215","","","","","","","","","","75","K","2","","","196","main_expt",""
"","bandit","276","564719","0.0-238.0-0.0","73137510","wem/bandit_party_2","A1X5IZPCRLL0Z7","either","8","374","","","","","","","1","0","0","0.8734060335","","0.6","0.2","0.8","0.4","","","","","0.8532714289","0.3975590019","0.8734060335","0.4149059055","","","","","","","","","","75","K","2","","","197","main_expt",""
"","bandit","277","566510","0.0-239.0-0.0","73137510","wem/bandit_party_2","A1X5IZPCRLL0Z7","either","8","278","","","","","","","1","0","0","0.8515360685","","0.6","0.2","0.8","0.4","","","","","0.7587337752","0.4161601929","0.8515360685","0.4737306044","","","","","","","","","","75","K","2","","","198","main_expt",""
"","bandit","278","568350","0.0-240.0-0.0","73137510","wem/bandit_party_2","A1X5IZPCRLL0Z7","either","8","327","","","","","","","0","1","0","","0.8805923715","0.6","0.2","0.8","0.4","0.8124408481","0.4483979408","0.8805923715","0.4541760911","","","","","","","","","","","","","","75","K","2","","","199","main_expt",""
"","bandit","279","570045","0.0-241.0-0.0","73137510","wem/bandit_party_2","A1X5IZPCRLL0Z7","either","8","183","","","","","","","1","0","0","0.9645818821","","0.6","0.2","0.8","0.4","","","","","0.7935778268","0.5303380975","0.9645818821","0.3964714959","","","","","","","","","","75","K","2","","","200","main_expt",""
"","bandit","280","571799","0.0-242.0-0.0","73137510","wem/bandit_party_2","A1X5IZPCRLL0Z7","either","8","241","","","","","","","1","0","0","0.9689478708","","0.6","0.2","0.8","0.4","","","","","0.736942723","0.4014045657","0.9689478708","0.3815447649","","","","","","","","","","75","K","2","","","201","main_expt",""
"","bandit","281","573693","0.0-243.0-0.0","73137510","wem/bandit_party_2","A1X5IZPCRLL0Z7","either","8","381","","","","","","","0","0","1","0.9678291885","","0.6","0.2","0.8","0.4","","","","","0.7001951276","0.5115169607","0.9678291885","0.3726367513","","","","","","","","","","75","K","2","","","202","main_expt",""
"","bandit","282","575286","0.0-244.0-0.0","73137510","wem/bandit_party_2","A1X5IZPCRLL0Z7","either","8","78","","","","","","","1","0","0","0.9633244117","","0.6","0.2","0.8","0.4","","","","","0.7209300446","0.5026191452","0.9633244117","0.3062653216","","","","","","","","","","75","K","2","","","203","main_expt",""
"","bandit","283","576919","0.0-245.0-0.0","73137510","wem/bandit_party_2","A1X5IZPCRLL0Z7","either","8","118","","","","","","","1","0","0","0.9730812582","","0.6","0.2","0.8","0.4","","","","","0.8574132932","0.4736298566","0.9730812582","0.2848501254","","","","","","","","","","75","K","2","","","204","main_expt",""
"","bandit","284","578654","0.0-246.0-0.0","73137510","wem/bandit_party_2","A1X5IZPCRLL0Z7","either","8","221","","","","","","","0","1","0","","0.9521206422","0.6","0.2","0.8","0.4","0.9038760074","0.6121858428","0.9521206422","0.3457586416","","","","","","","","","","","","","","75","K","2","","","205","main_expt",""
"","bandit","285","580509","0.0-247.0-0.0","73137510","wem/bandit_party_2","A1X5IZPCRLL0Z7","either","8","343","","","","","","","1","0","0","0.9614764056","","0.6","0.2","0.8","0.4","","","","","0.9273356803","0.6377028942","0.9614764056","0.4609097875","","","","","","","","","","75","K","2","","","206","main_expt",""
"","bandit","286","582368","0.0-248.0-0.0","73137510","wem/bandit_party_2","A1X5IZPCRLL0Z7","either","8","345","","","","","","","1","0","0","0.9625830716","","0.6","0.2","0.8","0.4","","","","","0.9502037039","0.5700483165","0.9625830716","0.4980316736","","","","","","","","","","75","K","2","","","207","main_expt",""
"","bandit","287","584102","0.0-249.0-0.0","73137510","wem/bandit_party_2","A1X5IZPCRLL0Z7","either","8","221","","","","","","","0","1","0","","0.9359306517","0.6","0.2","0.8","0.4","0.944094639","0.624428721","0.9359306517","0.4537691537","","","","","","","","","","","","","","75","K","2","","","208","main_expt",""
"","bandit","288","585791","0.0-250.0-0.0","73137510","wem/bandit_party_2","A1X5IZPCRLL0Z7","either","8","174","","","","","","","1","0","0","0.9632917203","","0.6","0.2","0.8","0.4","","","","","0.9070839441","0.4861871301","0.9632917203","0.4475842875","","","","","","","","","","75","K","2","","","209","main_expt",""
"","bandit","289","587663","0.0-251.0-0.0","73137510","wem/bandit_party_2","A1X5IZPCRLL0Z7","either","8","358","","","","","","","1","0","0","0.9633226214","","0.6","0.2","0.8","0.4","","","","","0.8960653589","0.3956361612","0.9633226214","0.4803454055","","","","","","","","","","75","K","2","","","210","main_expt",""
"","bandit","290","590221","0.0-252.0-0.0","73137510","wem/bandit_party_2","A1X5IZPCRLL0Z7","either","8","1046","","","","","","","1","0","0","0.9719781217","","0.6","0.2","0.8","0.4","","","","","0.9155455821","0.3599204452","0.9719781217","0.4126443349","","","","","","","","","","75","K","2","","","211","main_expt",""
"","bandit","291","592640","0.0-253.0-0.0","73137510","wem/bandit_party_2","A1X5IZPCRLL0Z7","either","8","904","","","","","","","1","0","0","0.9700781686","","0.6","0.2","0.8","0.4","","","","","0.9087954588","0.3349000901","0.9700781686","0.3384802849","","","","","","","","","","75","K","2","","","212","main_expt",""
"","bandit","292","594526","0.0-254.0-0.0","73137510","wem/bandit_party_2","A1X5IZPCRLL0Z7","either","8","372","","","","","","","1","0","0","0.971165811","","0.6","0.2","0.8","0.4","","","","","0.8528540962","0.3183344176","0.971165811","0.3039242722","","","","","","","","","","75","K","2","","","213","main_expt",""
"","bandit","293","596246","0.0-255.0-0.0","73137510","wem/bandit_party_2","A1X5IZPCRLL0Z7","either","8","206","","","","","","","1","0","0","0.9627117","","0.6","0.2","0.8","0.4","","","","","0.8506041988","0.2390758011","0.9627117","0.4541530846","","","","","","","","","","75","K","2","","","214","main_expt",""
"","bandit","294","598214","0.0-256.0-0.0","73137510","wem/bandit_party_2","A1X5IZPCRLL0Z7","either","8","455","","","","","","","1","0","0","0.9552130497","","0.6","0.2","0.8","0.4","","","","","0.8001829978","0.1997060473","0.9552130497","0.5101749692","","","","","","","","","","75","K","2","","","215","main_expt",""
"","bandit","295","600261","0.0-257.0-0.0","73137510","wem/bandit_party_2","A1X5IZPCRLL0Z7","either","8","535","","","","","","","1","0","0","0.9220350188","","0.6","0.2","0.8","0.4","","","","","0.733614842","0.2326539104","0.9220350188","0.5580520347","","","","","","","","","","75","K","2","","","216","main_expt",""
"","bandit","296","601974","0.0-258.0-0.0","73137510","wem/bandit_party_2","A1X5IZPCRLL0Z7","either","8","200","","","","","","","0","1","0","","0.8736667029","0.6","0.2","0.8","0.4","0.7479737912","0.2319826337","0.8736667029","0.4368451062","","","","","","","","","","","","","","75","K","2","","","217","main_expt",""
"","bandit","297","603912","0.0-259.0-0.0","73137510","wem/bandit_party_2","A1X5IZPCRLL0Z7","either","8","423","","","","","","","1","0","0","0.7602784417","","0.6","0.2","0.8","0.4","","","","","0.7713398237","0.3143382807","0.7602784417","0.3963441813","","","","","","","","","","75","K","2","","","218","main_expt",""
"","bandit","298","606510","0.0-260.0-0.0","73137510","wem/bandit_party_2","A1X5IZPCRLL0Z7","either","8","1085","","","","","","","0","0","1","0.7643050859","","0.6","0.2","0.8","0.4","","","","","0.8077055691","0.3304972923","0.7643050859","0.4809426617","","","","","","","","","","75","K","2","","","219","main_expt",""
"","bandit","299","608381","0.0-261.0-0.0","73137510","wem/bandit_party_2","A1X5IZPCRLL0Z7","either","8","358","","","","","","","1","0","0","0.7793587236","","0.6","0.2","0.8","0.4","","","","","0.7778114837","0.2866104843","0.7793587236","0.397759556","","","","","","","","","","75","K","2","","","220","main_expt",""
"","bandit","300","610229","0.0-262.0-0.0","73137510","wem/bandit_party_2","A1X5IZPCRLL0Z7","either","8","335","","","","","","","1","0","0","0.82086311","","0.6","0.2","0.8","0.4","","","","","0.7214198583","0.3602561646","0.82086311","0.4087677593","","","","","","","","","","75","K","2","","","221","main_expt",""
"","bandit","301","612805","0.0-263.0-0.0","73137510","wem/bandit_party_2","A1X5IZPCRLL0Z7","either","8","1059","","","","","","","1","0","0","0.8543662658","","0.6","0.2","0.8","0.4","","","","","0.8091526303","0.3228749062","0.8543662658","0.4561280915","","","","","","","","","","75","K","2","","","222","main_expt",""
"","bandit","302","615088","0.0-264.0-0.0","73137510","wem/bandit_party_2","A1X5IZPCRLL0Z7","either","8","769","","","","","","","1","0","0","0.8599459829","","0.6","0.2","0.8","0.4","","","","","0.8240838469","0.2549485676","0.8599459829","0.4419858618","","","","","","","","","","75","K","2","","","223","main_expt",""
"","bandit","303","617237","0.0-265.0-0.0","73137510","wem/bandit_party_2","A1X5IZPCRLL0Z7","either","8","636","","","","","","","1","0","0","0.8747991669","","0.6","0.2","0.8","0.4","","","","","0.7670685714","0.2389333491","0.8747991669","0.494409337","","","","","","","","","","75","K","2","","","224","main_expt",""
"","bandit","304","619220","0.0-266.0-0.0","73137510","wem/bandit_party_2","A1X5IZPCRLL0Z7","either","8","471","","","","","","","0","0","1","","0.7910409491","0.6","0.2","0.8","0.4","0.8775689376","0.1517307125","0.7910409491","0.3713348049","","","","","","","","","","","","","","75","K","2","","","225","main_expt",""
"","bandit","305","620773","0.0-267.0-0.0","73137510","wem/bandit_party_2","A1X5IZPCRLL0Z7","either","8","40","","","","","","","0","1","0","","0.7212928749","0.6","0.2","0.8","0.4","0.8846504348","0.1002450003","0.7212928749","0.4013452417","","","","","","","","","","","","","","75","K","2","","","226","main_expt",""
"","bandit","306","622543","0.0-268.0-0.0","73137510","wem/bandit_party_2","A1X5IZPCRLL0Z7","either","8","256","","","","","","","0","1","0","","0.7090989562","0.6","0.2","0.8","0.4","0.851087938","0.1049945928","0.7090989562","0.393451628","","","","","","","","","","","","","","75","K","2","","","227","main_expt",""
"","bandit","307","624254","0.0-269.0-0.0","73137510","wem/bandit_party_2","A1X5IZPCRLL0Z7","either","8","198","","","","","","","0","0","1","0.6606736223","","0.6","0.2","0.8","0.4","","","","","0.9074720337","0.03915988122","0.6606736223","0.4175844788","","","","","","","","","","75","K","2","","","228","main_expt",""
"","bandit","308","625927","0.0-270.0-0.0","73137510","wem/bandit_party_2","A1X5IZPCRLL0Z7","either","8","160","","","","","","","1","0","0","0.6893924153","","0.6","0.2","0.8","0.4","","","","","0.872332114","0.03767516843","0.6893924153","0.408368909","","","","","","","","","","75","K","2","","","229","main_expt",""
"","bandit","309","627678","0.0-271.0-0.0","73137510","wem/bandit_party_2","A1X5IZPCRLL0Z7","either","8","237","","","","","","","1","0","0","0.6067604319","","0.6","0.2","0.8","0.4","","","","","0.7967167456","0.05804790214","0.6067604319","0.4777699032","","","","","","","","","","75","K","2","","","230","main_expt",""
"","bandit","310","629461","0.0-272.0-0.0","73137510","wem/bandit_party_2","A1X5IZPCRLL0Z7","either","8","270","","","","","","","1","0","0","0.5037419277","","0.6","0.2","0.8","0.4","","","","","0.7760618079","0.04963095007","0.5037419277","0.4935442242","","","","","","","","","","75","K","2","","","231","main_expt",""
"","bandit","311","631140","0.0-273.0-0.0","73137510","wem/bandit_party_2","A1X5IZPCRLL0Z7","either","8","167","","","","","","","1","0","0","0.4339479185","","0.6","0.2","0.8","0.4","","","","","0.7765467853","0.03759782928","0.4339479185","0.4889590317","","","","","","","","","","75","K","2","","","232","main_expt",""
"","bandit","312","632767","0.0-274.0-0.0","73137510","wem/bandit_party_2","A1X5IZPCRLL0Z7","either","8","112","","","","","","","1","0","0","0.4525546635","","0.6","0.2","0.8","0.4","","","","","0.7895219362","0.03147013274","0.4525546635","0.5212294662","","","","","","","","","","75","K","2","","","233","main_expt",""
"","bandit","313","634647","0.0-275.0-0.0","73137510","wem/bandit_party_2","A1X5IZPCRLL0Z7","either","8","365","","","","","","","1","0","0","0.3680080929","","0.6","0.2","0.8","0.4","","","","","0.7491899586","0.03547440544","0.3680080929","0.4420617392","","","","","","","","","","75","K","2","","","234","main_expt",""
"","bandit","314","637831","0.0-276.0-0.0","73137510","wem/bandit_party_2","A1X5IZPCRLL0Z7","either","8","1670","","","","","","","0","1","0","","0.3416373547","0.6","0.2","0.8","0.4","0.7397351474","0.04486782706","0.3416373547","0.4816955248","","","","","","","","","","","","","","75","K","2","","","235","main_expt",""
"","bandit","315","640334","0.0-277.0-0.0","73137510","wem/bandit_party_2","A1X5IZPCRLL0Z7","either","8","989","","","","","","","1","0","0","0.3722877153","","0.6","0.2","0.8","0.4","","","","","0.6587673302","0.03122339122","0.3722877153","0.3028121716","","","","","","","","","","75","K","2","","","236","main_expt",""
"","bandit","316","642541","0.0-278.0-0.0","73137510","wem/bandit_party_2","A1X5IZPCRLL0Z7","either","8","694","","","","","","","1","0","0","0.3081002542","","0.6","0.2","0.8","0.4","","","","","0.7534934878","0.04191117605","0.3081002542","0.3802502189","","","","","","","","","","75","K","2","","","237","main_expt",""
"","bandit","317","644135","0.0-279.0-0.0","73137510","wem/bandit_party_2","A1X5IZPCRLL0Z7","either","8","79","","","","","","","0","0","1","0.2546656634","","0.6","0.2","0.8","0.4","","","","","0.8023031038","0.06367740527","0.2546656634","0.4160754302","","","","","","","","","","75","K","2","","","238","main_expt",""
"","bandit","318","645726","0.0-280.0-0.0","73137510","wem/bandit_party_2","A1X5IZPCRLL0Z7","either","8","77","","","","","","","0","0","1","0.3038323055","","0.6","0.2","0.8","0.4","","","","","0.8333986962","0.06315957527","0.3038323055","0.3510440385","","","","","","","","","","75","K","2","","","239","main_expt",""
"","bandit","319","647935","0.0-281.0-0.0","73137510","wem/bandit_party_2","A1X5IZPCRLL0Z7","either","8","695","","","","","","","0","1","0","","0.291884511","0.6","0.2","0.8","0.4","0.840768508","0.05324295338","0.291884511","0.4182550587","","","","","","","","","","","","","","75","K","2","","","240","main_expt",""
