"consent","trial_type","trial_index","time_elapsed","internal_node_id","subjID","study","MID","cond","drift","rt","responses","button_pressed","key_press","like","value","connected","gems","bombs","no_reward","GemPrChosen","BombPrChosen","GainOverPainPr_0","GainOverPainPr_1","GainOverPainPr_2","GainOverPainPr_3","LosePr_0","LosePr_1","LosePr_2","LosePr_3","WinPr_0","WinPr_1","WinPr_2","WinPr_3","Q0","Q1","Q2","gender","age","ethnicity","label","expt_phase","target","respCharCode","respKey","respChoiceNum","respChoice","practice","trial_counter","trial_label","Q0_index","view_history"
"GDM/GDM_behavioral_consent_30min_online.html","consent","0","7430","0.0-0.0","73514396","wem/bandit_party_2","AQVXVMX61864S","either","7","","","","","","","","","","","","","","","","","","","","","","","","","","","","","","","","","","","","","","","","","",""
"","survey-text","1","12103","0.0-1.0","73514396","wem/bandit_party_2","AQVXVMX61864S","either","7","3664","{""Q0"":""AQVXVMX61864S""}","","","","","","","","","","","","","","","","","","","","","","","","","","","","","","","","","","","","","","","",""
"","button-response","2","14350","0.0-2.0","73514396","wem/bandit_party_2","AQVXVMX61864S","either","7","1242","","1","","","","","","","","","","","","","","","","","","","","","","","","","","","","","","","","","","","","","","",""
"","text-replacement","3","20725","0.0-3.0","73514396","wem/bandit_party_2","AQVXVMX61864S","either","7","5372","","","32","","","","","","","","","","","","","","","","","","","","","","","","","","","","","","","","","","","","","",""
"","text-replacement","4","22694","0.0-4.0","73514396","wem/bandit_party_2","AQVXVMX61864S","either","7","1967","","","32","","","","","","","","","","","","","","","","","","","","","","","","","","","","","","","","","","","","","",""
"","identification","5","26150","0.0-6.0-0.0","73514396","wem/bandit_party_2","AQVXVMX61864S","either","7","3437","","","","4","2","4","","","","","","","","","","","","","","","","","","","","","","","","pre","identification_pre","the Democratic Party","","","","","","","","",""
"","identification","6","29717","0.0-6.0-1.0","73514396","wem/bandit_party_2","AQVXVMX61864S","either","7","2545","","","","1","1","1","","","","","","","","","","","","","","","","","","","","","","","","pre","identification_pre","the Republican Party","","","","","","","","",""
"","text-replacement","7","33670","0.0-7.0","73514396","wem/bandit_party_2","AQVXVMX61864S","either","7","2950","","","32","","","","","","","","","","","","","","","","","","","","","","","","","","","","","","","","","","","","","",""
"","text-replacement","8","36221","0.0-8.0","73514396","wem/bandit_party_2","AQVXVMX61864S","either","7","2550","","","32","","","","","","","","","","","","","","","","","","","","","","","","","","","","","","","","","","","","","",""
"","text-replacement","9","41077","0.0-9.0","73514396","wem/bandit_party_2","AQVXVMX61864S","either","7","4854","","","32","","","","","","","","","","","","","","","","","","","","","","","","","","","","","","","","","","","","","",""
"","text-replacement","10","43957","0.0-10.0","73514396","wem/bandit_party_2","AQVXVMX61864S","either","7","2879","","","32","","","","","","","","","","","","","","","","","","","","","","","","","","","","","","","","","","","","","",""
"","text-replacement","11","47582","0.0-11.0","73514396","wem/bandit_party_2","AQVXVMX61864S","either","7","3623","","","32","","","","","","","","","","","","","","","","","","","","","","","","","","","","","","","","","","","","","",""
"","bandit","12","49839","0.0-12.0-0.0","73514396","wem/bandit_party_2","AQVXVMX61864S","either","7","749","","","","","","","0","0","1","0","0","","","","","0","","","","0","","","","","","","","","","","","","74","J","0","img/none_selected_demo.jpg","true","0","","",""
"","bandit","13","52527","0.0-13.0-0.0","73514396","wem/bandit_party_2","AQVXVMX61864S","either","7","1178","","","","","","","0","0","1","0","0","","","","","0","","","","0","","","","","","","","","","","","","75","K","0","img/none_selected_demo.jpg","true","0","","",""
"","text-replacement","14","55174","0.0-14.0","73514396","wem/bandit_party_2","AQVXVMX61864S","either","7","2643","","","32","","","","","","","","","","","","","","","","","","","","","","","","","","","","","","","","","","","","","",""
"","text-replacement","15","61173","0.0-15.0","73514396","wem/bandit_party_2","AQVXVMX61864S","either","7","5997","","","32","","","","","","","","","","","","","","","","","","","","","","","","","","","","","","","","","","","","","",""
"","text-replacement","16","63654","0.0-16.0","73514396","wem/bandit_party_2","AQVXVMX61864S","either","7","2480","","","32","","","","","","","","","","","","","","","","","","","","","","","","","","","","","","","","","","","","","",""
"","text-replacement","17","64981","0.0-17.0","73514396","wem/bandit_party_2","AQVXVMX61864S","either","7","1326","","","32","","","","","","","","","","","","","","","","","","","","","","","","","","","","","","","","","","","","","",""
"","bandit","18","67317","0.0-18.0-0.0","73514396","wem/bandit_party_2","AQVXVMX61864S","either","7","830","","","","","","","0","1","0","","0.8","0.5","0.5","","","0.8","0.2","","","","","","","","","","","","","","","","74","J","0","img/none_selected_demo.jpg","true","0","80_20_practice","",""
"","bandit","19","69117","0.0-18.0-1.0","73514396","wem/bandit_party_2","AQVXVMX61864S","either","7","295","","","","","","","1","0","0","0.2","","0.5","0.5","","","","","","","0.8","0.2","","","","","","","","","","","","75","K","1","","true","0","80_20_practice","",""
"","bandit","20","70997","0.0-18.0-2.0","73514396","wem/bandit_party_2","AQVXVMX61864S","either","7","374","","","","","","","0","0","1","","0.2","0.5","0.5","","","0.8","0.2","","","","","","","","","","","","","","","","75","K","1","","true","0","80_20_practice","",""
"","bandit","21","73069","0.0-18.0-3.0","73514396","wem/bandit_party_2","AQVXVMX61864S","either","7","565","","","","","","","0","0","1","0.2","","0.5","0.5","","","","","","","0.8","0.2","","","","","","","","","","","","75","K","1","","true","0","80_20_practice","",""
"","bandit","22","74828","0.0-18.0-4.0","73514396","wem/bandit_party_2","AQVXVMX61864S","either","7","252","","","","","","","1","0","0","0.8","","0.5","0.5","","","","","","","0.8","0.2","","","","","","","","","","","","74","J","0","img/none_selected_demo.jpg","true","0","80_20_practice","",""
"","bandit","23","76620","0.0-18.0-5.0","73514396","wem/bandit_party_2","AQVXVMX61864S","either","7","285","","","","","","","0","1","0","","0.8","0.5","0.5","","","0.8","0.2","","","","","","","","","","","","","","","","74","J","0","img/none_selected_demo.jpg","true","0","80_20_practice","",""
"","bandit","24","78444","0.0-18.0-6.0","73514396","wem/bandit_party_2","AQVXVMX61864S","either","7","318","","","","","","","0","1","0","","0.2","0.5","0.5","","","0.8","0.2","","","","","","","","","","","","","","","","75","K","1","","true","0","80_20_practice","",""
"","bandit","25","80236","0.0-18.0-7.0","73514396","wem/bandit_party_2","AQVXVMX61864S","either","7","287","","","","","","","0","1","0","","0.8","0.5","0.5","","","0.8","0.2","","","","","","","","","","","","","","","","74","J","0","img/none_selected_demo.jpg","true","0","80_20_practice","",""
"","bandit","26","81891","0.0-18.0-8.0","73514396","wem/bandit_party_2","AQVXVMX61864S","either","7","150","","","","","","","1","0","0","0.2","","0.5","0.5","","","","","","","0.8","0.2","","","","","","","","","","","","75","K","1","","true","0","80_20_practice","",""
"","bandit","27","83757","0.0-18.0-9.0","73514396","wem/bandit_party_2","AQVXVMX61864S","either","7","359","","","","","","","0","0","1","","0.8","0.5","0.5","","","0.8","0.2","","","","","","","","","","","","","","","","74","J","0","img/none_selected_demo.jpg","true","0","80_20_practice","",""
"","bandit","28","85500","0.0-18.0-10.0","73514396","wem/bandit_party_2","AQVXVMX61864S","either","7","236","","","","","","","0","1","0","","0.2","0.5","0.5","","","0.8","0.2","","","","","","","","","","","","","","","","75","K","1","","true","0","80_20_practice","",""
"","bandit","29","87134","0.0-18.0-11.0","73514396","wem/bandit_party_2","AQVXVMX61864S","either","7","128","","","","","","","1","0","0","0.8","","0.5","0.5","","","","","","","0.8","0.2","","","","","","","","","","","","74","J","0","img/none_selected_demo.jpg","true","0","80_20_practice","",""
"","bandit","30","88965","0.0-18.0-12.0","73514396","wem/bandit_party_2","AQVXVMX61864S","either","7","323","","","","","","","1","0","0","0.8","","0.5","0.5","","","","","","","0.8","0.2","","","","","","","","","","","","74","J","0","img/none_selected_demo.jpg","true","0","80_20_practice","",""
"","bandit","31","90639","0.0-18.0-13.0","73514396","wem/bandit_party_2","AQVXVMX61864S","either","7","167","","","","","","","1","0","0","0.8","","0.5","0.5","","","","","","","0.8","0.2","","","","","","","","","","","","74","J","0","img/none_selected_demo.jpg","true","0","80_20_practice","",""
"","bandit","32","92301","0.0-18.0-14.0","73514396","wem/bandit_party_2","AQVXVMX61864S","either","7","154","","","","","","","1","0","0","0.8","","0.5","0.5","","","","","","","0.8","0.2","","","","","","","","","","","","74","J","0","img/none_selected_demo.jpg","true","0","80_20_practice","",""
"","bandit","33","93966","0.0-18.0-15.0","73514396","wem/bandit_party_2","AQVXVMX61864S","either","7","157","","","","","","","1","0","0","0.8","","0.5","0.5","","","","","","","0.8","0.2","","","","","","","","","","","","74","J","0","img/none_selected_demo.jpg","true","0","80_20_practice","",""
"","bandit","34","95845","0.0-18.0-16.0","73514396","wem/bandit_party_2","AQVXVMX61864S","either","7","370","","","","","","","1","0","0","0.8","","0.5","0.5","","","","","","","0.8","0.2","","","","","","","","","","","","74","J","0","img/none_selected_demo.jpg","true","0","80_20_practice","",""
"","bandit","35","97973","0.0-18.0-17.0","73514396","wem/bandit_party_2","AQVXVMX61864S","either","7","621","","","","","","","1","0","0","0.8","","0.5","0.5","","","","","","","0.8","0.2","","","","","","","","","","","","74","J","0","img/none_selected_demo.jpg","true","0","80_20_practice","",""
"","bandit","36","99716","0.0-18.0-18.0","73514396","wem/bandit_party_2","AQVXVMX61864S","either","7","235","","","","","","","1","0","0","0.8","","0.5","0.5","","","","","","","0.8","0.2","","","","","","","","","","","","74","J","0","img/none_selected_demo.jpg","true","0","80_20_practice","",""
"","bandit","37","101565","0.0-18.0-19.0","73514396","wem/bandit_party_2","AQVXVMX61864S","either","7","341","","","","","","","0","1","0","","0.8","0.5","0.5","","","0.8","0.2","","","","","","","","","","","","","","","","74","J","0","img/none_selected_demo.jpg","true","0","80_20_practice","",""
"","text-replacement","38","107382","0.0-19.0","73514396","wem/bandit_party_2","AQVXVMX61864S","either","7","5814","","","32","","","","","","","","","","","","","","","","","","","","","","","","","","","","","","","","","","","","","",""
"","bandit","39","109573","0.0-20.0-0.0","73514396","wem/bandit_party_2","AQVXVMX61864S","either","7","682","","","","","","","1","0","0","1","0","","","","","0","1","","","1","0","","","","","","","","","","","","74","J","0","img/none_selected_demo.jpg","true","0","","",""
"","text-replacement","40","111501","0.0-21.0","73514396","wem/bandit_party_2","AQVXVMX61864S","either","7","1924","","","32","","","","","","","","","","","","","","","","","","","","","","","","","","","","","","","","","","","","","",""
"","text-replacement","41","112836","0.0-22.0","73514396","wem/bandit_party_2","AQVXVMX61864S","either","7","1335","","","32","","","","","","","","","","","","","","","","","","","","","","","","","","","","","","","","","","","","","",""
"","text-replacement","42","114126","0.0-23.0","73514396","wem/bandit_party_2","AQVXVMX61864S","either","7","1288","","","32","","","","","","","","","","","","","","","","","","","","","","","","","","","","","","","","","","","","","",""
"","text-replacement","43","115127","0.0-24.0","73514396","wem/bandit_party_2","AQVXVMX61864S","either","7","999","","","32","","","","","","","","","","","","","","","","","","","","","","","","","","","","","","","","","","","","","",""
"","text-replacement","44","115285","0.0-25.0","73514396","wem/bandit_party_2","AQVXVMX61864S","either","7","155","","","32","","","","","","","","","","","","","","","","","","","","","","","","","","","","","","","","","","","","","",""
"","text-replacement","45","118181","0.0-26.0","73514396","wem/bandit_party_2","AQVXVMX61864S","either","7","2894","","","32","","","","","","","","","","","","","","","","","","","","","","","","","","","","","","","","","","","","","",""
"","text-replacement","46","119077","0.0-27.0","73514396","wem/bandit_party_2","AQVXVMX61864S","either","7","894","","","32","","","","","","","","","","","","","","","","","","","","","","","","","","","","","","","","","","","","","",""
"","text-replacement","47","120381","0.0-28.0","73514396","wem/bandit_party_2","AQVXVMX61864S","either","7","1300","","","32","","","","","","","","","","","","","","","","","","","","","","","","","","","","","","","","","","","","","",""
"","text-replacement","48","122526","0.0-29.0","73514396","wem/bandit_party_2","AQVXVMX61864S","either","7","2142","","","32","","","","","","","","","","","","","","","","","","","","","","","","","","","","","","","","","","","","","",""
"","text-replacement","49","123621","0.0-30.0","73514396","wem/bandit_party_2","AQVXVMX61864S","either","7","1093","","","32","","","","","","","","","","","","","","","","","","","","","","","","","","","","","","","","","","","","","",""
"","text-replacement","50","124534","0.0-31.0","73514396","wem/bandit_party_2","AQVXVMX61864S","either","7","910","","","32","","","","","","","","","","","","","","","","","","","","","","","","","","","","","","","","","","","","","",""
"","bandit","51","126446","0.0-32.0-0.0","73514396","wem/bandit_party_2","AQVXVMX61864S","either","7","403","","","","","","","0","1","0","","0.8","0.5","0.5","0.5","0.5","0.8","0.2","0.6","0.2","","","","","","","","","","","","","","72","H","0","img/none_selected.jpg","true","0","full_practice","",""
"","bandit","52","128414","0.0-32.0-1.0","73514396","wem/bandit_party_2","AQVXVMX61864S","either","7","459","","","","","","","0","0","1","","0.2","0.5","0.5","0.5","0.5","0.8","0.2","0.6","0.2","","","","","","","","","","","","","","74","J","1","","true","0","full_practice","",""
"","bandit","53","130779","0.0-32.0-2.0","73514396","wem/bandit_party_2","AQVXVMX61864S","either","7","861","","","","","","","0","0","1","0.2","","0.5","0.5","0.5","0.5","","","","","0.8","0.2","0.6","0.2","","","","","","","","","","76","L","3","","true","0","full_practice","",""
"","bandit","54","132516","0.0-32.0-3.0","73514396","wem/bandit_party_2","AQVXVMX61864S","either","7","230","","","","","","","1","0","0","0.6","","0.5","0.5","0.5","0.5","","","","","0.8","0.2","0.6","0.2","","","","","","","","","","75","K","2","","true","0","full_practice","",""
"","bandit","55","134381","0.0-32.0-4.0","73514396","wem/bandit_party_2","AQVXVMX61864S","either","7","358","","","","","","","0","0","1","0.6","","0.5","0.5","0.5","0.5","","","","","0.8","0.2","0.6","0.2","","","","","","","","","","75","K","2","","true","0","full_practice","",""
"","bandit","56","136085","0.0-32.0-5.0","73514396","wem/bandit_party_2","AQVXVMX61864S","either","7","194","","","","","","","0","0","1","","0.6","0.5","0.5","0.5","0.5","0.8","0.2","0.6","0.2","","","","","","","","","","","","","","75","K","2","","true","0","full_practice","",""
"","bandit","57","137716","0.0-32.0-6.0","73514396","wem/bandit_party_2","AQVXVMX61864S","either","7","122","","","","","","","0","0","1","","0.2","0.5","0.5","0.5","0.5","0.8","0.2","0.6","0.2","","","","","","","","","","","","","","76","L","3","","true","0","full_practice","",""
"","bandit","58","139548","0.0-32.0-7.0","73514396","wem/bandit_party_2","AQVXVMX61864S","either","7","328","","","","","","","0","0","1","","0.2","0.5","0.5","0.5","0.5","0.8","0.2","0.6","0.2","","","","","","","","","","","","","","74","J","1","","true","0","full_practice","",""
"","bandit","59","141389","0.0-32.0-8.0","73514396","wem/bandit_party_2","AQVXVMX61864S","either","7","333","","","","","","","0","0","1","","0.2","0.5","0.5","0.5","0.5","0.8","0.2","0.6","0.2","","","","","","","","","","","","","","74","J","1","","true","0","full_practice","",""
"","bandit","60","143308","0.0-32.0-9.0","73514396","wem/bandit_party_2","AQVXVMX61864S","either","7","414","","","","","","","0","0","1","","0.6","0.5","0.5","0.5","0.5","0.8","0.2","0.6","0.2","","","","","","","","","","","","","","75","K","2","","true","0","full_practice","",""
"","bandit","61","145044","0.0-32.0-10.0","73514396","wem/bandit_party_2","AQVXVMX61864S","either","7","229","","","","","","","0","0","1","","0.6","0.5","0.5","0.5","0.5","0.8","0.2","0.6","0.2","","","","","","","","","","","","","","75","K","2","","true","0","full_practice","",""
"","bandit","62","147445","0.0-32.0-11.0","73514396","wem/bandit_party_2","AQVXVMX61864S","either","7","895","","","","","","","0","0","1","0.2","","0.5","0.5","0.5","0.5","","","","","0.8","0.2","0.6","0.2","","","","","","","","","","74","J","1","","true","0","full_practice","",""
"","bandit","63","149133","0.0-32.0-12.0","73514396","wem/bandit_party_2","AQVXVMX61864S","either","7","179","","","","","","","0","1","0","","0.8","0.5","0.5","0.5","0.5","0.8","0.2","0.6","0.2","","","","","","","","","","","","","","72","H","0","img/none_selected.jpg","true","0","full_practice","",""
"","bandit","64","150806","0.0-32.0-13.0","73514396","wem/bandit_party_2","AQVXVMX61864S","either","7","163","","","","","","","0","0","1","","0.2","0.5","0.5","0.5","0.5","0.8","0.2","0.6","0.2","","","","","","","","","","","","","","76","L","3","","true","0","full_practice","",""
"","bandit","65","152348","0.0-32.0-14.0","73514396","wem/bandit_party_2","AQVXVMX61864S","either","7","34","","","","","","","1","0","0","0.6","","0.5","0.5","0.5","0.5","","","","","0.8","0.2","0.6","0.2","","","","","","","","","","75","K","2","","true","0","full_practice","",""
"","bandit","66","154179","0.0-32.0-15.0","73514396","wem/bandit_party_2","AQVXVMX61864S","either","7","323","","","","","","","0","1","0","","0.6","0.5","0.5","0.5","0.5","0.8","0.2","0.6","0.2","","","","","","","","","","","","","","75","K","2","","true","0","full_practice","",""
"","bandit","67","155916","0.0-32.0-16.0","73514396","wem/bandit_party_2","AQVXVMX61864S","either","7","231","","","","","","","0","0","1","0.6","","0.5","0.5","0.5","0.5","","","","","0.8","0.2","0.6","0.2","","","","","","","","","","75","K","2","","true","0","full_practice","",""
"","bandit","68","157830","0.0-32.0-17.0","73514396","wem/bandit_party_2","AQVXVMX61864S","either","7","402","","","","","","","0","1","0","","0.6","0.5","0.5","0.5","0.5","0.8","0.2","0.6","0.2","","","","","","","","","","","","","","75","K","2","","true","0","full_practice","",""
"","bandit","69","159629","0.0-32.0-18.0","73514396","wem/bandit_party_2","AQVXVMX61864S","either","7","292","","","","","","","1","0","0","0.6","","0.5","0.5","0.5","0.5","","","","","0.8","0.2","0.6","0.2","","","","","","","","","","75","K","2","","true","0","full_practice","",""
"","bandit","70","161390","0.0-32.0-19.0","73514396","wem/bandit_party_2","AQVXVMX61864S","either","7","252","","","","","","","0","1","0","","0.6","0.5","0.5","0.5","0.5","0.8","0.2","0.6","0.2","","","","","","","","","","","","","","75","K","2","","true","0","full_practice","",""
"","text","71","166869","0.0-33.0","73514396","wem/bandit_party_2","AQVXVMX61864S","either","7","5474","","","32","","","","","","","","","","","","","","","","","","","","","","","","","","","","","","","","","","","","","",""
"","text-replacement","72","174477","0.0-34.0","73514396","wem/bandit_party_2","AQVXVMX61864S","either","7","6605","","","32","","","","","","","","","","","","","","","","","","","","","","","","","","","","","","","","","","","","","",""
"","text-replacement","73","181172","0.0-35.0","73514396","wem/bandit_party_2","AQVXVMX61864S","either","7","6694","","","32","","","","","","","","","","","","","","","","","","","","","","","","","","","","","","","","","","","","","",""
"","text-replacement","74","183492","0.0-36.0","73514396","wem/bandit_party_2","AQVXVMX61864S","either","7","2319","","","32","","","","","","","","","","","","","","","","","","","","","","","","","","","","","","","","","","","","","",""
"","text-replacement","75","184870","0.0-37.0","73514396","wem/bandit_party_2","AQVXVMX61864S","either","7","1376","","","32","","","","","","","","","","","","","","","","","","","","","","","","","","","","","","","","","","","","","",""
"","text-replacement","76","191805","0.0-38.0","73514396","wem/bandit_party_2","AQVXVMX61864S","either","7","6931","","","32","","","","","","","","","","","","","","","","","","","","","","","","","","","","","","","","","","","","","",""
"","survey-multi-choice-replacement","77","196438","0.0-39.0-0.0","73514396","wem/bandit_party_2","AQVXVMX61864S","either","7","4628","","","","","","","","","","","","","","","","","","","","","","","","Money will be added to the pool for <span style='color:blue;'>DEMOCRATS</span>","","","","","","","attn_check","","","","","","","","","0",""
"","survey-multi-choice-replacement","78","199413","0.0-40.0-0.0","73514396","wem/bandit_party_2","AQVXVMX61864S","either","7","1970","","","","","","","","","","","","","","","","","","","","","","","","Money will be subtracted from the pool for <span style='color:red;'>REPUBLICANS</span>","","","","","","","attn_check","","","","","","","","","1",""
"","instructions","79","201373","0.0-40.0-1.0-0.0","73514396","wem/bandit_party_2","AQVXVMX61864S","either","7","954","","","","","","","","","","","","","","","","","","","","","","","","","","","","","","","","","","","","","","","","","[{""page_index"":0,""viewing_time"":953}]"
"","survey-multi-choice-replacement","80","209301","0.0-40.1-0.1","73514396","wem/bandit_party_2","AQVXVMX61864S","either","7","6920","","","","","","","","","","","","","","","","","","","","","","","","Equal amounts of money will be added to the pool for <span style='color:blue;'>DEMOCRATS</span> and subtracted from the pool for <span style='color:red;'>REPUBLICANS</span>","","","","","","","attn_check","","","","","","","","","2",""
"","survey-multi-choice-replacement","81","213381","0.0-41.0-0.0","73514396","wem/bandit_party_2","AQVXVMX61864S","either","7","3068","","","","","","","","","","","","","","","","","","","","","","","","No money will be added to either pool","","","","","","","attn_check","","","","","","","","","3",""
"","bandit","82","217172","0.0-42.0-0.0","73514396","wem/bandit_party_2","AQVXVMX61864S","either","7","1278","","","","","","","1","0","0","0.5514722813","","0.8","0.6","0.4","0.2","","","","","0.5514722813","0.7088318221","0.2888626749","0.1731741302","","","","","","","","","","72","H","0","img/none_selected.jpg","","1","main_expt","",""
"","bandit","83","220230","0.0-43.0-0.0","73514396","wem/bandit_party_2","AQVXVMX61864S","either","7","1549","","","","","","","0","0","1","0.5039303977","","0.8","0.6","0.4","0.2","","","","","0.5039303977","0.6292935488","0.3999538902","0.2874485847","","","","","","","","","","72","H","0","img/none_selected.jpg","","2","main_expt","",""
"","bandit","84","222293","0.0-44.0-0.0","73514396","wem/bandit_party_2","AQVXVMX61864S","either","7","556","","","","","","","1","0","0","0.5527877924","","0.8","0.6","0.4","0.2","","","","","0.5527877924","0.5285482983","0.4126831114","0.2683250969","","","","","","","","","","72","H","0","img/none_selected.jpg","","3","main_expt","",""
"","bandit","85","223941","0.0-45.0-0.0","73514396","wem/bandit_party_2","AQVXVMX61864S","either","7","141","","","","","","","1","0","0","0.6336700584","","0.8","0.6","0.4","0.2","","","","","0.6336700584","0.6744491701","0.3923803367","0.3988631097","","","","","","","","","","72","H","0","img/none_selected.jpg","","4","main_expt","",""
"","bandit","86","225564","0.0-46.0-0.0","73514396","wem/bandit_party_2","AQVXVMX61864S","either","7","116","","","","","","","1","0","0","0.6340088104","","0.8","0.6","0.4","0.2","","","","","0.6340088104","0.7922285807","0.3803283439","0.3568799457","","","","","","","","","","72","H","0","img/none_selected.jpg","","5","main_expt","",""
"","bandit","87","229068","0.0-47.0-0.0","73514396","wem/bandit_party_2","AQVXVMX61864S","either","7","1997","","","","","","","0","0","1","0.5784181907","","0.8","0.6","0.4","0.2","","","","","0.5784181907","0.7459441126","0.4214296899","0.3188731731","","","","","","","","","","72","H","0","img/none_selected.jpg","","6","main_expt","",""
"","bandit","88","231123","0.0-48.0-0.0","73514396","wem/bandit_party_2","AQVXVMX61864S","either","7","549","","","","","","","1","0","0","0.6727083857","","0.8","0.6","0.4","0.2","","","","","0.6727083857","0.7681481668","0.4755968838","0.4574196012","","","","","","","","","","72","H","0","img/none_selected.jpg","","7","main_expt","",""
"","bandit","89","232733","0.0-49.0-0.0","73514396","wem/bandit_party_2","AQVXVMX61864S","either","7","102","","","","","","","1","0","0","0.7574508858","","0.8","0.6","0.4","0.2","","","","","0.7574508858","0.7251609313","0.5353568537","0.5037884951","","","","","","","","","","72","H","0","img/none_selected.jpg","","8","main_expt","",""
"","bandit","90","235004","0.0-50.0-0.0","73514396","wem/bandit_party_2","AQVXVMX61864S","either","7","761","","","","","","","0","0","1","0.8280759311","","0.8","0.6","0.4","0.2","","","","","0.8280759311","0.7403055102","0.6246831942","0.5750013994","","","","","","","","","","72","H","0","img/none_selected.jpg","","9","main_expt","",""
"","bandit","91","236829","0.0-51.0-0.0","73514396","wem/bandit_party_2","AQVXVMX61864S","either","7","316","","","","","","","1","0","0","0.859726102","","0.8","0.6","0.4","0.2","","","","","0.859726102","0.722944265","0.4475954046","0.5399040382","","","","","","","","","","72","H","0","img/none_selected.jpg","","10","main_expt","",""
"","bandit","92","239310","0.0-52.0-0.0","73514396","wem/bandit_party_2","AQVXVMX61864S","either","7","971","","","","","","","1","0","0","0.877956501","","0.8","0.6","0.4","0.2","","","","","0.877956501","0.6833847698","0.4514702697","0.5181098662","","","","","","","","","","72","H","0","img/none_selected.jpg","","11","main_expt","",""
"","bandit","93","240822","0.0-53.0-0.0","73514396","wem/bandit_party_2","AQVXVMX61864S","either","7","1","","","","","","","1","0","0","0.8883669707","","0.8","0.6","0.4","0.2","","","","","0.8883669707","0.689227163","0.4873058782","0.5489165229","","","","","","","","","","72","H","0","img/none_selected.jpg","","12","main_expt","",""
"","bandit","94","242644","0.0-54.0-0.0","73514396","wem/bandit_party_2","AQVXVMX61864S","either","7","312","","","","","","","1","0","0","0.817149195","","0.8","0.6","0.4","0.2","","","","","0.817149195","0.5178623456","0.4862469224","0.6186986429","","","","","","","","","","72","H","0","img/none_selected.jpg","","13","main_expt","",""
"","bandit","95","244149","0.0-55.0-0.0","73514396","wem/bandit_party_2","AQVXVMX61864S","either","7","1","","","","","","","0","0","1","0.8589139609","","0.8","0.6","0.4","0.2","","","","","0.8589139609","0.4768489018","0.360908092","0.4944095791","","","","","","","","","","72","H","0","img/none_selected.jpg","","14","main_expt","",""
"","bandit","96","246653","0.0-56.0-0.0","73514396","wem/bandit_party_2","AQVXVMX61864S","either","7","997","","","","","","","0","0","1","","0.7955781648","0.8","0.6","0.4","0.2","0.7955781648","0.5201849276","0.4126647893","0.4820951366","","","","","","","","","","","","","","72","H","0","img/none_selected.jpg","","15","main_expt","",""
"","bandit","97","248342","0.0-57.0-0.0","73514396","wem/bandit_party_2","AQVXVMX61864S","either","7","177","","","","","","","0","0","1","","0.6862231469","0.8","0.6","0.4","0.2","0.8864445785","0.6862231469","0.4930686601","0.4888848296","","","","","","","","","","","","","","74","J","1","","","16","main_expt","",""
"","bandit","98","250252","0.0-58.0-0.0","73514396","wem/bandit_party_2","AQVXVMX61864S","either","7","398","","","","","","","1","0","0","0.8746062981","","0.8","0.6","0.4","0.2","","","","","0.8746062981","0.7297328357","0.5162343008","0.381306026","","","","","","","","","","72","H","0","img/none_selected.jpg","","17","main_expt","",""
"","bandit","99","252158","0.0-59.0-0.0","73514396","wem/bandit_party_2","AQVXVMX61864S","either","7","396","","","","","","","0","1","0","","0.8910236512","0.8","0.6","0.4","0.2","0.8910236512","0.6686287009","0.5627456494","0.3537135189","","","","","","","","","","","","","","72","H","0","img/none_selected.jpg","","18","main_expt","",""
"","bandit","100","253757","0.0-60.0-0.0","73514396","wem/bandit_party_2","AQVXVMX61864S","either","7","90","","","","","","","1","0","0","0.8932054573","","0.8","0.6","0.4","0.2","","","","","0.8932054573","0.7885428456","0.4478227807","0.4891458502","","","","","","","","","","72","H","0","img/none_selected.jpg","","19","main_expt","",""
"","bandit","101","255357","0.0-61.0-0.0","73514396","wem/bandit_party_2","AQVXVMX61864S","either","7","93","","","","","","","1","0","0","0.8900063933","","0.8","0.6","0.4","0.2","","","","","0.8900063933","0.7442236049","0.5306796692","0.5440957398","","","","","","","","","","72","H","0","img/none_selected.jpg","","20","main_expt","",""
"","bandit","102","257516","0.0-62.0-0.0","73514396","wem/bandit_party_2","AQVXVMX61864S","either","7","652","","","","","","","0","0","1","0.8748704397","","0.8","0.6","0.4","0.2","","","","","0.8748704397","0.7908218503","0.5423611418","0.5621313733","","","","","","","","","","72","H","0","img/none_selected.jpg","","21","main_expt","",""
"","bandit","103","259526","0.0-63.0-0.0","73514396","wem/bandit_party_2","AQVXVMX61864S","either","7","497","","","","","","","1","0","0","0.8498769136","","0.8","0.6","0.4","0.2","","","","","0.8498769136","0.7163236006","0.4190568807","0.5296345876","","","","","","","","","","72","H","0","img/none_selected.jpg","","22","main_expt","",""
"","bandit","104","261285","0.0-64.0-0.0","73514396","wem/bandit_party_2","AQVXVMX61864S","either","7","247","","","","","","","1","0","0","0.8357449374","","0.8","0.6","0.4","0.2","","","","","0.8357449374","0.7061190667","0.4329937009","0.5187107172","","","","","","","","","","72","H","0","img/none_selected.jpg","","23","main_expt","",""
"","bandit","105","263190","0.0-65.0-0.0","73514396","wem/bandit_party_2","AQVXVMX61864S","either","7","395","","","","","","","1","0","0","0.8431908073","","0.8","0.6","0.4","0.2","","","","","0.8431908073","0.7470556917","0.4298879426","0.6000521927","","","","","","","","","","72","H","0","img/none_selected.jpg","","24","main_expt","",""
"","bandit","106","265173","0.0-66.0-0.0","73514396","wem/bandit_party_2","AQVXVMX61864S","either","7","476","","","","","","","0","1","0","","0.8741885854","0.8","0.6","0.4","0.2","0.8741885854","0.8154180688","0.2992323157","0.5443047256","","","","","","","","","","","","","","72","H","0","img/none_selected.jpg","","25","main_expt","",""
"","bandit","107","268092","0.0-67.0-0.0","73514396","wem/bandit_party_2","AQVXVMX61864S","either","7","1412","","","","","","","1","0","0","0.8940719671","","0.8","0.6","0.4","0.2","","","","","0.8940719671","0.8395379789","0.3857263224","0.592493964","","","","","","","","","","72","H","0","img/none_selected.jpg","","26","main_expt","",""
"","bandit","108","269668","0.0-68.0-0.0","73514396","wem/bandit_party_2","AQVXVMX61864S","either","7","68","","","","","","","0","1","0","","0.8733378856","0.8","0.6","0.4","0.2","0.8733378856","0.8023078409","0.3715251318","0.5779569403","","","","","","","","","","","","","","72","H","0","img/none_selected.jpg","","27","main_expt","",""
"","bandit","109","271468","0.0-69.0-0.0","73514396","wem/bandit_party_2","AQVXVMX61864S","either","7","292","","","","","","","0","1","0","","0.8695586723","0.8","0.6","0.4","0.2","0.8695586723","0.8248968235","0.3387808014","0.7077223562","","","","","","","","","","","","","","72","H","0","img/none_selected.jpg","","28","main_expt","",""
"","bandit","110","273229","0.0-70.0-0.0","73514396","wem/bandit_party_2","AQVXVMX61864S","either","7","255","","","","","","","1","0","0","0.7908290088","","0.8","0.6","0.4","0.2","","","","","0.7908290088","0.8621011303","0.3737397218","0.7070353494","","","","","","","","","","72","H","0","img/none_selected.jpg","","29","main_expt","",""
"","bandit","111","274844","0.0-71.0-0.0","73514396","wem/bandit_party_2","AQVXVMX61864S","either","7","109","","","","","","","1","0","0","0.8518997755","","0.8","0.6","0.4","0.2","","","","","0.8518997755","0.8873668535","0.3232047389","0.6585428656","","","","","","","","","","72","H","0","img/none_selected.jpg","","30","main_expt","",""
"","bandit","112","276654","0.0-72.0-0.0","73514396","wem/bandit_party_2","AQVXVMX61864S","either","7","299","","","","","","","1","0","0","0.8509842625","","0.8","0.6","0.4","0.2","","","","","0.8509842625","0.9318975106","0.4130267239","0.6724088618","","","","","","","","","","72","H","0","img/none_selected.jpg","","31","main_expt","",""
"","bandit","113","278653","0.0-73.0-0.0","73514396","wem/bandit_party_2","AQVXVMX61864S","either","7","489","","","","","","","1","0","0","0.872996121","","0.8","0.6","0.4","0.2","","","","","0.872996121","0.9013609786","0.4167758813","0.6416581209","","","","","","","","","","72","H","0","img/none_selected.jpg","","32","main_expt","",""
"","bandit","114","280403","0.0-74.0-0.0","73514396","wem/bandit_party_2","AQVXVMX61864S","either","7","242","","","","","","","1","0","0","0.8571046391","","0.8","0.6","0.4","0.2","","","","","0.8571046391","0.9041531295","0.4546052232","0.7055802426","","","","","","","","","","72","H","0","img/none_selected.jpg","","33","main_expt","",""
"","bandit","115","282148","0.0-75.0-0.0","73514396","wem/bandit_party_2","AQVXVMX61864S","either","7","239","","","","","","","1","0","0","0.9175819521","","0.8","0.6","0.4","0.2","","","","","0.9175819521","0.9386104272","0.5231803088","0.7554114371","","","","","","","","","","72","H","0","img/none_selected.jpg","","34","main_expt","",""
"","bandit","116","283732","0.0-76.0-0.0","73514396","wem/bandit_party_2","AQVXVMX61864S","either","7","77","","","","","","","0","1","0","","0.9503165686","0.8","0.6","0.4","0.2","0.9503165686","0.9180645683","0.4661188593","0.8008095759","","","","","","","","","","","","","","72","H","0","img/none_selected.jpg","","35","main_expt","",""
"","bandit","117","285261","0.0-77.0-0.0","73514396","wem/bandit_party_2","AQVXVMX61864S","either","7","18","","","","","","","1","0","0","0.9327615424","","0.8","0.6","0.4","0.2","","","","","0.9327615424","0.9095107155","0.4106027186","0.6925109639","","","","","","","","","","72","H","0","img/none_selected.jpg","","36","main_expt","",""
"","bandit","118","287012","0.0-78.0-0.0","73514396","wem/bandit_party_2","AQVXVMX61864S","either","7","243","","","","","","","1","0","0","0.9196494001","","0.8","0.6","0.4","0.2","","","","","0.9196494001","0.9405648028","0.5021263718","0.7764255689","","","","","","","","","","72","H","0","img/none_selected.jpg","","37","main_expt","",""
"","bandit","119","288581","0.0-79.0-0.0","73514396","wem/bandit_party_2","AQVXVMX61864S","either","7","58","","","","","","","1","0","0","0.928530414","","0.8","0.6","0.4","0.2","","","","","0.928530414","0.9058459248","0.5065313343","0.8392953971","","","","","","","","","","72","H","0","img/none_selected.jpg","","38","main_expt","",""
"","bandit","120","290419","0.0-80.0-0.0","73514396","wem/bandit_party_2","AQVXVMX61864S","either","7","328","","","","","","","0","0","1","0.9001545702","","0.8","0.6","0.4","0.2","","","","","0.9001545702","0.8784462517","0.6098243774","0.7614495855","","","","","","","","","","72","H","0","img/none_selected.jpg","","39","main_expt","",""
"","bandit","121","292389","0.0-81.0-0.0","73514396","wem/bandit_party_2","AQVXVMX61864S","either","7","460","","","","","","","1","0","0","0.8432481254","","0.8","0.6","0.4","0.2","","","","","0.8432481254","0.8408568766","0.679699592","0.8060705796","","","","","","","","","","72","H","0","img/none_selected.jpg","","40","main_expt","",""
"","bandit","122","294829","0.0-82.0-0.0","73514396","wem/bandit_party_2","AQVXVMX61864S","either","7","929","","","","","","","0","0","1","0.8326479564","","0.8","0.6","0.4","0.2","","","","","0.8326479564","0.811342849","0.616488607","0.7539991053","","","","","","","","","","72","H","0","img/none_selected.jpg","","41","main_expt","",""
"","bandit","123","296420","0.0-83.0-0.0","73514396","wem/bandit_party_2","AQVXVMX61864S","either","7","81","","","","","","","1","0","0","0.8602810298","","0.8","0.6","0.4","0.2","","","","","0.8602810298","0.8058808774","0.6307104111","0.7717369324","","","","","","","","","","72","H","0","img/none_selected.jpg","","42","main_expt","",""
"","bandit","124","298196","0.0-84.0-0.0","73514396","wem/bandit_party_2","AQVXVMX61864S","either","7","268","","","","","","","1","0","0","0.894365654","","0.8","0.6","0.4","0.2","","","","","0.894365654","0.7899844578","0.554567591","0.7625968551","","","","","","","","","","72","H","0","img/none_selected.jpg","","43","main_expt","",""
"","bandit","125","299862","0.0-85.0-0.0","73514396","wem/bandit_party_2","AQVXVMX61864S","either","7","158","","","","","","","0","1","0","","0.9033664713","0.8","0.6","0.4","0.2","0.9033664713","0.7654486741","0.5281861223","0.8488621298","","","","","","","","","","","","","","72","H","0","img/none_selected.jpg","","44","main_expt","",""
"","bandit","126","301813","0.0-86.0-0.0","73514396","wem/bandit_party_2","AQVXVMX61864S","either","7","441","","","","","","","0","0","1","0.8829964613","","0.8","0.6","0.4","0.2","","","","","0.8829964613","0.7674111825","0.5043334007","0.8522077325","","","","","","","","","","72","H","0","img/none_selected.jpg","","45","main_expt","",""
"","bandit","127","304589","0.0-87.0-0.0","73514396","wem/bandit_party_2","AQVXVMX61864S","either","7","1265","","","","","","","0","0","1","0.8674694879","","0.8","0.6","0.4","0.2","","","","","0.8674694879","0.6301273516","0.5426256613","0.8618589195","","","","","","","","","","72","H","0","img/none_selected.jpg","","46","main_expt","",""
"","bandit","128","306476","0.0-88.0-0.0","73514396","wem/bandit_party_2","AQVXVMX61864S","either","7","379","","","","","","","0","0","1","0.8886720039","","0.8","0.6","0.4","0.2","","","","","0.8886720039","0.7885969413","0.5024796093","0.905897833","","","","","","","","","","72","H","0","img/none_selected.jpg","","47","main_expt","",""
"","bandit","129","310924","0.0-89.0-0.0","73514396","wem/bandit_party_2","AQVXVMX61864S","either","7","2942","","","","","","","1","0","0","0.9229902905","","0.8","0.6","0.4","0.2","","","","","0.9229902905","0.7983786211","0.4689138593","0.8929468812","","","","","","","","","","72","H","0","img/none_selected.jpg","","48","main_expt","",""
"","bandit","130","313156","0.0-90.0-0.0","73514396","wem/bandit_party_2","AQVXVMX61864S","either","7","722","","","","","","","1","0","0","0.9141434128","","0.8","0.6","0.4","0.2","","","","","0.9141434128","0.8249867574","0.4439560463","0.854905512","","","","","","","","","","72","H","0","img/none_selected.jpg","","49","main_expt","",""
"","bandit","131","314828","0.0-91.0-0.0","73514396","wem/bandit_party_2","AQVXVMX61864S","either","7","164","","","","","","","0","1","0","","0.9181160336","0.8","0.6","0.4","0.2","0.9181160336","0.7532301684","0.4079842927","0.8363103738","","","","","","","","","","","","","","72","H","0","img/none_selected.jpg","","50","main_expt","",""
"","bandit","132","316815","0.0-92.0-0.0","73514396","wem/bandit_party_2","AQVXVMX61864S","either","7","474","","","","","","","0","1","0","","0.9266489825","0.8","0.6","0.4","0.2","0.9266489825","0.6750909554","0.4675199832","0.7168506975","","","","","","","","","","","","","","72","H","0","img/none_selected.jpg","","51","main_expt","",""
"","bandit","133","318645","0.0-93.0-0.0","73514396","wem/bandit_party_2","AQVXVMX61864S","either","7","322","","","","","","","1","0","0","0.9285581488","","0.8","0.6","0.4","0.2","","","","","0.9285581488","0.6762079337","0.4368052975","0.6507986152","","","","","","","","","","72","H","0","img/none_selected.jpg","","52","main_expt","",""
"","bandit","134","321109","0.0-94.0-0.0","73514396","wem/bandit_party_2","AQVXVMX61864S","either","7","951","","","","","","","1","0","0","0.9171724481","","0.8","0.6","0.4","0.2","","","","","0.9171724481","0.7882030045","0.4967902672","0.6531867096","","","","","","","","","","72","H","0","img/none_selected.jpg","","53","main_expt","",""
"","bandit","135","324062","0.0-95.0-0.0","73514396","wem/bandit_party_2","AQVXVMX61864S","either","7","1440","","","","","","","1","0","0","0.8709862684","","0.8","0.6","0.4","0.2","","","","","0.8709862684","0.8759533557","0.5321533453","0.6178049746","","","","","","","","","","72","H","0","img/none_selected.jpg","","54","main_expt","",""
"","bandit","136","326405","0.0-96.0-0.0","73514396","wem/bandit_party_2","AQVXVMX61864S","either","7","832","","","","","","","0","0","1","","0.9016108676","0.8","0.6","0.4","0.2","0.9016108676","0.9307112091","0.593251847","0.5501477499","","","","","","","","","","","","","","72","H","0","img/none_selected.jpg","","55","main_expt","",""
"","bandit","137","329084","0.0-97.0-0.0","73514396","wem/bandit_party_2","AQVXVMX61864S","either","7","1170","","","","","","","1","0","0","0.9123335035","","0.8","0.6","0.4","0.2","","","","","0.9123335035","0.9486344027","0.602347159","0.5181914202","","","","","","","","","","72","H","0","img/none_selected.jpg","","56","main_expt","",""
"","bandit","138","330708","0.0-98.0-0.0","73514396","wem/bandit_party_2","AQVXVMX61864S","either","7","112","","","","","","","0","1","0","","0.9338523698","0.8","0.6","0.4","0.2","0.9338523698","0.9450559811","0.736851976","0.5052283364","","","","","","","","","","","","","","72","H","0","img/none_selected.jpg","","57","main_expt","",""
"","bandit","139","332539","0.0-99.0-0.0","73514396","wem/bandit_party_2","AQVXVMX61864S","either","7","323","","","","","","","1","0","0","0.9023069914","","0.8","0.6","0.4","0.2","","","","","0.9023069914","0.960587128","0.7112026436","0.4494585665","","","","","","","","","","72","H","0","img/none_selected.jpg","","58","main_expt","",""
"","bandit","140","334116","0.0-100.0-0.0","73514396","wem/bandit_party_2","AQVXVMX61864S","either","7","68","","","","","","","1","0","0","0.903153386","","0.8","0.6","0.4","0.2","","","","","0.903153386","0.9272570312","0.7605469626","0.4431029696","","","","","","","","","","72","H","0","img/none_selected.jpg","","59","main_expt","",""
"","bandit","141","336204","0.0-101.0-0.0","73514396","wem/bandit_party_2","AQVXVMX61864S","either","7","578","","","","","","","1","0","0","0.8975643475","","0.8","0.6","0.4","0.2","","","","","0.8975643475","0.9075075979","0.6504737249","0.4213069188","","","","","","","","","","72","H","0","img/none_selected.jpg","","60","main_expt","",""
"","bandit","142","337934","0.0-102.0-0.0","73514396","wem/bandit_party_2","AQVXVMX61864S","either","7","223","","","","","","","1","0","0","0.8455107238","","0.8","0.6","0.4","0.2","","","","","0.8455107238","0.9011961695","0.7417300409","0.4735464544","","","","","","","","","","72","H","0","img/none_selected.jpg","","61","main_expt","",""
"","bandit","143","339671","0.0-103.0-0.0","73514396","wem/bandit_party_2","AQVXVMX61864S","either","7","222","","","","","","","0","1","0","","0.8423106617","0.8","0.6","0.4","0.2","0.8423106617","0.9025442902","0.6889655243","0.4260239588","","","","","","","","","","","","","","72","H","0","img/none_selected.jpg","","62","main_expt","",""
"","bandit","144","342274","0.0-104.0-0.0","73514396","wem/bandit_party_2","AQVXVMX61864S","either","7","1091","","","","","","","0","0","1","","0.6997676278","0.8","0.6","0.4","0.2","0.6997676278","0.900711875","0.7532165261","0.4048641732","","","","","","","","","","","","","","72","H","0","img/none_selected.jpg","","63","main_expt","",""
"","bandit","145","343988","0.0-105.0-0.0","73514396","wem/bandit_party_2","AQVXVMX61864S","either","7","205","","","","","","","0","0","1","0.8033841581","","0.8","0.6","0.4","0.2","","","","","0.8033841581","0.8445511995","0.7614619666","0.261135461","","","","","","","","","","72","H","0","img/none_selected.jpg","","64","main_expt","",""
"","bandit","146","345899","0.0-106.0-0.0","73514396","wem/bandit_party_2","AQVXVMX61864S","either","7","404","","","","","","","1","0","0","0.8458775523","","0.8","0.6","0.4","0.2","","","","","0.8458775523","0.7838665633","0.7474824059","0.4398785507","","","","","","","","","","72","H","0","img/none_selected.jpg","","65","main_expt","",""
"","bandit","147","347692","0.0-107.0-0.0","73514396","wem/bandit_party_2","AQVXVMX61864S","either","7","282","","","","","","","1","0","0","0.8612648572","","0.8","0.6","0.4","0.2","","","","","0.8612648572","0.8399866527","0.7083026918","0.4549930047","","","","","","","","","","72","H","0","img/none_selected.jpg","","66","main_expt","",""
"","bandit","148","350556","0.0-108.0-0.0","73514396","wem/bandit_party_2","AQVXVMX61864S","either","7","1356","","","","","","","1","0","0","0.8686018104","","0.8","0.6","0.4","0.2","","","","","0.8686018104","0.9109535201","0.6535093674","0.5565794079","","","","","","","","","","72","H","0","img/none_selected.jpg","","67","main_expt","",""
"","bandit","149","352748","0.0-109.0-0.0","73514396","wem/bandit_party_2","AQVXVMX61864S","either","7","686","","","","","","","1","0","0","0.8693437115","","0.8","0.6","0.4","0.2","","","","","0.8693437115","0.9064065477","0.4923739087","0.4211802827","","","","","","","","","","72","H","0","img/none_selected.jpg","","68","main_expt","",""
"","bandit","150","354493","0.0-110.0-0.0","73514396","wem/bandit_party_2","AQVXVMX61864S","either","7","238","","","","","","","1","0","0","0.9168970181","","0.8","0.6","0.4","0.2","","","","","0.9168970181","0.9315833469","0.4898097669","0.3687693293","","","","","","","","","","72","H","0","img/none_selected.jpg","","69","main_expt","",""
"","bandit","151","356420","0.0-111.0-0.0","73514396","wem/bandit_party_2","AQVXVMX61864S","either","7","416","","","","","","","1","0","0","0.9293527272","","0.8","0.6","0.4","0.2","","","","","0.9293527272","0.9393923483","0.4369614599","0.3460903474","","","","","","","","","","72","H","0","img/none_selected.jpg","","70","main_expt","",""
"","bandit","152","358334","0.0-112.0-0.0","73514396","wem/bandit_party_2","AQVXVMX61864S","either","7","400","","","","","","","0","0","1","0.949087413","","0.8","0.6","0.4","0.2","","","","","0.949087413","0.9568343035","0.5031037484","0.3278112836","","","","","","","","","","72","H","0","img/none_selected.jpg","","71","main_expt","",""
"","bandit","153","361439","0.0-113.0-0.0","73514396","wem/bandit_party_2","AQVXVMX61864S","either","7","1592","","","","","","","1","0","0","0.906373323","","0.8","0.6","0.4","0.2","","","","","0.906373323","0.947758434","0.5397903688","0.2720469766","","","","","","","","","","72","H","0","img/none_selected.jpg","","72","main_expt","",""
"","bandit","154","363004","0.0-114.0-0.0","73514396","wem/bandit_party_2","AQVXVMX61864S","either","7","52","","","","","","","1","0","0","0.93965919","","0.8","0.6","0.4","0.2","","","","","0.93965919","0.9052010222","0.5540652028","0.2451019773","","","","","","","","","","72","H","0","img/none_selected.jpg","","73","main_expt","",""
"","bandit","155","366755","0.0-115.0-0.0","73514396","wem/bandit_party_2","AQVXVMX61864S","either","7","2244","","","","","","","1","0","0","0.9416319858","","0.8","0.6","0.4","0.2","","","","","0.9416319858","0.927704936","0.61733434","0.2645862521","","","","","","","","","","72","H","0","img/none_selected.jpg","","74","main_expt","",""
"","bandit","156","368516","0.0-116.0-0.0","73514396","wem/bandit_party_2","AQVXVMX61864S","either","7","252","","","","","","","1","0","0","0.9535384208","","0.8","0.6","0.4","0.2","","","","","0.9535384208","0.8769567517","0.6341908543","0.2298582","","","","","","","","","","72","H","0","img/none_selected.jpg","","75","main_expt","",""
"","bandit","157","370558","0.0-117.0-0.0","73514396","wem/bandit_party_2","AQVXVMX61864S","either","7","529","","","","","","","1","0","0","0.9585479729","","0.8","0.6","0.4","0.2","","","","","0.9585479729","0.8456064169","0.6355577018","0.3460043445","","","","","","","","","","72","H","0","img/none_selected.jpg","","76","main_expt","",""
"","bandit","158","372532","0.0-118.0-0.0","73514396","wem/bandit_party_2","AQVXVMX61864S","either","7","467","","","","","","","1","0","0","0.9610253773","","0.8","0.6","0.4","0.2","","","","","0.9610253773","0.8325595713","0.7055426269","0.2526488818","","","","","","","","","","72","H","0","img/none_selected.jpg","","77","main_expt","",""
"","bandit","159","374484","0.0-119.0-0.0","73514396","wem/bandit_party_2","AQVXVMX61864S","either","7","444","","","","","","","1","0","0","0.9580320452","","0.8","0.6","0.4","0.2","","","","","0.9580320452","0.9128982172","0.6137882531","0.2625396382","","","","","","","","","","72","H","0","img/none_selected.jpg","","78","main_expt","",""
"","bandit","160","376236","0.0-120.0-0.0","73514396","wem/bandit_party_2","AQVXVMX61864S","either","7","245","","","","","","","1","0","0","0.9403834825","","0.8","0.6","0.4","0.2","","","","","0.9403834825","0.9213349282","0.668392527","0.2957535945","","","","","","","","","","72","H","0","img/none_selected.jpg","","79","main_expt","",""
"","bandit","161","377812","0.0-121.0-0.0","73514396","wem/bandit_party_2","AQVXVMX61864S","either","7","69","","","","","","","1","0","0","0.946171157","","0.8","0.6","0.4","0.2","","","","","0.946171157","0.8935563746","0.7457361895","0.1831261498","","","","","","","","","","72","H","0","img/none_selected.jpg","","80","main_expt","",""
"","bandit","162","379371","0.0-122.0-0.0","73514396","wem/bandit_party_2","AQVXVMX61864S","either","7","50","","","","","","","1","0","0","0.932831263","","0.8","0.6","0.4","0.2","","","","","0.9800092583","0.932831263","0.8028050151","0.1450659425","","","","","","","","","","74","J","1","","","81","main_expt","",""
"","bandit","163","380982","0.0-123.0-0.0","73514396","wem/bandit_party_2","AQVXVMX61864S","either","7","99","","","","","","","1","0","0","0.9403650082","","0.8","0.6","0.4","0.2","","","","","0.9666397243","0.9403650082","0.8727424511","0.1486641529","","","","","","","","","","74","J","1","","","82","main_expt","",""
"","bandit","164","382533","0.0-124.0-0.0","73514396","wem/bandit_party_2","AQVXVMX61864S","either","7","38","","","","","","","1","0","0","0.9066396881","","0.8","0.6","0.4","0.2","","","","","0.9637330664","0.9066396881","0.8283068274","0.1567811066","","","","","","","","","","74","J","1","","","83","main_expt","",""
"","bandit","165","384388","0.0-125.0-0.0","73514396","wem/bandit_party_2","AQVXVMX61864S","either","7","345","","","","","","","0","1","0","","0.8962006295","0.8","0.6","0.4","0.2","0.9617949183","0.8962006295","0.8030064341","0.196091916","","","","","","","","","","","","","","74","J","1","","","84","main_expt","",""
"","bandit","166","386178","0.0-126.0-0.0","73514396","wem/bandit_party_2","AQVXVMX61864S","either","7","283","","","","","","","1","0","0","0.9093999993","","0.8","0.6","0.4","0.2","","","","","0.9561985801","0.9093999993","0.8622567251","0.1512390112","","","","","","","","","","74","J","1","","","85","main_expt","",""
"","bandit","167","388476","0.0-127.0-0.0","73514396","wem/bandit_party_2","AQVXVMX61864S","either","7","791","","","","","","","0","0","1","","0.9326862648","0.8","0.6","0.4","0.2","0.9422505668","0.9326862648","0.896584634","0.1486491559","","","","","","","","","","","","","","74","J","1","","","86","main_expt","",""
"","bandit","168","391045","0.0-128.0-0.0","73514396","wem/bandit_party_2","AQVXVMX61864S","either","7","1056","","","","","","","1","0","0","0.9039434857","","0.8","0.6","0.4","0.2","","","","","0.926711091","0.9039434857","0.9208758521","0.1047878604","","","","","","","","","","74","J","1","","","87","main_expt","",""
"","bandit","169","392764","0.0-129.0-0.0","73514396","wem/bandit_party_2","AQVXVMX61864S","either","7","211","","","","","","","0","1","0","","0.9195127861","0.8","0.6","0.4","0.2","0.9092576496","0.9195127861","0.9266301883","0.07038149384","","","","","","","","","","","","","","74","J","1","","","88","main_expt","",""
"","bandit","170","396084","0.0-130.0-0.0","73514396","wem/bandit_party_2","AQVXVMX61864S","either","7","1809","","","","","","","1","0","0","0.9225053559","","0.8","0.6","0.4","0.2","","","","","0.8948591238","0.9225053559","0.9259215542","0.1311535074","","","","","","","","","","74","J","1","","","89","main_expt","",""
"","bandit","171","399397","0.0-131.0-0.0","73514396","wem/bandit_party_2","AQVXVMX61864S","either","7","1805","","","","","","","0","1","0","","0.9014563988","0.8","0.6","0.4","0.2","0.8716727139","0.9014563988","0.9400480964","0.1241310956","","","","","","","","","","","","","","74","J","1","","","90","main_expt","",""
"","bandit","172","401462","0.0-132.0-0.0","73514396","wem/bandit_party_2","AQVXVMX61864S","either","7","549","","","","","","","0","1","0","","0.9162570652","0.8","0.6","0.4","0.2","0.8969144331","0.9162570652","0.8961855863","0.09664170694","","","","","","","","","","","","","","74","J","1","","","91","main_expt","",""
"","bandit","173","406044","0.0-133.0-0.0","73514396","wem/bandit_party_2","AQVXVMX61864S","either","7","3075","","","","","","","0","0","1","","0.9171553871","0.8","0.6","0.4","0.2","0.9171199264","0.9171553871","0.9211437923","0.09586364307","","","","","","","","","","","","","","74","J","1","","","92","main_expt","",""
"","bandit","174","407660","0.0-134.0-0.0","73514396","wem/bandit_party_2","AQVXVMX61864S","either","7","109","","","","","","","1","0","0","0.9463284029","","0.8","0.6","0.4","0.2","","","","","0.9593171332","0.9463284029","0.8947860396","0.08304118766","","","","","","","","","","74","J","1","","","93","main_expt","",""
"","bandit","175","410709","0.0-135.0-0.0","73514396","wem/bandit_party_2","AQVXVMX61864S","either","7","1538","","","","","","","1","0","0","0.9477079066","","0.8","0.6","0.4","0.2","","","","","0.959226596","0.9477079066","0.822540961","0.1222865453","","","","","","","","","","74","J","1","","","94","main_expt","",""
"","bandit","176","413291","0.0-136.0-0.0","73514396","wem/bandit_party_2","AQVXVMX61864S","either","7","1074","","","","","","","1","0","0","0.9474919074","","0.8","0.6","0.4","0.2","","","","","0.947105423","0.9474919074","0.8288041746","0.211460517","","","","","","","","","","74","J","1","","","95","main_expt","",""
"","bandit","177","415683","0.0-137.0-0.0","73514396","wem/bandit_party_2","AQVXVMX61864S","either","7","880","","","","","","","0","1","0","","0.9722490369","0.8","0.6","0.4","0.2","0.937205139","0.9722490369","0.8217366877","0.2757920232","","","","","","","","","","","","","","74","J","1","","","96","main_expt","",""
"","bandit","178","418004","0.0-138.0-0.0","73514396","wem/bandit_party_2","AQVXVMX61864S","either","7","812","","","","","","","0","1","0","","0.980822097","0.8","0.6","0.4","0.2","0.9472767204","0.980822097","0.725285089","0.2646876298","","","","","","","","","","","","","","74","J","1","","","97","main_expt","",""
"","bandit","179","419516","0.0-139.0-0.0","73514396","wem/bandit_party_2","AQVXVMX61864S","either","7","1","","","","","","","1","0","0","0.9761591307","","0.8","0.6","0.4","0.2","","","","","0.962959595","0.9761591307","0.7958966199","0.3278454636","","","","","","","","","","74","J","1","","","98","main_expt","",""
"","bandit","180","421407","0.0-140.0-0.0","73514396","wem/bandit_party_2","AQVXVMX61864S","either","7","376","","","","","","","0","1","0","","0.9597391097","0.8","0.6","0.4","0.2","0.9720903607","0.9597391097","0.7741840332","0.4641870332","","","","","","","","","","","","","","74","J","1","","","99","main_expt","",""
"","bandit","181","422924","0.0-141.0-0.0","73514396","wem/bandit_party_2","AQVXVMX61864S","either","7","7","","","","","","","1","0","0","0.9557148533","","0.8","0.6","0.4","0.2","","","","","0.9737169538","0.9557148533","0.7934767162","0.3972344865","","","","","","","","","","74","J","1","","","100","main_expt","",""
"","bandit","182","425437","0.0-142.0-0.0","73514396","wem/bandit_party_2","AQVXVMX61864S","either","7","1005","","","","","","","1","0","0","0.9687934467","","0.8","0.6","0.4","0.2","","","","","0.986468331","0.9687934467","0.8307638242","0.4395304924","","","","","","","","","","74","J","1","","","101","main_expt","",""
"","bandit","183","427650","0.0-143.0-0.0","73514396","wem/bandit_party_2","AQVXVMX61864S","either","7","707","","","","","","","1","0","0","0.9713318577","","0.8","0.6","0.4","0.2","","","","","0.9859557102","0.9713318577","0.7737236933","0.5248298482","","","","","","","","","","74","J","1","","","102","main_expt","",""
"","bandit","184","429357","0.0-144.0-0.0","73514396","wem/bandit_party_2","AQVXVMX61864S","either","7","197","","","","","","","1","0","0","0.9768128314","","0.8","0.6","0.4","0.2","","","","","0.9828698412","0.9768128314","0.8168427084","0.6218364577","","","","","","","","","","74","J","1","","","103","main_expt","",""
"","bandit","185","431141","0.0-145.0-0.0","73514396","wem/bandit_party_2","AQVXVMX61864S","either","7","274","","","","","","","0","1","0","","0.9566706727","0.8","0.6","0.4","0.2","0.9655029871","0.9566706727","0.7020104164","0.5528563194","","","","","","","","","","","","","","74","J","1","","","104","main_expt","",""
"","bandit","186","433063","0.0-146.0-0.0","73514396","wem/bandit_party_2","AQVXVMX61864S","either","7","408","","","","","","","1","0","0","0.9352711559","","0.8","0.6","0.4","0.2","","","","","0.9587067199","0.9352711559","0.6750414237","0.515821512","","","","","","","","","","74","J","1","","","105","main_expt","",""
"","bandit","187","435061","0.0-147.0-0.0","73514396","wem/bandit_party_2","AQVXVMX61864S","either","7","483","","","","","","","0","1","0","","0.8980036198","0.8","0.6","0.4","0.2","0.9358961366","0.8980036198","0.5886413089","0.5380341879","","","","","","","","","","","","","","74","J","1","","","106","main_expt","",""
"","bandit","188","437196","0.0-148.0-0.0","73514396","wem/bandit_party_2","AQVXVMX61864S","either","7","623","","","","","","","0","0","1","0.9175797088","","0.8","0.6","0.4","0.2","","","","","0.8829949032","0.9175797088","0.5507707533","0.3291998873","","","","","","","","","","74","J","1","","","107","main_expt","",""
"","bandit","189","438892","0.0-149.0-0.0","73514396","wem/bandit_party_2","AQVXVMX61864S","either","7","190","","","","","","","0","0","1","","0.8966825343","0.8","0.6","0.4","0.2","0.7668100276","0.8966825343","0.4325904974","0.3608627265","","","","","","","","","","","","","","74","J","1","","","108","main_expt","",""
"","bandit","190","441340","0.0-150.0-0.0","73514396","wem/bandit_party_2","AQVXVMX61864S","either","7","939","","","","","","","1","0","0","0.8883819791","","0.8","0.6","0.4","0.2","","","","","0.7652463225","0.8883819791","0.3735159861","0.3837942066","","","","","","","","","","74","J","1","","","109","main_expt","",""
"","bandit","191","443522","0.0-151.0-0.0","73514396","wem/bandit_party_2","AQVXVMX61864S","either","7","677","","","","","","","0","1","0","","0.9087011364","0.8","0.6","0.4","0.2","0.7974745759","0.9087011364","0.3704440872","0.3019365294","","","","","","","","","","","","","","74","J","1","","","110","main_expt","",""
"","bandit","192","446338","0.0-152.0-0.0","73514396","wem/bandit_party_2","AQVXVMX61864S","either","7","1311","","","","","","","0","1","0","","0.9337026812","0.8","0.6","0.4","0.2","0.812352323","0.9337026812","0.2749067499","0.3483008865","","","","","","","","","","","","","","74","J","1","","","111","main_expt","",""
"","bandit","193","447907","0.0-153.0-0.0","73514396","wem/bandit_party_2","AQVXVMX61864S","either","7","62","","","","","","","1","0","0","0.9113388615","","0.8","0.6","0.4","0.2","","","","","0.7428975936","0.9113388615","0.2734667401","0.4342302697","","","","","","","","","","74","J","1","","","112","main_expt","",""
"","bandit","194","449900","0.0-154.0-0.0","73514396","wem/bandit_party_2","AQVXVMX61864S","either","7","481","","","","","","","1","0","0","0.8980528729","","0.8","0.6","0.4","0.2","","","","","0.7139653514","0.8980528729","0.2291946885","0.5187246657","","","","","","","","","","74","J","1","","","113","main_expt","",""
"","bandit","195","451645","0.0-155.0-0.0","73514396","wem/bandit_party_2","AQVXVMX61864S","either","7","232","","","","","","","0","1","0","","0.8036326458","0.8","0.6","0.4","0.2","0.7945657698","0.8036326458","0.2413339081","0.5381742134","","","","","","","","","","","","","","74","J","1","","","114","main_expt","",""
"","bandit","196","453460","0.0-156.0-0.0","73514396","wem/bandit_party_2","AQVXVMX61864S","either","7","305","","","","","","","0","1","0","","0.8700945717","0.8","0.6","0.4","0.2","0.8405588069","0.8700945717","0.3092826039","0.4785029821","","","","","","","","","","","","","","74","J","1","","","115","main_expt","",""
"","bandit","197","455059","0.0-157.0-0.0","73514396","wem/bandit_party_2","AQVXVMX61864S","either","7","92","","","","","","","0","1","0","","0.8895114993","0.8","0.6","0.4","0.2","0.8641798474","0.8895114993","0.2361366225","0.4654757386","","","","","","","","","","","","","","74","J","1","","","116","main_expt","",""
"","bandit","198","457092","0.0-158.0-0.0","73514396","wem/bandit_party_2","AQVXVMX61864S","either","7","521","","","","","","","0","1","0","","0.8936856952","0.8","0.6","0.4","0.2","0.8756768431","0.8936856952","0.218402711","0.4578633225","","","","","","","","","","","","","","74","J","1","","","117","main_expt","",""
"","bandit","199","459099","0.0-159.0-0.0","73514396","wem/bandit_party_2","AQVXVMX61864S","either","7","497","","","","","","","0","1","0","","0.8077127093","0.8","0.6","0.4","0.2","0.9015269718","0.8077127093","0.2003641109","0.4773941538","","","","","","","","","","","","","","74","J","1","","","118","main_expt","",""
"","bandit","200","460699","0.0-160.0-0.0","73514396","wem/bandit_party_2","AQVXVMX61864S","either","7","94","","","","","","","1","0","0","0.8901108642","","0.8","0.6","0.4","0.2","","","","","0.8709738884","0.8901108642","0.1375137305","0.508374463","","","","","","","","","","74","J","1","","","119","main_expt","",""
"","bandit","201","462514","0.0-161.0-0.0","73514396","wem/bandit_party_2","AQVXVMX61864S","either","7","304","","","","","","","0","1","0","","0.8731124259","0.8","0.6","0.4","0.2","0.8268338002","0.8731124259","0.08656631556","0.4294310012","","","","","","","","","","","","","","74","J","1","","","120","main_expt","",""
"","bandit","202","464597","0.0-162.0-0.0","73514396","wem/bandit_party_2","AQVXVMX61864S","either","7","575","","","","","","","1","0","0","0.8509174952","","0.8","0.6","0.4","0.2","","","","","0.8432616236","0.8509174952","0.07812634859","0.3933985885","","","","","","","","","","74","J","1","","","121","main_expt","",""
"","bandit","203","466299","0.0-163.0-0.0","73514396","wem/bandit_party_2","AQVXVMX61864S","either","7","192","","","","","","","1","0","0","0.8707856005","","0.8","0.6","0.4","0.2","","","","","0.8128728295","0.8707856005","0.09046411854","0.2641409089","","","","","","","","","","74","J","1","","","122","main_expt","",""
"","bandit","204","468390","0.0-164.0-0.0","73514396","wem/bandit_party_2","AQVXVMX61864S","either","7","582","","","","","","","1","0","0","0.7592524618","","0.8","0.6","0.4","0.2","","","","","0.752198112","0.7592524618","0.1132512529","0.2491349268","","","","","","","","","","74","J","1","","","123","main_expt","",""
"","bandit","205","470459","0.0-165.0-0.0","73514396","wem/bandit_party_2","AQVXVMX61864S","either","7","562","","","","","","","1","0","0","0.7330206325","","0.8","0.6","0.4","0.2","","","","","0.7117781612","0.7330206325","0.09419269712","0.2587226179","","","","","","","","","","74","J","1","","","124","main_expt","",""
"","bandit","206","472355","0.0-166.0-0.0","73514396","wem/bandit_party_2","AQVXVMX61864S","either","7","390","","","","","","","1","0","0","0.6903693331","","0.8","0.6","0.4","0.2","","","","","0.7177409252","0.6903693331","0.110513045","0.2925679814","","","","","","","","","","74","J","1","","","125","main_expt","",""
"","bandit","207","474146","0.0-167.0-0.0","73514396","wem/bandit_party_2","AQVXVMX61864S","either","7","286","","","","","","","0","1","0","","0.6370641568","0.8","0.6","0.4","0.2","0.7240917845","0.6370641568","0.07088043536","0.3997536411","","","","","","","","","","","","","","74","J","1","","","126","main_expt","",""
"","bandit","208","476291","0.0-168.0-0.0","73514396","wem/bandit_party_2","AQVXVMX61864S","either","7","638","","","","","","","1","0","0","0.6192694325","","0.8","0.6","0.4","0.2","","","","","0.6788578752","0.6192694325","0.1041728595","0.4120812041","","","","","","","","","","74","J","1","","","127","main_expt","",""
"","bandit","209","478347","0.0-169.0-0.0","73514396","wem/bandit_party_2","AQVXVMX61864S","either","7","550","","","","","","","0","1","0","","0.559348281","0.8","0.6","0.4","0.2","0.6257789885","0.559348281","0.1006708935","0.3731276689","","","","","","","","","","","","","","74","J","1","","","128","main_expt","",""
"","bandit","210","480234","0.0-170.0-0.0","73514396","wem/bandit_party_2","AQVXVMX61864S","either","7","381","","","","","","","0","0","1","","0.610360397","0.8","0.6","0.4","0.2","0.4761868647","0.610360397","0.1336488566","0.3263017501","","","","","","","","","","","","","","74","J","1","","","129","main_expt","",""
"","bandit","211","482573","0.0-171.0-0.0","73514396","wem/bandit_party_2","AQVXVMX61864S","either","7","832","","","","","","","0","0","1","","0.5737783772","0.8","0.6","0.4","0.2","0.4745188583","0.5737783772","0.1271550391","0.3226142564","","","","","","","","","","","","","","74","J","1","","","130","main_expt","",""
"","bandit","212","485348","0.0-172.0-0.0","73514396","wem/bandit_party_2","AQVXVMX61864S","either","7","1269","","","","","","","0","1","0","","0.6252154127","0.8","0.6","0.4","0.2","0.4674409752","0.6252154127","0.1594360192","0.3907136596","","","","","","","","","","","","","","74","J","1","","","131","main_expt","",""
"","bandit","213","488682","0.0-173.0-0.0","73514396","wem/bandit_party_2","AQVXVMX61864S","either","7","1824","","","","","","","0","0","1","0.6473056352","","0.8","0.6","0.4","0.2","","","","","0.368649462","0.6473056352","0.1027658661","0.4983036492","","","","","","","","","","74","J","1","","","132","main_expt","",""
"","bandit","214","491850","0.0-174.0-0.0","73514396","wem/bandit_party_2","AQVXVMX61864S","either","7","1663","","","","","","","0","0","1","0.4595123468","","0.8","0.6","0.4","0.2","","","","","0.4313577514","0.4595123468","0.1223548883","0.6347393695","","","","","","","","","","74","J","1","","","133","main_expt","",""
"","bandit","215","493540","0.0-175.0-0.0","73514396","wem/bandit_party_2","AQVXVMX61864S","either","7","178","","","","","","","1","0","0","0.3043385566","","0.8","0.6","0.4","0.2","","","","","0.3692150919","0.3043385566","0.1063029331","0.6037412299","","","","","","","","","","74","J","1","","","134","main_expt","",""
"","bandit","216","495797","0.0-176.0-0.0","73514396","wem/bandit_party_2","AQVXVMX61864S","either","7","749","","","","","","","0","0","1","0.340857567","","0.8","0.6","0.4","0.2","","","","","0.3077662431","0.340857567","0.080644856","0.5511090861","","","","","","","","","","74","J","1","","","135","main_expt","",""
"","bandit","217","498252","0.0-177.0-0.0","73514396","wem/bandit_party_2","AQVXVMX61864S","either","7","942","","","","","","","0","0","1","","0.2655810755","0.8","0.6","0.4","0.2","0.314969588","0.2655810755","0.1359867045","0.585911414","","","","","","","","","","","","","","74","J","1","","","136","main_expt","",""
"","bandit","218","501347","0.0-178.0-0.0","73514396","wem/bandit_party_2","AQVXVMX61864S","either","7","1580","","","","","","","0","0","1","0.3025530854","","0.8","0.6","0.4","0.2","","","","","0.3590847215","0.3025530854","0.168344283","0.5805905743","","","","","","","","","","74","J","1","","","137","main_expt","",""
"","bandit","219","503589","0.0-179.0-0.0","73514396","wem/bandit_party_2","AQVXVMX61864S","either","7","733","","","","","","","0","0","1","0.2888348812","","0.8","0.6","0.4","0.2","","","","","0.3588584756","0.2888348812","0.1867455324","0.6357737786","","","","","","","","","","74","J","1","","","138","main_expt","",""
"","bandit","220","506555","0.0-180.0-0.0","73514396","wem/bandit_party_2","AQVXVMX61864S","either","7","1460","","","","","","","1","0","0","0.2463208975","","0.8","0.6","0.4","0.2","","","","","0.4289761638","0.2463208975","0.2277874407","0.66639317","","","","","","","","","","74","J","1","","","139","main_expt","",""
"","bandit","221","508371","0.0-181.0-0.0","73514396","wem/bandit_party_2","AQVXVMX61864S","either","7","310","","","","","","","0","0","1","0.3801639999","","0.8","0.6","0.4","0.2","","","","","0.3801639999","0.273109751","0.2577820179","0.6365789307","","","","","","","","","","72","H","0","img/none_selected.jpg","","140","main_expt","",""
"","bandit","222","509964","0.0-182.0-0.0","73514396","wem/bandit_party_2","AQVXVMX61864S","either","7","85","","","","","","","0","0","1","0.2445936549","","0.8","0.6","0.4","0.2","","","","","0.2445936549","0.3355442787","0.3674069736","0.6045632144","","","","","","","","","","72","H","0","img/none_selected.jpg","","141","main_expt","",""
"","bandit","223","512380","0.0-183.0-0.0","73514396","wem/bandit_party_2","AQVXVMX61864S","either","7","904","","","","","","","0","1","0","","0.3394066497","0.8","0.6","0.4","0.2","0.3394066497","0.2781999234","0.4345417514","0.5148607161","","","","","","","","","","","","","","72","H","0","img/none_selected.jpg","","142","main_expt","",""
"","bandit","224","514627","0.0-184.0-0.0","73514396","wem/bandit_party_2","AQVXVMX61864S","either","7","734","","","","","","","0","0","1","0.2599467226","","0.8","0.6","0.4","0.2","","","","","0.2899754881","0.2599467226","0.3811672827","0.4754154836","","","","","","","","","","74","J","1","","","143","main_expt","",""
"","bandit","225","516243","0.0-185.0-0.0","73514396","wem/bandit_party_2","AQVXVMX61864S","either","7","109","","","","","","","0","0","1","","0.2754059391","0.8","0.6","0.4","0.2","0.3701332444","0.2353144144","0.2754059391","0.516029258","","","","","","","","","","","","","","75","K","2","","","144","main_expt","",""
"","bandit","226","517827","0.0-186.0-0.0","73514396","wem/bandit_party_2","AQVXVMX61864S","either","7","78","","","","","","","1","0","0","0.3322753171","","0.8","0.6","0.4","0.2","","","","","0.3322753171","0.2120114759","0.2773400324","0.6646605279","","","","","","","","","","72","H","0","img/none_selected.jpg","","145","main_expt","",""
"","bandit","227","520117","0.0-187.0-0.0","73514396","wem/bandit_party_2","AQVXVMX61864S","either","7","780","","","","","","","0","1","0","","0.3203507811","0.8","0.6","0.4","0.2","0.3203507811","0.176067728","0.2780426824","0.6331546467","","","","","","","","","","","","","","72","H","0","img/none_selected.jpg","","146","main_expt","",""
"","bandit","228","521738","0.0-188.0-0.0","73514396","wem/bandit_party_2","AQVXVMX61864S","either","7","109","","","","","","","1","0","0","0.304761248","","0.8","0.6","0.4","0.2","","","","","0.304761248","0.1329453439","0.3373608721","0.6356747602","","","","","","","","","","72","H","0","img/none_selected.jpg","","147","main_expt","",""
"","bandit","229","523468","0.0-189.0-0.0","73514396","wem/bandit_party_2","AQVXVMX61864S","either","7","223","","","","","","","0","0","1","0.1465103875","","0.8","0.6","0.4","0.2","","","","","0.3809280674","0.1465103875","0.3529594122","0.6301772709","","","","","","","","","","74","J","1","","","148","main_expt","",""
"","bandit","230","525725","0.0-190.0-0.0","73514396","wem/bandit_party_2","AQVXVMX61864S","either","7","743","","","","","","","0","0","1","0.1190451538","","0.8","0.6","0.4","0.2","","","","","0.3997986218","0.1190451538","0.3878328211","0.6640591829","","","","","","","","","","74","J","1","","","149","main_expt","",""
"","bandit","231","527324","0.0-191.0-0.0","73514396","wem/bandit_party_2","AQVXVMX61864S","either","7","86","","","","","","","0","0","1","0.3159341416","","0.8","0.6","0.4","0.2","","","","","0.3159341416","0.1195570164","0.42943501","0.6592717552","","","","","","","","","","72","H","0","img/none_selected.jpg","","150","main_expt","",""
"","bandit","232","528889","0.0-192.0-0.0","73514396","wem/bandit_party_2","AQVXVMX61864S","either","7","47","","","","","","","0","0","1","0.3052853957","","0.8","0.6","0.4","0.2","","","","","0.3052853957","0.100492686","0.5142681232","0.5928743102","","","","","","","","","","72","H","0","img/none_selected.jpg","","151","main_expt","",""
"","bandit","233","530557","0.0-193.0-0.0","73514396","wem/bandit_party_2","AQVXVMX61864S","either","7","159","","","","","","","0","0","1","0.1896018403","","0.8","0.6","0.4","0.2","","","","","0.1896018403","0.1030367897","0.6321073962","0.6822187145","","","","","","","","","","72","H","0","img/none_selected.jpg","","152","main_expt","",""
"","bandit","234","532459","0.0-194.0-0.0","73514396","wem/bandit_party_2","AQVXVMX61864S","either","7","395","","","","","","","1","0","0","0.6965670792","","0.8","0.6","0.4","0.2","","","","","0.2439656658","0.2059045691","0.6965670792","0.6832005509","","","","","","","","","","75","K","2","","","153","main_expt","",""
"","bandit","235","534356","0.0-195.0-0.0","73514396","wem/bandit_party_2","AQVXVMX61864S","either","7","384","","","","","","","0","0","1","","0.6516005735","0.8","0.6","0.4","0.2","0.3068434149","0.2921647579","0.6516005735","0.7109729062","","","","","","","","","","","","","","75","K","2","","","154","main_expt","",""
"","bandit","236","537668","0.0-196.0-0.0","73514396","wem/bandit_party_2","AQVXVMX61864S","either","7","1806","","","","","","","1","0","0","0.7291318088","","0.8","0.6","0.4","0.2","","","","","0.2314644909","0.1789694193","0.7291318088","0.6975465092","","","","","","","","","","75","K","2","","","155","main_expt","",""
"","bandit","237","539708","0.0-197.0-0.0","73514396","wem/bandit_party_2","AQVXVMX61864S","either","7","527","","","","","","","0","0","1","","0.6273572288","0.8","0.6","0.4","0.2","0.2154001061","0.2187195075","0.6273572288","0.6580608271","","","","","","","","","","","","","","75","K","2","","","156","main_expt","",""
"","bandit","238","541389","0.0-198.0-0.0","73514396","wem/bandit_party_2","AQVXVMX61864S","either","7","166","","","","","","","0","0","1","","0.566197257","0.8","0.6","0.4","0.2","0.1648135251","0.2669834713","0.566197257","0.5695802138","","","","","","","","","","","","","","75","K","2","","","157","main_expt","",""
"","bandit","239","544091","0.0-199.0-0.0","73514396","wem/bandit_party_2","AQVXVMX61864S","either","7","1190","","","","","","","0","1","0","","0.4523642269","0.8","0.6","0.4","0.2","0.2215973425","0.4240307821","0.4523642269","0.4733954301","","","","","","","","","","","","","","75","K","2","","","158","main_expt","",""
"","bandit","240","545667","0.0-200.0-0.0","73514396","wem/bandit_party_2","AQVXVMX61864S","either","7","70","","","","","","","0","1","0","","0.3991212054","0.8","0.6","0.4","0.2","0.2243274726","0.3840951437","0.3991212054","0.5619817243","","","","","","","","","","","","","","75","K","2","","","159","main_expt","",""
"","bandit","241","547244","0.0-201.0-0.0","73514396","wem/bandit_party_2","AQVXVMX61864S","either","7","66","","","","","","","0","0","1","","0.3566558104","0.8","0.6","0.4","0.2","0.2061161075","0.4098147986","0.3566558104","0.4701658979","","","","","","","","","","","","","","75","K","2","","","160","main_expt","",""
"","bandit","242","549876","0.0-202.0-0.0","73514396","wem/bandit_party_2","AQVXVMX61864S","either","7","1120","","","","","","","0","0","1","","0.209200141","0.8","0.6","0.4","0.2","0.209200141","0.4027252302","0.4430908041","0.5673671472","","","","","","","","","","","","","","72","H","0","img/none_selected.jpg","","161","main_expt","",""
"","bandit","243","551605","0.0-203.0-0.0","73514396","wem/bandit_party_2","AQVXVMX61864S","either","7","217","","","","","","","0","0","1","","0.1477343718","0.8","0.6","0.4","0.2","0.1477343718","0.3824170733","0.3966098285","0.4921809208","","","","","","","","","","","","","","72","H","0","img/none_selected.jpg","","162","main_expt","",""
"","bandit","244","553827","0.0-204.0-0.0","73514396","wem/bandit_party_2","AQVXVMX61864S","either","7","704","","","","","","","0","1","0","","0.1525050104","0.8","0.6","0.4","0.2","0.1525050104","0.3352280924","0.3455868331","0.4204505308","","","","","","","","","","","","","","72","H","0","img/none_selected.jpg","","163","main_expt","",""
"","bandit","245","555355","0.0-205.0-0.0","73514396","wem/bandit_party_2","AQVXVMX61864S","either","7","21","","","","","","","0","0","1","0.08831047354","","0.8","0.6","0.4","0.2","","","","","0.08831047354","0.3379187571","0.3368969945","0.534748173","","","","","","","","","","72","H","0","img/none_selected.jpg","","164","main_expt","",""
"","bandit","246","557476","0.0-206.0-0.0","73514396","wem/bandit_party_2","AQVXVMX61864S","either","7","605","","","","","","","0","0","1","","0.1035482763","0.8","0.6","0.4","0.2","0.1035482763","0.3160546663","0.3767562303","0.4724966102","","","","","","","","","","","","","","72","H","0","img/none_selected.jpg","","165","main_expt","",""
"","bandit","247","560621","0.0-207.0-0.0","73514396","wem/bandit_party_2","AQVXVMX61864S","either","7","1636","","","","","","","0","0","1","0.06888190676","","0.8","0.6","0.4","0.2","","","","","0.06888190676","0.3058359067","0.4727650462","0.5280505203","","","","","","","","","","72","H","0","img/none_selected.jpg","","166","main_expt","",""
"","bandit","248","564093","0.0-208.0-0.0","73514396","wem/bandit_party_2","AQVXVMX61864S","either","7","1957","","","","","","","0","0","1","0.06051452263","","0.8","0.6","0.4","0.2","","","","","0.06051452263","0.2561334246","0.6140635231","0.589670135","","","","","","","","","","72","H","0","img/none_selected.jpg","","167","main_expt","",""
"","bandit","249","567771","0.0-209.0-0.0","73514396","wem/bandit_party_2","AQVXVMX61864S","either","7","2165","","","","","","","0","0","1","0.07905307949","","0.8","0.6","0.4","0.2","","","","","0.07905307949","0.2459084815","0.5629225295","0.5058201204","","","","","","","","","","72","H","0","img/none_selected.jpg","","168","main_expt","",""
"","bandit","250","569638","0.0-210.0-0.0","73514396","wem/bandit_party_2","AQVXVMX61864S","either","7","353","","","","","","","0","0","1","0.07051596905","","0.8","0.6","0.4","0.2","","","","","0.07051596905","0.2138460752","0.6456076899","0.4102709571","","","","","","","","","","72","H","0","img/none_selected.jpg","","169","main_expt","",""
"","bandit","251","573878","0.0-211.0-0.0","73514396","wem/bandit_party_2","AQVXVMX61864S","either","7","2727","","","","","","","0","0","1","0.1056762318","","0.8","0.6","0.4","0.2","","","","","0.1056762318","0.1642406351","0.719827795","0.5061826445","","","","","","","","","","72","H","0","img/none_selected.jpg","","170","main_expt","",""
"","bandit","252","576404","0.0-212.0-0.0","73514396","wem/bandit_party_2","AQVXVMX61864S","either","7","1013","","","","","","","0","0","1","0.1513980822","","0.8","0.6","0.4","0.2","","","","","0.1513980822","0.2337150112","0.6716280274","0.6092158501","","","","","","","","","","72","H","0","img/none_selected.jpg","","171","main_expt","",""
"","bandit","253","578832","0.0-213.0-0.0","73514396","wem/bandit_party_2","AQVXVMX61864S","either","7","918","","","","","","","0","0","1","0.1552293495","","0.8","0.6","0.4","0.2","","","","","0.1552293495","0.3128682212","0.5683226388","0.691496366","","","","","","","","","","72","H","0","img/none_selected.jpg","","172","main_expt","",""
"","bandit","254","580596","0.0-214.0-0.0","73514396","wem/bandit_party_2","AQVXVMX61864S","either","7","253","","","","","","","0","0","1","0.1325975083","","0.8","0.6","0.4","0.2","","","","","0.1325975083","0.2775517843","0.4581357746","0.7402253768","","","","","","","","","","72","H","0","img/none_selected.jpg","","173","main_expt","",""
"","bandit","255","582268","0.0-215.0-0.0","73514396","wem/bandit_party_2","AQVXVMX61864S","either","7","158","","","","","","","0","0","1","0.09024892351","","0.8","0.6","0.4","0.2","","","","","0.09024892351","0.4159305855","0.5903479164","0.6601004511","","","","","","","","","","72","H","0","img/none_selected.jpg","","174","main_expt","",""
"","bandit","256","585443","0.0-216.0-0.0","73514396","wem/bandit_party_2","AQVXVMX61864S","either","7","1669","","","","","","","0","0","1","0.06963745108","","0.8","0.6","0.4","0.2","","","","","0.06963745108","0.4471770837","0.5658285383","0.6781732273","","","","","","","","","","72","H","0","img/none_selected.jpg","","175","main_expt","",""
"","bandit","257","587204","0.0-217.0-0.0","73514396","wem/bandit_party_2","AQVXVMX61864S","either","7","248","","","","","","","0","0","1","0.07897043431","","0.8","0.6","0.4","0.2","","","","","0.07897043431","0.5162211083","0.5313506173","0.6932650799","","","","","","","","","","72","H","0","img/none_selected.jpg","","176","main_expt","",""
"","bandit","258","589315","0.0-218.0-0.0","73514396","wem/bandit_party_2","AQVXVMX61864S","either","7","604","","","","","","","0","0","1","0.09469685393","","0.8","0.6","0.4","0.2","","","","","0.09469685393","0.6372676231","0.4231289234","0.6803850572","","","","","","","","","","72","H","0","img/none_selected.jpg","","177","main_expt","",""
"","bandit","259","591211","0.0-219.0-0.0","73514396","wem/bandit_party_2","AQVXVMX61864S","either","7","390","","","","","","","0","0","1","0.1486386852","","0.8","0.6","0.4","0.2","","","","","0.1486386852","0.6295749113","0.580807006","0.5407017663","","","","","","","","","","72","H","0","img/none_selected.jpg","","178","main_expt","",""
"","bandit","260","593447","0.0-220.0-0.0","73514396","wem/bandit_party_2","AQVXVMX61864S","either","7","718","","","","","","","0","0","1","","0.1965095934","0.8","0.6","0.4","0.2","0.1965095934","0.4126066341","0.5499948007","0.5931576708","","","","","","","","","","","","","","72","H","0","img/none_selected.jpg","","179","main_expt","",""
"","bandit","261","595332","0.0-221.0-0.0","73514396","wem/bandit_party_2","AQVXVMX61864S","either","7","370","","","","","","","0","0","1","0.516991344","","0.8","0.6","0.4","0.2","","","","","0.1749048096","0.516991344","0.4918200669","0.5390819372","","","","","","","","","","74","J","1","","","180","main_expt","",""
"","bandit","262","597218","0.0-222.0-0.0","73514396","wem/bandit_party_2","AQVXVMX61864S","either","7","380","","","","","","","0","0","1","0.232896561","","0.8","0.6","0.4","0.2","","","","","0.232896561","0.4239603033","0.5428702931","0.4929910299","","","","","","","","","","72","H","0","img/none_selected.jpg","","181","main_expt","",""
"","bandit","263","599115","0.0-223.0-0.0","73514396","wem/bandit_party_2","AQVXVMX61864S","either","7","390","","","","","","","0","0","1","0.2561822725","","0.8","0.6","0.4","0.2","","","","","0.2561822725","0.3961891141","0.5870547156","0.458433212","","","","","","","","","","72","H","0","img/none_selected.jpg","","182","main_expt","",""
"","bandit","264","600628","0.0-224.0-0.0","73514396","wem/bandit_party_2","AQVXVMX61864S","either","7","5","","","","","","","0","0","1","0.5031908535","","0.8","0.6","0.4","0.2","","","","","0.2713883962","0.4364601233","0.5031908535","0.5725449786","","","","","","","","","","75","K","2","","","183","main_expt","",""
"","bandit","265","602149","0.0-225.0-0.0","73514396","wem/bandit_party_2","AQVXVMX61864S","either","7","5","","","","","","","1","0","0","0.4878383732","","0.8","0.6","0.4","0.2","","","","","0.3543557679","0.4826964198","0.4239978994","0.4878383732","","","","","","","","","","76","L","3","","","184","main_expt","",""
"","bandit","266","603899","0.0-226.0-0.0","73514396","wem/bandit_party_2","AQVXVMX61864S","either","7","241","","","","","","","0","0","1","0.3425545299","","0.8","0.6","0.4","0.2","","","","","0.2974533566","0.4448789548","0.3425545299","0.5189350158","","","","","","","","","","75","K","2","","","185","main_expt","",""
"","bandit","267","605541","0.0-227.0-0.0","73514396","wem/bandit_party_2","AQVXVMX61864S","either","7","131","","","","","","","0","0","1","0.4585835861","","0.8","0.6","0.4","0.2","","","","","0.3295130888","0.4585835861","0.2594221554","0.4310300585","","","","","","","","","","74","J","1","","","186","main_expt","",""
"","bandit","268","607084","0.0-228.0-0.0","73514396","wem/bandit_party_2","AQVXVMX61864S","either","7","27","","","","","","","0","0","1","0.3440574025","","0.8","0.6","0.4","0.2","","","","","0.3440574025","0.5470412386","0.350747246","0.4005994516","","","","","","","","","","72","H","0","img/none_selected.jpg","","187","main_expt","",""
"","bandit","269","608846","0.0-229.0-0.0","73514396","wem/bandit_party_2","AQVXVMX61864S","either","7","253","","","","","","","0","0","1","0.5485419855","","0.8","0.6","0.4","0.2","","","","","0.3176863717","0.5485419855","0.3667816541","0.5684333967","","","","","","","","","","74","J","1","","","188","main_expt","",""
"","bandit","270","610356","0.0-230.0-0.0","73514396","wem/bandit_party_2","AQVXVMX61864S","either","7","1","","","","","","","0","0","1","0.6161015427","","0.8","0.6","0.4","0.2","","","","","0.3194332301","0.6161015427","0.3129240978","0.5768443477","","","","","","","","","","74","J","1","","","189","main_expt","",""
"","bandit","271","612653","0.0-231.0-0.0","73514396","wem/bandit_party_2","AQVXVMX61864S","either","7","786","","","","","","","0","1","0","","0.5145576236","0.8","0.6","0.4","0.2","0.3585260795","0.5145576236","0.3681084497","0.6091254975","","","","","","","","","","","","","","74","J","1","","","190","main_expt","",""
"","bandit","272","616116","0.0-232.0-0.0","73514396","wem/bandit_party_2","AQVXVMX61864S","either","7","1948","","","","","","","1","0","0","0.4447609651","","0.8","0.6","0.4","0.2","","","","","0.4438822556","0.4447609651","0.3284994938","0.6355225437","","","","","","","","","","74","J","1","","","191","main_expt","",""
"","bandit","273","617773","0.0-233.0-0.0","73514396","wem/bandit_party_2","AQVXVMX61864S","either","7","141","","","","","","","1","0","0","0.4273979598","","0.8","0.6","0.4","0.2","","","","","0.6336907385","0.4273979598","0.2913335268","0.7449996868","","","","","","","","","","74","J","1","","","192","main_expt","",""
"","bandit","274","619589","0.0-234.0-0.0","73514396","wem/bandit_party_2","AQVXVMX61864S","either","7","300","","","","","","","0","1","0","","0.4382354048","0.8","0.6","0.4","0.2","0.5871300795","0.4382354048","0.3614904019","0.7645281636","","","","","","","","","","","","","","74","J","1","","","193","main_expt","",""
"","bandit","275","621872","0.0-235.0-0.0","73514396","wem/bandit_party_2","AQVXVMX61864S","either","7","772","","","","","","","0","1","0","","0.4367950698","0.8","0.6","0.4","0.2","0.5919999684","0.4367950698","0.4180963095","0.7417458559","","","","","","","","","","","","","","74","J","1","","","194","main_expt","",""
"","bandit","276","624094","0.0-236.0-0.0","73514396","wem/bandit_party_2","AQVXVMX61864S","either","7","702","","","","","","","0","0","1","0.4306922929","","0.8","0.6","0.4","0.2","","","","","0.5599221581","0.4306922929","0.4129416526","0.7102393491","","","","","","","","","","74","J","1","","","195","main_expt","",""
"","bandit","277","625708","0.0-237.0-0.0","73514396","wem/bandit_party_2","AQVXVMX61864S","either","7","97","","","","","","","0","0","1","0.4436260943","","0.8","0.6","0.4","0.2","","","","","0.4552797342","0.4436260943","0.6027995291","0.6846894693","","","","","","","","","","74","J","1","","","196","main_expt","",""
"","bandit","278","628124","0.0-238.0-0.0","73514396","wem/bandit_party_2","AQVXVMX61864S","either","7","899","","","","","","","1","0","0","0.4547077395","","0.8","0.6","0.4","0.2","","","","","0.3045440077","0.4547077395","0.6174547511","0.6573901597","","","","","","","","","","74","J","1","","","197","main_expt","",""
"","bandit","279","629700","0.0-239.0-0.0","73514396","wem/bandit_party_2","AQVXVMX61864S","either","7","60","","","","","","","0","0","1","","0.545148617","0.8","0.6","0.4","0.2","0.4061180554","0.545148617","0.5727893511","0.7020762336","","","","","","","","","","","","","","74","J","1","","","198","main_expt","",""
"","bandit","280","631279","0.0-240.0-0.0","73514396","wem/bandit_party_2","AQVXVMX61864S","either","7","68","","","","","","","1","0","0","0.5838562778","","0.8","0.6","0.4","0.2","","","","","0.3406873398","0.5838562778","0.5803616598","0.7749867965","","","","","","","","","","74","J","1","","","199","main_expt","",""
"","bandit","281","633244","0.0-241.0-0.0","73514396","wem/bandit_party_2","AQVXVMX61864S","either","7","459","","","","","","","1","0","0","0.6569131065","","0.8","0.6","0.4","0.2","","","","","0.2810551981","0.6569131065","0.5109940584","0.7971262248","","","","","","","","","","74","J","1","","","200","main_expt","",""
"","bandit","282","635453","0.0-242.0-0.0","73514396","wem/bandit_party_2","AQVXVMX61864S","either","7","692","","","","","","","1","0","0","0.6559739125","","0.8","0.6","0.4","0.2","","","","","0.2295892347","0.6559739125","0.444158281","0.6431063495","","","","","","","","","","74","J","1","","","201","main_expt","",""
"","bandit","283","637934","0.0-243.0-0.0","73514396","wem/bandit_party_2","AQVXVMX61864S","either","7","967","","","","","","","0","0","1","0.5940698896","","0.8","0.6","0.4","0.2","","","","","0.2134833186","0.5940698896","0.3774362348","0.6153479028","","","","","","","","","","74","J","1","","","202","main_expt","",""
"","bandit","284","641044","0.0-244.0-0.0","73514396","wem/bandit_party_2","AQVXVMX61864S","either","7","1595","","","","","","","1","0","0","0.6288005559","","0.8","0.6","0.4","0.2","","","","","0.1538434825","0.6288005559","0.2852638898","0.6107921693","","","","","","","","","","74","J","1","","","203","main_expt","",""
"","bandit","285","643197","0.0-245.0-0.0","73514396","wem/bandit_party_2","AQVXVMX61864S","either","7","645","","","","","","","0","1","0","","0.7483345684","0.8","0.6","0.4","0.2","0.08629221539","0.7483345684","0.3900316507","0.6364312764","","","","","","","","","","","","","","74","J","1","","","204","main_expt","",""
"","bandit","286","645277","0.0-246.0-0.0","73514396","wem/bandit_party_2","AQVXVMX61864S","either","7","572","","","","","","","1","0","0","0.7823609999","","0.8","0.6","0.4","0.2","","","","","0.1303029892","0.7823609999","0.3334674042","0.7098325313","","","","","","","","","","74","J","1","","","205","main_expt","",""
"","bandit","287","647135","0.0-247.0-0.0","73514396","wem/bandit_party_2","AQVXVMX61864S","either","7","338","","","","","","","0","0","1","0.7053347691","","0.8","0.6","0.4","0.2","","","","","0.1290793888","0.7053347691","0.3997779834","0.6423198407","","","","","","","","","","74","J","1","","","206","main_expt","",""
"","bandit","288","649453","0.0-248.0-0.0","73514396","wem/bandit_party_2","AQVXVMX61864S","either","7","802","","","","","","","0","1","0","","0.692958529","0.8","0.6","0.4","0.2","0.1471003053","0.692958529","0.2791746034","0.7196337679","","","","","","","","","","","","","","74","J","1","","","207","main_expt","",""
"","bandit","289","651773","0.0-249.0-0.0","73514396","wem/bandit_party_2","AQVXVMX61864S","either","7","809","","","","","","","0","1","0","","0.5726600787","0.8","0.6","0.4","0.2","0.1204476287","0.5726600787","0.3447420344","0.7273253538","","","","","","","","","","","","","","74","J","1","","","208","main_expt","",""
"","bandit","290","653847","0.0-250.0-0.0","73514396","wem/bandit_party_2","AQVXVMX61864S","either","7","558","","","","","","","0","1","0","","0.7193759884","0.8","0.6","0.4","0.2","0.1752658923","0.7193759884","0.2106944101","0.7701678217","","","","","","","","","","","","","","74","J","1","","","209","main_expt","",""
"","bandit","291","655885","0.0-251.0-0.0","73514396","wem/bandit_party_2","AQVXVMX61864S","either","7","522","","","","","","","0","0","1","","0.5469619257","0.8","0.6","0.4","0.2","0.2071456167","0.5469619257","0.2609791638","0.7673062315","","","","","","","","","","","","","","74","J","1","","","210","main_expt","",""
"","bandit","292","657998","0.0-252.0-0.0","73514396","wem/bandit_party_2","AQVXVMX61864S","either","7","596","","","","","","","0","0","1","","0.5432746348","0.8","0.6","0.4","0.2","0.1982577311","0.5432746348","0.3702243554","0.7733207599","","","","","","","","","","","","","","74","J","1","","","211","main_expt","",""
"","bandit","293","660044","0.0-253.0-0.0","73514396","wem/bandit_party_2","AQVXVMX61864S","either","7","537","","","","","","","1","0","0","0.4857525371","","0.8","0.6","0.4","0.2","","","","","0.2837026457","0.4857525371","0.4070014152","0.7176010575","","","","","","","","","","74","J","1","","","212","main_expt","",""
"","bandit","294","661708","0.0-254.0-0.0","73514396","wem/bandit_party_2","AQVXVMX61864S","either","7","157","","","","","","","0","1","0","","0.4416723402","0.8","0.6","0.4","0.2","0.2192955177","0.4416723402","0.5001351259","0.7241732444","","","","","","","","","","","","","","74","J","1","","","213","main_expt","",""
"","bandit","295","664366","0.0-255.0-0.0","73514396","wem/bandit_party_2","AQVXVMX61864S","either","7","1147","","","","","","","0","0","1","0.4231083207","","0.8","0.6","0.4","0.2","","","","","0.2885853396","0.4231083207","0.5667049056","0.6696022014","","","","","","","","","","74","J","1","","","214","main_expt","",""
"","bandit","296","666365","0.0-256.0-0.0","73514396","wem/bandit_party_2","AQVXVMX61864S","either","7","484","","","","","","","0","0","1","","0.329019478","0.8","0.6","0.4","0.2","0.2451296471","0.329019478","0.5259574602","0.6255990046","","","","","","","","","","","","","","74","J","1","","","215","main_expt","",""
"","bandit","297","667941","0.0-257.0-0.0","73514396","wem/bandit_party_2","AQVXVMX61864S","either","7","61","","","","","","","1","0","0","0.5468860011","","0.8","0.6","0.4","0.2","","","","","0.1946790852","0.3469743373","0.5468860011","0.6771362935","","","","","","","","","","75","K","2","","","216","main_expt","",""
"","bandit","298","670005","0.0-258.0-0.0","73514396","wem/bandit_party_2","AQVXVMX61864S","either","7","550","","","","","","","0","0","1","0.3618740044","","0.8","0.6","0.4","0.2","","","","","0.2497229096","0.3618740044","0.6182745027","0.6918953154","","","","","","","","","","74","J","1","","","217","main_expt","",""
"","bandit","299","671701","0.0-259.0-0.0","73514396","wem/bandit_party_2","AQVXVMX61864S","either","7","185","","","","","","","0","0","1","0.3574217595","","0.8","0.6","0.4","0.2","","","","","0.3076421025","0.3574217595","0.5979125128","0.5726390237","","","","","","","","","","74","J","1","","","218","main_expt","",""
"","bandit","300","673684","0.0-260.0-0.0","73514396","wem/bandit_party_2","AQVXVMX61864S","either","7","475","","","","","","","0","0","1","0.3862686792","","0.8","0.6","0.4","0.2","","","","","0.3488941347","0.3862686792","0.5321687475","0.5179196303","","","","","","","","","","74","J","1","","","219","main_expt","",""
"","bandit","301","675660","0.0-261.0-0.0","73514396","wem/bandit_party_2","AQVXVMX61864S","either","7","461","","","","","","","1","0","0","0.306784001","","0.8","0.6","0.4","0.2","","","","","0.306784001","0.4432846828","0.6053830099","0.5578222379","","","","","","","","","","72","H","0","img/none_selected.jpg","","220","main_expt","",""
"","bandit","302","677717","0.0-262.0-0.0","73514396","wem/bandit_party_2","AQVXVMX61864S","either","7","538","","","","","","","1","0","0","0.3786925452","","0.8","0.6","0.4","0.2","","","","","0.3786925452","0.432499938","0.69383498","0.6640911266","","","","","","","","","","72","H","0","img/none_selected.jpg","","221","main_expt","",""
"","bandit","303","679973","0.0-263.0-0.0","73514396","wem/bandit_party_2","AQVXVMX61864S","either","7","740","","","","","","","1","0","0","0.5014801557","","0.8","0.6","0.4","0.2","","","","","0.5014801557","0.4050903391","0.783375317","0.7340686256","","","","","","","","","","72","H","0","img/none_selected.jpg","","222","main_expt","",""
"","bandit","304","681518","0.0-264.0-0.0","73514396","wem/bandit_party_2","AQVXVMX61864S","either","7","32","","","","","","","0","0","1","0.4081704387","","0.8","0.6","0.4","0.2","","","","","0.4081704387","0.3282593462","0.8374489269","0.852862777","","","","","","","","","","72","H","0","img/none_selected.jpg","","223","main_expt","",""
"","bandit","305","683349","0.0-265.0-0.0","73514396","wem/bandit_party_2","AQVXVMX61864S","either","7","314","","","","","","","0","1","0","","0.7801262993","0.8","0.6","0.4","0.2","0.422296693","0.2465370002","0.7801262993","0.7830506485","","","","","","","","","","","","","","75","K","2","","","224","main_expt","",""
"","bandit","306","685597","0.0-266.0-0.0","73514396","wem/bandit_party_2","AQVXVMX61864S","either","7","738","","","","","","","0","1","0","","0.3998144739","0.8","0.6","0.4","0.2","0.3998144739","0.2260872052","0.7438235551","0.7447555501","","","","","","","","","","","","","","72","H","0","img/none_selected.jpg","","225","main_expt","",""
"","bandit","307","688927","0.0-267.0-0.0","73514396","wem/bandit_party_2","AQVXVMX61864S","either","7","1812","","","","","","","0","0","1","0.2692780115","","0.8","0.6","0.4","0.2","","","","","0.2692780115","0.2573895518","0.7561714458","0.7331719472","","","","","","","","","","72","H","0","img/none_selected.jpg","","226","main_expt","",""
"","bandit","308","690783","0.0-268.0-0.0","73514396","wem/bandit_party_2","AQVXVMX61864S","either","7","338","","","","","","","1","0","0","0.268728261","","0.8","0.6","0.4","0.2","","","","","0.268728261","0.2134597582","0.7527106072","0.6417259928","","","","","","","","","","72","H","0","img/none_selected.jpg","","227","main_expt","",""
"","bandit","309","693133","0.0-269.0-0.0","73514396","wem/bandit_party_2","AQVXVMX61864S","either","7","841","","","","","","","0","0","1","0.2211951924","","0.8","0.6","0.4","0.2","","","","","0.2211951924","0.348479141","0.6315627418","0.6050549784","","","","","","","","","","72","H","0","img/none_selected.jpg","","228","main_expt","",""
"","bandit","310","695677","0.0-270.0-0.0","73514396","wem/bandit_party_2","AQVXVMX61864S","either","7","1032","","","","","","","0","0","1","0.219241791","","0.8","0.6","0.4","0.2","","","","","0.219241791","0.3250735223","0.5564086662","0.5962230341","","","","","","","","","","72","H","0","img/none_selected.jpg","","229","main_expt","",""
"","bandit","311","698022","0.0-271.0-0.0","73514396","wem/bandit_party_2","AQVXVMX61864S","either","7","833","","","","","","","0","0","1","0.291585141","","0.8","0.6","0.4","0.2","","","","","0.291585141","0.3395219718","0.5895813861","0.5594933722","","","","","","","","","","72","H","0","img/none_selected.jpg","","230","main_expt","",""
