"consent","trial_type","trial_index","time_elapsed","internal_node_id","subjID","study","MID","cond","drift","rt","responses","button_pressed","key_press","like","value","connected","gems","bombs","no_reward","GemPrChosen","BombPrChosen","GainOverPainPr_0","GainOverPainPr_1","GainOverPainPr_2","GainOverPainPr_3","LosePr_0","LosePr_1","LosePr_2","LosePr_3","WinPr_0","WinPr_1","WinPr_2","WinPr_3","Q0","Q1","Q2","gender","age","ethnicity","label","expt_phase","target","respCharCode","respKey","respChoiceNum","respChoice","practice","trial_counter","trial_label","Q0_index"
"GDM/GDM_behavioral_consent_30min_online.html","consent","0","7854","0.0-0.0","73623298","wem/bandit_party_2","A1S6QWSCBRYSFZ","either","2","","","","","","","","","","","","","","","","","","","","","","","","","","","","","","","","","","","","","","","","",""
"","survey-text","1","13204","0.0-1.0","73623298","wem/bandit_party_2","A1S6QWSCBRYSFZ","either","2","4342","{""Q0"":""A1S6QWSCBRYSFZ""}","","","","","","","","","","","","","","","","","","","","","","","","","","","","","","","","","","","","","","",""
"","button-response","2","15768","0.0-2.0","73623298","wem/bandit_party_2","A1S6QWSCBRYSFZ","either","2","1555","","1","","","","","","","","","","","","","","","","","","","","","","","","","","","","","","","","","","","","","",""
"","text-replacement","3","27393","0.0-3.0","73623298","wem/bandit_party_2","A1S6QWSCBRYSFZ","either","2","10622","","","32","","","","","","","","","","","","","","","","","","","","","","","","","","","","","","","","","","","","",""
"","text-replacement","4","33782","0.0-4.0","73623298","wem/bandit_party_2","A1S6QWSCBRYSFZ","either","2","6387","","","32","","","","","","","","","","","","","","","","","","","","","","","","","","","","","","","","","","","","",""
"","identification","5","45627","0.0-6.0-0.0","73623298","wem/bandit_party_2","A1S6QWSCBRYSFZ","either","2","11833","","","","1","2","0","","","","","","","","","","","","","","","","","","","","","","","","pre","identification_pre","the Republican Party","","","","","","","",""
"","identification","6","53042","0.0-6.0-1.0","73623298","wem/bandit_party_2","A1S6QWSCBRYSFZ","either","2","6402","","","","3","2","1","","","","","","","","","","","","","","","","","","","","","","","","pre","identification_pre","the Democratic Party","","","","","","","",""
"","text-replacement","7","66554","0.0-7.0","73623298","wem/bandit_party_2","A1S6QWSCBRYSFZ","either","2","12505","","","32","","","","","","","","","","","","","","","","","","","","","","","","","","","","","","","","","","","","",""
"","text-replacement","8","70974","0.0-8.0","73623298","wem/bandit_party_2","A1S6QWSCBRYSFZ","either","2","4420","","","32","","","","","","","","","","","","","","","","","","","","","","","","","","","","","","","","","","","","",""
"","text-replacement","9","80819","0.0-9.0","73623298","wem/bandit_party_2","A1S6QWSCBRYSFZ","either","2","9843","","","32","","","","","","","","","","","","","","","","","","","","","","","","","","","","","","","","","","","","",""
"","text-replacement","10","84745","0.0-10.0","73623298","wem/bandit_party_2","A1S6QWSCBRYSFZ","either","2","3924","","","32","","","","","","","","","","","","","","","","","","","","","","","","","","","","","","","","","","","","",""
"","text-replacement","11","89537","0.0-11.0","73623298","wem/bandit_party_2","A1S6QWSCBRYSFZ","either","2","4791","","","32","","","","","","","","","","","","","","","","","","","","","","","","","","","","","","","","","","","","",""
"","bandit","12","92859","0.0-12.0-0.0","73623298","wem/bandit_party_2","A1S6QWSCBRYSFZ","either","2","1808","","","","","","","0","0","1","0","0","","","","","0","","","","0","","","","","","","","","","","","","74","J","0","img/none_selected_demo.jpg","true","0","",""
"","bandit","13","96805","0.0-13.0-0.0","73623298","wem/bandit_party_2","A1S6QWSCBRYSFZ","either","2","2436","","","","","","","0","0","1","0","0","","","","","0","","","","0","","","","","","","","","","","","","75","K","0","img/none_selected_demo.jpg","true","0","",""
"","text-replacement","14","102858","0.0-14.0","73623298","wem/bandit_party_2","A1S6QWSCBRYSFZ","either","2","6052","","","32","","","","","","","","","","","","","","","","","","","","","","","","","","","","","","","","","","","","",""
"","text-replacement","15","111070","0.0-15.0","73623298","wem/bandit_party_2","A1S6QWSCBRYSFZ","either","2","8210","","","32","","","","","","","","","","","","","","","","","","","","","","","","","","","","","","","","","","","","",""
"","text-replacement","16","117967","0.0-16.0","73623298","wem/bandit_party_2","A1S6QWSCBRYSFZ","either","2","6895","","","32","","","","","","","","","","","","","","","","","","","","","","","","","","","","","","","","","","","","",""
"","text-replacement","17","121127","0.0-17.0","73623298","wem/bandit_party_2","A1S6QWSCBRYSFZ","either","2","3159","","","32","","","","","","","","","","","","","","","","","","","","","","","","","","","","","","","","","","","","",""
"","bandit","18","123387","0.0-18.0-0.0","73623298","wem/bandit_party_2","A1S6QWSCBRYSFZ","either","2","752","","","","","","","0","0","1","0.8","","0.5","0.5","","","","","","","0.8","0.2","","","","","","","","","","","","74","J","0","img/none_selected_demo.jpg","true","0","80_20_practice",""
"","bandit","19","125517","0.0-18.0-1.0","73623298","wem/bandit_party_2","A1S6QWSCBRYSFZ","either","2","619","","","","","","","1","0","0","0.2","","0.5","0.5","","","","","","","0.8","0.2","","","","","","","","","","","","75","K","1","","true","0","80_20_practice",""
"","bandit","20","127397","0.0-18.0-2.0","73623298","wem/bandit_party_2","A1S6QWSCBRYSFZ","either","2","368","","","","","","","0","1","0","","0.8","0.5","0.5","","","0.8","0.2","","","","","","","","","","","","","","","","74","J","0","img/none_selected_demo.jpg","true","0","80_20_practice",""
"","bandit","21","129260","0.0-18.0-3.0","73623298","wem/bandit_party_2","A1S6QWSCBRYSFZ","either","2","354","","","","","","","0","0","1","","0.2","0.5","0.5","","","0.8","0.2","","","","","","","","","","","","","","","","75","K","1","","true","0","80_20_practice",""
"","bandit","22","130781","0.0-18.0-4.0","73623298","wem/bandit_party_2","A1S6QWSCBRYSFZ","either","2","10","","","","","","","0","1","0","","0.8","0.5","0.5","","","0.8","0.2","","","","","","","","","","","","","","","","74","J","0","img/none_selected_demo.jpg","true","0","80_20_practice",""
"","bandit","23","132748","0.0-18.0-5.0","73623298","wem/bandit_party_2","A1S6QWSCBRYSFZ","either","2","459","","","","","","","0","0","1","","0.2","0.5","0.5","","","0.8","0.2","","","","","","","","","","","","","","","","75","K","1","","true","0","80_20_practice",""
"","bandit","24","135134","0.0-18.0-6.0","73623298","wem/bandit_party_2","A1S6QWSCBRYSFZ","either","2","875","","","","","","","0","1","0","","0.8","0.5","0.5","","","0.8","0.2","","","","","","","","","","","","","","","","74","J","0","img/none_selected_demo.jpg","true","0","80_20_practice",""
"","bandit","25","137229","0.0-18.0-7.0","73623298","wem/bandit_party_2","A1S6QWSCBRYSFZ","either","2","583","","","","","","","0","0","1","","0.2","0.5","0.5","","","0.8","0.2","","","","","","","","","","","","","","","","75","K","1","","true","0","80_20_practice",""
"","bandit","26","139295","0.0-18.0-8.0","73623298","wem/bandit_party_2","A1S6QWSCBRYSFZ","either","2","558","","","","","","","0","1","0","","0.8","0.5","0.5","","","0.8","0.2","","","","","","","","","","","","","","","","74","J","0","img/none_selected_demo.jpg","true","0","80_20_practice",""
"","bandit","27","141280","0.0-18.0-9.0","73623298","wem/bandit_party_2","A1S6QWSCBRYSFZ","either","2","472","","","","","","","0","0","1","0.2","","0.5","0.5","","","","","","","0.8","0.2","","","","","","","","","","","","75","K","1","","true","0","80_20_practice",""
"","bandit","28","144136","0.0-18.0-10.0","73623298","wem/bandit_party_2","A1S6QWSCBRYSFZ","either","2","1344","","","","","","","1","0","0","0.8","","0.5","0.5","","","","","","","0.8","0.2","","","","","","","","","","","","74","J","0","img/none_selected_demo.jpg","true","0","80_20_practice",""
"","bandit","29","146353","0.0-18.0-11.0","73623298","wem/bandit_party_2","A1S6QWSCBRYSFZ","either","2","705","","","","","","","0","1","0","","0.2","0.5","0.5","","","0.8","0.2","","","","","","","","","","","","","","","","75","K","1","","true","0","80_20_practice",""
"","bandit","30","148512","0.0-18.0-12.0","73623298","wem/bandit_party_2","A1S6QWSCBRYSFZ","either","2","647","","","","","","","1","0","0","0.8","","0.5","0.5","","","","","","","0.8","0.2","","","","","","","","","","","","74","J","0","img/none_selected_demo.jpg","true","0","80_20_practice",""
"","bandit","31","150381","0.0-18.0-13.0","73623298","wem/bandit_party_2","A1S6QWSCBRYSFZ","either","2","357","","","","","","","1","0","0","0.2","","0.5","0.5","","","","","","","0.8","0.2","","","","","","","","","","","","75","K","1","","true","0","80_20_practice",""
"","bandit","32","152627","0.0-18.0-14.0","73623298","wem/bandit_party_2","A1S6QWSCBRYSFZ","either","2","739","","","","","","","1","0","0","0.8","","0.5","0.5","","","","","","","0.8","0.2","","","","","","","","","","","","74","J","0","img/none_selected_demo.jpg","true","0","80_20_practice",""
"","bandit","33","154652","0.0-18.0-15.0","73623298","wem/bandit_party_2","A1S6QWSCBRYSFZ","either","2","517","","","","","","","0","0","1","0.2","","0.5","0.5","","","","","","","0.8","0.2","","","","","","","","","","","","75","K","1","","true","0","80_20_practice",""
"","bandit","34","156376","0.0-18.0-16.0","73623298","wem/bandit_party_2","A1S6QWSCBRYSFZ","either","2","212","","","","","","","0","1","0","","0.8","0.5","0.5","","","0.8","0.2","","","","","","","","","","","","","","","","74","J","0","img/none_selected_demo.jpg","true","0","80_20_practice",""
"","bandit","35","158239","0.0-18.0-17.0","73623298","wem/bandit_party_2","A1S6QWSCBRYSFZ","either","2","356","","","","","","","0","0","1","0.2","","0.5","0.5","","","","","","","0.8","0.2","","","","","","","","","","","","75","K","1","","true","0","80_20_practice",""
"","bandit","36","160265","0.0-18.0-18.0","73623298","wem/bandit_party_2","A1S6QWSCBRYSFZ","either","2","518","","","","","","","1","0","0","0.8","","0.5","0.5","","","","","","","0.8","0.2","","","","","","","","","","","","74","J","0","img/none_selected_demo.jpg","true","0","80_20_practice",""
"","bandit","37","162122","0.0-18.0-19.0","73623298","wem/bandit_party_2","A1S6QWSCBRYSFZ","either","2","349","","","","","","","0","0","1","","0.2","0.5","0.5","","","0.8","0.2","","","","","","","","","","","","","","","","75","K","1","","true","0","80_20_practice",""
"","text-replacement","38","169042","0.0-19.0","73623298","wem/bandit_party_2","A1S6QWSCBRYSFZ","either","2","6919","","","32","","","","","","","","","","","","","","","","","","","","","","","","","","","","","","","","","","","","",""
"","bandit","39","176446","0.0-20.0-0.0","73623298","wem/bandit_party_2","A1S6QWSCBRYSFZ","either","2","5893","","","","","","","1","0","0","1","0","","","","","0","1","","","1","0","","","","","","","","","","","","74","J","0","img/none_selected_demo.jpg","true","0","",""
"","text-replacement","40","181485","0.0-21.0","73623298","wem/bandit_party_2","A1S6QWSCBRYSFZ","either","2","5038","","","32","","","","","","","","","","","","","","","","","","","","","","","","","","","","","","","","","","","","",""
"","text-replacement","41","188032","0.0-22.0","73623298","wem/bandit_party_2","A1S6QWSCBRYSFZ","either","2","6545","","","32","","","","","","","","","","","","","","","","","","","","","","","","","","","","","","","","","","","","",""
"","text-replacement","42","191520","0.0-23.0","73623298","wem/bandit_party_2","A1S6QWSCBRYSFZ","either","2","3487","","","32","","","","","","","","","","","","","","","","","","","","","","","","","","","","","","","","","","","","",""
"","text-replacement","43","195795","0.0-24.0","73623298","wem/bandit_party_2","A1S6QWSCBRYSFZ","either","2","4273","","","32","","","","","","","","","","","","","","","","","","","","","","","","","","","","","","","","","","","","",""
"","text-replacement","44","205257","0.0-25.0","73623298","wem/bandit_party_2","A1S6QWSCBRYSFZ","either","2","9460","","","32","","","","","","","","","","","","","","","","","","","","","","","","","","","","","","","","","","","","",""
"","text-replacement","45","208778","0.0-26.0","73623298","wem/bandit_party_2","A1S6QWSCBRYSFZ","either","2","3519","","","32","","","","","","","","","","","","","","","","","","","","","","","","","","","","","","","","","","","","",""
"","text-replacement","46","212805","0.0-27.0","73623298","wem/bandit_party_2","A1S6QWSCBRYSFZ","either","2","4026","","","32","","","","","","","","","","","","","","","","","","","","","","","","","","","","","","","","","","","","",""
"","text-replacement","47","215280","0.0-28.0","73623298","wem/bandit_party_2","A1S6QWSCBRYSFZ","either","2","2473","","","32","","","","","","","","","","","","","","","","","","","","","","","","","","","","","","","","","","","","",""
"","text-replacement","48","218869","0.0-29.0","73623298","wem/bandit_party_2","A1S6QWSCBRYSFZ","either","2","3587","","","32","","","","","","","","","","","","","","","","","","","","","","","","","","","","","","","","","","","","",""
"","text-replacement","49","221288","0.0-30.0","73623298","wem/bandit_party_2","A1S6QWSCBRYSFZ","either","2","2417","","","32","","","","","","","","","","","","","","","","","","","","","","","","","","","","","","","","","","","","",""
"","text-replacement","50","224415","0.0-31.0","73623298","wem/bandit_party_2","A1S6QWSCBRYSFZ","either","2","3126","","","32","","","","","","","","","","","","","","","","","","","","","","","","","","","","","","","","","","","","",""
"","bandit","51","226905","0.0-32.0-0.0","73623298","wem/bandit_party_2","A1S6QWSCBRYSFZ","either","2","977","","","","","","","0","1","0","","0.8","0.5","0.5","0.5","0.5","0.8","0.2","0.6","0.2","","","","","","","","","","","","","","72","H","0","img/none_selected.jpg","true","0","full_practice",""
"","bandit","52","229209","0.0-32.0-1.0","73623298","wem/bandit_party_2","A1S6QWSCBRYSFZ","either","2","793","","","","","","","0","0","1","","0.2","0.5","0.5","0.5","0.5","0.8","0.2","0.6","0.2","","","","","","","","","","","","","","74","J","1","","true","0","full_practice",""
"","bandit","53","231211","0.0-32.0-2.0","73623298","wem/bandit_party_2","A1S6QWSCBRYSFZ","either","2","491","","","","","","","0","0","1","0.2","","0.5","0.5","0.5","0.5","","","","","0.8","0.2","0.6","0.2","","","","","","","","","","76","L","3","","true","0","full_practice",""
"","bandit","54","233463","0.0-32.0-3.0","73623298","wem/bandit_party_2","A1S6QWSCBRYSFZ","either","2","739","","","","","","","1","0","0","0.2","","0.5","0.5","0.5","0.5","","","","","0.8","0.2","0.6","0.2","","","","","","","","","","76","L","3","","true","0","full_practice",""
"","bandit","55","235274","0.0-32.0-4.0","73623298","wem/bandit_party_2","A1S6QWSCBRYSFZ","either","2","299","","","","","","","0","0","1","0.2","","0.5","0.5","0.5","0.5","","","","","0.8","0.2","0.6","0.2","","","","","","","","","","74","J","1","","true","0","full_practice",""
"","bandit","56","238391","0.0-32.0-5.0","73623298","wem/bandit_party_2","A1S6QWSCBRYSFZ","either","2","1604","","","","","","","0","1","0","","0.8","0.5","0.5","0.5","0.5","0.8","0.2","0.6","0.2","","","","","","","","","","","","","","72","H","0","img/none_selected.jpg","true","0","full_practice",""
"","bandit","57","240637","0.0-32.0-6.0","73623298","wem/bandit_party_2","A1S6QWSCBRYSFZ","either","2","737","","","","","","","1","0","0","0.8","","0.5","0.5","0.5","0.5","","","","","0.8","0.2","0.6","0.2","","","","","","","","","","72","H","0","img/none_selected.jpg","true","0","full_practice",""
"","bandit","58","242459","0.0-32.0-7.0","73623298","wem/bandit_party_2","A1S6QWSCBRYSFZ","either","2","313","","","","","","","0","0","1","","0.2","0.5","0.5","0.5","0.5","0.8","0.2","0.6","0.2","","","","","","","","","","","","","","74","J","1","","true","0","full_practice",""
"","bandit","59","244409","0.0-32.0-8.0","73623298","wem/bandit_party_2","A1S6QWSCBRYSFZ","either","2","438","","","","","","","1","0","0","0.2","","0.5","0.5","0.5","0.5","","","","","0.8","0.2","0.6","0.2","","","","","","","","","","76","L","3","","true","0","full_practice",""
"","bandit","60","246452","0.0-32.0-9.0","73623298","wem/bandit_party_2","A1S6QWSCBRYSFZ","either","2","535","","","","","","","0","1","0","","0.2","0.5","0.5","0.5","0.5","0.8","0.2","0.6","0.2","","","","","","","","","","","","","","76","L","3","","true","0","full_practice",""
"","bandit","61","248234","0.0-32.0-10.0","73623298","wem/bandit_party_2","A1S6QWSCBRYSFZ","either","2","270","","","","","","","0","1","0","","0.2","0.5","0.5","0.5","0.5","0.8","0.2","0.6","0.2","","","","","","","","","","","","","","74","J","1","","true","0","full_practice",""
"","bandit","62","250346","0.0-32.0-11.0","73623298","wem/bandit_party_2","A1S6QWSCBRYSFZ","either","2","603","","","","","","","1","0","0","0.8","","0.5","0.5","0.5","0.5","","","","","0.8","0.2","0.6","0.2","","","","","","","","","","72","H","0","img/none_selected.jpg","true","0","full_practice",""
"","bandit","63","252227","0.0-32.0-12.0","73623298","wem/bandit_party_2","A1S6QWSCBRYSFZ","either","2","369","","","","","","","1","0","0","0.8","","0.5","0.5","0.5","0.5","","","","","0.8","0.2","0.6","0.2","","","","","","","","","","72","H","0","img/none_selected.jpg","true","0","full_practice",""
"","bandit","64","254037","0.0-32.0-13.0","73623298","wem/bandit_party_2","A1S6QWSCBRYSFZ","either","2","300","","","","","","","0","0","1","0.2","","0.5","0.5","0.5","0.5","","","","","0.8","0.2","0.6","0.2","","","","","","","","","","74","J","1","","true","0","full_practice",""
"","bandit","65","255918","0.0-32.0-14.0","73623298","wem/bandit_party_2","A1S6QWSCBRYSFZ","either","2","368","","","","","","","0","0","1","","0.2","0.5","0.5","0.5","0.5","0.8","0.2","0.6","0.2","","","","","","","","","","","","","","76","L","3","","true","0","full_practice",""
"","bandit","66","257758","0.0-32.0-15.0","73623298","wem/bandit_party_2","A1S6QWSCBRYSFZ","either","2","333","","","","","","","0","0","1","","0.8","0.5","0.5","0.5","0.5","0.8","0.2","0.6","0.2","","","","","","","","","","","","","","72","H","0","img/none_selected.jpg","true","0","full_practice",""
"","bandit","67","260155","0.0-32.0-16.0","73623298","wem/bandit_party_2","A1S6QWSCBRYSFZ","either","2","889","","","","","","","0","0","1","","0.2","0.5","0.5","0.5","0.5","0.8","0.2","0.6","0.2","","","","","","","","","","","","","","74","J","1","","true","0","full_practice",""
"","bandit","68","262024","0.0-32.0-17.0","73623298","wem/bandit_party_2","A1S6QWSCBRYSFZ","either","2","359","","","","","","","0","0","1","0.2","","0.5","0.5","0.5","0.5","","","","","0.8","0.2","0.6","0.2","","","","","","","","","","76","L","3","","true","0","full_practice",""
"","bandit","69","263788","0.0-32.0-18.0","73623298","wem/bandit_party_2","A1S6QWSCBRYSFZ","either","2","257","","","","","","","1","0","0","0.8","","0.5","0.5","0.5","0.5","","","","","0.8","0.2","0.6","0.2","","","","","","","","","","72","H","0","img/none_selected.jpg","true","0","full_practice",""
"","bandit","70","265658","0.0-32.0-19.0","73623298","wem/bandit_party_2","A1S6QWSCBRYSFZ","either","2","360","","","","","","","0","0","1","0.2","","0.5","0.5","0.5","0.5","","","","","0.8","0.2","0.6","0.2","","","","","","","","","","74","J","1","","true","0","full_practice",""
"","text","71","269787","0.0-33.0","73623298","wem/bandit_party_2","A1S6QWSCBRYSFZ","either","2","4123","","","32","","","","","","","","","","","","","","","","","","","","","","","","","","","","","","","","","","","","",""
"","text-replacement","72","286022","0.0-34.0","73623298","wem/bandit_party_2","A1S6QWSCBRYSFZ","either","2","15227","","","32","","","","","","","","","","","","","","","","","","","","","","","","","","","","","","","","","","","","",""
"","text-replacement","73","326196","0.0-35.0","73623298","wem/bandit_party_2","A1S6QWSCBRYSFZ","either","2","40173","","","32","","","","","","","","","","","","","","","","","","","","","","","","","","","","","","","","","","","","",""
"","text-replacement","74","333744","0.0-36.0","73623298","wem/bandit_party_2","A1S6QWSCBRYSFZ","either","2","7547","","","32","","","","","","","","","","","","","","","","","","","","","","","","","","","","","","","","","","","","",""
"","text-replacement","75","340349","0.0-37.0","73623298","wem/bandit_party_2","A1S6QWSCBRYSFZ","either","2","6602","","","32","","","","","","","","","","","","","","","","","","","","","","","","","","","","","","","","","","","","",""
"","text-replacement","76","346322","0.0-38.0","73623298","wem/bandit_party_2","A1S6QWSCBRYSFZ","either","2","5970","","","32","","","","","","","","","","","","","","","","","","","","","","","","","","","","","","","","","","","","",""
"","survey-multi-choice-replacement","77","356235","0.0-39.0-0.0","73623298","wem/bandit_party_2","A1S6QWSCBRYSFZ","either","2","9906","","","","","","","","","","","","","","","","","","","","","","","","Money will be added to the pool for <span style='color:blue;'>DEMOCRATS</span>","","","","","","","attn_check","","","","","","","","","0"
"","survey-multi-choice-replacement","78","359439","0.0-40.0-0.0","73623298","wem/bandit_party_2","A1S6QWSCBRYSFZ","either","2","2196","","","","","","","","","","","","","","","","","","","","","","","","Equal amounts of money will be added to the pool for <span style='color:blue;'>DEMOCRATS</span> and subtracted from the pool for <span style='color:red;'>REPUBLICANS</span>","","","","","","","attn_check","","","","","","","","","2"
"","survey-multi-choice-replacement","79","362667","0.0-41.0-0.0","73623298","wem/bandit_party_2","A1S6QWSCBRYSFZ","either","2","2215","","","","","","","","","","","","","","","","","","","","","","","","No money will be added to either pool","","","","","","","attn_check","","","","","","","","","3"
"","bandit","80","368159","0.0-42.0-0.0","73623298","wem/bandit_party_2","A1S6QWSCBRYSFZ","either","2","2977","","","","","","","1","0","0","0.7961415707","","0.8","0.6","0.2","0.4","","","","","0.7961415707","0.9925337928","0.4841938304","0.7092854079","","","","","","","","","","72","H","0","img/none_selected.jpg","","1","main_expt",""
"","bandit","81","372297","0.0-43.0-0.0","73623298","wem/bandit_party_2","A1S6QWSCBRYSFZ","either","2","2629","","","","","","","1","0","0","0.9909612399","","0.8","0.6","0.2","0.4","","","","","0.7739630809","0.9909612399","0.5300888233","0.7343230146","","","","","","","","","","74","J","1","","","2","main_expt",""
"","bandit","82","375304","0.0-44.0-0.0","73623298","wem/bandit_party_2","A1S6QWSCBRYSFZ","either","2","1496","","","","","","","0","0","1","","0.7616266478","0.8","0.6","0.2","0.4","0.807852523","0.9875934203","0.4747636274","0.7616266478","","","","","","","","","","","","","","76","L","3","","","3","main_expt",""
"","bandit","83","378432","0.0-45.0-0.0","73623298","wem/bandit_party_2","A1S6QWSCBRYSFZ","either","2","1616","","","","","","","1","0","0","0.7922386472","","0.8","0.6","0.2","0.4","","","","","0.7922386472","0.9782241123","0.4841015375","0.7555889459","","","","","","","","","","72","H","0","img/none_selected.jpg","","4","main_expt",""
"","bandit","84","381386","0.0-46.0-0.0","73623298","wem/bandit_party_2","A1S6QWSCBRYSFZ","either","2","1447","","","","","","","0","1","0","","0.865094385","0.8","0.6","0.2","0.4","0.865094385","0.9756627961","0.5545204825","0.733520678","","","","","","","","","","","","","","72","H","0","img/none_selected.jpg","","5","main_expt",""
"","bandit","85","384741","0.0-47.0-0.0","73623298","wem/bandit_party_2","A1S6QWSCBRYSFZ","either","2","1844","","","","","","","0","1","0","","0.967089612","0.8","0.6","0.2","0.4","0.800956518","0.967089612","0.6032406034","0.6705264102","","","","","","","","","","","","","","74","J","1","","","6","main_expt",""
"","bandit","86","387701","0.0-48.0-0.0","73623298","wem/bandit_party_2","A1S6QWSCBRYSFZ","either","2","1449","","","","","","","0","1","0","","0.6395389268","0.8","0.6","0.2","0.4","0.826484282","0.9581374084","0.6629125932","0.6395389268","","","","","","","","","","","","","","76","L","3","","","7","main_expt",""
"","bandit","87","391299","0.0-49.0-0.0","73623298","wem/bandit_party_2","A1S6QWSCBRYSFZ","either","2","2089","","","","","","","1","0","0","0.8721258401","","0.8","0.6","0.2","0.4","","","","","0.8721258401","0.9470057872","0.6179372523","0.6463283336","","","","","","","","","","72","H","0","img/none_selected.jpg","","8","main_expt",""
"","bandit","88","394079","0.0-50.0-0.0","73623298","wem/bandit_party_2","A1S6QWSCBRYSFZ","either","2","1269","","","","","","","1","0","0","0.9776699295","","0.8","0.6","0.2","0.4","","","","","0.9123847657","0.9776699295","0.7126464358","0.5257156782","","","","","","","","","","74","J","1","","","9","main_expt",""
"","bandit","89","396877","0.0-51.0-0.0","73623298","wem/bandit_party_2","A1S6QWSCBRYSFZ","either","2","1288","","","","","","","1","0","0","0.4763364632","","0.8","0.6","0.2","0.4","","","","","0.8996742502","0.9728878591","0.7356985298","0.4763364632","","","","","","","","","","76","L","3","","","10","main_expt",""
"","bandit","90","399535","0.0-52.0-0.0","73623298","wem/bandit_party_2","A1S6QWSCBRYSFZ","either","2","1148","","","","","","","1","0","0","0.9593139104","","0.8","0.6","0.2","0.4","","","","","0.9131723876","0.9593139104","0.768711937","0.4284616273","","","","","","","","","","74","J","1","","","11","main_expt",""
"","bandit","91","402199","0.0-53.0-0.0","73623298","wem/bandit_party_2","A1S6QWSCBRYSFZ","either","2","1156","","","","","","","1","0","0","0.9498917819","","0.8","0.6","0.2","0.4","","","","","0.8766857583","0.9498917819","0.775032537","0.3846657661","","","","","","","","","","74","J","1","","","12","main_expt",""
"","bandit","92","404610","0.0-54.0-0.0","73623298","wem/bandit_party_2","A1S6QWSCBRYSFZ","either","2","900","","","","","","","1","0","0","0.8395211377","","0.8","0.6","0.2","0.4","","","","","0.8395211377","0.9541602679","0.8005481332","0.4534267517","","","","","","","","","","72","H","0","img/none_selected.jpg","","13","main_expt",""
"","bandit","93","406715","0.0-55.0-0.0","73623298","wem/bandit_party_2","A1S6QWSCBRYSFZ","either","2","592","","","","","","","1","0","0","0.9457654821","","0.8","0.6","0.2","0.4","","","","","0.8716273459","0.9457654821","0.8437703121","0.5781166702","","","","","","","","","","74","J","1","","","14","main_expt",""
"","bandit","94","409309","0.0-56.0-0.0","73623298","wem/bandit_party_2","A1S6QWSCBRYSFZ","either","2","1086","","","","","","","0","1","0","","0.6683268695","0.8","0.6","0.2","0.4","0.8884181174","0.961431504","0.7878475566","0.6683268695","","","","","","","","","","","","","","76","L","3","","","15","main_expt",""
"","bandit","95","411886","0.0-57.0-0.0","73623298","wem/bandit_party_2","A1S6QWSCBRYSFZ","either","2","1069","","","","","","","0","0","1","0.6948649322","","0.8","0.6","0.2","0.4","","","","","0.9144873871","0.9614480804","0.7873795395","0.6948649322","","","","","","","","","","76","L","3","","","16","main_expt",""
"","bandit","96","414532","0.0-58.0-0.0","73623298","wem/bandit_party_2","A1S6QWSCBRYSFZ","either","2","1135","","","","","","","0","1","0","","0.981184269","0.8","0.6","0.2","0.4","0.915766025","0.981184269","0.8084550093","0.7674725463","","","","","","","","","","","","","","74","J","1","","","17","main_expt",""
"","bandit","97","416581","0.0-59.0-0.0","73623298","wem/bandit_party_2","A1S6QWSCBRYSFZ","either","2","536","","","","","","","1","0","0","0.9861919244","","0.8","0.6","0.2","0.4","","","","","0.9357816117","0.9861919244","0.8436933745","0.7706733977","","","","","","","","","","74","J","1","","","18","main_expt",""
"","bandit","98","418572","0.0-60.0-0.0","73623298","wem/bandit_party_2","A1S6QWSCBRYSFZ","either","2","478","","","","","","","0","1","0","","0.9482019282","0.8","0.6","0.2","0.4","0.9482019282","0.986789567","0.8059530903","0.7396491891","","","","","","","","","","","","","","72","H","0","img/none_selected.jpg","","19","main_expt",""
"","bandit","99","420911","0.0-61.0-0.0","73623298","wem/bandit_party_2","A1S6QWSCBRYSFZ","either","2","828","","","","","","","1","0","0","0.9433726768","","0.8","0.6","0.2","0.4","","","","","0.9433726768","0.986183881","0.7839513496","0.6712916173","","","","","","","","","","72","H","0","img/none_selected.jpg","","20","main_expt",""
"","bandit","100","422756","0.0-62.0-0.0","73623298","wem/bandit_party_2","A1S6QWSCBRYSFZ","either","2","335","","","","","","","1","0","0","0.9887099493","","0.8","0.6","0.2","0.4","","","","","0.9488284628","0.9887099493","0.7841815244","0.6728887443","","","","","","","","","","74","J","1","","","21","main_expt",""
"","bandit","101","424962","0.0-63.0-0.0","73623298","wem/bandit_party_2","A1S6QWSCBRYSFZ","either","2","693","","","","","","","1","0","0","0.992558567","","0.8","0.6","0.2","0.4","","","","","0.9500515088","0.992558567","0.8256278583","0.7838502077","","","","","","","","","","74","J","1","","","22","main_expt",""
"","bandit","102","427098","0.0-64.0-0.0","73623298","wem/bandit_party_2","A1S6QWSCBRYSFZ","either","2","626","","","","","","","1","0","0","0.9645760881","","0.8","0.6","0.2","0.4","","","","","0.9645760881","0.9906074595","0.7043778873","0.8711917965","","","","","","","","","","72","H","0","img/none_selected.jpg","","23","main_expt",""
"","bandit","103","429181","0.0-65.0-0.0","73623298","wem/bandit_party_2","A1S6QWSCBRYSFZ","either","2","570","","","","","","","0","1","0","","0.9828703082","0.8","0.6","0.2","0.4","0.946785539","0.9828703082","0.7662705475","0.861124964","","","","","","","","","","","","","","74","J","1","","","24","main_expt",""
"","bandit","104","431543","0.0-66.0-0.0","73623298","wem/bandit_party_2","A1S6QWSCBRYSFZ","either","2","850","","","","","","","0","1","0","","0.984618899","0.8","0.6","0.2","0.4","0.9229473608","0.984618899","0.6915147264","0.8551403996","","","","","","","","","","","","","","74","J","1","","","25","main_expt",""
"","bandit","105","433726","0.0-67.0-0.0","73623298","wem/bandit_party_2","A1S6QWSCBRYSFZ","either","2","671","","","","","","","0","1","0","","0.8959771014","0.8","0.6","0.2","0.4","0.8729820127","0.9780938917","0.6844606422","0.8959771014","","","","","","","","","","","","","","76","L","3","","","26","main_expt",""
"","bandit","106","436111","0.0-68.0-0.0","73623298","wem/bandit_party_2","A1S6QWSCBRYSFZ","either","2","873","","","","","","","0","1","0","","0.8786292531","0.8","0.6","0.2","0.4","0.859067388","0.9634866904","0.7953701942","0.8786292531","","","","","","","","","","","","","","76","L","3","","","27","main_expt",""
"","bandit","107","438345","0.0-69.0-0.0","73623298","wem/bandit_party_2","A1S6QWSCBRYSFZ","either","2","726","","","","","","","1","0","0","0.836267867","","0.8","0.6","0.2","0.4","","","","","0.836267867","0.946494378","0.622657036","0.8920593834","","","","","","","","","","72","H","0","img/none_selected.jpg","","28","main_expt",""
"","bandit","108","440551","0.0-70.0-0.0","73623298","wem/bandit_party_2","A1S6QWSCBRYSFZ","either","2","697","","","","","","","1","0","0","0.9338647731","","0.8","0.6","0.2","0.4","","","","","0.7158546556","0.9338647731","0.5757463716","0.8234517222","","","","","","","","","","74","J","1","","","29","main_expt",""
"","bandit","109","443296","0.0-71.0-0.0","73623298","wem/bandit_party_2","A1S6QWSCBRYSFZ","either","2","1236","","","","","","","1","0","0","0.9354801528","","0.8","0.6","0.2","0.4","","","","","0.7262950886","0.9354801528","0.6048158844","0.7963444676","","","","","","","","","","74","J","1","","","30","main_expt",""
"","bandit","110","445728","0.0-72.0-0.0","73623298","wem/bandit_party_2","A1S6QWSCBRYSFZ","either","2","921","","","","","","","1","0","0","0.7049485024","","0.8","0.6","0.2","0.4","","","","","0.7049485024","0.9323861487","0.4831208743","0.6847131082","","","","","","","","","","72","H","0","img/none_selected.jpg","","31","main_expt",""
"","bandit","111","447620","0.0-73.0-0.0","73623298","wem/bandit_party_2","A1S6QWSCBRYSFZ","either","2","379","","","","","","","0","0","1","","0.7745616343","0.8","0.6","0.2","0.4","0.6294605358","0.9159531952","0.4413454117","0.7745616343","","","","","","","","","","","","","","76","L","3","","","32","main_expt",""
"","bandit","112","451120","0.0-74.0-0.0","73623298","wem/bandit_party_2","A1S6QWSCBRYSFZ","either","2","1986","","","","","","","1","0","0","0.7097184707","","0.8","0.6","0.2","0.4","","","","","0.7097184707","0.9501333659","0.589686364","0.8111568365","","","","","","","","","","72","H","0","img/none_selected.jpg","","33","main_expt",""
"","bandit","113","453389","0.0-75.0-0.0","73623298","wem/bandit_party_2","A1S6QWSCBRYSFZ","either","2","759","","","","","","","1","0","0","0.9485118263","","0.8","0.6","0.2","0.4","","","","","0.6324728327","0.9485118263","0.5789977489","0.7291364049","","","","","","","","","","74","J","1","","","34","main_expt",""
"","bandit","114","456384","0.0-76.0-0.0","73623298","wem/bandit_party_2","A1S6QWSCBRYSFZ","either","2","1481","","","","","","","1","0","0","0.6809104991","","0.8","0.6","0.2","0.4","","","","","0.6809104991","0.959491173","0.5605822786","0.7920219322","","","","","","","","","","72","H","0","img/none_selected.jpg","","35","main_expt",""
"","bandit","115","458027","0.0-77.0-0.0","73623298","wem/bandit_party_2","A1S6QWSCBRYSFZ","either","2","130","","","","","","","1","0","0","0.5745256001","","0.8","0.6","0.2","0.4","","","","","0.5745256001","0.9523687656","0.3330948712","0.7889809596","","","","","","","","","","72","H","0","img/none_selected.jpg","","36","main_expt",""
"","bandit","116","459924","0.0-78.0-0.0","73623298","wem/bandit_party_2","A1S6QWSCBRYSFZ","either","2","389","","","","","","","1","0","0","0.9504344127","","0.8","0.6","0.2","0.4","","","","","0.6249275122","0.9504344127","0.2430176499","0.8060385269","","","","","","","","","","74","J","1","","","37","main_expt",""
"","bandit","117","462009","0.0-79.0-0.0","73623298","wem/bandit_party_2","A1S6QWSCBRYSFZ","either","2","571","","","","","","","0","1","0","","0.5582777804","0.8","0.6","0.2","0.4","0.5582777804","0.9321408283","0.3106083343","0.7188782676","","","","","","","","","","","","","","72","H","0","img/none_selected.jpg","","38","main_expt",""
"","bandit","118","464562","0.0-80.0-0.0","73623298","wem/bandit_party_2","A1S6QWSCBRYSFZ","either","2","1041","","","","","","","0","1","0","","0.9135525369","0.8","0.6","0.2","0.4","0.6619895395","0.9135525369","0.3239447463","0.7387945131","","","","","","","","","","","","","","74","J","1","","","39","main_expt",""
"","bandit","119","466622","0.0-81.0-0.0","73623298","wem/bandit_party_2","A1S6QWSCBRYSFZ","either","2","549","","","","","","","0","1","0","","0.8840916364","0.8","0.6","0.2","0.4","0.6522152691","0.8840916364","0.2946631509","0.7478035428","","","","","","","","","","","","","","74","J","1","","","40","main_expt",""
"","bandit","120","468625","0.0-82.0-0.0","73623298","wem/bandit_party_2","A1S6QWSCBRYSFZ","either","2","489","","","","","","","1","0","0","0.8747037504","","0.8","0.6","0.2","0.4","","","","","0.6714070371","0.8747037504","0.193597671","0.7802386085","","","","","","","","","","74","J","1","","","41","main_expt",""
"","bandit","121","471648","0.0-83.0-0.0","73623298","wem/bandit_party_2","A1S6QWSCBRYSFZ","either","2","1512","","","","","","","1","0","0","0.826315498","","0.8","0.6","0.2","0.4","","","","","0.6390104416","0.826315498","0.1834529884","0.7994277013","","","","","","","","","","74","J","1","","","42","main_expt",""
"","bandit","122","474597","0.0-84.0-0.0","73623298","wem/bandit_party_2","A1S6QWSCBRYSFZ","either","2","1437","","","","","","","1","0","0","0.6318841448","","0.8","0.6","0.2","0.4","","","","","0.6318841448","0.7681371561","0.1558663495","0.8718069658","","","","","","","","","","72","H","0","img/none_selected.jpg","","43","main_expt",""
"","bandit","123","477388","0.0-85.0-0.0","73623298","wem/bandit_party_2","A1S6QWSCBRYSFZ","either","2","1279","","","","","","","1","0","0","0.7584360225","","0.8","0.6","0.2","0.4","","","","","0.5708139437","0.7584360225","0.1573065196","0.7725207311","","","","","","","","","","74","J","1","","","44","main_expt",""
"","bandit","124","479803","0.0-86.0-0.0","73623298","wem/bandit_party_2","A1S6QWSCBRYSFZ","either","2","906","","","","","","","0","1","0","","0.816959585","0.8","0.6","0.2","0.4","0.5703812278","0.816959585","0.1743203636","0.8399140445","","","","","","","","","","","","","","74","J","1","","","45","main_expt",""
"","bandit","125","482345","0.0-87.0-0.0","73623298","wem/bandit_party_2","A1S6QWSCBRYSFZ","either","2","1033","","","","","","","0","0","1","","0.7571269921","0.8","0.6","0.2","0.4","0.4520700595","0.7571269921","0.1234040722","0.7830678696","","","","","","","","","","","","","","74","J","1","","","46","main_expt",""
"","bandit","126","484968","0.0-88.0-0.0","73623298","wem/bandit_party_2","A1S6QWSCBRYSFZ","either","2","1113","","","","","","","0","1","0","","0.4953600952","0.8","0.6","0.2","0.4","0.4953600952","0.7086567283","0.1592846429","0.8255209912","","","","","","","","","","","","","","72","H","0","img/none_selected.jpg","","47","main_expt",""
"","bandit","127","486936","0.0-89.0-0.0","73623298","wem/bandit_party_2","A1S6QWSCBRYSFZ","either","2","458","","","","","","","0","1","0","","0.4912921637","0.8","0.6","0.2","0.4","0.4912921637","0.6428227569","0.1880090658","0.7728754614","","","","","","","","","","","","","","72","H","0","img/none_selected.jpg","","48","main_expt",""
"","bandit","128","489141","0.0-90.0-0.0","73623298","wem/bandit_party_2","A1S6QWSCBRYSFZ","either","2","696","","","","","","","1","0","0","0.4694413912","","0.8","0.6","0.2","0.4","","","","","0.4694413912","0.7004196772","0.3190576765","0.8607162984","","","","","","","","","","72","H","0","img/none_selected.jpg","","49","main_expt",""
"","bandit","129","491474","0.0-91.0-0.0","73623298","wem/bandit_party_2","A1S6QWSCBRYSFZ","either","2","818","","","","","","","0","1","0","","0.5835687148","0.8","0.6","0.2","0.4","0.5835687148","0.6418514465","0.277770718","0.8526113732","","","","","","","","","","","","","","72","H","0","img/none_selected.jpg","","50","main_expt",""
"","bandit","130","494556","0.0-92.0-0.0","73623298","wem/bandit_party_2","A1S6QWSCBRYSFZ","either","2","1569","","","","","","","0","1","0","","0.581499138","0.8","0.6","0.2","0.4","0.581499138","0.6322169777","0.3304163056","0.8630835666","","","","","","","","","","","","","","72","H","0","img/none_selected.jpg","","51","main_expt",""
"","bandit","131","496669","0.0-93.0-0.0","73623298","wem/bandit_party_2","A1S6QWSCBRYSFZ","either","2","601","","","","","","","0","0","1","","0.6521379128","0.8","0.6","0.2","0.4","0.6521379128","0.6160259873","0.3074301744","0.8689990829","","","","","","","","","","","","","","72","H","0","img/none_selected.jpg","","52","main_expt",""
"","bandit","132","499258","0.0-94.0-0.0","73623298","wem/bandit_party_2","A1S6QWSCBRYSFZ","either","2","1077","","","","","","","0","0","1","","0.6635838846","0.8","0.6","0.2","0.4","0.5743957808","0.6635838846","0.3292402402","0.8829627288","","","","","","","","","","","","","","74","J","1","","","53","main_expt",""
"","bandit","133","502235","0.0-95.0-0.0","73623298","wem/bandit_party_2","A1S6QWSCBRYSFZ","either","2","1469","","","","","","","1","0","0","0.8577096669","","0.8","0.6","0.2","0.4","","","","","0.4765250731","0.7334380463","0.3701383524","0.8577096669","","","","","","","","","","76","L","3","","","54","main_expt",""
"","bandit","134","504318","0.0-96.0-0.0","73623298","wem/bandit_party_2","A1S6QWSCBRYSFZ","either","2","573","","","","","","","1","0","0","0.7951355038","","0.8","0.6","0.2","0.4","","","","","0.472038817","0.6625049704","0.4023440482","0.7951355038","","","","","","","","","","76","L","3","","","55","main_expt",""
"","bandit","135","506942","0.0-97.0-0.0","73623298","wem/bandit_party_2","A1S6QWSCBRYSFZ","either","2","1111","","","","","","","0","1","0","","0.7832403428","0.8","0.6","0.2","0.4","0.6060805283","0.6244126183","0.3320470731","0.7832403428","","","","","","","","","","","","","","76","L","3","","","56","main_expt",""
"","bandit","136","509223","0.0-98.0-0.0","73623298","wem/bandit_party_2","A1S6QWSCBRYSFZ","either","2","771","","","","","","","0","1","0","","0.7165346004","0.8","0.6","0.2","0.4","0.5733746242","0.693445159","0.3398704556","0.7165346004","","","","","","","","","","","","","","76","L","3","","","57","main_expt",""
"","bandit","137","511115","0.0-99.0-0.0","73623298","wem/bandit_party_2","A1S6QWSCBRYSFZ","either","2","381","","","","","","","0","1","0","","0.7840704931","0.8","0.6","0.2","0.4","0.5268086549","0.6603141298","0.3171476707","0.7840704931","","","","","","","","","","","","","","76","L","3","","","58","main_expt",""
"","bandit","138","513384","0.0-100.0-0.0","73623298","wem/bandit_party_2","A1S6QWSCBRYSFZ","either","2","761","","","","","","","1","0","0","0.7166558068","","0.8","0.6","0.2","0.4","","","","","0.5298916697","0.6435133917","0.1868584885","0.7166558068","","","","","","","","","","76","L","3","","","59","main_expt",""
"","bandit","139","515694","0.0-101.0-0.0","73623298","wem/bandit_party_2","A1S6QWSCBRYSFZ","either","2","798","","","","","","","1","0","0","0.6505055492","","0.8","0.6","0.2","0.4","","","","","0.5547432704","0.6720075741","0.2163153633","0.6505055492","","","","","","","","","","76","L","3","","","60","main_expt",""
"","bandit","140","517563","0.0-102.0-0.0","73623298","wem/bandit_party_2","A1S6QWSCBRYSFZ","either","2","354","","","","","","","0","1","0","","0.6465946667","0.8","0.6","0.2","0.4","0.5407031957","0.6703611074","0.2086512551","0.6465946667","","","","","","","","","","","","","","76","L","3","","","61","main_expt",""
"","bandit","141","519878","0.0-103.0-0.0","73623298","wem/bandit_party_2","A1S6QWSCBRYSFZ","either","2","804","","","","","","","0","0","1","0.709990362","","0.8","0.6","0.2","0.4","","","","","0.6993449034","0.64477312","0.2250062338","0.709990362","","","","","","","","","","76","L","3","","","62","main_expt",""
"","bandit","142","522937","0.0-104.0-0.0","73623298","wem/bandit_party_2","A1S6QWSCBRYSFZ","either","2","1549","","","","","","","1","0","0","0.509049177","","0.8","0.6","0.2","0.4","","","","","0.6342967703","0.509049177","0.2739380208","0.7542168012","","","","","","","","","","74","J","1","","","63","main_expt",""
"","bandit","143","525468","0.0-105.0-0.0","73623298","wem/bandit_party_2","A1S6QWSCBRYSFZ","either","2","1021","","","","","","","0","0","1","0.5535424332","","0.8","0.6","0.2","0.4","","","","","0.5961490325","0.5535424332","0.3449536465","0.7660604158","","","","","","","","","","74","J","1","","","64","main_expt",""
"","bandit","144","527830","0.0-106.0-0.0","73623298","wem/bandit_party_2","A1S6QWSCBRYSFZ","either","2","853","","","","","","","1","0","0","0.6608621899","","0.8","0.6","0.2","0.4","","","","","0.5771190674","0.6608621899","0.34640195","0.7572602099","","","","","","","","","","74","J","1","","","65","main_expt",""
"","bandit","145","529768","0.0-107.0-0.0","73623298","wem/bandit_party_2","A1S6QWSCBRYSFZ","either","2","426","","","","","","","0","0","1","0.6535341977","","0.8","0.6","0.2","0.4","","","","","0.4765921407","0.6535341977","0.5266288285","0.686926195","","","","","","","","","","74","J","1","","","66","main_expt",""
"","bandit","146","531643","0.0-108.0-0.0","73623298","wem/bandit_party_2","A1S6QWSCBRYSFZ","either","2","366","","","","","","","0","0","1","0.5714361875","","0.8","0.6","0.2","0.4","","","","","0.5714361875","0.6592628399","0.5588671697","0.7334195653","","","","","","","","","","72","H","0","img/none_selected.jpg","","67","main_expt",""
"","bandit","147","533843","0.0-109.0-0.0","73623298","wem/bandit_party_2","A1S6QWSCBRYSFZ","either","2","686","","","","","","","0","0","1","0.6231829193","","0.8","0.6","0.2","0.4","","","","","0.6231829193","0.6735013879","0.6097536784","0.6114245881","","","","","","","","","","72","H","0","img/none_selected.jpg","","68","main_expt",""
"","bandit","148","536077","0.0-110.0-0.0","73623298","wem/bandit_party_2","A1S6QWSCBRYSFZ","either","2","724","","","","","","","0","1","0","","0.6460921668","0.8","0.6","0.2","0.4","0.5130256365","0.7209687993","0.533457584","0.6460921668","","","","","","","","","","","","","","76","L","3","","","69","main_expt",""
"","bandit","149","538486","0.0-111.0-0.0","73623298","wem/bandit_party_2","A1S6QWSCBRYSFZ","either","2","897","","","","","","","0","1","0","","0.6700702736","0.8","0.6","0.2","0.4","0.5167166","0.690528825","0.4124750721","0.6700702736","","","","","","","","","","","","","","76","L","3","","","70","main_expt",""
"","bandit","150","540726","0.0-112.0-0.0","73623298","wem/bandit_party_2","A1S6QWSCBRYSFZ","either","2","727","","","","","","","0","1","0","","0.6388012411","0.8","0.6","0.2","0.4","0.6448170737","0.6453310316","0.4486526525","0.6388012411","","","","","","","","","","","","","","76","L","3","","","71","main_expt",""
"","bandit","151","543111","0.0-113.0-0.0","73623298","wem/bandit_party_2","A1S6QWSCBRYSFZ","either","2","871","","","","","","","0","0","1","0.6046900378","","0.8","0.6","0.2","0.4","","","","","0.5640434706","0.8140348339","0.4313602212","0.6046900378","","","","","","","","","","76","L","3","","","72","main_expt",""
"","bandit","152","545125","0.0-114.0-0.0","73623298","wem/bandit_party_2","A1S6QWSCBRYSFZ","either","2","501","","","","","","","0","0","1","","0.6062428704","0.8","0.6","0.2","0.4","0.6296110197","0.820931829","0.3639072561","0.6062428704","","","","","","","","","","","","","","76","L","3","","","73","main_expt",""
"","bandit","153","547104","0.0-115.0-0.0","73623298","wem/bandit_party_2","A1S6QWSCBRYSFZ","either","2","466","","","","","","","1","0","0","0.8096233945","","0.8","0.6","0.2","0.4","","","","","0.6730210969","0.8096233945","0.2882181569","0.6237194739","","","","","","","","","","74","J","1","","","74","main_expt",""
"","bandit","154","550175","0.0-116.0-0.0","73623298","wem/bandit_party_2","A1S6QWSCBRYSFZ","either","2","1560","","","","","","","1","0","0","0.5720403827","","0.8","0.6","0.2","0.4","","","","","0.5720403827","0.7615001707","0.3561187133","0.5971007372","","","","","","","","","","72","H","0","img/none_selected.jpg","","75","main_expt",""
"","bandit","155","552560","0.0-117.0-0.0","73623298","wem/bandit_party_2","A1S6QWSCBRYSFZ","either","2","874","","","","","","","0","0","1","0.6303512149","","0.8","0.6","0.2","0.4","","","","","0.6303512149","0.8147365981","0.4480894403","0.5810032438","","","","","","","","","","72","H","0","img/none_selected.jpg","","76","main_expt",""
"","bandit","156","554766","0.0-118.0-0.0","73623298","wem/bandit_party_2","A1S6QWSCBRYSFZ","either","2","694","","","","","","","1","0","0","0.8926338818","","0.8","0.6","0.2","0.4","","","","","0.5531797874","0.8926338818","0.3220850356","0.5792233978","","","","","","","","","","74","J","1","","","77","main_expt",""
"","bandit","157","556901","0.0-119.0-0.0","73623298","wem/bandit_party_2","A1S6QWSCBRYSFZ","either","2","626","","","","","","","0","1","0","","0.8669072201","0.8","0.6","0.2","0.4","0.5449672882","0.8669072201","0.3281133775","0.692511921","","","","","","","","","","","","","","74","J","1","","","78","main_expt",""
"","bandit","158","559275","0.0-120.0-0.0","73623298","wem/bandit_party_2","A1S6QWSCBRYSFZ","either","2","864","","","","","","","1","0","0","0.9114006046","","0.8","0.6","0.2","0.4","","","","","0.4484013318","0.9114006046","0.3814329202","0.7019625083","","","","","","","","","","74","J","1","","","79","main_expt",""
"","bandit","159","561614","0.0-121.0-0.0","73623298","wem/bandit_party_2","A1S6QWSCBRYSFZ","either","2","830","","","","","","","1","0","0","0.9268398106","","0.8","0.6","0.2","0.4","","","","","0.5041425745","0.9268398106","0.3512572076","0.6785675641","","","","","","","","","","74","J","1","","","80","main_expt",""
"","bandit","160","563959","0.0-122.0-0.0","73623298","wem/bandit_party_2","A1S6QWSCBRYSFZ","either","2","830","","","","","","","0","1","0","","0.9582858862","0.8","0.6","0.2","0.4","0.3462078978","0.9582858862","0.3624285329","0.7101061672","","","","","","","","","","","","","","74","J","1","","","81","main_expt",""
"","bandit","161","566658","0.0-123.0-0.0","73623298","wem/bandit_party_2","A1S6QWSCBRYSFZ","either","2","1185","","","","","","","1","0","0","0.9590071975","","0.8","0.6","0.2","0.4","","","","","0.3226795418","0.9590071975","0.3111883408","0.7217376576","","","","","","","","","","74","J","1","","","82","main_expt",""
"","bandit","162","568515","0.0-124.0-0.0","73623298","wem/bandit_party_2","A1S6QWSCBRYSFZ","either","2","344","","","","","","","1","0","0","0.9379973093","","0.8","0.6","0.2","0.4","","","","","0.3023868023","0.9379973093","0.243162563","0.6437777395","","","","","","","","","","74","J","1","","","83","main_expt",""
"","bandit","163","570604","0.0-125.0-0.0","73623298","wem/bandit_party_2","A1S6QWSCBRYSFZ","either","2","578","","","","","","","0","0","1","0.4040419094","","0.8","0.6","0.2","0.4","","","","","0.4040419094","0.9411979228","0.347146949","0.6533183273","","","","","","","","","","72","H","0","img/none_selected.jpg","","84","main_expt",""
"","bandit","164","573181","0.0-126.0-0.0","73623298","wem/bandit_party_2","A1S6QWSCBRYSFZ","either","2","1064","","","","","","","0","0","1","","0.7469548387","0.8","0.6","0.2","0.4","0.4716136817","0.9441700551","0.4416309426","0.7469548387","","","","","","","","","","","","","","76","L","3","","","85","main_expt",""
"","bandit","165","575689","0.0-127.0-0.0","73623298","wem/bandit_party_2","A1S6QWSCBRYSFZ","either","2","997","","","","","","","0","1","0","","0.9323605113","0.8","0.6","0.2","0.4","0.4455883603","0.9323605113","0.4523797492","0.7366570046","","","","","","","","","","","","","","74","J","1","","","86","main_expt",""
"","bandit","166","578097","0.0-128.0-0.0","73623298","wem/bandit_party_2","A1S6QWSCBRYSFZ","either","2","898","","","","","","","1","0","0","0.8871332711","","0.8","0.6","0.2","0.4","","","","","0.5952575165","0.8871332711","0.4621103264","0.7142428019","","","","","","","","","","74","J","1","","","87","main_expt",""
"","bandit","167","579989","0.0-129.0-0.0","73623298","wem/bandit_party_2","A1S6QWSCBRYSFZ","either","2","380","","","","","","","1","0","0","0.8520973281","","0.8","0.6","0.2","0.4","","","","","0.5333825583","0.8520973281","0.3800084876","0.7057172343","","","","","","","","","","74","J","1","","","88","main_expt",""
"","bandit","168","581835","0.0-130.0-0.0","73623298","wem/bandit_party_2","A1S6QWSCBRYSFZ","either","2","331","","","","","","","1","0","0","0.7882210871","","0.8","0.6","0.2","0.4","","","","","0.4583166828","0.7882210871","0.2354372355","0.7289934888","","","","","","","","","","74","J","1","","","89","main_expt",""
"","bandit","169","583947","0.0-131.0-0.0","73623298","wem/bandit_party_2","A1S6QWSCBRYSFZ","either","2","601","","","","","","","0","1","0","","0.720110267","0.8","0.6","0.2","0.4","0.4782349553","0.720110267","0.2978482647","0.7475354559","","","","","","","","","","","","","","74","J","1","","","90","main_expt",""
"","bandit","170","586083","0.0-132.0-0.0","73623298","wem/bandit_party_2","A1S6QWSCBRYSFZ","either","2","626","","","","","","","0","1","0","","0.7390342074","0.8","0.6","0.2","0.4","0.464138054","0.7390342074","0.3723871884","0.6316706059","","","","","","","","","","","","","","74","J","1","","","91","main_expt",""
"","bandit","171","588504","0.0-133.0-0.0","73623298","wem/bandit_party_2","A1S6QWSCBRYSFZ","either","2","909","","","","","","","1","0","0","0.8135224625","","0.8","0.6","0.2","0.4","","","","","0.5084128334","0.8135224625","0.5400298203","0.6957908828","","","","","","","","","","74","J","1","","","92","main_expt",""
"","bandit","172","590767","0.0-134.0-0.0","73623298","wem/bandit_party_2","A1S6QWSCBRYSFZ","either","2","750","","","","","","","0","1","0","","0.7814404678","0.8","0.6","0.2","0.4","0.5211356389","0.7814404678","0.5134744583","0.6812665662","","","","","","","","","","","","","","74","J","1","","","93","main_expt",""
"","bandit","173","593160","0.0-135.0-0.0","73623298","wem/bandit_party_2","A1S6QWSCBRYSFZ","either","2","880","","","","","","","0","1","0","","0.7672416568","0.8","0.6","0.2","0.4","0.4554037602","0.7672416568","0.4101580275","0.6412933588","","","","","","","","","","","","","","74","J","1","","","94","main_expt",""
"","bandit","174","595242","0.0-136.0-0.0","73623298","wem/bandit_party_2","A1S6QWSCBRYSFZ","either","2","571","","","","","","","1","0","0","0.7573973965","","0.8","0.6","0.2","0.4","","","","","0.4195046205","0.7573973965","0.2995167601","0.5696630174","","","","","","","","","","74","J","1","","","95","main_expt",""
"","bandit","175","598852","0.0-137.0-0.0","73623298","wem/bandit_party_2","A1S6QWSCBRYSFZ","either","2","2101","","","","","","","0","0","1","0.8177369732","","0.8","0.6","0.2","0.4","","","","","0.3638478563","0.8177369732","0.2934894425","0.6076398096","","","","","","","","","","74","J","1","","","96","main_expt",""
"","bandit","176","601342","0.0-138.0-0.0","73623298","wem/bandit_party_2","A1S6QWSCBRYSFZ","either","2","978","","","","","","","0","0","1","0.8124666872","","0.8","0.6","0.2","0.4","","","","","0.2839735208","0.8124666872","0.2802715202","0.5551612935","","","","","","","","","","74","J","1","","","97","main_expt",""
"","bandit","177","603646","0.0-139.0-0.0","73623298","wem/bandit_party_2","A1S6QWSCBRYSFZ","either","2","793","","","","","","","0","1","0","","0.881496875","0.8","0.6","0.2","0.4","0.2109275999","0.881496875","0.2703087955","0.6354974245","","","","","","","","","","","","","","74","J","1","","","98","main_expt",""
"","bandit","178","606054","0.0-140.0-0.0","73623298","wem/bandit_party_2","A1S6QWSCBRYSFZ","either","2","896","","","","","","","0","0","1","","0.5945745664","0.8","0.6","0.2","0.4","0.1531506719","0.8785981907","0.3027543159","0.5945745664","","","","","","","","","","","","","","76","L","3","","","99","main_expt",""
"","bandit","179","608347","0.0-141.0-0.0","73623298","wem/bandit_party_2","A1S6QWSCBRYSFZ","either","2","782","","","","","","","1","0","0","0.1262108991","","0.8","0.6","0.2","0.4","","","","","0.1262108991","0.8494581726","0.3645318829","0.5679097985","","","","","","","","","","72","H","0","img/none_selected.jpg","","100","main_expt",""
"","bandit","180","610779","0.0-142.0-0.0","73623298","wem/bandit_party_2","A1S6QWSCBRYSFZ","either","2","920","","","","","","","0","0","1","","0.1340220502","0.8","0.6","0.2","0.4","0.1340220502","0.7754784616","0.4315832637","0.6430580454","","","","","","","","","","","","","","72","H","0","img/none_selected.jpg","","101","main_expt",""
"","bandit","181","613292","0.0-143.0-0.0","73623298","wem/bandit_party_2","A1S6QWSCBRYSFZ","either","2","997","","","","","","","1","0","0","0.7626736499","","0.8","0.6","0.2","0.4","","","","","0.2167126086","0.7626736499","0.3608531129","0.6340200926","","","","","","","","","","74","J","1","","","102","main_expt",""
"","bandit","182","616293","0.0-144.0-0.0","73623298","wem/bandit_party_2","A1S6QWSCBRYSFZ","either","2","1489","","","","","","","0","1","0","","0.7329996306","0.8","0.6","0.2","0.4","0.2796352144","0.7329996306","0.3688981903","0.6377668076","","","","","","","","","","","","","","74","J","1","","","103","main_expt",""
"","bandit","183","617998","0.0-145.0-0.0","73623298","wem/bandit_party_2","A1S6QWSCBRYSFZ","either","2","197","","","","","","","1","0","0","0.7467689404","","0.8","0.6","0.2","0.4","","","","","0.3556406549","0.7467689404","0.3758155051","0.6578341575","","","","","","","","","","74","J","1","","","104","main_expt",""
"","bandit","184","619804","0.0-146.0-0.0","73623298","wem/bandit_party_2","A1S6QWSCBRYSFZ","either","2","292","","","","","","","1","0","0","0.737018723","","0.8","0.6","0.2","0.4","","","","","0.3233911601","0.737018723","0.4508947075","0.6727034752","","","","","","","","","","74","J","1","","","105","main_expt",""
"","bandit","185","622369","0.0-147.0-0.0","73623298","wem/bandit_party_2","A1S6QWSCBRYSFZ","either","2","1052","","","","","","","0","1","0","","0.655194185","0.8","0.6","0.2","0.4","0.2024631506","0.655194185","0.4132181144","0.6386482702","","","","","","","","","","","","","","74","J","1","","","106","main_expt",""
"","bandit","186","624279","0.0-148.0-0.0","73623298","wem/bandit_party_2","A1S6QWSCBRYSFZ","either","2","399","","","","","","","1","0","0","0.7122819559","","0.8","0.6","0.2","0.4","","","","","0.2290393164","0.7122819559","0.4393512677","0.6788938686","","","","","","","","","","74","J","1","","","107","main_expt",""
"","bandit","187","626710","0.0-149.0-0.0","73623298","wem/bandit_party_2","A1S6QWSCBRYSFZ","either","2","920","","","","","","","0","0","1","0.7326995505","","0.8","0.6","0.2","0.4","","","","","0.2217712157","0.7326995505","0.4964319729","0.7076498576","","","","","","","","","","74","J","1","","","108","main_expt",""
"","bandit","188","628904","0.0-150.0-0.0","73623298","wem/bandit_party_2","A1S6QWSCBRYSFZ","either","2","681","","","","","","","0","0","1","","0.1566860935","0.8","0.6","0.2","0.4","0.1566860935","0.7165499475","0.4790921069","0.6932550908","","","","","","","","","","","","","","72","H","0","img/none_selected.jpg","","109","main_expt",""
"","bandit","189","631098","0.0-151.0-0.0","73623298","wem/bandit_party_2","A1S6QWSCBRYSFZ","either","2","681","","","","","","","0","1","0","","0.6058017554","0.8","0.6","0.2","0.4","0.1083987113","0.6058017554","0.5856434505","0.7436061547","","","","","","","","","","","","","","74","J","1","","","110","main_expt",""
"","bandit","190","633066","0.0-152.0-0.0","73623298","wem/bandit_party_2","A1S6QWSCBRYSFZ","either","2","456","","","","","","","0","1","0","","0.657194241","0.8","0.6","0.2","0.4","0.217828795","0.5476823758","0.6444230696","0.657194241","","","","","","","","","","","","","","76","L","3","","","111","main_expt",""
"","bandit","191","635271","0.0-153.0-0.0","73623298","wem/bandit_party_2","A1S6QWSCBRYSFZ","either","2","693","","","","","","","0","1","0","","0.6317228327","0.8","0.6","0.2","0.4","0.2212119155","0.5688313193","0.603417252","0.6317228327","","","","","","","","","","","","","","76","L","3","","","112","main_expt",""
"","bandit","192","637622","0.0-154.0-0.0","73623298","wem/bandit_party_2","A1S6QWSCBRYSFZ","either","2","839","","","","","","","0","0","1","","0.4985892417","0.8","0.6","0.2","0.4","0.2374112476","0.50852785","0.420613871","0.4985892417","","","","","","","","","","","","","","76","L","3","","","113","main_expt",""
"","bandit","193","639566","0.0-155.0-0.0","73623298","wem/bandit_party_2","A1S6QWSCBRYSFZ","either","2","434","","","","","","","1","0","0","0.5711084253","","0.8","0.6","0.2","0.4","","","","","0.2703699348","0.5711084253","0.2851569533","0.579071345","","","","","","","","","","74","J","1","","","114","main_expt",""
"","bandit","194","642009","0.0-156.0-0.0","73623298","wem/bandit_party_2","A1S6QWSCBRYSFZ","either","2","931","","","","","","","0","0","1","0.4177754351","","0.8","0.6","0.2","0.4","","","","","0.1928485376","0.4177754351","0.3166589884","0.4595939904","","","","","","","","","","74","J","1","","","115","main_expt",""
"","bandit","195","643675","0.0-157.0-0.0","73623298","wem/bandit_party_2","A1S6QWSCBRYSFZ","either","2","153","","","","","","","0","0","1","0.387840809","","0.8","0.6","0.2","0.4","","","","","0.136356343","0.387840809","0.3928451607","0.3744567546","","","","","","","","","","74","J","1","","","116","main_expt",""
"","bandit","196","646049","0.0-158.0-0.0","73623298","wem/bandit_party_2","A1S6QWSCBRYSFZ","either","2","862","","","","","","","0","1","0","","0.4456731606","0.8","0.6","0.2","0.4","0.2193113504","0.4456731606","0.560845346","0.302145019","","","","","","","","","","","","","","74","J","1","","","117","main_expt",""
"","bandit","197","648341","0.0-159.0-0.0","73623298","wem/bandit_party_2","A1S6QWSCBRYSFZ","either","2","782","","","","","","","0","1","0","","0.3045880574","0.8","0.6","0.2","0.4","0.2686792008","0.3045880574","0.5536818424","0.3522466686","","","","","","","","","","","","","","74","J","1","","","118","main_expt",""
"","bandit","198","650942","0.0-160.0-0.0","73623298","wem/bandit_party_2","A1S6QWSCBRYSFZ","either","2","1089","","","","","","","0","0","1","0.3994134075","","0.8","0.6","0.2","0.4","","","","","0.2668270476","0.3994134075","0.3617659687","0.4425542362","","","","","","","","","","74","J","1","","","119","main_expt",""
"","bandit","199","653193","0.0-161.0-0.0","73623298","wem/bandit_party_2","A1S6QWSCBRYSFZ","either","2","738","","","","","","","1","0","0","0.3723992114","","0.8","0.6","0.2","0.4","","","","","0.3723992114","0.351449483","0.3454740543","0.3377532805","","","","","","","","","","72","H","0","img/none_selected.jpg","","120","main_expt",""
"","bandit","200","655579","0.0-162.0-0.0","73623298","wem/bandit_party_2","A1S6QWSCBRYSFZ","either","2","872","","","","","","","0","0","1","0.4001238515","","0.8","0.6","0.2","0.4","","","","","0.4001238515","0.3641911367","0.2798257893","0.2929504356","","","","","","","","","","72","H","0","img/none_selected.jpg","","121","main_expt",""
"","bandit","201","657355","0.0-163.0-0.0","73623298","wem/bandit_party_2","A1S6QWSCBRYSFZ","either","2","264","","","","","","","0","0","1","0.2504028886","","0.8","0.6","0.2","0.4","","","","","0.4090120715","0.2673706252","0.2261540995","0.2504028886","","","","","","","","","","76","L","3","","","122","main_expt",""
"","bandit","202","659438","0.0-164.0-0.0","73623298","wem/bandit_party_2","A1S6QWSCBRYSFZ","either","2","569","","","","","","","0","0","1","","0.2414849785","0.8","0.6","0.2","0.4","0.4746108064","0.3455372181","0.2766663047","0.2414849785","","","","","","","","","","","","","","76","L","3","","","123","main_expt",""
"","bandit","203","661023","0.0-165.0-0.0","73623298","wem/bandit_party_2","A1S6QWSCBRYSFZ","either","2","72","","","","","","","0","0","1","0.453231646","","0.8","0.6","0.2","0.4","","","","","0.453231646","0.3524137631","0.3126864395","0.1791255979","","","","","","","","","","72","H","0","img/none_selected.jpg","","124","main_expt",""
"","bandit","204","662834","0.0-166.0-0.0","73623298","wem/bandit_party_2","A1S6QWSCBRYSFZ","either","2","299","","","","","","","1","0","0","0.3680881866","","0.8","0.6","0.2","0.4","","","","","0.4888945922","0.3680881866","0.2772507379","0.1952456852","","","","","","","","","","74","J","1","","","125","main_expt",""
"","bandit","205","664906","0.0-167.0-0.0","73623298","wem/bandit_party_2","A1S6QWSCBRYSFZ","either","2","558","","","","","","","0","0","1","0.2884444508","","0.8","0.6","0.2","0.4","","","","","0.396932523","0.2884444508","0.2441417391","0.2614303707","","","","","","","","","","74","J","1","","","126","main_expt",""
"","bandit","206","667332","0.0-168.0-0.0","73623298","wem/bandit_party_2","A1S6QWSCBRYSFZ","either","2","916","","","","","","","0","0","1","0.2931854252","","0.8","0.6","0.2","0.4","","","","","0.4026562496","0.2931854252","0.2304038214","0.267511235","","","","","","","","","","74","J","1","","","127","main_expt",""
"","bandit","207","669880","0.0-169.0-0.0","73623298","wem/bandit_party_2","A1S6QWSCBRYSFZ","either","2","1033","","","","","","","1","0","0","0.3072143153","","0.8","0.6","0.2","0.4","","","","","0.3072143153","0.3115494401","0.2463692943","0.2582460394","","","","","","","","","","72","H","0","img/none_selected.jpg","","128","main_expt",""
"","bandit","208","671888","0.0-170.0-0.0","73623298","wem/bandit_party_2","A1S6QWSCBRYSFZ","either","2","498","","","","","","","1","0","0","0.3024431642","","0.8","0.6","0.2","0.4","","","","","0.3024431642","0.287093163","0.262841392","0.249100023","","","","","","","","","","72","H","0","img/none_selected.jpg","","129","main_expt",""
"","bandit","209","674029","0.0-171.0-0.0","73623298","wem/bandit_party_2","A1S6QWSCBRYSFZ","either","2","627","","","","","","","0","0","1","","0.383823705","0.8","0.6","0.2","0.4","0.383823705","0.242368994","0.3044503748","0.2014680341","","","","","","","","","","","","","","72","H","0","img/none_selected.jpg","","130","main_expt",""
"","bandit","210","675985","0.0-172.0-0.0","73623298","wem/bandit_party_2","A1S6QWSCBRYSFZ","either","2","443","","","","","","","0","0","1","0.5448185218","","0.8","0.6","0.2","0.4","","","","","0.5448185218","0.3141093292","0.2231782293","0.2514612397","","","","","","","","","","72","H","0","img/none_selected.jpg","","131","main_expt",""
"","bandit","211","678278","0.0-173.0-0.0","73623298","wem/bandit_party_2","A1S6QWSCBRYSFZ","either","2","782","","","","","","","0","0","1","","0.1719215191","0.8","0.6","0.2","0.4","0.5741986762","0.3186943837","0.265126842","0.1719215191","","","","","","","","","","","","","","76","L","3","","","132","main_expt",""
"","bandit","212","680408","0.0-174.0-0.0","73623298","wem/bandit_party_2","A1S6QWSCBRYSFZ","either","2","617","","","","","","","0","0","1","0.3218599317","","0.8","0.6","0.2","0.4","","","","","0.54298015","0.3218599317","0.1996467811","0.151851594","","","","","","","","","","74","J","1","","","133","main_expt",""
"","bandit","213","682938","0.0-175.0-0.0","73623298","wem/bandit_party_2","A1S6QWSCBRYSFZ","either","2","1018","","","","","","","0","0","1","","0.3372263261","0.8","0.6","0.2","0.4","0.5504084981","0.3372263261","0.1900899503","0.1693242304","","","","","","","","","","","","","","74","J","1","","","134","main_expt",""
"","bandit","214","685039","0.0-176.0-0.0","73623298","wem/bandit_party_2","A1S6QWSCBRYSFZ","either","2","591","","","","","","","1","0","0","0.4874659601","","0.8","0.6","0.2","0.4","","","","","0.4874659601","0.3515125386","0.172295534","0.1541174352","","","","","","","","","","72","H","0","img/none_selected.jpg","","135","main_expt",""
"","bandit","215","687245","0.0-177.0-0.0","73623298","wem/bandit_party_2","A1S6QWSCBRYSFZ","either","2","694","","","","","","","1","0","0","0.3677382912","","0.8","0.6","0.2","0.4","","","","","0.3677382912","0.2312583875","0.1171098277","0.1374012581","","","","","","","","","","72","H","0","img/none_selected.jpg","","136","main_expt",""
"","bandit","216","689090","0.0-178.0-0.0","73623298","wem/bandit_party_2","A1S6QWSCBRYSFZ","either","2","334","","","","","","","0","0","1","0.2944012193","","0.8","0.6","0.2","0.4","","","","","0.2944012193","0.3496768842","0.1390909791","0.2889288236","","","","","","","","","","72","H","0","img/none_selected.jpg","","137","main_expt",""
"","bandit","217","691151","0.0-179.0-0.0","73623298","wem/bandit_party_2","A1S6QWSCBRYSFZ","either","2","548","","","","","","","0","0","1","0.2177367931","","0.8","0.6","0.2","0.4","","","","","0.3020033879","0.4217982028","0.1209370274","0.2177367931","","","","","","","","","","76","L","3","","","138","main_expt",""
"","bandit","218","693020","0.0-180.0-0.0","73623298","wem/bandit_party_2","A1S6QWSCBRYSFZ","either","2","355","","","","","","","0","1","0","","0.1704259453","0.8","0.6","0.2","0.4","0.2908104057","0.5123523738","0.1441291996","0.1704259453","","","","","","","","","","","","","","76","L","3","","","139","main_expt",""
"","bandit","219","695086","0.0-181.0-0.0","73623298","wem/bandit_party_2","A1S6QWSCBRYSFZ","either","2","556","","","","","","","0","0","1","","0.1827322183","0.8","0.6","0.2","0.4","0.2738290205","0.3892042576","0.1380406349","0.1827322183","","","","","","","","","","","","","","76","L","3","","","140","main_expt",""
"","bandit","220","697053","0.0-182.0-0.0","73623298","wem/bandit_party_2","A1S6QWSCBRYSFZ","either","2","459","","","","","","","0","0","1","0.2030288612","","0.8","0.6","0.2","0.4","","","","","0.3865798498","0.4680147771","0.1312769784","0.2030288612","","","","","","","","","","76","L","3","","","141","main_expt",""
"","bandit","221","699015","0.0-183.0-0.0","73623298","wem/bandit_party_2","A1S6QWSCBRYSFZ","either","2","448","","","","","","","1","0","0","0.3507917403","","0.8","0.6","0.2","0.4","","","","","0.3507917403","0.3970866904","0.1880730553","0.1760536641","","","","","","","","","","72","H","0","img/none_selected.jpg","","142","main_expt",""
"","bandit","222","701162","0.0-184.0-0.0","73623298","wem/bandit_party_2","A1S6QWSCBRYSFZ","either","2","637","","","","","","","0","0","1","0.2787839286","","0.8","0.6","0.2","0.4","","","","","0.2787839286","0.3609481858","0.1798266991","0.1428921374","","","","","","","","","","72","H","0","img/none_selected.jpg","","143","main_expt",""
"","bandit","223","702863","0.0-185.0-0.0","73623298","wem/bandit_party_2","A1S6QWSCBRYSFZ","either","2","187","","","","","","","0","0","1","","0.2106619402","0.8","0.6","0.2","0.4","0.2106619402","0.3701270871","0.1881666754","0.1260474704","","","","","","","","","","","","","","72","H","0","img/none_selected.jpg","","144","main_expt",""
"","bandit","224","705202","0.0-186.0-0.0","73623298","wem/bandit_party_2","A1S6QWSCBRYSFZ","either","2","827","","","","","","","0","0","1","","0.3110645609","0.8","0.6","0.2","0.4","0.3211677341","0.3110645609","0.1683386122","0.151337539","","","","","","","","","","","","","","74","J","1","","","145","main_expt",""
"","bandit","225","707849","0.0-187.0-0.0","73623298","wem/bandit_party_2","A1S6QWSCBRYSFZ","either","2","1132","","","","","","","0","0","1","0.1600114734","","0.8","0.6","0.2","0.4","","","","","0.4417580917","0.356964637","0.2609121533","0.1600114734","","","","","","","","","","76","L","3","","","146","main_expt",""
"","bandit","226","710634","0.0-188.0-0.0","73623298","wem/bandit_party_2","A1S6QWSCBRYSFZ","either","2","1276","","","","","","","0","0","1","","0.1262446547","0.8","0.6","0.2","0.4","0.278611551","0.5143633813","0.280259565","0.1262446547","","","","","","","","","","","","","","76","L","3","","","147","main_expt",""
"","bandit","227","713159","0.0-189.0-0.0","73623298","wem/bandit_party_2","A1S6QWSCBRYSFZ","either","2","1009","","","","","","","0","0","1","0.5086187798","","0.8","0.6","0.2","0.4","","","","","0.2811332351","0.5086187798","0.2972918914","0.1030311585","","","","","","","","","","74","J","1","","","148","main_expt",""
"","bandit","228","715562","0.0-190.0-0.0","73623298","wem/bandit_party_2","A1S6QWSCBRYSFZ","either","2","892","","","","","","","0","0","1","","0.3284309668","0.8","0.6","0.2","0.4","0.2606345315","0.4676315778","0.3284309668","0.123834606","","","","","","","","","","","","","","75","K","2","","","149","main_expt",""
"","bandit","229","718621","0.0-191.0-0.0","73623298","wem/bandit_party_2","A1S6QWSCBRYSFZ","either","2","1548","","","","","","","0","0","1","","0.260677327","0.8","0.6","0.2","0.4","0.260677327","0.4737351686","0.3186890608","0.06566206942","","","","","","","","","","","","","","72","H","0","img/none_selected.jpg","","150","main_expt",""
"","bandit","230","720501","0.0-192.0-0.0","73623298","wem/bandit_party_2","A1S6QWSCBRYSFZ","either","2","369","","","","","","","0","1","0","","0.5387476985","0.8","0.6","0.2","0.4","0.2579624968","0.5387476985","0.3331747037","0.06342121736","","","","","","","","","","","","","","74","J","1","","","151","main_expt",""
"","bandit","231","723258","0.0-193.0-0.0","73623298","wem/bandit_party_2","A1S6QWSCBRYSFZ","either","2","1245","","","","","","","0","0","1","","0.5065138565","0.8","0.6","0.2","0.4","0.2536911072","0.5065138565","0.364096089","0.1162046696","","","","","","","","","","","","","","74","J","1","","","152","main_expt",""
"","bandit","232","725162","0.0-194.0-0.0","73623298","wem/bandit_party_2","A1S6QWSCBRYSFZ","either","2","390","","","","","","","0","0","1","0.5190676077","","0.8","0.6","0.2","0.4","","","","","0.1427943183","0.5190676077","0.3189440566","0.1388943584","","","","","","","","","","74","J","1","","","153","main_expt",""
"","bandit","233","727936","0.0-195.0-0.0","73623298","wem/bandit_party_2","A1S6QWSCBRYSFZ","either","2","1264","","","","","","","0","1","0","","0.486858514","0.8","0.6","0.2","0.4","0.08934943386","0.4944482457","0.486858514","0.1188489222","","","","","","","","","","","","","","75","K","2","","","154","main_expt",""
"","bandit","234","729950","0.0-196.0-0.0","73623298","wem/bandit_party_2","A1S6QWSCBRYSFZ","either","2","504","","","","","","","0","1","0","","0.398958755","0.8","0.6","0.2","0.4","0.1048919666","0.4987902374","0.398958755","0.1255079792","","","","","","","","","","","","","","75","K","2","","","155","main_expt",""
"","bandit","235","732538","0.0-197.0-0.0","73623298","wem/bandit_party_2","A1S6QWSCBRYSFZ","either","2","1078","","","","","","","1","0","0","0.3508932217","","0.8","0.6","0.2","0.4","","","","","0.1348874752","0.4151199053","0.3508932217","0.1705129017","","","","","","","","","","75","K","2","","","156","main_expt",""
"","bandit","236","734825","0.0-198.0-0.0","73623298","wem/bandit_party_2","A1S6QWSCBRYSFZ","either","2","773","","","","","","","0","0","1","","0.3736640956","0.8","0.6","0.2","0.4","0.1197456909","0.4215128153","0.3736640956","0.1892203872","","","","","","","","","","","","","","75","K","2","","","157","main_expt",""
"","bandit","237","736926","0.0-199.0-0.0","73623298","wem/bandit_party_2","A1S6QWSCBRYSFZ","either","2","589","","","","","","","0","0","1","","0.3215678611","0.8","0.6","0.2","0.4","0.1343935597","0.3666899102","0.3215678611","0.1589595026","","","","","","","","","","","","","","75","K","2","","","158","main_expt",""
"","bandit","238","738841","0.0-200.0-0.0","73623298","wem/bandit_party_2","A1S6QWSCBRYSFZ","either","2","402","","","","","","","0","0","1","0.04604274909","","0.8","0.6","0.2","0.4","","","","","0.04604274909","0.3906786657","0.2732838962","0.1426383857","","","","","","","","","","72","H","0","img/none_selected.jpg","","159","main_expt",""
"","bandit","239","740977","0.0-201.0-0.0","73623298","wem/bandit_party_2","A1S6QWSCBRYSFZ","either","2","623","","","","","","","0","0","1","0.08927965808","","0.8","0.6","0.2","0.4","","","","","0.08927965808","0.4769972016","0.2323229575","0.2747613825","","","","","","","","","","72","H","0","img/none_selected.jpg","","160","main_expt",""
"","bandit","240","742765","0.0-202.0-0.0","73623298","wem/bandit_party_2","A1S6QWSCBRYSFZ","either","2","275","","","","","","","0","0","1","","0.4405879513","0.8","0.6","0.2","0.4","0.1038156196","0.4405879513","0.399022808","0.2046882866","","","","","","","","","","","","","","74","J","1","","","161","main_expt",""
"","bandit","241","745231","0.0-203.0-0.0","73623298","wem/bandit_party_2","A1S6QWSCBRYSFZ","either","2","952","","","","","","","0","1","0","","0.44055992","0.8","0.6","0.2","0.4","0.1470739062","0.44055992","0.4967313539","0.1715152701","","","","","","","","","","","","","","74","J","1","","","162","main_expt",""
"","bandit","242","749166","0.0-204.0-0.0","73623298","wem/bandit_party_2","A1S6QWSCBRYSFZ","either","2","2423","","","","","","","0","1","0","","0.5245029489","0.8","0.6","0.2","0.4","0.1214264794","0.3434222481","0.5245029489","0.2396687428","","","","","","","","","","","","","","75","K","2","","","163","main_expt",""
"","bandit","243","751586","0.0-205.0-0.0","73623298","wem/bandit_party_2","A1S6QWSCBRYSFZ","either","2","907","","","","","","","0","0","1","","0.5808119749","0.8","0.6","0.2","0.4","0.1563758897","0.3862652833","0.5808119749","0.3359744524","","","","","","","","","","","","","","75","K","2","","","164","main_expt",""
"","bandit","244","753937","0.0-206.0-0.0","73623298","wem/bandit_party_2","A1S6QWSCBRYSFZ","either","2","838","","","","","","","0","0","1","0.4940159592","","0.8","0.6","0.2","0.4","","","","","0.1311500467","0.4270444342","0.6473032069","0.4940159592","","","","","","","","","","76","L","3","","","165","main_expt",""
"","bandit","245","755928","0.0-207.0-0.0","73623298","wem/bandit_party_2","A1S6QWSCBRYSFZ","either","2","480","","","","","","","0","0","1","0.6790689848","","0.8","0.6","0.2","0.4","","","","","0.1419689761","0.5073102058","0.6790689848","0.5922229292","","","","","","","","","","75","K","2","","","166","main_expt",""
"","bandit","246","758302","0.0-208.0-0.0","73623298","wem/bandit_party_2","A1S6QWSCBRYSFZ","either","2","863","","","","","","","1","0","0","0.5417092253","","0.8","0.6","0.2","0.4","","","","","0.150246256","0.5417092253","0.5959653185","0.5562626425","","","","","","","","","","74","J","1","","","167","main_expt",""
"","bandit","247","760374","0.0-209.0-0.0","73623298","wem/bandit_party_2","A1S6QWSCBRYSFZ","either","2","558","","","","","","","0","0","1","0.6505471885","","0.8","0.6","0.2","0.4","","","","","0.2070971521","0.6505471885","0.361841396","0.6489587791","","","","","","","","","","74","J","1","","","168","main_expt",""
"","bandit","248","762254","0.0-210.0-0.0","73623298","wem/bandit_party_2","A1S6QWSCBRYSFZ","either","2","365","","","","","","","0","1","0","","0.6226729341","0.8","0.6","0.2","0.4","0.2564452127","0.6226729341","0.2594844845","0.5652428614","","","","","","","","","","","","","","74","J","1","","","169","main_expt",""
"","bandit","249","764425","0.0-211.0-0.0","73623298","wem/bandit_party_2","A1S6QWSCBRYSFZ","either","2","653","","","","","","","0","0","1","","0.1987556041","0.8","0.6","0.2","0.4","0.2845729388","0.7574543886","0.1987556041","0.5344749526","","","","","","","","","","","","","","75","K","2","","","170","main_expt",""
"","bandit","250","767031","0.0-212.0-0.0","73623298","wem/bandit_party_2","A1S6QWSCBRYSFZ","either","2","1095","","","","","","","0","1","0","","0.6364900983","0.8","0.6","0.2","0.4","0.2360657399","0.774201251","0.1583585206","0.6364900983","","","","","","","","","","","","","","76","L","3","","","171","main_expt",""
"","bandit","251","768981","0.0-213.0-0.0","73623298","wem/bandit_party_2","A1S6QWSCBRYSFZ","either","2","435","","","","","","","1","0","0","0.5516193693","","0.8","0.6","0.2","0.4","","","","","0.3453554921","0.7739789177","0.1494938987","0.5516193693","","","","","","","","","","76","L","3","","","172","main_expt",""
"","bandit","252","771163","0.0-214.0-0.0","73623298","wem/bandit_party_2","A1S6QWSCBRYSFZ","either","2","667","","","","","","","0","0","1","","0.5081608063","0.8","0.6","0.2","0.4","0.2909261263","0.7146420849","0.1996494969","0.5081608063","","","","","","","","","","","","","","76","L","3","","","173","main_expt",""
"","bandit","253","773827","0.0-215.0-0.0","73623298","wem/bandit_party_2","A1S6QWSCBRYSFZ","either","2","1152","","","","","","","0","0","1","","0.3807546558","0.8","0.6","0.2","0.4","0.3807546558","0.683245412","0.2200767262","0.5247340446","","","","","","","","","","","","","","72","H","0","img/none_selected.jpg","","174","main_expt",""
"","bandit","254","776135","0.0-216.0-0.0","73623298","wem/bandit_party_2","A1S6QWSCBRYSFZ","either","2","794","","","","","","","1","0","0","0.3889518003","","0.8","0.6","0.2","0.4","","","","","0.3889518003","0.7163731774","0.1929710708","0.5823110366","","","","","","","","","","72","H","0","img/none_selected.jpg","","175","main_expt",""
"","bandit","255","778296","0.0-217.0-0.0","73623298","wem/bandit_party_2","A1S6QWSCBRYSFZ","either","2","646","","","","","","","0","0","1","","0.6676116703","0.8","0.6","0.2","0.4","0.3662842853","0.6676116703","0.1756556012","0.7693722391","","","","","","","","","","","","","","74","J","1","","","176","main_expt",""
"","bandit","256","779822","0.0-218.0-0.0","73623298","wem/bandit_party_2","A1S6QWSCBRYSFZ","either","2","15","","","","","","","0","0","1","","0.3102656016","0.8","0.6","0.2","0.4","0.3102656016","0.711116056","0.2404611203","0.8048595062","","","","","","","","","","","","","","72","H","0","img/none_selected.jpg","","177","main_expt",""
"","bandit","257","782151","0.0-219.0-0.0","73623298","wem/bandit_party_2","A1S6QWSCBRYSFZ","either","2","817","","","","","","","0","0","1","","0.6541247318","0.8","0.6","0.2","0.4","0.3272385177","0.6541247318","0.1651874793","0.8147320782","","","","","","","","","","","","","","74","J","1","","","178","main_expt",""
"","bandit","258","783990","0.0-220.0-0.0","73623298","wem/bandit_party_2","A1S6QWSCBRYSFZ","either","2","322","","","","","","","0","0","1","0.1297692321","","0.8","0.6","0.2","0.4","","","","","0.3185807274","0.600925469","0.1297692321","0.7755432213","","","","","","","","","","75","K","2","","","179","main_expt",""
"","bandit","259","787768","0.0-221.0-0.0","73623298","wem/bandit_party_2","A1S6QWSCBRYSFZ","either","2","2264","","","","","","","0","0","1","","0.1311169289","0.8","0.6","0.2","0.4","0.3896265469","0.6321701674","0.1311169289","0.7309951384","","","","","","","","","","","","","","75","K","2","","","180","main_expt",""
"","bandit","260","790072","0.0-222.0-0.0","73623298","wem/bandit_party_2","A1S6QWSCBRYSFZ","either","2","792","","","","","","","0","1","0","","0.8068071681","0.8","0.6","0.2","0.4","0.4381139349","0.7040606398","0.2184653543","0.8068071681","","","","","","","","","","","","","","76","L","3","","","181","main_expt",""
"","bandit","261","792638","0.0-223.0-0.0","73623298","wem/bandit_party_2","A1S6QWSCBRYSFZ","either","2","1053","","","","","","","0","1","0","","0.8096694819","0.8","0.6","0.2","0.4","0.4339703771","0.6551517927","0.156745214","0.8096694819","","","","","","","","","","","","","","76","L","3","","","182","main_expt",""
"","bandit","262","794889","0.0-224.0-0.0","73623298","wem/bandit_party_2","A1S6QWSCBRYSFZ","either","2","737","","","","","","","0","1","0","","0.8522040983","0.8","0.6","0.2","0.4","0.5270594011","0.7709035389","0.07710569088","0.8522040983","","","","","","","","","","","","","","76","L","3","","","183","main_expt",""
"","bandit","263","797275","0.0-225.0-0.0","73623298","wem/bandit_party_2","A1S6QWSCBRYSFZ","either","2","870","","","","","","","0","1","0","","0.8636776132","0.8","0.6","0.2","0.4","0.4791569234","0.7869666122","0.07901501252","0.8636776132","","","","","","","","","","","","","","76","L","3","","","184","main_expt",""
"","bandit","264","799492","0.0-226.0-0.0","73623298","wem/bandit_party_2","A1S6QWSCBRYSFZ","either","2","701","","","","","","","0","0","1","","0.8605951951","0.8","0.6","0.2","0.4","0.464074867","0.804571828","0.05695362571","0.8605951951","","","","","","","","","","","","","","76","L","3","","","185","main_expt",""
"","bandit","265","801349","0.0-227.0-0.0","73623298","wem/bandit_party_2","A1S6QWSCBRYSFZ","either","2","341","","","","","","","0","1","0","","0.8578427848","0.8","0.6","0.2","0.4","0.4654947356","0.7866627628","0.03796608352","0.8578427848","","","","","","","","","","","","","","76","L","3","","","186","main_expt",""
"","bandit","266","803630","0.0-228.0-0.0","73623298","wem/bandit_party_2","A1S6QWSCBRYSFZ","either","2","767","","","","","","","1","0","0","0.8253306036","","0.8","0.6","0.2","0.4","","","","","0.4338668179","0.8006736442","0.05986429342","0.8253306036","","","","","","","","","","76","L","3","","","187","main_expt",""
"","bandit","267","806005","0.0-229.0-0.0","73623298","wem/bandit_party_2","A1S6QWSCBRYSFZ","either","2","859","","","","","","","1","0","0","0.8118593573","","0.8","0.6","0.2","0.4","","","","","0.4679469354","0.7687627789","0.05827831728","0.8118593573","","","","","","","","","","76","L","3","","","188","main_expt",""
"","bandit","268","808436","0.0-230.0-0.0","73623298","wem/bandit_party_2","A1S6QWSCBRYSFZ","either","2","914","","","","","","","1","0","0","0.8319104568","","0.8","0.6","0.2","0.4","","","","","0.4645116859","0.7009429779","0.06499387038","0.8319104568","","","","","","","","","","76","L","3","","","189","main_expt",""
"","bandit","269","810896","0.0-231.0-0.0","73623298","wem/bandit_party_2","A1S6QWSCBRYSFZ","either","2","948","","","","","","","0","1","0","","0.8949986836","0.8","0.6","0.2","0.4","0.4260553166","0.7531121838","0.0878029059","0.8949986836","","","","","","","","","","","","","","76","L","3","","","190","main_expt",""
"","bandit","270","812812","0.0-232.0-0.0","73623298","wem/bandit_party_2","A1S6QWSCBRYSFZ","either","2","400","","","","","","","0","1","0","","0.9258368343","0.8","0.6","0.2","0.4","0.5323747461","0.6174616994","0.1101088583","0.9258368343","","","","","","","","","","","","","","76","L","3","","","191","main_expt",""
"","bandit","271","814672","0.0-233.0-0.0","73623298","wem/bandit_party_2","A1S6QWSCBRYSFZ","either","2","352","","","","","","","1","0","0","0.9221438833","","0.8","0.6","0.2","0.4","","","","","0.6013900654","0.6331996982","0.1559643099","0.9221438833","","","","","","","","","","76","L","3","","","192","main_expt",""
"","bandit","272","818029","0.0-234.0-0.0","73623298","wem/bandit_party_2","A1S6QWSCBRYSFZ","either","2","1843","","","","","","","0","1","0","","0.878376231","0.8","0.6","0.2","0.4","0.5332063066","0.5596167322","0.1348882638","0.878376231","","","","","","","","","","","","","","76","L","3","","","193","main_expt",""
"","bandit","273","820450","0.0-235.0-0.0","73623298","wem/bandit_party_2","A1S6QWSCBRYSFZ","either","2","905","","","","","","","1","0","0","0.7914694382","","0.8","0.6","0.2","0.4","","","","","0.5499496643","0.5887018809","0.243093686","0.7914694382","","","","","","","","","","76","L","3","","","194","main_expt",""
"","bandit","274","823172","0.0-236.0-0.0","73623298","wem/bandit_party_2","A1S6QWSCBRYSFZ","either","2","1208","","","","","","","1","0","0","0.7843027812","","0.8","0.6","0.2","0.4","","","","","0.4170732774","0.561552955","0.2792315856","0.7843027812","","","","","","","","","","76","L","3","","","195","main_expt",""
"","bandit","275","825557","0.0-237.0-0.0","73623298","wem/bandit_party_2","A1S6QWSCBRYSFZ","either","2","871","","","","","","","0","1","0","","0.7888241066","0.8","0.6","0.2","0.4","0.4050854298","0.6199522587","0.2075419965","0.7888241066","","","","","","","","","","","","","","76","L","3","","","196","main_expt",""
"","bandit","276","828018","0.0-238.0-0.0","73623298","wem/bandit_party_2","A1S6QWSCBRYSFZ","either","2","949","","","","","","","0","1","0","","0.8145025162","0.8","0.6","0.2","0.4","0.4522405917","0.6886125155","0.1899284635","0.8145025162","","","","","","","","","","","","","","76","L","3","","","197","main_expt",""
"","bandit","277","830606","0.0-239.0-0.0","73623298","wem/bandit_party_2","A1S6QWSCBRYSFZ","either","2","1075","","","","","","","1","0","0","0.8795467387","","0.8","0.6","0.2","0.4","","","","","0.4547961131","0.6468609917","0.1632143895","0.8795467387","","","","","","","","","","76","L","3","","","198","main_expt",""
"","bandit","278","832894","0.0-240.0-0.0","73623298","wem/bandit_party_2","A1S6QWSCBRYSFZ","either","2","771","","","","","","","0","1","0","","0.8716255916","0.8","0.6","0.2","0.4","0.456709553","0.7134983028","0.1580048483","0.8716255916","","","","","","","","","","","","","","76","L","3","","","199","main_expt",""
"","bandit","279","835075","0.0-241.0-0.0","73623298","wem/bandit_party_2","A1S6QWSCBRYSFZ","either","2","666","","","","","","","1","0","0","0.8596876402","","0.8","0.6","0.2","0.4","","","","","0.4197111003","0.6545285445","0.1815025648","0.8596876402","","","","","","","","","","76","L","3","","","200","main_expt",""
"","bandit","280","837414","0.0-242.0-0.0","73623298","wem/bandit_party_2","A1S6QWSCBRYSFZ","either","2","824","","","","","","","0","1","0","","0.8714244785","0.8","0.6","0.2","0.4","0.4468864226","0.6827561938","0.1453003075","0.8714244785","","","","","","","","","","","","","","76","L","3","","","201","main_expt",""
"","bandit","281","839655","0.0-243.0-0.0","73623298","wem/bandit_party_2","A1S6QWSCBRYSFZ","either","2","723","","","","","","","0","1","0","","0.8679491409","0.8","0.6","0.2","0.4","0.3852152277","0.6590680519","0.1061510446","0.8679491409","","","","","","","","","","","","","","76","L","3","","","202","main_expt",""
"","bandit","282","842232","0.0-244.0-0.0","73623298","wem/bandit_party_2","A1S6QWSCBRYSFZ","either","2","1059","","","","","","","1","0","0","0.8421855008","","0.8","0.6","0.2","0.4","","","","","0.3481501846","0.67998256","0.09667757311","0.8421855008","","","","","","","","","","76","L","3","","","203","main_expt",""
"","bandit","283","844512","0.0-245.0-0.0","73623298","wem/bandit_party_2","A1S6QWSCBRYSFZ","either","2","767","","","","","","","0","1","0","","0.8741547355","0.8","0.6","0.2","0.4","0.3688904748","0.7157802034","0.109576977","0.8741547355","","","","","","","","","","","","","","76","L","3","","","204","main_expt",""
"","bandit","284","847391","0.0-246.0-0.0","73623298","wem/bandit_party_2","A1S6QWSCBRYSFZ","either","2","1367","","","","","","","1","0","0","0.8589537271","","0.8","0.6","0.2","0.4","","","","","0.4196025605","0.6750594522","0.1370524017","0.8589537271","","","","","","","","","","76","L","3","","","205","main_expt",""
"","bandit","285","849690","0.0-247.0-0.0","73623298","wem/bandit_party_2","A1S6QWSCBRYSFZ","either","2","782","","","","","","","0","1","0","","0.8009191088","0.8","0.6","0.2","0.4","0.3558717694","0.7170784861","0.1005848846","0.8009191088","","","","","","","","","","","","","","76","L","3","","","206","main_expt",""
"","bandit","286","852063","0.0-248.0-0.0","73623298","wem/bandit_party_2","A1S6QWSCBRYSFZ","either","2","858","","","","","","","0","1","0","","0.8146279372","0.8","0.6","0.2","0.4","0.3978287694","0.6886550294","0.1100528349","0.8146279372","","","","","","","","","","","","","","76","L","3","","","207","main_expt",""
"","bandit","287","854640","0.0-249.0-0.0","73623298","wem/bandit_party_2","A1S6QWSCBRYSFZ","either","2","1060","","","","","","","0","0","1","","0.7498886323","0.8","0.6","0.2","0.4","0.3647175361","0.7340041914","0.1165568201","0.7498886323","","","","","","","","","","","","","","76","L","3","","","208","main_expt",""
"","bandit","288","856921","0.0-250.0-0.0","73623298","wem/bandit_party_2","A1S6QWSCBRYSFZ","either","2","767","","","","","","","1","0","0","0.781298432","","0.8","0.6","0.2","0.4","","","","","0.2942091963","0.7108339061","0.1607141963","0.781298432","","","","","","","","","","76","L","3","","","209","main_expt",""
"","bandit","289","859208","0.0-251.0-0.0","73623298","wem/bandit_party_2","A1S6QWSCBRYSFZ","either","2","771","","","","","","","0","1","0","","0.8374694261","0.8","0.6","0.2","0.4","0.3228874634","0.7322658343","0.2005879304","0.8374694261","","","","","","","","","","","","","","76","L","3","","","210","main_expt",""
"","bandit","290","861622","0.0-252.0-0.0","73623298","wem/bandit_party_2","A1S6QWSCBRYSFZ","either","2","902","","","","","","","0","0","1","","0.7461264045","0.8","0.6","0.2","0.4","0.3300931135","0.6220956771","0.1999716741","0.7461264045","","","","","","","","","","","","","","76","L","3","","","211","main_expt",""
"","bandit","291","863793","0.0-253.0-0.0","73623298","wem/bandit_party_2","A1S6QWSCBRYSFZ","either","2","659","","","","","","","0","1","0","","0.7267359419","0.8","0.6","0.2","0.4","0.4044608811","0.5400145011","0.2135957141","0.7267359419","","","","","","","","","","","","","","76","L","3","","","212","main_expt",""
"","bandit","292","865807","0.0-254.0-0.0","73623298","wem/bandit_party_2","A1S6QWSCBRYSFZ","either","2","502","","","","","","","0","1","0","","0.6529835343","0.8","0.6","0.2","0.4","0.4916994921","0.5419994818","0.2041793084","0.6529835343","","","","","","","","","","","","","","76","L","3","","","213","main_expt",""
"","bandit","293","868308","0.0-255.0-0.0","73623298","wem/bandit_party_2","A1S6QWSCBRYSFZ","either","2","985","","","","","","","0","0","1","","0.5734554779","0.8","0.6","0.2","0.4","0.5387088508","0.6195319152","0.2563089198","0.5734554779","","","","","","","","","","","","","","76","L","3","","","214","main_expt",""
"","bandit","294","870421","0.0-256.0-0.0","73623298","wem/bandit_party_2","A1S6QWSCBRYSFZ","either","2","600","","","","","","","0","1","0","","0.7056003711","0.8","0.6","0.2","0.4","0.567041903","0.7405966814","0.2870699064","0.7056003711","","","","","","","","","","","","","","76","L","3","","","215","main_expt",""
"","bandit","295","872539","0.0-257.0-0.0","73623298","wem/bandit_party_2","A1S6QWSCBRYSFZ","either","2","602","","","","","","","1","0","0","0.7717913507","","0.8","0.6","0.2","0.4","","","","","0.539749723","0.8005734678","0.2715554895","0.7717913507","","","","","","","","","","76","L","3","","","216","main_expt",""
"","bandit","296","874878","0.0-258.0-0.0","73623298","wem/bandit_party_2","A1S6QWSCBRYSFZ","either","2","824","","","","","","","0","0","1","0.834894728","","0.8","0.6","0.2","0.4","","","","","0.3803352486","0.8392159132","0.2027777883","0.834894728","","","","","","","","","","76","L","3","","","217","main_expt",""
"","bandit","297","877139","0.0-259.0-0.0","73623298","wem/bandit_party_2","A1S6QWSCBRYSFZ","either","2","746","","","","","","","1","0","0","0.868580258","","0.8","0.6","0.2","0.4","","","","","0.3236333655","0.7445585264","0.2169787163","0.868580258","","","","","","","","","","76","L","3","","","218","main_expt",""
"","bandit","298","879974","0.0-260.0-0.0","73623298","wem/bandit_party_2","A1S6QWSCBRYSFZ","either","2","1320","","","","","","","0","1","0","","0.8236231074","0.8","0.6","0.2","0.4","0.2612589469","0.7174829008","0.2292932202","0.8236231074","","","","","","","","","","","","","","76","L","3","","","219","main_expt",""
"","bandit","299","882911","0.0-261.0-0.0","73623298","wem/bandit_party_2","A1S6QWSCBRYSFZ","either","2","1422","","","","","","","1","0","0","0.7719294443","","0.8","0.6","0.2","0.4","","","","","0.2228319794","0.6601767392","0.2829053382","0.7719294443","","","","","","","","","","76","L","3","","","220","main_expt",""
"","bandit","300","885465","0.0-262.0-0.0","73623298","wem/bandit_party_2","A1S6QWSCBRYSFZ","either","2","1037","","","","","","","0","0","1","0.7609360252","","0.8","0.6","0.2","0.4","","","","","0.2204856404","0.703996204","0.2691731019","0.7609360252","","","","","","","","","","76","L","3","","","221","main_expt",""
"","bandit","301","887490","0.0-263.0-0.0","73623298","wem/bandit_party_2","A1S6QWSCBRYSFZ","either","2","510","","","","","","","0","0","1","0.7319851961","","0.8","0.6","0.2","0.4","","","","","0.2269951902","0.6188024556","0.1974112065","0.7319851961","","","","","","","","","","76","L","3","","","222","main_expt",""
"","bandit","302","889771","0.0-264.0-0.0","73623298","wem/bandit_party_2","A1S6QWSCBRYSFZ","either","2","768","","","","","","","0","1","0","","0.6994646324","0.8","0.6","0.2","0.4","0.3417830843","0.5695888615","0.08486155027","0.6994646324","","","","","","","","","","","","","","76","L","3","","","223","main_expt",""
"","bandit","303","892505","0.0-265.0-0.0","73623298","wem/bandit_party_2","A1S6QWSCBRYSFZ","either","2","1220","","","","","","","0","0","1","0.6817307813","","0.8","0.6","0.2","0.4","","","","","0.4057490183","0.6590173842","0.1930609847","0.6817307813","","","","","","","","","","76","L","3","","","224","main_expt",""
"","bandit","304","894878","0.0-266.0-0.0","73623298","wem/bandit_party_2","A1S6QWSCBRYSFZ","either","2","861","","","","","","","0","0","1","0.6779124893","","0.8","0.6","0.2","0.4","","","","","0.4266979185","0.6779124893","0.2026087193","0.67394888","","","","","","","","","","74","J","1","","","225","main_expt",""
"","bandit","305","897049","0.0-267.0-0.0","73623298","wem/bandit_party_2","A1S6QWSCBRYSFZ","either","2","658","","","","","","","1","0","0","0.4723095555","","0.8","0.6","0.2","0.4","","","","","0.4723095555","0.6433757785","0.1295559036","0.6520670614","","","","","","","","","","72","H","0","img/none_selected.jpg","","226","main_expt",""
"","bandit","306","899382","0.0-268.0-0.0","73623298","wem/bandit_party_2","A1S6QWSCBRYSFZ","either","2","816","","","","","","","0","0","1","0.4396274322","","0.8","0.6","0.2","0.4","","","","","0.4396274322","0.6050090536","0.1014701128","0.6598054912","","","","","","","","","","72","H","0","img/none_selected.jpg","","227","main_expt",""
"","bandit","307","901495","0.0-269.0-0.0","73623298","wem/bandit_party_2","A1S6QWSCBRYSFZ","either","2","598","","","","","","","1","0","0","0.7313296172","","0.8","0.6","0.2","0.4","","","","","0.4581465293","0.5614220587","0.1374428951","0.7313296172","","","","","","","","","","76","L","3","","","228","main_expt",""
"","bandit","308","904733","0.0-270.0-0.0","73623298","wem/bandit_party_2","A1S6QWSCBRYSFZ","either","2","1725","","","","","","","0","1","0","","0.5771612872","0.8","0.6","0.2","0.4","0.3635076811","0.536938762","0.2147377822","0.5771612872","","","","","","","","","","","","","","76","L","3","","","229","main_expt",""
"","bandit","309","906805","0.0-271.0-0.0","73623298","wem/bandit_party_2","A1S6QWSCBRYSFZ","either","2","557","","","","","","","0","1","0","","0.6474737632","0.8","0.6","0.2","0.4","0.4109812081","0.4691369301","0.2128984172","0.6474737632","","","","","","","","","","","","","","76","L","3","","","230","main_expt",""
"","bandit","310","909034","0.0-272.0-0.0","73623298","wem/bandit_party_2","A1S6QWSCBRYSFZ","either","2","712","","","","","","","1","0","0","0.77083729","","0.8","0.6","0.2","0.4","","","","","0.3769467169","0.3801843724","0.2566260117","0.77083729","","","","","","","","","","76","L","3","","","231","main_expt",""
"","bandit","311","911228","0.0-273.0-0.0","73623298","wem/bandit_party_2","A1S6QWSCBRYSFZ","either","2","678","","","","","","","0","0","1","","0.7372448464","0.8","0.6","0.2","0.4","0.4489681289","0.4401380948","0.307190163","0.7372448464","","","","","","","","","","","","","","76","L","3","","","232","main_expt",""
"","bandit","312","913317","0.0-274.0-0.0","73623298","wem/bandit_party_2","A1S6QWSCBRYSFZ","either","2","576","","","","","","","0","0","1","","0.8061851957","0.8","0.6","0.2","0.4","0.5191563331","0.4589823784","0.3235632008","0.8061851957","","","","","","","","","","","","","","76","L","3","","","233","main_expt",""
"","bandit","313","915029","0.0-275.0-0.0","73623298","wem/bandit_party_2","A1S6QWSCBRYSFZ","either","2","196","","","","","","","0","0","1","0.7628128465","","0.8","0.6","0.2","0.4","","","","","0.5635532962","0.412850409","0.2229472669","0.7628128465","","","","","","","","","","76","L","3","","","234","main_expt",""
"","bandit","314","916626","0.0-276.0-0.0","73623298","wem/bandit_party_2","A1S6QWSCBRYSFZ","either","2","82","","","","","","","0","0","1","","0.7139354314","0.8","0.6","0.2","0.4","0.6059211115","0.3071086281","0.3245092944","0.7139354314","","","","","","","","","","","","","","76","L","3","","","235","main_expt",""
"","bandit","315","918640","0.0-277.0-0.0","73623298","wem/bandit_party_2","A1S6QWSCBRYSFZ","either","2","500","","","","","","","0","1","0","","0.8459685894","0.8","0.6","0.2","0.4","0.5767319418","0.3088172556","0.3817813951","0.8459685894","","","","","","","","","","","","","","76","L","3","","","236","main_expt",""
"","bandit","316","920746","0.0-278.0-0.0","73623298","wem/bandit_party_2","A1S6QWSCBRYSFZ","either","2","589","","","","","","","0","1","0","","0.8258062243","0.8","0.6","0.2","0.4","0.6195352853","0.2725525041","0.5108794425","0.8258062243","","","","","","","","","","","","","","76","L","3","","","237","main_expt",""
"","bandit","317","922586","0.0-279.0-0.0","73623298","wem/bandit_party_2","A1S6QWSCBRYSFZ","either","2","327","","","","","","","0","0","1","0.7390020401","","0.8","0.6","0.2","0.4","","","","","0.7504070514","0.2929581335","0.545868674","0.7390020401","","","","","","","","","","76","L","3","","","238","main_expt",""
