"consent","trial_type","trial_index","time_elapsed","internal_node_id","subjID","study","MID","cond","drift","rt","responses","button_pressed","key_press","like","value","connected","gems","bombs","no_reward","GemPrChosen","BombPrChosen","GainOverPainPr_0","GainOverPainPr_1","GainOverPainPr_2","GainOverPainPr_3","LosePr_0","LosePr_1","LosePr_2","LosePr_3","WinPr_0","WinPr_1","WinPr_2","WinPr_3","Q0","Q1","Q2","gender","age","ethnicity","label","expt_phase","target","respCharCode","respKey","respChoiceNum","respChoice","practice","trial_counter","trial_label","Q0_index","view_history"
"GDM/GDM_behavioral_consent_30min_online.html","consent","0","12679","0.0-0.0","75137013","wem/bandit_party_2","A2YLSDVP8Z0ZMV","either","7","","","","","","","","","","","","","","","","","","","","","","","","","","","","","","","","","","","","","","","","","",""
"","survey-text","1","25858","0.0-1.0","75137013","wem/bandit_party_2","A2YLSDVP8Z0ZMV","either","7","12171","{""Q0"":""A2YLSDVP8Z0ZMV""}","","","","","","","","","","","","","","","","","","","","","","","","","","","","","","","","","","","","","","","",""
"","button-response","2","30055","0.0-2.0","75137013","wem/bandit_party_2","A2YLSDVP8Z0ZMV","either","7","3193","","0","","","","","","","","","","","","","","","","","","","","","","","","","","","","","","","","","","","","","","",""
"","text-replacement","3","45115","0.0-3.0","75137013","wem/bandit_party_2","A2YLSDVP8Z0ZMV","either","7","14058","","","32","","","","","","","","","","","","","","","","","","","","","","","","","","","","","","","","","","","","","",""
"","text-replacement","4","62393","0.0-4.0","75137013","wem/bandit_party_2","A2YLSDVP8Z0ZMV","either","7","17276","","","32","","","","","","","","","","","","","","","","","","","","","","","","","","","","","","","","","","","","","",""
"","identification","5","70983","0.0-6.0-0.0","75137013","wem/bandit_party_2","A2YLSDVP8Z0ZMV","either","7","8580","","","","6","6","6","","","","","","","","","","","","","","","","","","","","","","","","pre","identification_pre","the Republican Party","","","","","","","","",""
"","identification","6","78743","0.0-6.0-1.0","75137013","wem/bandit_party_2","A2YLSDVP8Z0ZMV","either","7","6750","","","","1","0","0","","","","","","","","","","","","","","","","","","","","","","","","pre","identification_pre","the Democratic Party","","","","","","","","",""
"","text-replacement","7","88713","0.0-7.0","75137013","wem/bandit_party_2","A2YLSDVP8Z0ZMV","either","7","8968","","","32","","","","","","","","","","","","","","","","","","","","","","","","","","","","","","","","","","","","","",""
"","text-replacement","8","131457","0.0-8.0","75137013","wem/bandit_party_2","A2YLSDVP8Z0ZMV","either","7","42742","","","32","","","","","","","","","","","","","","","","","","","","","","","","","","","","","","","","","","","","","",""
"","text-replacement","9","144713","0.0-9.0","75137013","wem/bandit_party_2","A2YLSDVP8Z0ZMV","either","7","13252","","","32","","","","","","","","","","","","","","","","","","","","","","","","","","","","","","","","","","","","","",""
"","text-replacement","10","152215","0.0-10.0","75137013","wem/bandit_party_2","A2YLSDVP8Z0ZMV","either","7","7501","","","32","","","","","","","","","","","","","","","","","","","","","","","","","","","","","","","","","","","","","",""
"","text-replacement","11","211024","0.0-11.0","75137013","wem/bandit_party_2","A2YLSDVP8Z0ZMV","either","7","58808","","","32","","","","","","","","","","","","","","","","","","","","","","","","","","","","","","","","","","","","","",""
"","bandit","12","217241","0.0-12.0-0.0","75137013","wem/bandit_party_2","A2YLSDVP8Z0ZMV","either","7","4707","","","","","","","0","0","1","0","0","","","","","0","","","","0","","","","","","","","","","","","","74","J","0","img/none_selected_demo.jpg","true","0","","",""
"","bandit","13","220869","0.0-13.0-0.0","75137013","wem/bandit_party_2","A2YLSDVP8Z0ZMV","either","7","2123","","","","","","","0","0","1","0","0","","","","","0","","","","0","","","","","","","","","","","","","75","K","0","img/none_selected_demo.jpg","true","0","","",""
"","text-replacement","14","293920","0.0-14.0","75137013","wem/bandit_party_2","A2YLSDVP8Z0ZMV","either","7","73050","","","32","","","","","","","","","","","","","","","","","","","","","","","","","","","","","","","","","","","","","",""
"","text-replacement","15","296904","0.0-15.0","75137013","wem/bandit_party_2","A2YLSDVP8Z0ZMV","either","7","2982","","","32","","","","","","","","","","","","","","","","","","","","","","","","","","","","","","","","","","","","","",""
"","text-replacement","16","303479","0.0-16.0","75137013","wem/bandit_party_2","A2YLSDVP8Z0ZMV","either","7","6574","","","32","","","","","","","","","","","","","","","","","","","","","","","","","","","","","","","","","","","","","",""
"","text-replacement","17","306601","0.0-17.0","75137013","wem/bandit_party_2","A2YLSDVP8Z0ZMV","either","7","3122","","","32","","","","","","","","","","","","","","","","","","","","","","","","","","","","","","","","","","","","","",""
"","bandit","18","309095","0.0-18.0-0.0","75137013","wem/bandit_party_2","A2YLSDVP8Z0ZMV","either","7","988","","","","","","","0","0","1","","0.8","0.5","0.5","","","0.8","0.2","","","","","","","","","","","","","","","","74","J","0","img/none_selected_demo.jpg","true","0","80_20_practice","",""
"","bandit","19","311639","0.0-18.0-1.0","75137013","wem/bandit_party_2","A2YLSDVP8Z0ZMV","either","7","1038","","","","","","","0","0","1","0.2","","0.5","0.5","","","","","","","0.8","0.2","","","","","","","","","","","","75","K","1","","true","0","80_20_practice","",""
"","bandit","20","314063","0.0-18.0-2.0","75137013","wem/bandit_party_2","A2YLSDVP8Z0ZMV","either","7","919","","","","","","","1","0","0","0.8","","0.5","0.5","","","","","","","0.8","0.2","","","","","","","","","","","","74","J","0","img/none_selected_demo.jpg","true","0","80_20_practice","",""
"","bandit","21","316223","0.0-18.0-3.0","75137013","wem/bandit_party_2","A2YLSDVP8Z0ZMV","either","7","654","","","","","","","1","0","0","0.8","","0.5","0.5","","","","","","","0.8","0.2","","","","","","","","","","","","74","J","0","img/none_selected_demo.jpg","true","0","80_20_practice","",""
"","bandit","22","318671","0.0-18.0-4.0","75137013","wem/bandit_party_2","A2YLSDVP8Z0ZMV","either","7","944","","","","","","","1","0","0","0.8","","0.5","0.5","","","","","","","0.8","0.2","","","","","","","","","","","","74","J","0","img/none_selected_demo.jpg","true","0","80_20_practice","",""
"","bandit","23","321599","0.0-18.0-5.0","75137013","wem/bandit_party_2","A2YLSDVP8Z0ZMV","either","7","1423","","","","","","","1","0","0","0.8","","0.5","0.5","","","","","","","0.8","0.2","","","","","","","","","","","","74","J","0","img/none_selected_demo.jpg","true","0","80_20_practice","",""
"","bandit","24","323654","0.0-18.0-6.0","75137013","wem/bandit_party_2","A2YLSDVP8Z0ZMV","either","7","550","","","","","","","0","1","0","","0.8","0.5","0.5","","","0.8","0.2","","","","","","","","","","","","","","","","74","J","0","img/none_selected_demo.jpg","true","0","80_20_practice","",""
"","bandit","25","326055","0.0-18.0-7.0","75137013","wem/bandit_party_2","A2YLSDVP8Z0ZMV","either","7","896","","","","","","","0","1","0","","0.8","0.5","0.5","","","0.8","0.2","","","","","","","","","","","","","","","","74","J","0","img/none_selected_demo.jpg","true","0","80_20_practice","",""
"","bandit","26","328279","0.0-18.0-8.0","75137013","wem/bandit_party_2","A2YLSDVP8Z0ZMV","either","7","719","","","","","","","1","0","0","0.8","","0.5","0.5","","","","","","","0.8","0.2","","","","","","","","","","","","74","J","0","img/none_selected_demo.jpg","true","0","80_20_practice","",""
"","bandit","27","330512","0.0-18.0-9.0","75137013","wem/bandit_party_2","A2YLSDVP8Z0ZMV","either","7","728","","","","","","","0","1","0","","0.8","0.5","0.5","","","0.8","0.2","","","","","","","","","","","","","","","","74","J","0","img/none_selected_demo.jpg","true","0","80_20_practice","",""
"","bandit","28","335334","0.0-18.0-10.0","75137013","wem/bandit_party_2","A2YLSDVP8Z0ZMV","either","7","3317","","","","","","","0","0","1","","0.8","0.5","0.5","","","0.8","0.2","","","","","","","","","","","","","","","","74","J","0","img/none_selected_demo.jpg","true","0","80_20_practice","",""
"","bandit","29","337494","0.0-18.0-11.0","75137013","wem/bandit_party_2","A2YLSDVP8Z0ZMV","either","7","656","","","","","","","0","0","1","","0.2","0.5","0.5","","","0.8","0.2","","","","","","","","","","","","","","","","75","K","1","","true","0","80_20_practice","",""
"","bandit","30","339367","0.0-18.0-12.0","75137013","wem/bandit_party_2","A2YLSDVP8Z0ZMV","either","7","367","","","","","","","0","0","1","","0.2","0.5","0.5","","","0.8","0.2","","","","","","","","","","","","","","","","75","K","1","","true","0","80_20_practice","",""
"","bandit","31","343976","0.0-18.0-13.0","75137013","wem/bandit_party_2","A2YLSDVP8Z0ZMV","either","7","3103","","","","","","","0","1","0","","0.2","0.5","0.5","","","0.8","0.2","","","","","","","","","","","","","","","","75","K","1","","true","0","80_20_practice","",""
"","bandit","32","346926","0.0-18.0-14.0","75137013","wem/bandit_party_2","A2YLSDVP8Z0ZMV","either","7","1444","","","","","","","0","0","1","","0.2","0.5","0.5","","","0.8","0.2","","","","","","","","","","","","","","","","75","K","1","","true","0","80_20_practice","",""
"","bandit","33","348873","0.0-18.0-15.0","75137013","wem/bandit_party_2","A2YLSDVP8Z0ZMV","either","7","439","","","","","","","1","0","0","0.8","","0.5","0.5","","","","","","","0.8","0.2","","","","","","","","","","","","74","J","0","img/none_selected_demo.jpg","true","0","80_20_practice","",""
"","bandit","34","351679","0.0-18.0-16.0","75137013","wem/bandit_party_2","A2YLSDVP8Z0ZMV","either","7","1300","","","","","","","1","0","0","0.8","","0.5","0.5","","","","","","","0.8","0.2","","","","","","","","","","","","74","J","0","img/none_selected_demo.jpg","true","0","80_20_practice","",""
"","bandit","35","353742","0.0-18.0-17.0","75137013","wem/bandit_party_2","A2YLSDVP8Z0ZMV","either","7","557","","","","","","","0","1","0","","0.8","0.5","0.5","","","0.8","0.2","","","","","","","","","","","","","","","","74","J","0","img/none_selected_demo.jpg","true","0","80_20_practice","",""
"","bandit","36","357439","0.0-18.0-18.0","75137013","wem/bandit_party_2","A2YLSDVP8Z0ZMV","either","7","2192","","","","","","","1","0","0","0.8","","0.5","0.5","","","","","","","0.8","0.2","","","","","","","","","","","","74","J","0","img/none_selected_demo.jpg","true","0","80_20_practice","",""
"","bandit","37","361429","0.0-18.0-19.0","75137013","wem/bandit_party_2","A2YLSDVP8Z0ZMV","either","7","2486","","","","","","","1","0","0","0.8","","0.5","0.5","","","","","","","0.8","0.2","","","","","","","","","","","","74","J","0","img/none_selected_demo.jpg","true","0","80_20_practice","",""
"","text-replacement","38","367480","0.0-19.0","75137013","wem/bandit_party_2","A2YLSDVP8Z0ZMV","either","7","6050","","","32","","","","","","","","","","","","","","","","","","","","","","","","","","","","","","","","","","","","","",""
"","bandit","39","370869","0.0-20.0-0.0","75137013","wem/bandit_party_2","A2YLSDVP8Z0ZMV","either","7","1884","","","","","","","1","0","0","1","0","","","","","0","1","","","1","0","","","","","","","","","","","","74","J","0","img/none_selected_demo.jpg","true","0","","",""
"","text-replacement","40","379993","0.0-21.0","75137013","wem/bandit_party_2","A2YLSDVP8Z0ZMV","either","7","9122","","","32","","","","","","","","","","","","","","","","","","","","","","","","","","","","","","","","","","","","","",""
"","text-replacement","41","384614","0.0-22.0","75137013","wem/bandit_party_2","A2YLSDVP8Z0ZMV","either","7","4620","","","32","","","","","","","","","","","","","","","","","","","","","","","","","","","","","","","","","","","","","",""
"","text-replacement","42","388166","0.0-23.0","75137013","wem/bandit_party_2","A2YLSDVP8Z0ZMV","either","7","3550","","","32","","","","","","","","","","","","","","","","","","","","","","","","","","","","","","","","","","","","","",""
"","text-replacement","43","394064","0.0-24.0","75137013","wem/bandit_party_2","A2YLSDVP8Z0ZMV","either","7","5896","","","32","","","","","","","","","","","","","","","","","","","","","","","","","","","","","","","","","","","","","",""
"","text-replacement","44","401647","0.0-25.0","75137013","wem/bandit_party_2","A2YLSDVP8Z0ZMV","either","7","7581","","","32","","","","","","","","","","","","","","","","","","","","","","","","","","","","","","","","","","","","","",""
"","text-replacement","45","405720","0.0-26.0","75137013","wem/bandit_party_2","A2YLSDVP8Z0ZMV","either","7","4072","","","32","","","","","","","","","","","","","","","","","","","","","","","","","","","","","","","","","","","","","",""
"","text-replacement","46","411616","0.0-27.0","75137013","wem/bandit_party_2","A2YLSDVP8Z0ZMV","either","7","5894","","","32","","","","","","","","","","","","","","","","","","","","","","","","","","","","","","","","","","","","","",""
"","text-replacement","47","441530","0.0-28.0","75137013","wem/bandit_party_2","A2YLSDVP8Z0ZMV","either","7","29912","","","32","","","","","","","","","","","","","","","","","","","","","","","","","","","","","","","","","","","","","",""
"","text-replacement","48","444808","0.0-29.0","75137013","wem/bandit_party_2","A2YLSDVP8Z0ZMV","either","7","3276","","","32","","","","","","","","","","","","","","","","","","","","","","","","","","","","","","","","","","","","","",""
"","text-replacement","49","447304","0.0-30.0","75137013","wem/bandit_party_2","A2YLSDVP8Z0ZMV","either","7","2493","","","32","","","","","","","","","","","","","","","","","","","","","","","","","","","","","","","","","","","","","",""
"","text-replacement","50","451447","0.0-31.0","75137013","wem/bandit_party_2","A2YLSDVP8Z0ZMV","either","7","4143","","","32","","","","","","","","","","","","","","","","","","","","","","","","","","","","","","","","","","","","","",""
"","bandit","51","455078","0.0-32.0-0.0","75137013","wem/bandit_party_2","A2YLSDVP8Z0ZMV","either","7","2127","","","","","","","0","0","1","","0.8","0.5","0.5","0.5","0.5","0.8","0.2","0.6","0.2","","","","","","","","","","","","","","72","H","0","img/none_selected.jpg","true","0","full_practice","",""
"","bandit","52","459054","0.0-32.0-1.0","75137013","wem/bandit_party_2","A2YLSDVP8Z0ZMV","either","7","2471","","","","","","","0","0","1","","0.2","0.5","0.5","0.5","0.5","0.8","0.2","0.6","0.2","","","","","","","","","","","","","","74","J","1","","true","0","full_practice","",""
"","bandit","53","460950","0.0-32.0-2.0","75137013","wem/bandit_party_2","A2YLSDVP8Z0ZMV","either","7","391","","","","","","","0","0","1","","0.8","0.5","0.5","0.5","0.5","0.8","0.2","0.6","0.2","","","","","","","","","","","","","","72","H","0","img/none_selected.jpg","true","0","full_practice","",""
"","bandit","54","462591","0.0-32.0-3.0","75137013","wem/bandit_party_2","A2YLSDVP8Z0ZMV","either","7","135","","","","","","","0","1","0","","0.6","0.5","0.5","0.5","0.5","0.8","0.2","0.6","0.2","","","","","","","","","","","","","","75","K","2","","true","0","full_practice","",""
"","bandit","55","464497","0.0-32.0-4.0","75137013","wem/bandit_party_2","A2YLSDVP8Z0ZMV","either","7","398","","","","","","","0","0","1","0.6","","0.5","0.5","0.5","0.5","","","","","0.8","0.2","0.6","0.2","","","","","","","","","","75","K","2","","true","0","full_practice","",""
"","bandit","56","466415","0.0-32.0-5.0","75137013","wem/bandit_party_2","A2YLSDVP8Z0ZMV","either","7","413","","","","","","","0","0","1","0.2","","0.5","0.5","0.5","0.5","","","","","0.8","0.2","0.6","0.2","","","","","","","","","","76","L","3","","true","0","full_practice","",""
"","bandit","57","468191","0.0-32.0-6.0","75137013","wem/bandit_party_2","A2YLSDVP8Z0ZMV","either","7","269","","","","","","","0","0","1","0.6","","0.5","0.5","0.5","0.5","","","","","0.8","0.2","0.6","0.2","","","","","","","","","","75","K","2","","true","0","full_practice","",""
"","bandit","58","470831","0.0-32.0-7.0","75137013","wem/bandit_party_2","A2YLSDVP8Z0ZMV","either","7","1133","","","","","","","0","0","1","","0.2","0.5","0.5","0.5","0.5","0.8","0.2","0.6","0.2","","","","","","","","","","","","","","74","J","1","","true","0","full_practice","",""
"","bandit","59","473646","0.0-32.0-8.0","75137013","wem/bandit_party_2","A2YLSDVP8Z0ZMV","either","7","1310","","","","","","","0","1","0","","0.8","0.5","0.5","0.5","0.5","0.8","0.2","0.6","0.2","","","","","","","","","","","","","","72","H","0","img/none_selected.jpg","true","0","full_practice","",""
"","bandit","60","476593","0.0-32.0-9.0","75137013","wem/bandit_party_2","A2YLSDVP8Z0ZMV","either","7","1441","","","","","","","1","0","0","0.8","","0.5","0.5","0.5","0.5","","","","","0.8","0.2","0.6","0.2","","","","","","","","","","72","H","0","img/none_selected.jpg","true","0","full_practice","",""
"","bandit","61","480535","0.0-32.0-10.0","75137013","wem/bandit_party_2","A2YLSDVP8Z0ZMV","either","7","2436","","","","","","","1","0","0","0.8","","0.5","0.5","0.5","0.5","","","","","0.8","0.2","0.6","0.2","","","","","","","","","","72","H","0","img/none_selected.jpg","true","0","full_practice","",""
"","bandit","62","482559","0.0-32.0-11.0","75137013","wem/bandit_party_2","A2YLSDVP8Z0ZMV","either","7","517","","","","","","","1","0","0","0.8","","0.5","0.5","0.5","0.5","","","","","0.8","0.2","0.6","0.2","","","","","","","","","","72","H","0","img/none_selected.jpg","true","0","full_practice","",""
"","bandit","63","484600","0.0-32.0-12.0","75137013","wem/bandit_party_2","A2YLSDVP8Z0ZMV","either","7","534","","","","","","","0","0","1","0.8","","0.5","0.5","0.5","0.5","","","","","0.8","0.2","0.6","0.2","","","","","","","","","","72","H","0","img/none_selected.jpg","true","0","full_practice","",""
"","bandit","64","486316","0.0-32.0-13.0","75137013","wem/bandit_party_2","A2YLSDVP8Z0ZMV","either","7","212","","","","","","","0","0","1","","0.2","0.5","0.5","0.5","0.5","0.8","0.2","0.6","0.2","","","","","","","","","","","","","","74","J","1","","true","0","full_practice","",""
"","bandit","65","488288","0.0-32.0-14.0","75137013","wem/bandit_party_2","A2YLSDVP8Z0ZMV","either","7","465","","","","","","","0","1","0","","0.6","0.5","0.5","0.5","0.5","0.8","0.2","0.6","0.2","","","","","","","","","","","","","","75","K","2","","true","0","full_practice","",""
"","bandit","66","490150","0.0-32.0-15.0","75137013","wem/bandit_party_2","A2YLSDVP8Z0ZMV","either","7","355","","","","","","","0","1","0","","0.6","0.5","0.5","0.5","0.5","0.8","0.2","0.6","0.2","","","","","","","","","","","","","","75","K","2","","true","0","full_practice","",""
"","bandit","67","492093","0.0-32.0-16.0","75137013","wem/bandit_party_2","A2YLSDVP8Z0ZMV","either","7","438","","","","","","","0","0","1","0.6","","0.5","0.5","0.5","0.5","","","","","0.8","0.2","0.6","0.2","","","","","","","","","","75","K","2","","true","0","full_practice","",""
"","bandit","68","493804","0.0-32.0-17.0","75137013","wem/bandit_party_2","A2YLSDVP8Z0ZMV","either","7","207","","","","","","","0","0","1","","0.2","0.5","0.5","0.5","0.5","0.8","0.2","0.6","0.2","","","","","","","","","","","","","","74","J","1","","true","0","full_practice","",""
"","bandit","69","496164","0.0-32.0-18.0","75137013","wem/bandit_party_2","A2YLSDVP8Z0ZMV","either","7","854","","","","","","","0","0","1","0.2","","0.5","0.5","0.5","0.5","","","","","0.8","0.2","0.6","0.2","","","","","","","","","","76","L","3","","true","0","full_practice","",""
"","bandit","70","498253","0.0-32.0-19.0","75137013","wem/bandit_party_2","A2YLSDVP8Z0ZMV","either","7","583","","","","","","","0","0","1","0.2","","0.5","0.5","0.5","0.5","","","","","0.8","0.2","0.6","0.2","","","","","","","","","","76","L","3","","true","0","full_practice","",""
"","text","71","501647","0.0-33.0","75137013","wem/bandit_party_2","A2YLSDVP8Z0ZMV","either","7","3387","","","32","","","","","","","","","","","","","","","","","","","","","","","","","","","","","","","","","","","","","",""
"","text-replacement","72","516609","0.0-34.0","75137013","wem/bandit_party_2","A2YLSDVP8Z0ZMV","either","7","13959","","","32","","","","","","","","","","","","","","","","","","","","","","","","","","","","","","","","","","","","","",""
"","text-replacement","73","528992","0.0-35.0","75137013","wem/bandit_party_2","A2YLSDVP8Z0ZMV","either","7","12382","","","32","","","","","","","","","","","","","","","","","","","","","","","","","","","","","","","","","","","","","",""
"","text-replacement","74","534399","0.0-36.0","75137013","wem/bandit_party_2","A2YLSDVP8Z0ZMV","either","7","5404","","","32","","","","","","","","","","","","","","","","","","","","","","","","","","","","","","","","","","","","","",""
"","text-replacement","75","540496","0.0-37.0","75137013","wem/bandit_party_2","A2YLSDVP8Z0ZMV","either","7","6095","","","32","","","","","","","","","","","","","","","","","","","","","","","","","","","","","","","","","","","","","",""
"","text-replacement","76","543470","0.0-38.0","75137013","wem/bandit_party_2","A2YLSDVP8Z0ZMV","either","7","2973","","","32","","","","","","","","","","","","","","","","","","","","","","","","","","","","","","","","","","","","","",""
"","survey-multi-choice-replacement","77","552336","0.0-39.0-0.0","75137013","wem/bandit_party_2","A2YLSDVP8Z0ZMV","either","7","8860","","","","","","","","","","","","","","","","","","","","","","","","Money will be added to the pool for <span style='color:red;'>REPUBLICANS</span>","","","","","","","attn_check","","","","","","","","","0",""
"","survey-multi-choice-replacement","78","560094","0.0-40.0-0.0","75137013","wem/bandit_party_2","A2YLSDVP8Z0ZMV","either","7","6750","","","","","","","","","","","","","","","","","","","","","","","","Money will be subtracted from the pool for <span style='color:blue;'>DEMOCRATS</span>","","","","","","","attn_check","","","","","","","","","1",""
"","instructions","79","563158","0.0-40.0-1.0-0.0","75137013","wem/bandit_party_2","A2YLSDVP8Z0ZMV","either","7","2059","","","","","","","","","","","","","","","","","","","","","","","","","","","","","","","","","","","","","","","","","[{""page_index"":0,""viewing_time"":2059}]"
"","survey-multi-choice-replacement","80","572501","0.0-40.1-0.1","75137013","wem/bandit_party_2","A2YLSDVP8Z0ZMV","either","7","8336","","","","","","","","","","","","","","","","","","","","","","","","Equal amounts of money will be added to the pool for <span style='color:red;'>REPUBLICANS</span> and subtracted from the pool for <span style='color:blue;'>DEMOCRATS</span>","","","","","","","attn_check","","","","","","","","","2",""
"","survey-multi-choice-replacement","81","577758","0.0-41.0-0.0","75137013","wem/bandit_party_2","A2YLSDVP8Z0ZMV","either","7","4249","","","","","","","","","","","","","","","","","","","","","","","","No money will be added to either pool","","","","","","","attn_check","","","","","","","","","3",""
"","bandit","82","584518","0.0-42.0-0.0","75137013","wem/bandit_party_2","A2YLSDVP8Z0ZMV","either","7","4250","","","","","","","0","1","0","","0.5514722813","0.2","0.8","0.4","0.6","0.5514722813","0.1731741302","0.2888626749","0.7088318221","","","","","","","","","","","","","","72","H","0","img/none_selected.jpg","","1","main_expt","",""
"","bandit","83","586558","0.0-43.0-0.0","75137013","wem/bandit_party_2","A2YLSDVP8Z0ZMV","either","7","533","","","","","","","0","1","0","","0.5039303977","0.2","0.8","0.4","0.6","0.5039303977","0.2874485847","0.3999538902","0.6292935488","","","","","","","","","","","","","","72","H","0","img/none_selected.jpg","","2","main_expt","",""
"","bandit","84","588777","0.0-44.0-0.0","75137013","wem/bandit_party_2","A2YLSDVP8Z0ZMV","either","7","712","","","","","","","0","1","0","","0.5527877924","0.2","0.8","0.4","0.6","0.5527877924","0.2683250969","0.4126831114","0.5285482983","","","","","","","","","","","","","","72","H","0","img/none_selected.jpg","","3","main_expt","",""
"","bandit","85","590718","0.0-45.0-0.0","75137013","wem/bandit_party_2","A2YLSDVP8Z0ZMV","either","7","433","","","","","","","0","1","0","","0.6336700584","0.2","0.8","0.4","0.6","0.6336700584","0.3988631097","0.3923803367","0.6744491701","","","","","","","","","","","","","","72","H","0","img/none_selected.jpg","","4","main_expt","",""
"","bandit","86","592725","0.0-46.0-0.0","75137013","wem/bandit_party_2","A2YLSDVP8Z0ZMV","either","7","501","","","","","","","0","1","0","","0.6340088104","0.2","0.8","0.4","0.6","0.6340088104","0.3568799457","0.3803283439","0.7922285807","","","","","","","","","","","","","","72","H","0","img/none_selected.jpg","","5","main_expt","",""
"","bandit","87","594678","0.0-47.0-0.0","75137013","wem/bandit_party_2","A2YLSDVP8Z0ZMV","either","7","446","","","","","","","1","0","0","0.5784181907","","0.2","0.8","0.4","0.6","","","","","0.5784181907","0.3188731731","0.4214296899","0.7459441126","","","","","","","","","","72","H","0","img/none_selected.jpg","","6","main_expt","",""
"","bandit","88","596541","0.0-48.0-0.0","75137013","wem/bandit_party_2","A2YLSDVP8Z0ZMV","either","7","355","","","","","","","0","0","1","","0.6727083857","0.2","0.8","0.4","0.6","0.6727083857","0.4574196012","0.4755968838","0.7681481668","","","","","","","","","","","","","","72","H","0","img/none_selected.jpg","","7","main_expt","",""
"","bandit","89","598685","0.0-49.0-0.0","75137013","wem/bandit_party_2","A2YLSDVP8Z0ZMV","either","7","638","","","","","","","0","1","0","","0.5353568537","0.2","0.8","0.4","0.6","0.7574508858","0.5037884951","0.5353568537","0.7251609313","","","","","","","","","","","","","","75","K","2","","","8","main_expt","",""
"","bandit","90","600645","0.0-50.0-0.0","75137013","wem/bandit_party_2","A2YLSDVP8Z0ZMV","either","7","456","","","","","","","0","1","0","","0.6246831942","0.2","0.8","0.4","0.6","0.8280759311","0.5750013994","0.6246831942","0.7403055102","","","","","","","","","","","","","","75","K","2","","","9","main_expt","",""
"","bandit","91","602565","0.0-51.0-0.0","75137013","wem/bandit_party_2","A2YLSDVP8Z0ZMV","either","7","412","","","","","","","0","0","1","","0.4475954046","0.2","0.8","0.4","0.6","0.859726102","0.5399040382","0.4475954046","0.722944265","","","","","","","","","","","","","","75","K","2","","","10","main_expt","",""
"","bandit","92","604430","0.0-52.0-0.0","75137013","wem/bandit_party_2","A2YLSDVP8Z0ZMV","either","7","358","","","","","","","1","0","0","0.5181098662","","0.2","0.8","0.4","0.6","","","","","0.877956501","0.5181098662","0.4514702697","0.6833847698","","","","","","","","","","74","J","1","","","11","main_expt","",""
"","bandit","93","606254","0.0-53.0-0.0","75137013","wem/bandit_party_2","A2YLSDVP8Z0ZMV","either","7","318","","","","","","","0","0","1","0.5489165229","","0.2","0.8","0.4","0.6","","","","","0.8883669707","0.5489165229","0.4873058782","0.689227163","","","","","","","","","","74","J","1","","","12","main_expt","",""
"","bandit","94","607884","0.0-54.0-0.0","75137013","wem/bandit_party_2","A2YLSDVP8Z0ZMV","either","7","126","","","","","","","0","0","1","","0.5178623456","0.2","0.8","0.4","0.6","0.817149195","0.6186986429","0.4862469224","0.5178623456","","","","","","","","","","","","","","76","L","3","","","13","main_expt","",""
"","bandit","95","609693","0.0-55.0-0.0","75137013","wem/bandit_party_2","A2YLSDVP8Z0ZMV","either","7","304","","","","","","","0","1","0","","0.8589139609","0.2","0.8","0.4","0.6","0.8589139609","0.4944095791","0.360908092","0.4768489018","","","","","","","","","","","","","","72","H","0","img/none_selected.jpg","","14","main_expt","",""
"","bandit","96","611549","0.0-56.0-0.0","75137013","wem/bandit_party_2","A2YLSDVP8Z0ZMV","either","7","350","","","","","","","0","1","0","","0.7955781648","0.2","0.8","0.4","0.6","0.7955781648","0.4820951366","0.4126647893","0.5201849276","","","","","","","","","","","","","","72","H","0","img/none_selected.jpg","","15","main_expt","",""
"","bandit","97","613421","0.0-57.0-0.0","75137013","wem/bandit_party_2","A2YLSDVP8Z0ZMV","either","7","366","","","","","","","1","0","0","0.8864445785","","0.2","0.8","0.4","0.6","","","","","0.8864445785","0.4888848296","0.4930686601","0.6862231469","","","","","","","","","","72","H","0","img/none_selected.jpg","","16","main_expt","",""
"","bandit","98","615277","0.0-58.0-0.0","75137013","wem/bandit_party_2","A2YLSDVP8Z0ZMV","either","7","348","","","","","","","1","0","0","0.8746062981","","0.2","0.8","0.4","0.6","","","","","0.8746062981","0.381306026","0.5162343008","0.7297328357","","","","","","","","","","72","H","0","img/none_selected.jpg","","17","main_expt","",""
"","bandit","99","617142","0.0-59.0-0.0","75137013","wem/bandit_party_2","A2YLSDVP8Z0ZMV","either","7","358","","","","","","","0","1","0","","0.8910236512","0.2","0.8","0.4","0.6","0.8910236512","0.3537135189","0.5627456494","0.6686287009","","","","","","","","","","","","","","72","H","0","img/none_selected.jpg","","18","main_expt","",""
"","bandit","100","619005","0.0-60.0-0.0","75137013","wem/bandit_party_2","A2YLSDVP8Z0ZMV","either","7","356","","","","","","","0","0","1","","0.8932054573","0.2","0.8","0.4","0.6","0.8932054573","0.4891458502","0.4478227807","0.7885428456","","","","","","","","","","","","","","72","H","0","img/none_selected.jpg","","19","main_expt","",""
"","bandit","101","620789","0.0-61.0-0.0","75137013","wem/bandit_party_2","A2YLSDVP8Z0ZMV","either","7","279","","","","","","","1","0","0","0.5440957398","","0.2","0.8","0.4","0.6","","","","","0.8900063933","0.5440957398","0.5306796692","0.7442236049","","","","","","","","","","74","J","1","","","20","main_expt","",""
"","bandit","102","622895","0.0-62.0-0.0","75137013","wem/bandit_party_2","A2YLSDVP8Z0ZMV","either","7","598","","","","","","","0","0","1","0.5621313733","","0.2","0.8","0.4","0.6","","","","","0.8748704397","0.5621313733","0.5423611418","0.7908218503","","","","","","","","","","74","J","1","","","21","main_expt","",""
"","bandit","103","624589","0.0-63.0-0.0","75137013","wem/bandit_party_2","A2YLSDVP8Z0ZMV","either","7","188","","","","","","","0","1","0","","0.4190568807","0.2","0.8","0.4","0.6","0.8498769136","0.5296345876","0.4190568807","0.7163236006","","","","","","","","","","","","","","75","K","2","","","22","main_expt","",""
"","bandit","104","626493","0.0-64.0-0.0","75137013","wem/bandit_party_2","A2YLSDVP8Z0ZMV","either","7","398","","","","","","","0","0","1","","0.4329937009","0.2","0.8","0.4","0.6","0.8357449374","0.5187107172","0.4329937009","0.7061190667","","","","","","","","","","","","","","75","K","2","","","23","main_expt","",""
"","bandit","105","628485","0.0-65.0-0.0","75137013","wem/bandit_party_2","A2YLSDVP8Z0ZMV","either","7","485","","","","","","","0","1","0","","0.7470556917","0.2","0.8","0.4","0.6","0.8431908073","0.6000521927","0.4298879426","0.7470556917","","","","","","","","","","","","","","76","L","3","","","24","main_expt","",""
"","bandit","106","630372","0.0-66.0-0.0","75137013","wem/bandit_party_2","A2YLSDVP8Z0ZMV","either","7","382","","","","","","","1","0","0","0.8154180688","","0.2","0.8","0.4","0.6","","","","","0.8741885854","0.5443047256","0.2992323157","0.8154180688","","","","","","","","","","76","L","3","","","25","main_expt","",""
"","bandit","107","633197","0.0-67.0-0.0","75137013","wem/bandit_party_2","A2YLSDVP8Z0ZMV","either","7","1319","","","","","","","1","0","0","0.8395379789","","0.2","0.8","0.4","0.6","","","","","0.8940719671","0.592493964","0.3857263224","0.8395379789","","","","","","","","","","76","L","3","","","26","main_expt","",""
"","bandit","108","634852","0.0-68.0-0.0","75137013","wem/bandit_party_2","A2YLSDVP8Z0ZMV","either","7","150","","","","","","","1","0","0","0.8023078409","","0.2","0.8","0.4","0.6","","","","","0.8733378856","0.5779569403","0.3715251318","0.8023078409","","","","","","","","","","76","L","3","","","27","main_expt","",""
"","bandit","109","637077","0.0-69.0-0.0","75137013","wem/bandit_party_2","A2YLSDVP8Z0ZMV","either","7","718","","","","","","","1","0","0","0.8248968235","","0.2","0.8","0.4","0.6","","","","","0.8695586723","0.7077223562","0.3387808014","0.8248968235","","","","","","","","","","76","L","3","","","28","main_expt","",""
"","bandit","110","639436","0.0-70.0-0.0","75137013","wem/bandit_party_2","A2YLSDVP8Z0ZMV","either","7","854","","","","","","","1","0","0","0.8621011303","","0.2","0.8","0.4","0.6","","","","","0.7908290088","0.7070353494","0.3737397218","0.8621011303","","","","","","","","","","76","L","3","","","29","main_expt","",""
"","bandit","111","641174","0.0-71.0-0.0","75137013","wem/bandit_party_2","A2YLSDVP8Z0ZMV","either","7","228","","","","","","","0","1","0","","0.8873668535","0.2","0.8","0.4","0.6","0.8518997755","0.6585428656","0.3232047389","0.8873668535","","","","","","","","","","","","","","76","L","3","","","30","main_expt","",""
"","bandit","112","643429","0.0-72.0-0.0","75137013","wem/bandit_party_2","A2YLSDVP8Z0ZMV","either","7","750","","","","","","","0","1","0","","0.9318975106","0.2","0.8","0.4","0.6","0.8509842625","0.6724088618","0.4130267239","0.9318975106","","","","","","","","","","","","","","76","L","3","","","31","main_expt","",""
"","bandit","113","645357","0.0-73.0-0.0","75137013","wem/bandit_party_2","A2YLSDVP8Z0ZMV","either","7","420","","","","","","","1","0","0","0.9013609786","","0.2","0.8","0.4","0.6","","","","","0.872996121","0.6416581209","0.4167758813","0.9013609786","","","","","","","","","","76","L","3","","","32","main_expt","",""
"","bandit","114","647214","0.0-74.0-0.0","75137013","wem/bandit_party_2","A2YLSDVP8Z0ZMV","either","7","350","","","","","","","1","0","0","0.9041531295","","0.2","0.8","0.4","0.6","","","","","0.8571046391","0.7055802426","0.4546052232","0.9041531295","","","","","","","","","","76","L","3","","","33","main_expt","",""
"","bandit","115","649100","0.0-75.0-0.0","75137013","wem/bandit_party_2","A2YLSDVP8Z0ZMV","either","7","380","","","","","","","0","1","0","","0.9386104272","0.2","0.8","0.4","0.6","0.9175819521","0.7554114371","0.5231803088","0.9386104272","","","","","","","","","","","","","","76","L","3","","","34","main_expt","",""
"","bandit","116","651045","0.0-76.0-0.0","75137013","wem/bandit_party_2","A2YLSDVP8Z0ZMV","either","7","439","","","","","","","1","0","0","0.9180645683","","0.2","0.8","0.4","0.6","","","","","0.9503165686","0.8008095759","0.4661188593","0.9180645683","","","","","","","","","","76","L","3","","","35","main_expt","",""
"","bandit","117","653149","0.0-77.0-0.0","75137013","wem/bandit_party_2","A2YLSDVP8Z0ZMV","either","7","597","","","","","","","1","0","0","0.9095107155","","0.2","0.8","0.4","0.6","","","","","0.9327615424","0.6925109639","0.4106027186","0.9095107155","","","","","","","","","","76","L","3","","","36","main_expt","",""
"","bandit","118","655486","0.0-78.0-0.0","75137013","wem/bandit_party_2","A2YLSDVP8Z0ZMV","either","7","832","","","","","","","1","0","0","0.9405648028","","0.2","0.8","0.4","0.6","","","","","0.9196494001","0.7764255689","0.5021263718","0.9405648028","","","","","","","","","","76","L","3","","","37","main_expt","",""
"","bandit","119","657494","0.0-79.0-0.0","75137013","wem/bandit_party_2","A2YLSDVP8Z0ZMV","either","7","500","","","","","","","0","1","0","","0.9058459248","0.2","0.8","0.4","0.6","0.928530414","0.8392953971","0.5065313343","0.9058459248","","","","","","","","","","","","","","76","L","3","","","38","main_expt","",""
"","bandit","120","659853","0.0-80.0-0.0","75137013","wem/bandit_party_2","A2YLSDVP8Z0ZMV","either","7","853","","","","","","","0","0","1","0.6098243774","","0.2","0.8","0.4","0.6","","","","","0.9001545702","0.7614495855","0.6098243774","0.8784462517","","","","","","","","","","75","K","2","","","39","main_expt","",""
"","bandit","121","661677","0.0-81.0-0.0","75137013","wem/bandit_party_2","A2YLSDVP8Z0ZMV","either","7","317","","","","","","","1","0","0","0.8408568766","","0.2","0.8","0.4","0.6","","","","","0.8432481254","0.8060705796","0.679699592","0.8408568766","","","","","","","","","","76","L","3","","","40","main_expt","",""
"","bandit","122","663687","0.0-82.0-0.0","75137013","wem/bandit_party_2","A2YLSDVP8Z0ZMV","either","7","502","","","","","","","1","0","0","0.811342849","","0.2","0.8","0.4","0.6","","","","","0.8326479564","0.7539991053","0.616488607","0.811342849","","","","","","","","","","76","L","3","","","41","main_expt","",""
"","bandit","123","665894","0.0-83.0-0.0","75137013","wem/bandit_party_2","A2YLSDVP8Z0ZMV","either","7","701","","","","","","","1","0","0","0.8058808774","","0.2","0.8","0.4","0.6","","","","","0.8602810298","0.7717369324","0.6307104111","0.8058808774","","","","","","","","","","76","L","3","","","42","main_expt","",""
"","bandit","124","667760","0.0-84.0-0.0","75137013","wem/bandit_party_2","A2YLSDVP8Z0ZMV","either","7","357","","","","","","","1","0","0","0.7899844578","","0.2","0.8","0.4","0.6","","","","","0.894365654","0.7625968551","0.554567591","0.7899844578","","","","","","","","","","76","L","3","","","43","main_expt","",""
"","bandit","125","669756","0.0-85.0-0.0","75137013","wem/bandit_party_2","A2YLSDVP8Z0ZMV","either","7","491","","","","","","","1","0","0","0.7654486741","","0.2","0.8","0.4","0.6","","","","","0.9033664713","0.8488621298","0.5281861223","0.7654486741","","","","","","","","","","76","L","3","","","44","main_expt","",""
"","bandit","126","671773","0.0-86.0-0.0","75137013","wem/bandit_party_2","A2YLSDVP8Z0ZMV","either","7","508","","","","","","","1","0","0","0.7674111825","","0.2","0.8","0.4","0.6","","","","","0.8829964613","0.8522077325","0.5043334007","0.7674111825","","","","","","","","","","76","L","3","","","45","main_expt","",""
"","bandit","127","676207","0.0-87.0-0.0","75137013","wem/bandit_party_2","A2YLSDVP8Z0ZMV","either","7","2926","","","","","","","1","0","0","0.6301273516","","0.2","0.8","0.4","0.6","","","","","0.8674694879","0.8618589195","0.5426256613","0.6301273516","","","","","","","","","","76","L","3","","","46","main_expt","",""
"","bandit","128","679757","0.0-88.0-0.0","75137013","wem/bandit_party_2","A2YLSDVP8Z0ZMV","either","7","2044","","","","","","","1","0","0","0.7885969413","","0.2","0.8","0.4","0.6","","","","","0.8886720039","0.905897833","0.5024796093","0.7885969413","","","","","","","","","","76","L","3","","","47","main_expt","",""
"","bandit","129","682528","0.0-89.0-0.0","75137013","wem/bandit_party_2","A2YLSDVP8Z0ZMV","either","7","1262","","","","","","","1","0","0","0.7983786211","","0.2","0.8","0.4","0.6","","","","","0.9229902905","0.8929468812","0.4689138593","0.7983786211","","","","","","","","","","76","L","3","","","48","main_expt","",""
"","bandit","130","684444","0.0-90.0-0.0","75137013","wem/bandit_party_2","A2YLSDVP8Z0ZMV","either","7","411","","","","","","","0","0","1","","0.8249867574","0.2","0.8","0.4","0.6","0.9141434128","0.854905512","0.4439560463","0.8249867574","","","","","","","","","","","","","","76","L","3","","","49","main_expt","",""
"","bandit","131","686182","0.0-91.0-0.0","75137013","wem/bandit_party_2","A2YLSDVP8Z0ZMV","either","7","229","","","","","","","0","0","1","","0.9181160336","0.2","0.8","0.4","0.6","0.9181160336","0.8363103738","0.4079842927","0.7532301684","","","","","","","","","","","","","","72","H","0","img/none_selected.jpg","","50","main_expt","",""
"","bandit","132","687982","0.0-92.0-0.0","75137013","wem/bandit_party_2","A2YLSDVP8Z0ZMV","either","7","293","","","","","","","0","1","0","","0.7168506975","0.2","0.8","0.4","0.6","0.9266489825","0.7168506975","0.4675199832","0.6750909554","","","","","","","","","","","","","","74","J","1","","","51","main_expt","",""
"","bandit","133","689893","0.0-93.0-0.0","75137013","wem/bandit_party_2","A2YLSDVP8Z0ZMV","either","7","405","","","","","","","1","0","0","0.6507986152","","0.2","0.8","0.4","0.6","","","","","0.9285581488","0.6507986152","0.4368052975","0.6762079337","","","","","","","","","","74","J","1","","","52","main_expt","",""
"","bandit","134","691756","0.0-94.0-0.0","75137013","wem/bandit_party_2","A2YLSDVP8Z0ZMV","either","7","358","","","","","","","1","0","0","0.6531867096","","0.2","0.8","0.4","0.6","","","","","0.9171724481","0.6531867096","0.4967902672","0.7882030045","","","","","","","","","","74","J","1","","","53","main_expt","",""
"","bandit","135","693575","0.0-95.0-0.0","75137013","wem/bandit_party_2","A2YLSDVP8Z0ZMV","either","7","310","","","","","","","0","0","1","0.6178049746","","0.2","0.8","0.4","0.6","","","","","0.8709862684","0.6178049746","0.5321533453","0.8759533557","","","","","","","","","","74","J","1","","","54","main_expt","",""
"","bandit","136","695172","0.0-96.0-0.0","75137013","wem/bandit_party_2","A2YLSDVP8Z0ZMV","either","7","90","","","","","","","1","0","0","0.593251847","","0.2","0.8","0.4","0.6","","","","","0.9016108676","0.5501477499","0.593251847","0.9307112091","","","","","","","","","","75","K","2","","","55","main_expt","",""
"","bandit","137","696996","0.0-97.0-0.0","75137013","wem/bandit_party_2","A2YLSDVP8Z0ZMV","either","7","318","","","","","","","0","0","1","","0.602347159","0.2","0.8","0.4","0.6","0.9123335035","0.5181914202","0.602347159","0.9486344027","","","","","","","","","","","","","","75","K","2","","","56","main_expt","",""
"","bandit","138","699566","0.0-98.0-0.0","75137013","wem/bandit_party_2","A2YLSDVP8Z0ZMV","either","7","1062","","","","","","","1","0","0","0.9450559811","","0.2","0.8","0.4","0.6","","","","","0.9338523698","0.5052283364","0.736851976","0.9450559811","","","","","","","","","","76","L","3","","","57","main_expt","",""
"","bandit","139","701494","0.0-99.0-0.0","75137013","wem/bandit_party_2","A2YLSDVP8Z0ZMV","either","7","419","","","","","","","1","0","0","0.960587128","","0.2","0.8","0.4","0.6","","","","","0.9023069914","0.4494585665","0.7112026436","0.960587128","","","","","","","","","","76","L","3","","","58","main_expt","",""
"","bandit","140","704556","0.0-100.0-0.0","75137013","wem/bandit_party_2","A2YLSDVP8Z0ZMV","either","7","1555","","","","","","","1","0","0","0.9272570312","","0.2","0.8","0.4","0.6","","","","","0.903153386","0.4431029696","0.7605469626","0.9272570312","","","","","","","","","","76","L","3","","","59","main_expt","",""
"","bandit","141","706524","0.0-101.0-0.0","75137013","wem/bandit_party_2","A2YLSDVP8Z0ZMV","either","7","462","","","","","","","0","1","0","","0.9075075979","0.2","0.8","0.4","0.6","0.8975643475","0.4213069188","0.6504737249","0.9075075979","","","","","","","","","","","","","","76","L","3","","","60","main_expt","",""
"","bandit","142","712150","0.0-102.0-0.0","75137013","wem/bandit_party_2","A2YLSDVP8Z0ZMV","either","7","4119","","","","","","","0","1","0","","0.9011961695","0.2","0.8","0.4","0.6","0.8455107238","0.4735464544","0.7417300409","0.9011961695","","","","","","","","","","","","","","76","L","3","","","61","main_expt","",""
"","bandit","143","715205","0.0-103.0-0.0","75137013","wem/bandit_party_2","A2YLSDVP8Z0ZMV","either","7","1547","","","","","","","1","0","0","0.9025442902","","0.2","0.8","0.4","0.6","","","","","0.8423106617","0.4260239588","0.6889655243","0.9025442902","","","","","","","","","","76","L","3","","","62","main_expt","",""
"","bandit","144","717989","0.0-104.0-0.0","75137013","wem/bandit_party_2","A2YLSDVP8Z0ZMV","either","7","1275","","","","","","","0","1","0","","0.900711875","0.2","0.8","0.4","0.6","0.6997676278","0.4048641732","0.7532165261","0.900711875","","","","","","","","","","","","","","76","L","3","","","63","main_expt","",""
"","bandit","145","720366","0.0-105.0-0.0","75137013","wem/bandit_party_2","A2YLSDVP8Z0ZMV","either","7","868","","","","","","","0","1","0","","0.8445511995","0.2","0.8","0.4","0.6","0.8033841581","0.261135461","0.7614619666","0.8445511995","","","","","","","","","","","","","","76","L","3","","","64","main_expt","",""
"","bandit","146","725871","0.0-106.0-0.0","75137013","wem/bandit_party_2","A2YLSDVP8Z0ZMV","either","7","3997","","","","","","","0","0","1","0.7838665633","","0.2","0.8","0.4","0.6","","","","","0.8458775523","0.4398785507","0.7474824059","0.7838665633","","","","","","","","","","76","L","3","","","65","main_expt","",""
"","bandit","147","727798","0.0-107.0-0.0","75137013","wem/bandit_party_2","A2YLSDVP8Z0ZMV","either","7","418","","","","","","","0","1","0","","0.7083026918","0.2","0.8","0.4","0.6","0.8612648572","0.4549930047","0.7083026918","0.8399866527","","","","","","","","","","","","","","75","K","2","","","66","main_expt","",""
"","bandit","148","729718","0.0-108.0-0.0","75137013","wem/bandit_party_2","A2YLSDVP8Z0ZMV","either","7","412","","","","","","","1","0","0","0.6535093674","","0.2","0.8","0.4","0.6","","","","","0.8686018104","0.5565794079","0.6535093674","0.9109535201","","","","","","","","","","75","K","2","","","67","main_expt","",""
"","bandit","149","731900","0.0-109.0-0.0","75137013","wem/bandit_party_2","A2YLSDVP8Z0ZMV","either","7","676","","","","","","","0","0","1","","0.4923739087","0.2","0.8","0.4","0.6","0.8693437115","0.4211802827","0.4923739087","0.9064065477","","","","","","","","","","","","","","75","K","2","","","68","main_expt","",""
"","bandit","150","734117","0.0-110.0-0.0","75137013","wem/bandit_party_2","A2YLSDVP8Z0ZMV","either","7","709","","","","","","","1","0","0","0.3687693293","","0.2","0.8","0.4","0.6","","","","","0.9168970181","0.3687693293","0.4898097669","0.9315833469","","","","","","","","","","74","J","1","","","69","main_expt","",""
"","bandit","151","738558","0.0-111.0-0.0","75137013","wem/bandit_party_2","A2YLSDVP8Z0ZMV","either","7","2934","","","","","","","0","0","1","0.3460903474","","0.2","0.8","0.4","0.6","","","","","0.9293527272","0.3460903474","0.4369614599","0.9393923483","","","","","","","","","","74","J","1","","","70","main_expt","",""
"","bandit","152","740972","0.0-112.0-0.0","75137013","wem/bandit_party_2","A2YLSDVP8Z0ZMV","either","7","908","","","","","","","0","1","0","","0.949087413","0.2","0.8","0.4","0.6","0.949087413","0.3278112836","0.5031037484","0.9568343035","","","","","","","","","","","","","","72","H","0","img/none_selected.jpg","","71","main_expt","",""
"","bandit","153","742956","0.0-113.0-0.0","75137013","wem/bandit_party_2","A2YLSDVP8Z0ZMV","either","7","477","","","","","","","0","1","0","","0.906373323","0.2","0.8","0.4","0.6","0.906373323","0.2720469766","0.5397903688","0.947758434","","","","","","","","","","","","","","72","H","0","img/none_selected.jpg","","72","main_expt","",""
"","bandit","154","745206","0.0-114.0-0.0","75137013","wem/bandit_party_2","A2YLSDVP8Z0ZMV","either","7","742","","","","","","","0","1","0","","0.93965919","0.2","0.8","0.4","0.6","0.93965919","0.2451019773","0.5540652028","0.9052010222","","","","","","","","","","","","","","72","H","0","img/none_selected.jpg","","73","main_expt","",""
"","bandit","155","747276","0.0-115.0-0.0","75137013","wem/bandit_party_2","A2YLSDVP8Z0ZMV","either","7","563","","","","","","","0","1","0","","0.9416319858","0.2","0.8","0.4","0.6","0.9416319858","0.2645862521","0.61733434","0.927704936","","","","","","","","","","","","","","72","H","0","img/none_selected.jpg","","74","main_expt","",""
"","bandit","156","749358","0.0-116.0-0.0","75137013","wem/bandit_party_2","A2YLSDVP8Z0ZMV","either","7","574","","","","","","","1","0","0","0.9535384208","","0.2","0.8","0.4","0.6","","","","","0.9535384208","0.2298582","0.6341908543","0.8769567517","","","","","","","","","","72","H","0","img/none_selected.jpg","","75","main_expt","",""
"","bandit","157","751349","0.0-117.0-0.0","75137013","wem/bandit_party_2","A2YLSDVP8Z0ZMV","either","7","484","","","","","","","1","0","0","0.9585479729","","0.2","0.8","0.4","0.6","","","","","0.9585479729","0.3460043445","0.6355577018","0.8456064169","","","","","","","","","","72","H","0","img/none_selected.jpg","","76","main_expt","",""
"","bandit","158","753277","0.0-118.0-0.0","75137013","wem/bandit_party_2","A2YLSDVP8Z0ZMV","either","7","420","","","","","","","0","1","0","","0.9610253773","0.2","0.8","0.4","0.6","0.9610253773","0.2526488818","0.7055426269","0.8325595713","","","","","","","","","","","","","","72","H","0","img/none_selected.jpg","","77","main_expt","",""
"","bandit","159","755062","0.0-119.0-0.0","75137013","wem/bandit_party_2","A2YLSDVP8Z0ZMV","either","7","276","","","","","","","0","1","0","","0.9580320452","0.2","0.8","0.4","0.6","0.9580320452","0.2625396382","0.6137882531","0.9128982172","","","","","","","","","","","","","","72","H","0","img/none_selected.jpg","","78","main_expt","",""
"","bandit","160","756828","0.0-120.0-0.0","75137013","wem/bandit_party_2","A2YLSDVP8Z0ZMV","either","7","259","","","","","","","1","0","0","0.9403834825","","0.2","0.8","0.4","0.6","","","","","0.9403834825","0.2957535945","0.668392527","0.9213349282","","","","","","","","","","72","H","0","img/none_selected.jpg","","79","main_expt","",""
"","bandit","161","759831","0.0-121.0-0.0","75137013","wem/bandit_party_2","A2YLSDVP8Z0ZMV","either","7","1495","","","","","","","0","1","0","","0.946171157","0.2","0.8","0.4","0.6","0.946171157","0.1831261498","0.7457361895","0.8935563746","","","","","","","","","","","","","","72","H","0","img/none_selected.jpg","","80","main_expt","",""
"","bandit","162","762086","0.0-122.0-0.0","75137013","wem/bandit_party_2","A2YLSDVP8Z0ZMV","either","7","747","","","","","","","0","1","0","","0.9800092583","0.2","0.8","0.4","0.6","0.9800092583","0.1450659425","0.8028050151","0.932831263","","","","","","","","","","","","","","72","H","0","img/none_selected.jpg","","81","main_expt","",""
"","bandit","163","764301","0.0-123.0-0.0","75137013","wem/bandit_party_2","A2YLSDVP8Z0ZMV","either","7","707","","","","","","","0","1","0","","0.9666397243","0.2","0.8","0.4","0.6","0.9666397243","0.1486641529","0.8727424511","0.9403650082","","","","","","","","","","","","","","72","H","0","img/none_selected.jpg","","82","main_expt","",""
"","bandit","164","766437","0.0-124.0-0.0","75137013","wem/bandit_party_2","A2YLSDVP8Z0ZMV","either","7","629","","","","","","","0","1","0","","0.9637330664","0.2","0.8","0.4","0.6","0.9637330664","0.1567811066","0.8283068274","0.9066396881","","","","","","","","","","","","","","72","H","0","img/none_selected.jpg","","83","main_expt","",""
"","bandit","165","769300","0.0-125.0-0.0","75137013","wem/bandit_party_2","A2YLSDVP8Z0ZMV","either","7","1356","","","","","","","0","1","0","","0.9617949183","0.2","0.8","0.4","0.6","0.9617949183","0.196091916","0.8030064341","0.8962006295","","","","","","","","","","","","","","72","H","0","img/none_selected.jpg","","84","main_expt","",""
"","bandit","166","771605","0.0-126.0-0.0","75137013","wem/bandit_party_2","A2YLSDVP8Z0ZMV","either","7","799","","","","","","","1","0","0","0.9561985801","","0.2","0.8","0.4","0.6","","","","","0.9561985801","0.1512390112","0.8622567251","0.9093999993","","","","","","","","","","72","H","0","img/none_selected.jpg","","85","main_expt","",""
"","bandit","167","774221","0.0-127.0-0.0","75137013","wem/bandit_party_2","A2YLSDVP8Z0ZMV","either","7","1108","","","","","","","1","0","0","0.9422505668","","0.2","0.8","0.4","0.6","","","","","0.9422505668","0.1486491559","0.896584634","0.9326862648","","","","","","","","","","72","H","0","img/none_selected.jpg","","86","main_expt","",""
"","bandit","168","777397","0.0-128.0-0.0","75137013","wem/bandit_party_2","A2YLSDVP8Z0ZMV","either","7","1669","","","","","","","1","0","0","0.926711091","","0.2","0.8","0.4","0.6","","","","","0.926711091","0.1047878604","0.9208758521","0.9039434857","","","","","","","","","","72","H","0","img/none_selected.jpg","","87","main_expt","",""
"","bandit","169","783519","0.0-129.0-0.0","75137013","wem/bandit_party_2","A2YLSDVP8Z0ZMV","either","7","4613","","","","","","","0","1","0","","0.9092576496","0.2","0.8","0.4","0.6","0.9092576496","0.07038149384","0.9266301883","0.9195127861","","","","","","","","","","","","","","72","H","0","img/none_selected.jpg","","88","main_expt","",""
"","bandit","170","789302","0.0-130.0-0.0","75137013","wem/bandit_party_2","A2YLSDVP8Z0ZMV","either","7","4276","","","","","","","0","1","0","","0.8948591238","0.2","0.8","0.4","0.6","0.8948591238","0.1311535074","0.9259215542","0.9225053559","","","","","","","","","","","","","","72","H","0","img/none_selected.jpg","","89","main_expt","",""
"","bandit","171","794087","0.0-131.0-0.0","75137013","wem/bandit_party_2","A2YLSDVP8Z0ZMV","either","7","3277","","","","","","","0","1","0","","0.8716727139","0.2","0.8","0.4","0.6","0.8716727139","0.1241310956","0.9400480964","0.9014563988","","","","","","","","","","","","","","72","H","0","img/none_selected.jpg","","90","main_expt","",""
"","bandit","172","798653","0.0-132.0-0.0","75137013","wem/bandit_party_2","A2YLSDVP8Z0ZMV","either","7","3056","","","","","","","0","1","0","","0.8969144331","0.2","0.8","0.4","0.6","0.8969144331","0.09664170694","0.8961855863","0.9162570652","","","","","","","","","","","","","","72","H","0","img/none_selected.jpg","","91","main_expt","",""
"","bandit","173","800717","0.0-133.0-0.0","75137013","wem/bandit_party_2","A2YLSDVP8Z0ZMV","either","7","557","","","","","","","0","1","0","","0.9171199264","0.2","0.8","0.4","0.6","0.9171199264","0.09586364307","0.9211437923","0.9171553871","","","","","","","","","","","","","","72","H","0","img/none_selected.jpg","","92","main_expt","",""
"","bandit","174","804165","0.0-134.0-0.0","75137013","wem/bandit_party_2","A2YLSDVP8Z0ZMV","either","7","1941","","","","","","","1","0","0","0.9593171332","","0.2","0.8","0.4","0.6","","","","","0.9593171332","0.08304118766","0.8947860396","0.9463284029","","","","","","","","","","72","H","0","img/none_selected.jpg","","93","main_expt","",""
"","bandit","175","806277","0.0-135.0-0.0","75137013","wem/bandit_party_2","A2YLSDVP8Z0ZMV","either","7","604","","","","","","","0","0","1","","0.959226596","0.2","0.8","0.4","0.6","0.959226596","0.1222865453","0.822540961","0.9477079066","","","","","","","","","","","","","","72","H","0","img/none_selected.jpg","","94","main_expt","",""
"","bandit","176","809820","0.0-136.0-0.0","75137013","wem/bandit_party_2","A2YLSDVP8Z0ZMV","either","7","2036","","","","","","","0","0","1","0.211460517","","0.2","0.8","0.4","0.6","","","","","0.947105423","0.211460517","0.8288041746","0.9474919074","","","","","","","","","","74","J","1","","","95","main_expt","",""
"","bandit","177","811693","0.0-137.0-0.0","75137013","wem/bandit_party_2","A2YLSDVP8Z0ZMV","either","7","366","","","","","","","0","1","0","","0.8217366877","0.2","0.8","0.4","0.6","0.937205139","0.2757920232","0.8217366877","0.9722490369","","","","","","","","","","","","","","75","K","2","","","96","main_expt","",""
"","bandit","178","813619","0.0-138.0-0.0","75137013","wem/bandit_party_2","A2YLSDVP8Z0ZMV","either","7","420","","","","","","","0","1","0","","0.725285089","0.2","0.8","0.4","0.6","0.9472767204","0.2646876298","0.725285089","0.980822097","","","","","","","","","","","","","","75","K","2","","","97","main_expt","",""
"","bandit","179","815269","0.0-139.0-0.0","75137013","wem/bandit_party_2","A2YLSDVP8Z0ZMV","either","7","143","","","","","","","0","1","0","","0.7958966199","0.2","0.8","0.4","0.6","0.962959595","0.3278454636","0.7958966199","0.9761591307","","","","","","","","","","","","","","75","K","2","","","98","main_expt","",""
"","bandit","180","819925","0.0-140.0-0.0","75137013","wem/bandit_party_2","A2YLSDVP8Z0ZMV","either","7","3148","","","","","","","0","1","0","","0.7741840332","0.2","0.8","0.4","0.6","0.9720903607","0.4641870332","0.7741840332","0.9597391097","","","","","","","","","","","","","","75","K","2","","","99","main_expt","",""
"","bandit","181","823276","0.0-141.0-0.0","75137013","wem/bandit_party_2","A2YLSDVP8Z0ZMV","either","7","1845","","","","","","","0","0","1","0.7934767162","","0.2","0.8","0.4","0.6","","","","","0.9737169538","0.3972344865","0.7934767162","0.9557148533","","","","","","","","","","75","K","2","","","100","main_expt","",""
"","bandit","182","825245","0.0-142.0-0.0","75137013","wem/bandit_party_2","A2YLSDVP8Z0ZMV","either","7","462","","","","","","","1","0","0","0.8307638242","","0.2","0.8","0.4","0.6","","","","","0.986468331","0.4395304924","0.8307638242","0.9687934467","","","","","","","","","","75","K","2","","","101","main_expt","",""
"","bandit","183","827335","0.0-143.0-0.0","75137013","wem/bandit_party_2","A2YLSDVP8Z0ZMV","either","7","582","","","","","","","0","1","0","","0.7737236933","0.2","0.8","0.4","0.6","0.9859557102","0.5248298482","0.7737236933","0.9713318577","","","","","","","","","","","","","","75","K","2","","","102","main_expt","",""
"","bandit","184","830541","0.0-144.0-0.0","75137013","wem/bandit_party_2","A2YLSDVP8Z0ZMV","either","7","1697","","","","","","","0","1","0","","0.8168427084","0.2","0.8","0.4","0.6","0.9828698412","0.6218364577","0.8168427084","0.9768128314","","","","","","","","","","","","","","75","K","2","","","103","main_expt","",""
"","bandit","185","834380","0.0-145.0-0.0","75137013","wem/bandit_party_2","A2YLSDVP8Z0ZMV","either","7","2333","","","","","","","0","1","0","","0.7020104164","0.2","0.8","0.4","0.6","0.9655029871","0.5528563194","0.7020104164","0.9566706727","","","","","","","","","","","","","","75","K","2","","","104","main_expt","",""
"","bandit","186","837268","0.0-146.0-0.0","75137013","wem/bandit_party_2","A2YLSDVP8Z0ZMV","either","7","1380","","","","","","","0","0","1","","0.6750414237","0.2","0.8","0.4","0.6","0.9587067199","0.515821512","0.6750414237","0.9352711559","","","","","","","","","","","","","","75","K","2","","","105","main_expt","",""
"","bandit","187","838950","0.0-147.0-0.0","75137013","wem/bandit_party_2","A2YLSDVP8Z0ZMV","either","7","172","","","","","","","0","0","1","0.5380341879","","0.2","0.8","0.4","0.6","","","","","0.9358961366","0.5380341879","0.5886413089","0.8980036198","","","","","","","","","","74","J","1","","","106","main_expt","",""
"","bandit","188","840828","0.0-148.0-0.0","75137013","wem/bandit_party_2","A2YLSDVP8Z0ZMV","either","7","370","","","","","","","0","1","0","","0.9175797088","0.2","0.8","0.4","0.6","0.8829949032","0.3291998873","0.5507707533","0.9175797088","","","","","","","","","","","","","","76","L","3","","","107","main_expt","",""
"","bandit","189","843253","0.0-149.0-0.0","75137013","wem/bandit_party_2","A2YLSDVP8Z0ZMV","either","7","918","","","","","","","0","1","0","","0.8966825343","0.2","0.8","0.4","0.6","0.7668100276","0.3608627265","0.4325904974","0.8966825343","","","","","","","","","","","","","","76","L","3","","","108","main_expt","",""
"","bandit","190","845139","0.0-150.0-0.0","75137013","wem/bandit_party_2","A2YLSDVP8Z0ZMV","either","7","380","","","","","","","1","0","0","0.8883819791","","0.2","0.8","0.4","0.6","","","","","0.7652463225","0.3837942066","0.3735159861","0.8883819791","","","","","","","","","","76","L","3","","","109","main_expt","",""
"","bandit","191","847141","0.0-151.0-0.0","75137013","wem/bandit_party_2","A2YLSDVP8Z0ZMV","either","7","494","","","","","","","1","0","0","0.9087011364","","0.2","0.8","0.4","0.6","","","","","0.7974745759","0.3019365294","0.3704440872","0.9087011364","","","","","","","","","","76","L","3","","","110","main_expt","",""
"","bandit","192","849006","0.0-152.0-0.0","75137013","wem/bandit_party_2","A2YLSDVP8Z0ZMV","either","7","357","","","","","","","0","0","1","0.9337026812","","0.2","0.8","0.4","0.6","","","","","0.812352323","0.3483008865","0.2749067499","0.9337026812","","","","","","","","","","76","L","3","","","111","main_expt","",""
"","bandit","193","851661","0.0-153.0-0.0","75137013","wem/bandit_party_2","A2YLSDVP8Z0ZMV","either","7","1147","","","","","","","0","0","1","0.7428975936","","0.2","0.8","0.4","0.6","","","","","0.7428975936","0.4342302697","0.2734667401","0.9113388615","","","","","","","","","","72","H","0","img/none_selected.jpg","","112","main_expt","",""
"","bandit","194","853572","0.0-154.0-0.0","75137013","wem/bandit_party_2","A2YLSDVP8Z0ZMV","either","7","404","","","","","","","0","0","1","0.5187246657","","0.2","0.8","0.4","0.6","","","","","0.7139653514","0.5187246657","0.2291946885","0.8980528729","","","","","","","","","","74","J","1","","","113","main_expt","",""
"","bandit","195","856484","0.0-155.0-0.0","75137013","wem/bandit_party_2","A2YLSDVP8Z0ZMV","either","7","1406","","","","","","","0","0","1","0.2413339081","","0.2","0.8","0.4","0.6","","","","","0.7945657698","0.5381742134","0.2413339081","0.8036326458","","","","","","","","","","75","K","2","","","114","main_expt","",""
"","bandit","196","858332","0.0-156.0-0.0","75137013","wem/bandit_party_2","A2YLSDVP8Z0ZMV","either","7","340","","","","","","","1","0","0","0.8700945717","","0.2","0.8","0.4","0.6","","","","","0.8405588069","0.4785029821","0.3092826039","0.8700945717","","","","","","","","","","76","L","3","","","115","main_expt","",""
"","bandit","197","860254","0.0-157.0-0.0","75137013","wem/bandit_party_2","A2YLSDVP8Z0ZMV","either","7","414","","","","","","","0","1","0","","0.8895114993","0.2","0.8","0.4","0.6","0.8641798474","0.4654757386","0.2361366225","0.8895114993","","","","","","","","","","","","","","76","L","3","","","116","main_expt","",""
"","bandit","198","864278","0.0-158.0-0.0","75137013","wem/bandit_party_2","A2YLSDVP8Z0ZMV","either","7","2515","","","","","","","0","1","0","","0.8936856952","0.2","0.8","0.4","0.6","0.8756768431","0.4578633225","0.218402711","0.8936856952","","","","","","","","","","","","","","76","L","3","","","117","main_expt","",""
"","bandit","199","866493","0.0-159.0-0.0","75137013","wem/bandit_party_2","A2YLSDVP8Z0ZMV","either","7","707","","","","","","","1","0","0","0.8077127093","","0.2","0.8","0.4","0.6","","","","","0.9015269718","0.4773941538","0.2003641109","0.8077127093","","","","","","","","","","76","L","3","","","118","main_expt","",""
"","bandit","200","869509","0.0-160.0-0.0","75137013","wem/bandit_party_2","A2YLSDVP8Z0ZMV","either","7","1509","","","","","","","1","0","0","0.8901108642","","0.2","0.8","0.4","0.6","","","","","0.8709738884","0.508374463","0.1375137305","0.8901108642","","","","","","","","","","76","L","3","","","119","main_expt","",""
"","bandit","201","872517","0.0-161.0-0.0","75137013","wem/bandit_party_2","A2YLSDVP8Z0ZMV","either","7","1501","","","","","","","1","0","0","0.8731124259","","0.2","0.8","0.4","0.6","","","","","0.8268338002","0.4294310012","0.08656631556","0.8731124259","","","","","","","","","","76","L","3","","","120","main_expt","",""
"","bandit","202","875812","0.0-162.0-0.0","75137013","wem/bandit_party_2","A2YLSDVP8Z0ZMV","either","7","1788","","","","","","","0","1","0","","0.8509174952","0.2","0.8","0.4","0.6","0.8432616236","0.3933985885","0.07812634859","0.8509174952","","","","","","","","","","","","","","76","L","3","","","121","main_expt","",""
"","bandit","203","877886","0.0-163.0-0.0","75137013","wem/bandit_party_2","A2YLSDVP8Z0ZMV","either","7","563","","","","","","","0","1","0","","0.8707856005","0.2","0.8","0.4","0.6","0.8128728295","0.2641409089","0.09046411854","0.8707856005","","","","","","","","","","","","","","76","L","3","","","122","main_expt","",""
"","bandit","204","881310","0.0-164.0-0.0","75137013","wem/bandit_party_2","A2YLSDVP8Z0ZMV","either","7","1916","","","","","","","0","1","0","","0.752198112","0.2","0.8","0.4","0.6","0.752198112","0.2491349268","0.1132512529","0.7592524618","","","","","","","","","","","","","","72","H","0","img/none_selected.jpg","","123","main_expt","",""
"","bandit","205","883206","0.0-165.0-0.0","75137013","wem/bandit_party_2","A2YLSDVP8Z0ZMV","either","7","388","","","","","","","0","1","0","","0.7117781612","0.2","0.8","0.4","0.6","0.7117781612","0.2587226179","0.09419269712","0.7330206325","","","","","","","","","","","","","","72","H","0","img/none_selected.jpg","","124","main_expt","",""
"","bandit","206","886628","0.0-166.0-0.0","75137013","wem/bandit_party_2","A2YLSDVP8Z0ZMV","either","7","1916","","","","","","","1","0","0","0.7177409252","","0.2","0.8","0.4","0.6","","","","","0.7177409252","0.2925679814","0.110513045","0.6903693331","","","","","","","","","","72","H","0","img/none_selected.jpg","","125","main_expt","",""
"","bandit","207","889708","0.0-167.0-0.0","75137013","wem/bandit_party_2","A2YLSDVP8Z0ZMV","either","7","1574","","","","","","","0","1","0","","0.7240917845","0.2","0.8","0.4","0.6","0.7240917845","0.3997536411","0.07088043536","0.6370641568","","","","","","","","","","","","","","72","H","0","img/none_selected.jpg","","126","main_expt","",""
"","bandit","208","892004","0.0-168.0-0.0","75137013","wem/bandit_party_2","A2YLSDVP8Z0ZMV","either","7","788","","","","","","","0","1","0","","0.6788578752","0.2","0.8","0.4","0.6","0.6788578752","0.4120812041","0.1041728595","0.6192694325","","","","","","","","","","","","","","72","H","0","img/none_selected.jpg","","127","main_expt","",""
"","bandit","209","894006","0.0-169.0-0.0","75137013","wem/bandit_party_2","A2YLSDVP8Z0ZMV","either","7","494","","","","","","","0","0","1","","0.6257789885","0.2","0.8","0.4","0.6","0.6257789885","0.3731276689","0.1006708935","0.559348281","","","","","","","","","","","","","","72","H","0","img/none_selected.jpg","","128","main_expt","",""
"","bandit","210","895636","0.0-170.0-0.0","75137013","wem/bandit_party_2","A2YLSDVP8Z0ZMV","either","7","123","","","","","","","1","0","0","0.3263017501","","0.2","0.8","0.4","0.6","","","","","0.4761868647","0.3263017501","0.1336488566","0.610360397","","","","","","","","","","74","J","1","","","129","main_expt","",""
"","bandit","211","897484","0.0-171.0-0.0","75137013","wem/bandit_party_2","A2YLSDVP8Z0ZMV","either","7","340","","","","","","","0","0","1","0.3226142564","","0.2","0.8","0.4","0.6","","","","","0.4745188583","0.3226142564","0.1271550391","0.5737783772","","","","","","","","","","74","J","1","","","130","main_expt","",""
"","bandit","212","901548","0.0-172.0-0.0","75137013","wem/bandit_party_2","A2YLSDVP8Z0ZMV","either","7","2556","","","","","","","0","0","1","","0.1594360192","0.2","0.8","0.4","0.6","0.4674409752","0.3907136596","0.1594360192","0.6252154127","","","","","","","","","","","","","","75","K","2","","","131","main_expt","",""
"","bandit","213","903380","0.0-173.0-0.0","75137013","wem/bandit_party_2","A2YLSDVP8Z0ZMV","either","7","326","","","","","","","0","1","0","","0.6473056352","0.2","0.8","0.4","0.6","0.368649462","0.4983036492","0.1027658661","0.6473056352","","","","","","","","","","","","","","76","L","3","","","132","main_expt","",""
"","bandit","214","905319","0.0-174.0-0.0","75137013","wem/bandit_party_2","A2YLSDVP8Z0ZMV","either","7","430","","","","","","","0","1","0","","0.4595123468","0.2","0.8","0.4","0.6","0.4313577514","0.6347393695","0.1223548883","0.4595123468","","","","","","","","","","","","","","76","L","3","","","133","main_expt","",""
"","bandit","215","907213","0.0-175.0-0.0","75137013","wem/bandit_party_2","A2YLSDVP8Z0ZMV","either","7","386","","","","","","","0","0","1","","0.3043385566","0.2","0.8","0.4","0.6","0.3692150919","0.6037412299","0.1063029331","0.3043385566","","","","","","","","","","","","","","76","L","3","","","134","main_expt","",""
"","bandit","216","909260","0.0-176.0-0.0","75137013","wem/bandit_party_2","A2YLSDVP8Z0ZMV","either","7","540","","","","","","","0","1","0","","0.3077662431","0.2","0.8","0.4","0.6","0.3077662431","0.5511090861","0.080644856","0.340857567","","","","","","","","","","","","","","72","H","0","img/none_selected.jpg","","135","main_expt","",""
"","bandit","217","911141","0.0-177.0-0.0","75137013","wem/bandit_party_2","A2YLSDVP8Z0ZMV","either","7","372","","","","","","","0","1","0","","0.314969588","0.2","0.8","0.4","0.6","0.314969588","0.585911414","0.1359867045","0.2655810755","","","","","","","","","","","","","","72","H","0","img/none_selected.jpg","","136","main_expt","",""
"","bandit","218","912980","0.0-178.0-0.0","75137013","wem/bandit_party_2","A2YLSDVP8Z0ZMV","either","7","332","","","","","","","0","0","1","","0.3590847215","0.2","0.8","0.4","0.6","0.3590847215","0.5805905743","0.168344283","0.3025530854","","","","","","","","","","","","","","72","H","0","img/none_selected.jpg","","137","main_expt","",""
"","bandit","219","914942","0.0-179.0-0.0","75137013","wem/bandit_party_2","A2YLSDVP8Z0ZMV","either","7","452","","","","","","","0","0","1","","0.6357737786","0.2","0.8","0.4","0.6","0.3588584756","0.6357737786","0.1867455324","0.2888348812","","","","","","","","","","","","","","74","J","1","","","138","main_expt","",""
"","bandit","220","917133","0.0-180.0-0.0","75137013","wem/bandit_party_2","A2YLSDVP8Z0ZMV","either","7","684","","","","","","","0","1","0","","0.2277874407","0.2","0.8","0.4","0.6","0.4289761638","0.66639317","0.2277874407","0.2463208975","","","","","","","","","","","","","","75","K","2","","","139","main_expt","",""
"","bandit","221","918982","0.0-181.0-0.0","75137013","wem/bandit_party_2","A2YLSDVP8Z0ZMV","either","7","340","","","","","","","0","0","1","0.2577820179","","0.2","0.8","0.4","0.6","","","","","0.3801639999","0.6365789307","0.2577820179","0.273109751","","","","","","","","","","75","K","2","","","140","main_expt","",""
"","bandit","222","920659","0.0-182.0-0.0","75137013","wem/bandit_party_2","A2YLSDVP8Z0ZMV","either","7","172","","","","","","","0","0","1","","0.3355442787","0.2","0.8","0.4","0.6","0.2445936549","0.6045632144","0.3674069736","0.3355442787","","","","","","","","","","","","","","76","L","3","","","141","main_expt","",""
"","bandit","223","922357","0.0-183.0-0.0","75137013","wem/bandit_party_2","A2YLSDVP8Z0ZMV","either","7","189","","","","","","","1","0","0","0.3394066497","","0.2","0.8","0.4","0.6","","","","","0.3394066497","0.5148607161","0.4345417514","0.2781999234","","","","","","","","","","72","H","0","img/none_selected.jpg","","142","main_expt","",""
"","bandit","224","924165","0.0-184.0-0.0","75137013","wem/bandit_party_2","A2YLSDVP8Z0ZMV","either","7","300","","","","","","","0","0","1","0.2899754881","","0.2","0.8","0.4","0.6","","","","","0.2899754881","0.4754154836","0.3811672827","0.2599467226","","","","","","","","","","72","H","0","img/none_selected.jpg","","143","main_expt","",""
"","bandit","225","927678","0.0-185.0-0.0","75137013","wem/bandit_party_2","A2YLSDVP8Z0ZMV","either","7","2005","","","","","","","1","0","0","0.516029258","","0.2","0.8","0.4","0.6","","","","","0.3701332444","0.516029258","0.2754059391","0.2353144144","","","","","","","","","","74","J","1","","","144","main_expt","",""
"","bandit","226","930308","0.0-186.0-0.0","75137013","wem/bandit_party_2","A2YLSDVP8Z0ZMV","either","7","1123","","","","","","","0","0","1","","0.2773400324","0.2","0.8","0.4","0.6","0.3322753171","0.6646605279","0.2773400324","0.2120114759","","","","","","","","","","","","","","75","K","2","","","145","main_expt","",""
"","bandit","227","932278","0.0-187.0-0.0","75137013","wem/bandit_party_2","A2YLSDVP8Z0ZMV","either","7","460","","","","","","","0","0","1","0.176067728","","0.2","0.8","0.4","0.6","","","","","0.3203507811","0.6331546467","0.2780426824","0.176067728","","","","","","","","","","76","L","3","","","146","main_expt","",""
"","bandit","228","934372","0.0-188.0-0.0","75137013","wem/bandit_party_2","A2YLSDVP8Z0ZMV","either","7","587","","","","","","","0","0","1","","0.304761248","0.2","0.8","0.4","0.6","0.304761248","0.6356747602","0.3373608721","0.1329453439","","","","","","","","","","","","","","72","H","0","img/none_selected.jpg","","147","main_expt","",""
"","bandit","229","936340","0.0-189.0-0.0","75137013","wem/bandit_party_2","A2YLSDVP8Z0ZMV","either","7","460","","","","","","","1","0","0","0.6301772709","","0.2","0.8","0.4","0.6","","","","","0.3809280674","0.6301772709","0.3529594122","0.1465103875","","","","","","","","","","74","J","1","","","148","main_expt","",""
"","bandit","230","938159","0.0-190.0-0.0","75137013","wem/bandit_party_2","A2YLSDVP8Z0ZMV","either","7","310","","","","","","","0","0","1","0.6640591829","","0.2","0.8","0.4","0.6","","","","","0.3997986218","0.6640591829","0.3878328211","0.1190451538","","","","","","","","","","74","J","1","","","149","main_expt","",""
"","bandit","231","940004","0.0-191.0-0.0","75137013","wem/bandit_party_2","A2YLSDVP8Z0ZMV","either","7","338","","","","","","","1","0","0","0.6592717552","","0.2","0.8","0.4","0.6","","","","","0.3159341416","0.6592717552","0.42943501","0.1195570164","","","","","","","","","","74","J","1","","","150","main_expt","",""
"","bandit","232","941941","0.0-192.0-0.0","75137013","wem/bandit_party_2","A2YLSDVP8Z0ZMV","either","7","429","","","","","","","0","0","1","0.5928743102","","0.2","0.8","0.4","0.6","","","","","0.3052853957","0.5928743102","0.5142681232","0.100492686","","","","","","","","","","74","J","1","","","151","main_expt","",""
"","bandit","233","943740","0.0-193.0-0.0","75137013","wem/bandit_party_2","A2YLSDVP8Z0ZMV","either","7","292","","","","","","","0","1","0","","0.6822187145","0.2","0.8","0.4","0.6","0.1896018403","0.6822187145","0.6321073962","0.1030367897","","","","","","","","","","","","","","74","J","1","","","152","main_expt","",""
"","bandit","234","945573","0.0-194.0-0.0","75137013","wem/bandit_party_2","A2YLSDVP8Z0ZMV","either","7","325","","","","","","","0","0","1","0.6832005509","","0.2","0.8","0.4","0.6","","","","","0.2439656658","0.6832005509","0.6965670792","0.2059045691","","","","","","","","","","74","J","1","","","153","main_expt","",""
"","bandit","235","947533","0.0-195.0-0.0","75137013","wem/bandit_party_2","A2YLSDVP8Z0ZMV","either","7","451","","","","","","","0","1","0","","0.6516005735","0.2","0.8","0.4","0.6","0.3068434149","0.7109729062","0.6516005735","0.2921647579","","","","","","","","","","","","","","75","K","2","","","154","main_expt","",""
"","bandit","236","949485","0.0-196.0-0.0","75137013","wem/bandit_party_2","A2YLSDVP8Z0ZMV","either","7","445","","","","","","","0","0","1","","0.7291318088","0.2","0.8","0.4","0.6","0.2314644909","0.6975465092","0.7291318088","0.1789694193","","","","","","","","","","","","","","75","K","2","","","155","main_expt","",""
"","bandit","237","951213","0.0-197.0-0.0","75137013","wem/bandit_party_2","A2YLSDVP8Z0ZMV","either","7","218","","","","","","","0","0","1","","0.6273572288","0.2","0.8","0.4","0.6","0.2154001061","0.6580608271","0.6273572288","0.2187195075","","","","","","","","","","","","","","75","K","2","","","156","main_expt","",""
"","bandit","238","953004","0.0-198.0-0.0","75137013","wem/bandit_party_2","A2YLSDVP8Z0ZMV","either","7","283","","","","","","","0","0","1","0.2669834713","","0.2","0.8","0.4","0.6","","","","","0.1648135251","0.5695802138","0.566197257","0.2669834713","","","","","","","","","","76","L","3","","","157","main_expt","",""
"","bandit","239","954692","0.0-199.0-0.0","75137013","wem/bandit_party_2","A2YLSDVP8Z0ZMV","either","7","180","","","","","","","0","0","1","","0.2215973425","0.2","0.8","0.4","0.6","0.2215973425","0.4733954301","0.4523642269","0.4240307821","","","","","","","","","","","","","","72","H","0","img/none_selected.jpg","","158","main_expt","",""
"","bandit","240","956708","0.0-200.0-0.0","75137013","wem/bandit_party_2","A2YLSDVP8Z0ZMV","either","7","507","","","","","","","0","0","1","","0.2243274726","0.2","0.8","0.4","0.6","0.2243274726","0.5619817243","0.3991212054","0.3840951437","","","","","","","","","","","","","","72","H","0","img/none_selected.jpg","","159","main_expt","",""
"","bandit","241","959460","0.0-201.0-0.0","75137013","wem/bandit_party_2","A2YLSDVP8Z0ZMV","either","7","1243","","","","","","","0","0","1","","0.2061161075","0.2","0.8","0.4","0.6","0.2061161075","0.4701658979","0.3566558104","0.4098147986","","","","","","","","","","","","","","72","H","0","img/none_selected.jpg","","160","main_expt","",""
"","bandit","242","961237","0.0-202.0-0.0","75137013","wem/bandit_party_2","A2YLSDVP8Z0ZMV","either","7","269","","","","","","","0","0","1","0.5673671472","","0.2","0.8","0.4","0.6","","","","","0.209200141","0.5673671472","0.4430908041","0.4027252302","","","","","","","","","","74","J","1","","","161","main_expt","",""
"","bandit","243","964268","0.0-203.0-0.0","75137013","wem/bandit_party_2","A2YLSDVP8Z0ZMV","either","7","1522","","","","","","","0","0","1","","0.3966098285","0.2","0.8","0.4","0.6","0.1477343718","0.4921809208","0.3966098285","0.3824170733","","","","","","","","","","","","","","75","K","2","","","162","main_expt","",""
"","bandit","244","966323","0.0-204.0-0.0","75137013","wem/bandit_party_2","A2YLSDVP8Z0ZMV","either","7","546","","","","","","","0","0","1","","0.3352280924","0.2","0.8","0.4","0.6","0.1525050104","0.4204505308","0.3455868331","0.3352280924","","","","","","","","","","","","","","76","L","3","","","163","main_expt","",""
"","bandit","245","968149","0.0-205.0-0.0","75137013","wem/bandit_party_2","A2YLSDVP8Z0ZMV","either","7","316","","","","","","","0","0","1","","0.3379187571","0.2","0.8","0.4","0.6","0.08831047354","0.534748173","0.3368969945","0.3379187571","","","","","","","","","","","","","","76","L","3","","","164","main_expt","",""
"","bandit","246","969965","0.0-206.0-0.0","75137013","wem/bandit_party_2","A2YLSDVP8Z0ZMV","either","7","307","","","","","","","0","0","1","","0.1035482763","0.2","0.8","0.4","0.6","0.1035482763","0.4724966102","0.3767562303","0.3160546663","","","","","","","","","","","","","","72","H","0","img/none_selected.jpg","","165","main_expt","",""
"","bandit","247","971925","0.0-207.0-0.0","75137013","wem/bandit_party_2","A2YLSDVP8Z0ZMV","either","7","452","","","","","","","0","0","1","","0.06888190676","0.2","0.8","0.4","0.6","0.06888190676","0.5280505203","0.4727650462","0.3058359067","","","","","","","","","","","","","","72","H","0","img/none_selected.jpg","","166","main_expt","",""
"","bandit","248","973805","0.0-208.0-0.0","75137013","wem/bandit_party_2","A2YLSDVP8Z0ZMV","either","7","371","","","","","","","1","0","0","0.589670135","","0.2","0.8","0.4","0.6","","","","","0.06051452263","0.589670135","0.6140635231","0.2561334246","","","","","","","","","","74","J","1","","","167","main_expt","",""
"","bandit","249","976611","0.0-209.0-0.0","75137013","wem/bandit_party_2","A2YLSDVP8Z0ZMV","either","7","1299","","","","","","","1","0","0","0.5058201204","","0.2","0.8","0.4","0.6","","","","","0.07905307949","0.5058201204","0.5629225295","0.2459084815","","","","","","","","","","74","J","1","","","168","main_expt","",""
"","bandit","250","978613","0.0-210.0-0.0","75137013","wem/bandit_party_2","A2YLSDVP8Z0ZMV","either","7","492","","","","","","","0","0","1","0.4102709571","","0.2","0.8","0.4","0.6","","","","","0.07051596905","0.4102709571","0.6456076899","0.2138460752","","","","","","","","","","74","J","1","","","169","main_expt","",""
"","bandit","251","980851","0.0-211.0-0.0","75137013","wem/bandit_party_2","A2YLSDVP8Z0ZMV","either","7","731","","","","","","","0","1","0","","0.5061826445","0.2","0.8","0.4","0.6","0.1056762318","0.5061826445","0.719827795","0.1642406351","","","","","","","","","","","","","","74","J","1","","","170","main_expt","",""
"","bandit","252","984103","0.0-212.0-0.0","75137013","wem/bandit_party_2","A2YLSDVP8Z0ZMV","either","7","1742","","","","","","","0","0","1","0.6092158501","","0.2","0.8","0.4","0.6","","","","","0.1513980822","0.6092158501","0.6716280274","0.2337150112","","","","","","","","","","74","J","1","","","171","main_expt","",""
"","bandit","253","991133","0.0-213.0-0.0","75137013","wem/bandit_party_2","A2YLSDVP8Z0ZMV","either","7","5521","","","","","","","1","0","0","0.691496366","","0.2","0.8","0.4","0.6","","","","","0.1552293495","0.691496366","0.5683226388","0.3128682212","","","","","","","","","","74","J","1","","","172","main_expt","",""
"","bandit","254","993677","0.0-214.0-0.0","75137013","wem/bandit_party_2","A2YLSDVP8Z0ZMV","either","7","1035","","","","","","","1","0","0","0.7402253768","","0.2","0.8","0.4","0.6","","","","","0.1325975083","0.7402253768","0.4581357746","0.2775517843","","","","","","","","","","74","J","1","","","173","main_expt","",""
"","bandit","255","995685","0.0-215.0-0.0","75137013","wem/bandit_party_2","A2YLSDVP8Z0ZMV","either","7","500","","","","","","","0","0","1","","0.6601004511","0.2","0.8","0.4","0.6","0.09024892351","0.6601004511","0.5903479164","0.4159305855","","","","","","","","","","","","","","74","J","1","","","174","main_expt","",""
"","bandit","256","997236","0.0-216.0-0.0","75137013","wem/bandit_party_2","A2YLSDVP8Z0ZMV","either","7","42","","","","","","","0","1","0","","0.5658285383","0.2","0.8","0.4","0.6","0.06963745108","0.6781732273","0.5658285383","0.4471770837","","","","","","","","","","","","","","75","K","2","","","175","main_expt","",""
"","bandit","257","1000357","0.0-217.0-0.0","75137013","wem/bandit_party_2","A2YLSDVP8Z0ZMV","either","7","1612","","","","","","","1","0","0","0.5313506173","","0.2","0.8","0.4","0.6","","","","","0.07897043431","0.6932650799","0.5313506173","0.5162211083","","","","","","","","","","75","K","2","","","176","main_expt","",""
"","bandit","258","1002571","0.0-218.0-0.0","75137013","wem/bandit_party_2","A2YLSDVP8Z0ZMV","either","7","707","","","","","","","0","0","1","0.4231289234","","0.2","0.8","0.4","0.6","","","","","0.09469685393","0.6803850572","0.4231289234","0.6372676231","","","","","","","","","","75","K","2","","","177","main_expt","",""
"","bandit","259","1004516","0.0-219.0-0.0","75137013","wem/bandit_party_2","A2YLSDVP8Z0ZMV","either","7","435","","","","","","","1","0","0","0.6295749113","","0.2","0.8","0.4","0.6","","","","","0.1486386852","0.5407017663","0.580807006","0.6295749113","","","","","","","","","","76","L","3","","","178","main_expt","",""
"","bandit","260","1006941","0.0-220.0-0.0","75137013","wem/bandit_party_2","A2YLSDVP8Z0ZMV","either","7","917","","","","","","","1","0","0","0.4126066341","","0.2","0.8","0.4","0.6","","","","","0.1965095934","0.5931576708","0.5499948007","0.4126066341","","","","","","","","","","76","L","3","","","179","main_expt","",""
"","bandit","261","1009436","0.0-221.0-0.0","75137013","wem/bandit_party_2","A2YLSDVP8Z0ZMV","either","7","986","","","","","","","1","0","0","0.516991344","","0.2","0.8","0.4","0.6","","","","","0.1749048096","0.5390819372","0.4918200669","0.516991344","","","","","","","","","","76","L","3","","","180","main_expt","",""
"","bandit","262","1011589","0.0-222.0-0.0","75137013","wem/bandit_party_2","A2YLSDVP8Z0ZMV","either","7","644","","","","","","","0","0","1","0.4239603033","","0.2","0.8","0.4","0.6","","","","","0.232896561","0.4929910299","0.5428702931","0.4239603033","","","","","","","","","","76","L","3","","","181","main_expt","",""
"","bandit","263","1013604","0.0-223.0-0.0","75137013","wem/bandit_party_2","A2YLSDVP8Z0ZMV","either","7","506","","","","","","","0","0","1","","0.2561822725","0.2","0.8","0.4","0.6","0.2561822725","0.458433212","0.5870547156","0.3961891141","","","","","","","","","","","","","","72","H","0","img/none_selected.jpg","","182","main_expt","",""
"","bandit","264","1015501","0.0-224.0-0.0","75137013","wem/bandit_party_2","A2YLSDVP8Z0ZMV","either","7","387","","","","","","","1","0","0","0.5725449786","","0.2","0.8","0.4","0.6","","","","","0.2713883962","0.5725449786","0.5031908535","0.4364601233","","","","","","","","","","74","J","1","","","183","main_expt","",""
"","bandit","265","1017460","0.0-225.0-0.0","75137013","wem/bandit_party_2","A2YLSDVP8Z0ZMV","either","7","451","","","","","","","0","0","1","","0.4878383732","0.2","0.8","0.4","0.6","0.3543557679","0.4878383732","0.4239978994","0.4826964198","","","","","","","","","","","","","","74","J","1","","","184","main_expt","",""
"","bandit","266","1019389","0.0-226.0-0.0","75137013","wem/bandit_party_2","A2YLSDVP8Z0ZMV","either","7","419","","","","","","","1","0","0","0.5189350158","","0.2","0.8","0.4","0.6","","","","","0.2974533566","0.5189350158","0.3425545299","0.4448789548","","","","","","","","","","74","J","1","","","185","main_expt","",""
"","bandit","267","1021222","0.0-227.0-0.0","75137013","wem/bandit_party_2","A2YLSDVP8Z0ZMV","either","7","322","","","","","","","0","1","0","","0.4310300585","0.2","0.8","0.4","0.6","0.3295130888","0.4310300585","0.2594221554","0.4585835861","","","","","","","","","","","","","","74","J","1","","","186","main_expt","",""
"","bandit","268","1023126","0.0-228.0-0.0","75137013","wem/bandit_party_2","A2YLSDVP8Z0ZMV","either","7","393","","","","","","","1","0","0","0.4005994516","","0.2","0.8","0.4","0.6","","","","","0.3440574025","0.4005994516","0.350747246","0.5470412386","","","","","","","","","","74","J","1","","","187","main_expt","",""
"","bandit","269","1025372","0.0-229.0-0.0","75137013","wem/bandit_party_2","A2YLSDVP8Z0ZMV","either","7","737","","","","","","","0","0","1","0.5684333967","","0.2","0.8","0.4","0.6","","","","","0.3176863717","0.5684333967","0.3667816541","0.5485419855","","","","","","","","","","74","J","1","","","188","main_expt","",""
"","bandit","270","1027092","0.0-230.0-0.0","75137013","wem/bandit_party_2","A2YLSDVP8Z0ZMV","either","7","211","","","","","","","0","1","0","","0.3129240978","0.2","0.8","0.4","0.6","0.3194332301","0.5768443477","0.3129240978","0.6161015427","","","","","","","","","","","","","","75","K","2","","","189","main_expt","",""
"","bandit","271","1028958","0.0-231.0-0.0","75137013","wem/bandit_party_2","A2YLSDVP8Z0ZMV","either","7","356","","","","","","","0","0","1","0.3681084497","","0.2","0.8","0.4","0.6","","","","","0.3585260795","0.6091254975","0.3681084497","0.5145576236","","","","","","","","","","75","K","2","","","190","main_expt","",""
"","bandit","272","1030733","0.0-232.0-0.0","75137013","wem/bandit_party_2","A2YLSDVP8Z0ZMV","either","7","266","","","","","","","0","0","1","","0.4447609651","0.2","0.8","0.4","0.6","0.4438822556","0.6355225437","0.3284994938","0.4447609651","","","","","","","","","","","","","","76","L","3","","","191","main_expt","",""
"","bandit","273","1033813","0.0-233.0-0.0","75137013","wem/bandit_party_2","A2YLSDVP8Z0ZMV","either","7","1571","","","","","","","0","1","0","","0.6336907385","0.2","0.8","0.4","0.6","0.6336907385","0.7449996868","0.2913335268","0.4273979598","","","","","","","","","","","","","","72","H","0","img/none_selected.jpg","","192","main_expt","",""
"","bandit","274","1035901","0.0-234.0-0.0","75137013","wem/bandit_party_2","A2YLSDVP8Z0ZMV","either","7","577","","","","","","","0","1","0","","0.5871300795","0.2","0.8","0.4","0.6","0.5871300795","0.7645281636","0.3614904019","0.4382354048","","","","","","","","","","","","","","72","H","0","img/none_selected.jpg","","193","main_expt","",""
"","bandit","275","1037796","0.0-235.0-0.0","75137013","wem/bandit_party_2","A2YLSDVP8Z0ZMV","either","7","386","","","","","","","0","1","0","","0.5919999684","0.2","0.8","0.4","0.6","0.5919999684","0.7417458559","0.4180963095","0.4367950698","","","","","","","","","","","","","","72","H","0","img/none_selected.jpg","","194","main_expt","",""
"","bandit","276","1039854","0.0-236.0-0.0","75137013","wem/bandit_party_2","A2YLSDVP8Z0ZMV","either","7","547","","","","","","","0","0","1","","0.5599221581","0.2","0.8","0.4","0.6","0.5599221581","0.7102393491","0.4129416526","0.4306922929","","","","","","","","","","","","","","72","H","0","img/none_selected.jpg","","195","main_expt","",""
"","bandit","277","1041749","0.0-237.0-0.0","75137013","wem/bandit_party_2","A2YLSDVP8Z0ZMV","either","7","382","","","","","","","1","0","0","0.6846894693","","0.2","0.8","0.4","0.6","","","","","0.4552797342","0.6846894693","0.6027995291","0.4436260943","","","","","","","","","","74","J","1","","","196","main_expt","",""
"","bandit","278","1043997","0.0-238.0-0.0","75137013","wem/bandit_party_2","A2YLSDVP8Z0ZMV","either","7","738","","","","","","","1","0","0","0.6573901597","","0.2","0.8","0.4","0.6","","","","","0.3045440077","0.6573901597","0.6174547511","0.4547077395","","","","","","","","","","74","J","1","","","197","main_expt","",""
"","bandit","279","1046013","0.0-239.0-0.0","75137013","wem/bandit_party_2","A2YLSDVP8Z0ZMV","either","7","505","","","","","","","1","0","0","0.7020762336","","0.2","0.8","0.4","0.6","","","","","0.4061180554","0.7020762336","0.5727893511","0.545148617","","","","","","","","","","74","J","1","","","198","main_expt","",""
"","bandit","280","1047964","0.0-240.0-0.0","75137013","wem/bandit_party_2","A2YLSDVP8Z0ZMV","either","7","441","","","","","","","0","1","0","","0.7749867965","0.2","0.8","0.4","0.6","0.3406873398","0.7749867965","0.5803616598","0.5838562778","","","","","","","","","","","","","","74","J","1","","","199","main_expt","",""
"","bandit","281","1050069","0.0-241.0-0.0","75137013","wem/bandit_party_2","A2YLSDVP8Z0ZMV","either","7","596","","","","","","","1","0","0","0.7971262248","","0.2","0.8","0.4","0.6","","","","","0.2810551981","0.7971262248","0.5109940584","0.6569131065","","","","","","","","","","74","J","1","","","200","main_expt","",""
"","bandit","282","1052020","0.0-242.0-0.0","75137013","wem/bandit_party_2","A2YLSDVP8Z0ZMV","either","7","441","","","","","","","0","1","0","","0.6431063495","0.2","0.8","0.4","0.6","0.2295892347","0.6431063495","0.444158281","0.6559739125","","","","","","","","","","","","","","74","J","1","","","201","main_expt","",""
"","bandit","283","1055339","0.0-243.0-0.0","75137013","wem/bandit_party_2","A2YLSDVP8Z0ZMV","either","7","1810","","","","","","","0","0","1","0.6153479028","","0.2","0.8","0.4","0.6","","","","","0.2134833186","0.6153479028","0.3774362348","0.5940698896","","","","","","","","","","74","J","1","","","202","main_expt","",""
"","bandit","284","1059061","0.0-244.0-0.0","75137013","wem/bandit_party_2","A2YLSDVP8Z0ZMV","either","7","2213","","","","","","","0","0","1","0.6107921693","","0.2","0.8","0.4","0.6","","","","","0.1538434825","0.6107921693","0.2852638898","0.6288005559","","","","","","","","","","74","J","1","","","203","main_expt","",""
"","bandit","285","1060999","0.0-245.0-0.0","75137013","wem/bandit_party_2","A2YLSDVP8Z0ZMV","either","7","429","","","","","","","0","0","1","","0.08629221539","0.2","0.8","0.4","0.6","0.08629221539","0.6364312764","0.3900316507","0.7483345684","","","","","","","","","","","","","","72","H","0","img/none_selected.jpg","","204","main_expt","",""
"","bandit","286","1064772","0.0-246.0-0.0","75137013","wem/bandit_party_2","A2YLSDVP8Z0ZMV","either","7","2264","","","","","","","0","0","1","","0.3334674042","0.2","0.8","0.4","0.6","0.1303029892","0.7098325313","0.3334674042","0.7823609999","","","","","","","","","","","","","","75","K","2","","","205","main_expt","",""
"","bandit","287","1066716","0.0-247.0-0.0","75137013","wem/bandit_party_2","A2YLSDVP8Z0ZMV","either","7","434","","","","","","","0","0","1","","0.3997779834","0.2","0.8","0.4","0.6","0.1290793888","0.6423198407","0.3997779834","0.7053347691","","","","","","","","","","","","","","75","K","2","","","206","main_expt","",""
"","bandit","288","1068613","0.0-248.0-0.0","75137013","wem/bandit_party_2","A2YLSDVP8Z0ZMV","either","7","387","","","","","","","0","1","0","","0.692958529","0.2","0.8","0.4","0.6","0.1471003053","0.7196337679","0.2791746034","0.692958529","","","","","","","","","","","","","","76","L","3","","","207","main_expt","",""
"","bandit","289","1071012","0.0-249.0-0.0","75137013","wem/bandit_party_2","A2YLSDVP8Z0ZMV","either","7","891","","","","","","","1","0","0","0.5726600787","","0.2","0.8","0.4","0.6","","","","","0.1204476287","0.7273253538","0.3447420344","0.5726600787","","","","","","","","","","76","L","3","","","208","main_expt","",""
"","bandit","290","1073965","0.0-250.0-0.0","75137013","wem/bandit_party_2","A2YLSDVP8Z0ZMV","either","7","1442","","","","","","","0","1","0","","0.7193759884","0.2","0.8","0.4","0.6","0.1752658923","0.7701678217","0.2106944101","0.7193759884","","","","","","","","","","","","","","76","L","3","","","209","main_expt","",""
"","bandit","291","1076557","0.0-251.0-0.0","75137013","wem/bandit_party_2","A2YLSDVP8Z0ZMV","either","7","1082","","","","","","","0","0","1","0.5469619257","","0.2","0.8","0.4","0.6","","","","","0.2071456167","0.7673062315","0.2609791638","0.5469619257","","","","","","","","","","76","L","3","","","210","main_expt","",""
"","bandit","292","1078484","0.0-252.0-0.0","75137013","wem/bandit_party_2","A2YLSDVP8Z0ZMV","either","7","418","","","","","","","0","0","1","","0.1982577311","0.2","0.8","0.4","0.6","0.1982577311","0.7733207599","0.3702243554","0.5432746348","","","","","","","","","","","","","","72","H","0","img/none_selected.jpg","","211","main_expt","",""
"","bandit","293","1080389","0.0-253.0-0.0","75137013","wem/bandit_party_2","A2YLSDVP8Z0ZMV","either","7","395","","","","","","","0","0","1","","0.2837026457","0.2","0.8","0.4","0.6","0.2837026457","0.7176010575","0.4070014152","0.4857525371","","","","","","","","","","","","","","72","H","0","img/none_selected.jpg","","212","main_expt","",""
"","bandit","294","1082262","0.0-254.0-0.0","75137013","wem/bandit_party_2","A2YLSDVP8Z0ZMV","either","7","363","","","","","","","1","0","0","0.7241732444","","0.2","0.8","0.4","0.6","","","","","0.2192955177","0.7241732444","0.5001351259","0.4416723402","","","","","","","","","","74","J","1","","","213","main_expt","",""
"","bandit","295","1084733","0.0-255.0-0.0","75137013","wem/bandit_party_2","A2YLSDVP8Z0ZMV","either","7","960","","","","","","","1","0","0","0.6696022014","","0.2","0.8","0.4","0.6","","","","","0.2885853396","0.6696022014","0.5667049056","0.4231083207","","","","","","","","","","74","J","1","","","214","main_expt","",""
"","bandit","296","1086923","0.0-256.0-0.0","75137013","wem/bandit_party_2","A2YLSDVP8Z0ZMV","either","7","681","","","","","","","0","1","0","","0.6255990046","0.2","0.8","0.4","0.6","0.2451296471","0.6255990046","0.5259574602","0.329019478","","","","","","","","","","","","","","74","J","1","","","215","main_expt","",""
"","bandit","297","1089124","0.0-257.0-0.0","75137013","wem/bandit_party_2","A2YLSDVP8Z0ZMV","either","7","691","","","","","","","1","0","0","0.6771362935","","0.2","0.8","0.4","0.6","","","","","0.1946790852","0.6771362935","0.5468860011","0.3469743373","","","","","","","","","","74","J","1","","","216","main_expt","",""
"","bandit","298","1091284","0.0-258.0-0.0","75137013","wem/bandit_party_2","A2YLSDVP8Z0ZMV","either","7","650","","","","","","","1","0","0","0.6918953154","","0.2","0.8","0.4","0.6","","","","","0.2497229096","0.6918953154","0.6182745027","0.3618740044","","","","","","","","","","74","J","1","","","217","main_expt","",""
"","bandit","299","1093199","0.0-259.0-0.0","75137013","wem/bandit_party_2","A2YLSDVP8Z0ZMV","either","7","404","","","","","","","0","0","1","","0.5726390237","0.2","0.8","0.4","0.6","0.3076421025","0.5726390237","0.5979125128","0.3574217595","","","","","","","","","","","","","","74","J","1","","","218","main_expt","",""
"","bandit","300","1095005","0.0-260.0-0.0","75137013","wem/bandit_party_2","A2YLSDVP8Z0ZMV","either","7","296","","","","","","","0","1","0","","0.5321687475","0.2","0.8","0.4","0.6","0.3488941347","0.5179196303","0.5321687475","0.3862686792","","","","","","","","","","","","","","75","K","2","","","219","main_expt","",""
"","bandit","301","1097268","0.0-261.0-0.0","75137013","wem/bandit_party_2","A2YLSDVP8Z0ZMV","either","7","753","","","","","","","1","0","0","0.6053830099","","0.2","0.8","0.4","0.6","","","","","0.306784001","0.5578222379","0.6053830099","0.4432846828","","","","","","","","","","75","K","2","","","220","main_expt","",""
"","bandit","302","1099430","0.0-262.0-0.0","75137013","wem/bandit_party_2","A2YLSDVP8Z0ZMV","either","7","650","","","","","","","0","0","1","0.69383498","","0.2","0.8","0.4","0.6","","","","","0.3786925452","0.6640911266","0.69383498","0.432499938","","","","","","","","","","75","K","2","","","221","main_expt","",""
"","bandit","303","1101204","0.0-263.0-0.0","75137013","wem/bandit_party_2","A2YLSDVP8Z0ZMV","either","7","264","","","","","","","1","0","0","0.4050903391","","0.2","0.8","0.4","0.6","","","","","0.5014801557","0.7340686256","0.783375317","0.4050903391","","","","","","","","","","76","L","3","","","222","main_expt","",""
"","bandit","304","1103405","0.0-264.0-0.0","75137013","wem/bandit_party_2","A2YLSDVP8Z0ZMV","either","7","690","","","","","","","0","1","0","","0.3282593462","0.2","0.8","0.4","0.6","0.4081704387","0.852862777","0.8374489269","0.3282593462","","","","","","","","","","","","","","76","L","3","","","223","main_expt","",""
"","bandit","305","1105717","0.0-265.0-0.0","75137013","wem/bandit_party_2","A2YLSDVP8Z0ZMV","either","7","801","","","","","","","1","0","0","0.2465370002","","0.2","0.8","0.4","0.6","","","","","0.422296693","0.7830506485","0.7801262993","0.2465370002","","","","","","","","","","76","L","3","","","224","main_expt","",""
"","bandit","306","1108350","0.0-266.0-0.0","75137013","wem/bandit_party_2","A2YLSDVP8Z0ZMV","either","7","1122","","","","","","","0","0","1","","0.2260872052","0.2","0.8","0.4","0.6","0.3998144739","0.7447555501","0.7438235551","0.2260872052","","","","","","","","","","","","","","76","L","3","","","225","main_expt","",""
"","bandit","307","1111901","0.0-267.0-0.0","75137013","wem/bandit_party_2","A2YLSDVP8Z0ZMV","either","7","2040","","","","","","","1","0","0","0.2573895518","","0.2","0.8","0.4","0.6","","","","","0.2692780115","0.7331719472","0.7561714458","0.2573895518","","","","","","","","","","76","L","3","","","226","main_expt","",""
"","bandit","308","1114341","0.0-268.0-0.0","75137013","wem/bandit_party_2","A2YLSDVP8Z0ZMV","either","7","931","","","","","","","0","0","1","0.2134597582","","0.2","0.8","0.4","0.6","","","","","0.268728261","0.6417259928","0.7527106072","0.2134597582","","","","","","","","","","76","L","3","","","227","main_expt","",""
"","bandit","309","1116179","0.0-269.0-0.0","75137013","wem/bandit_party_2","A2YLSDVP8Z0ZMV","either","7","329","","","","","","","0","0","1","0.2211951924","","0.2","0.8","0.4","0.6","","","","","0.2211951924","0.6050549784","0.6315627418","0.348479141","","","","","","","","","","72","H","0","img/none_selected.jpg","","228","main_expt","",""
"","bandit","310","1118101","0.0-270.0-0.0","75137013","wem/bandit_party_2","A2YLSDVP8Z0ZMV","either","7","412","","","","","","","0","0","1","","0.219241791","0.2","0.8","0.4","0.6","0.219241791","0.5962230341","0.5564086662","0.3250735223","","","","","","","","","","","","","","72","H","0","img/none_selected.jpg","","229","main_expt","",""
"","bandit","311","1119612","0.0-271.0-0.0","75137013","wem/bandit_party_2","A2YLSDVP8Z0ZMV","either","7","2","","","","","","","0","0","1","0.5594933722","","0.2","0.8","0.4","0.6","","","","","0.291585141","0.5594933722","0.5895813861","0.3395219718","","","","","","","","","","74","J","1","","","230","main_expt","",""
"","bandit","312","1121139","0.0-272.0-0.0","75137013","wem/bandit_party_2","A2YLSDVP8Z0ZMV","either","7","18","","","","","","","1","0","0","0.6411036761","","0.2","0.8","0.4","0.6","","","","","0.2754541949","0.6411036761","0.6148213975","0.3315483329","","","","","","","","","","74","J","1","","","231","main_expt","",""
