"consent","trial_type","trial_index","time_elapsed","internal_node_id","subjID","study","MID","cond","drift","rt","responses","button_pressed","key_press","like","value","connected","gems","bombs","no_reward","GemPrChosen","BombPrChosen","GainOverPainPr_0","GainOverPainPr_1","GainOverPainPr_2","GainOverPainPr_3","LosePr_0","LosePr_1","LosePr_2","LosePr_3","WinPr_0","WinPr_1","WinPr_2","WinPr_3","Q0","Q1","Q2","gender","age","ethnicity","label","expt_phase","target","respCharCode","respKey","respChoiceNum","respChoice","practice","trial_counter","trial_label","Q0_index"
"GDM/GDM_behavioral_consent_30min_online.html","consent","0","13412","0.0-0.0","75480268","wem/bandit_party_2","A3AV8KOZW78IEW","either","8","","","","","","","","","","","","","","","","","","","","","","","","","","","","","","","","","","","","","","","","",""
"","survey-text","1","18399","0.0-1.0","75480268","wem/bandit_party_2","A3AV8KOZW78IEW","either","8","3959","{""Q0"":""A3AV8KOZW78IEW""}","","","","","","","","","","","","","","","","","","","","","","","","","","","","","","","","","","","","","","",""
"","button-response","2","21496","0.0-2.0","75480268","wem/bandit_party_2","A3AV8KOZW78IEW","either","8","2076","","1","","","","","","","","","","","","","","","","","","","","","","","","","","","","","","","","","","","","","",""
"","text-replacement","3","32196","0.0-3.0","75480268","wem/bandit_party_2","A3AV8KOZW78IEW","either","8","9690","","","32","","","","","","","","","","","","","","","","","","","","","","","","","","","","","","","","","","","","",""
"","text-replacement","4","44217","0.0-4.0","75480268","wem/bandit_party_2","A3AV8KOZW78IEW","either","8","12012","","","32","","","","","","","","","","","","","","","","","","","","","","","","","","","","","","","","","","","","",""
"","identification","5","55236","0.0-6.0-0.0","75480268","wem/bandit_party_2","A3AV8KOZW78IEW","either","8","10952","","","","3","3","1","","","","","","","","","","","","","","","","","","","","","","","","pre","identification_pre","the Democratic Party","","","","","","","",""
"","identification","6","59731","0.0-6.0-1.0","75480268","wem/bandit_party_2","A3AV8KOZW78IEW","either","8","3430","","","","0","0","0","","","","","","","","","","","","","","","","","","","","","","","","pre","identification_pre","the Republican Party","","","","","","","",""
"","text-replacement","7","65246","0.0-7.0","75480268","wem/bandit_party_2","A3AV8KOZW78IEW","either","8","4508","","","32","","","","","","","","","","","","","","","","","","","","","","","","","","","","","","","","","","","","",""
"","text-replacement","8","75861","0.0-8.0","75480268","wem/bandit_party_2","A3AV8KOZW78IEW","either","8","10608","","","32","","","","","","","","","","","","","","","","","","","","","","","","","","","","","","","","","","","","",""
"","text-replacement","9","86207","0.0-9.0","75480268","wem/bandit_party_2","A3AV8KOZW78IEW","either","8","10337","","","32","","","","","","","","","","","","","","","","","","","","","","","","","","","","","","","","","","","","",""
"","text-replacement","10","91229","0.0-10.0","75480268","wem/bandit_party_2","A3AV8KOZW78IEW","either","8","5014","","","32","","","","","","","","","","","","","","","","","","","","","","","","","","","","","","","","","","","","",""
"","text-replacement","11","93772","0.0-11.0","75480268","wem/bandit_party_2","A3AV8KOZW78IEW","either","8","2536","","","32","","","","","","","","","","","","","","","","","","","","","","","","","","","","","","","","","","","","",""
"","bandit","12","98580","0.0-12.0-0.0","75480268","wem/bandit_party_2","A3AV8KOZW78IEW","either","8","3281","","","","","","","0","0","1","0","0","","","","","0","","","","0","","","","","","","","","","","","","74","J","0","img/none_selected_demo.jpg","true","0","",""
"","bandit","13","101707","0.0-13.0-0.0","75480268","wem/bandit_party_2","A3AV8KOZW78IEW","either","8","1601","","","","","","","0","0","1","0","0","","","","","0","","","","0","","","","","","","","","","","","","75","K","0","img/none_selected_demo.jpg","true","0","",""
"","text-replacement","14","107703","0.0-14.0","75480268","wem/bandit_party_2","A3AV8KOZW78IEW","either","8","5987","","","32","","","","","","","","","","","","","","","","","","","","","","","","","","","","","","","","","","","","",""
"","text-replacement","15","117911","0.0-15.0","75480268","wem/bandit_party_2","A3AV8KOZW78IEW","either","8","10200","","","32","","","","","","","","","","","","","","","","","","","","","","","","","","","","","","","","","","","","",""
"","text-replacement","16","124748","0.0-16.0","75480268","wem/bandit_party_2","A3AV8KOZW78IEW","either","8","6829","","","32","","","","","","","","","","","","","","","","","","","","","","","","","","","","","","","","","","","","",""
"","text-replacement","17","127458","0.0-17.0","75480268","wem/bandit_party_2","A3AV8KOZW78IEW","either","8","2704","","","32","","","","","","","","","","","","","","","","","","","","","","","","","","","","","","","","","","","","",""
"","bandit","18","130107","0.0-18.0-0.0","75480268","wem/bandit_party_2","A3AV8KOZW78IEW","either","8","1129","","","","","","","0","0","1","0.2","","0.5","0.5","","","","","","","0.8","0.2","","","","","","","","","","","","75","K","1","","true","0","80_20_practice",""
"","bandit","19","133338","0.0-18.0-1.0","75480268","wem/bandit_party_2","A3AV8KOZW78IEW","either","8","1705","","","","","","","1","0","0","0.8","","0.5","0.5","","","","","","","0.8","0.2","","","","","","","","","","","","74","J","0","img/none_selected_demo.jpg","true","0","80_20_practice",""
"","bandit","20","135942","0.0-18.0-2.0","75480268","wem/bandit_party_2","A3AV8KOZW78IEW","either","8","1084","","","","","","","0","1","0","","0.8","0.5","0.5","","","0.8","0.2","","","","","","","","","","","","","","","","74","J","0","img/none_selected_demo.jpg","true","0","80_20_practice",""
"","bandit","21","138173","0.0-18.0-3.0","75480268","wem/bandit_party_2","A3AV8KOZW78IEW","either","8","698","","","","","","","0","1","0","","0.8","0.5","0.5","","","0.8","0.2","","","","","","","","","","","","","","","","74","J","0","img/none_selected_demo.jpg","true","0","80_20_practice",""
"","bandit","22","140156","0.0-18.0-4.0","75480268","wem/bandit_party_2","A3AV8KOZW78IEW","either","8","467","","","","","","","0","1","0","","0.8","0.5","0.5","","","0.8","0.2","","","","","","","","","","","","","","","","74","J","0","img/none_selected_demo.jpg","true","0","80_20_practice",""
"","bandit","23","142124","0.0-18.0-5.0","75480268","wem/bandit_party_2","A3AV8KOZW78IEW","either","8","449","","","","","","","0","1","0","","0.8","0.5","0.5","","","0.8","0.2","","","","","","","","","","","","","","","","74","J","0","img/none_selected_demo.jpg","true","0","80_20_practice",""
"","bandit","24","144000","0.0-18.0-6.0","75480268","wem/bandit_party_2","A3AV8KOZW78IEW","either","8","352","","","","","","","0","0","1","","0.8","0.5","0.5","","","0.8","0.2","","","","","","","","","","","","","","","","74","J","0","img/none_selected_demo.jpg","true","0","80_20_practice",""
"","bandit","25","145998","0.0-18.0-7.0","75480268","wem/bandit_party_2","A3AV8KOZW78IEW","either","8","476","","","","","","","0","0","1","0.2","","0.5","0.5","","","","","","","0.8","0.2","","","","","","","","","","","","75","K","1","","true","0","80_20_practice",""
"","bandit","26","148186","0.0-18.0-8.0","75480268","wem/bandit_party_2","A3AV8KOZW78IEW","either","8","665","","","","","","","0","0","1","0.8","","0.5","0.5","","","","","","","0.8","0.2","","","","","","","","","","","","74","J","0","img/none_selected_demo.jpg","true","0","80_20_practice",""
"","bandit","27","150146","0.0-18.0-9.0","75480268","wem/bandit_party_2","A3AV8KOZW78IEW","either","8","428","","","","","","","0","0","1","0.2","","0.5","0.5","","","","","","","0.8","0.2","","","","","","","","","","","","75","K","1","","true","0","80_20_practice",""
"","bandit","28","152103","0.0-18.0-10.0","75480268","wem/bandit_party_2","A3AV8KOZW78IEW","either","8","440","","","","","","","0","0","1","","0.2","0.5","0.5","","","0.8","0.2","","","","","","","","","","","","","","","","75","K","1","","true","0","80_20_practice",""
"","bandit","29","153950","0.0-18.0-11.0","75480268","wem/bandit_party_2","A3AV8KOZW78IEW","either","8","325","","","","","","","0","1","0","","0.8","0.5","0.5","","","0.8","0.2","","","","","","","","","","","","","","","","74","J","0","img/none_selected_demo.jpg","true","0","80_20_practice",""
"","bandit","30","155858","0.0-18.0-12.0","75480268","wem/bandit_party_2","A3AV8KOZW78IEW","either","8","341","","","","","","","0","0","1","","0.8","0.5","0.5","","","0.8","0.2","","","","","","","","","","","","","","","","74","J","0","img/none_selected_demo.jpg","true","0","80_20_practice",""
"","bandit","31","157974","0.0-18.0-13.0","75480268","wem/bandit_party_2","A3AV8KOZW78IEW","either","8","582","","","","","","","1","0","0","0.8","","0.5","0.5","","","","","","","0.8","0.2","","","","","","","","","","","","74","J","0","img/none_selected_demo.jpg","true","0","80_20_practice",""
"","bandit","32","160517","0.0-18.0-14.0","75480268","wem/bandit_party_2","A3AV8KOZW78IEW","either","8","1019","","","","","","","0","1","0","","0.8","0.5","0.5","","","0.8","0.2","","","","","","","","","","","","","","","","74","J","0","img/none_selected_demo.jpg","true","0","80_20_practice",""
"","bandit","33","164665","0.0-18.0-15.0","75480268","wem/bandit_party_2","A3AV8KOZW78IEW","either","8","2604","","","","","","","1","0","0","0.8","","0.5","0.5","","","","","","","0.8","0.2","","","","","","","","","","","","74","J","0","img/none_selected_demo.jpg","true","0","80_20_practice",""
"","bandit","34","166755","0.0-18.0-16.0","75480268","wem/bandit_party_2","A3AV8KOZW78IEW","either","8","564","","","","","","","0","1","0","","0.8","0.5","0.5","","","0.8","0.2","","","","","","","","","","","","","","","","74","J","0","img/none_selected_demo.jpg","true","0","80_20_practice",""
"","bandit","35","168987","0.0-18.0-17.0","75480268","wem/bandit_party_2","A3AV8KOZW78IEW","either","8","668","","","","","","","1","0","0","0.8","","0.5","0.5","","","","","","","0.8","0.2","","","","","","","","","","","","74","J","0","img/none_selected_demo.jpg","true","0","80_20_practice",""
"","bandit","36","170694","0.0-18.0-18.0","75480268","wem/bandit_party_2","A3AV8KOZW78IEW","either","8","144","","","","","","","0","1","0","","0.8","0.5","0.5","","","0.8","0.2","","","","","","","","","","","","","","","","74","J","0","img/none_selected_demo.jpg","true","0","80_20_practice",""
"","bandit","37","174018","0.0-18.0-19.0","75480268","wem/bandit_party_2","A3AV8KOZW78IEW","either","8","1803","","","","","","","0","0","1","","0.8","0.5","0.5","","","0.8","0.2","","","","","","","","","","","","","","","","74","J","0","img/none_selected_demo.jpg","true","0","80_20_practice",""
"","text-replacement","38","179003","0.0-19.0","75480268","wem/bandit_party_2","A3AV8KOZW78IEW","either","8","4974","","","32","","","","","","","","","","","","","","","","","","","","","","","","","","","","","","","","","","","","",""
"","bandit","39","181703","0.0-20.0-0.0","75480268","wem/bandit_party_2","A3AV8KOZW78IEW","either","8","1012","","","","","","","1","0","0","1","0","","","","","0","1","","","1","0","","","","","","","","","","","","74","J","0","img/none_selected_demo.jpg","true","0","",""
"","text-replacement","40","185441","0.0-21.0","75480268","wem/bandit_party_2","A3AV8KOZW78IEW","either","8","3731","","","32","","","","","","","","","","","","","","","","","","","","","","","","","","","","","","","","","","","","",""
"","text-replacement","41","188266","0.0-22.0","75480268","wem/bandit_party_2","A3AV8KOZW78IEW","either","8","2817","","","32","","","","","","","","","","","","","","","","","","","","","","","","","","","","","","","","","","","","",""
"","text-replacement","42","190712","0.0-23.0","75480268","wem/bandit_party_2","A3AV8KOZW78IEW","either","8","2438","","","32","","","","","","","","","","","","","","","","","","","","","","","","","","","","","","","","","","","","",""
"","text-replacement","43","193983","0.0-24.0","75480268","wem/bandit_party_2","A3AV8KOZW78IEW","either","8","3260","","","32","","","","","","","","","","","","","","","","","","","","","","","","","","","","","","","","","","","","",""
"","text-replacement","44","212680","0.0-25.0","75480268","wem/bandit_party_2","A3AV8KOZW78IEW","either","8","18691","","","32","","","","","","","","","","","","","","","","","","","","","","","","","","","","","","","","","","","","",""
"","text-replacement","45","215120","0.0-26.0","75480268","wem/bandit_party_2","A3AV8KOZW78IEW","either","8","2433","","","32","","","","","","","","","","","","","","","","","","","","","","","","","","","","","","","","","","","","",""
"","text-replacement","46","217421","0.0-27.0","75480268","wem/bandit_party_2","A3AV8KOZW78IEW","either","8","2293","","","32","","","","","","","","","","","","","","","","","","","","","","","","","","","","","","","","","","","","",""
"","text-replacement","47","218679","0.0-28.0","75480268","wem/bandit_party_2","A3AV8KOZW78IEW","either","8","1249","","","32","","","","","","","","","","","","","","","","","","","","","","","","","","","","","","","","","","","","",""
"","text-replacement","48","221832","0.0-29.0","75480268","wem/bandit_party_2","A3AV8KOZW78IEW","either","8","3143","","","32","","","","","","","","","","","","","","","","","","","","","","","","","","","","","","","","","","","","",""
"","text-replacement","49","222980","0.0-30.0","75480268","wem/bandit_party_2","A3AV8KOZW78IEW","either","8","1140","","","32","","","","","","","","","","","","","","","","","","","","","","","","","","","","","","","","","","","","",""
"","text-replacement","50","227097","0.0-31.0","75480268","wem/bandit_party_2","A3AV8KOZW78IEW","either","8","4110","","","32","","","","","","","","","","","","","","","","","","","","","","","","","","","","","","","","","","","","",""
"","bandit","51","229821","0.0-32.0-0.0","75480268","wem/bandit_party_2","A3AV8KOZW78IEW","either","8","1129","","","","","","","0","1","0","","0.6","0.5","0.5","0.5","0.5","0.8","0.2","0.6","0.2","","","","","","","","","","","","","","75","K","2","","true","0","full_practice",""
"","bandit","52","232198","0.0-32.0-1.0","75480268","wem/bandit_party_2","A3AV8KOZW78IEW","either","8","850","","","","","","","0","0","1","0.2","","0.5","0.5","0.5","0.5","","","","","0.8","0.2","0.6","0.2","","","","","","","","","","76","L","3","","true","0","full_practice",""
"","bandit","53","234754","0.0-32.0-2.0","75480268","wem/bandit_party_2","A3AV8KOZW78IEW","either","8","1021","","","","","","","1","0","0","0.2","","0.5","0.5","0.5","0.5","","","","","0.8","0.2","0.6","0.2","","","","","","","","","","74","J","1","","true","0","full_practice",""
"","bandit","54","236757","0.0-32.0-3.0","75480268","wem/bandit_party_2","A3AV8KOZW78IEW","either","8","480","","","","","","","0","1","0","","0.8","0.5","0.5","0.5","0.5","0.8","0.2","0.6","0.2","","","","","","","","","","","","","","72","H","0","img/none_selected.jpg","true","0","full_practice",""
"","bandit","55","238758","0.0-32.0-4.0","75480268","wem/bandit_party_2","A3AV8KOZW78IEW","either","8","467","","","","","","","1","0","0","0.8","","0.5","0.5","0.5","0.5","","","","","0.8","0.2","0.6","0.2","","","","","","","","","","72","H","0","img/none_selected.jpg","true","0","full_practice",""
"","bandit","56","241267","0.0-32.0-5.0","75480268","wem/bandit_party_2","A3AV8KOZW78IEW","either","8","983","","","","","","","1","0","0","0.8","","0.5","0.5","0.5","0.5","","","","","0.8","0.2","0.6","0.2","","","","","","","","","","72","H","0","img/none_selected.jpg","true","0","full_practice",""
"","bandit","57","243225","0.0-32.0-6.0","75480268","wem/bandit_party_2","A3AV8KOZW78IEW","either","8","436","","","","","","","1","0","0","0.8","","0.5","0.5","0.5","0.5","","","","","0.8","0.2","0.6","0.2","","","","","","","","","","72","H","0","img/none_selected.jpg","true","0","full_practice",""
"","bandit","58","245158","0.0-32.0-7.0","75480268","wem/bandit_party_2","A3AV8KOZW78IEW","either","8","414","","","","","","","1","0","0","0.8","","0.5","0.5","0.5","0.5","","","","","0.8","0.2","0.6","0.2","","","","","","","","","","72","H","0","img/none_selected.jpg","true","0","full_practice",""
"","bandit","59","247088","0.0-32.0-8.0","75480268","wem/bandit_party_2","A3AV8KOZW78IEW","either","8","407","","","","","","","0","1","0","","0.8","0.5","0.5","0.5","0.5","0.8","0.2","0.6","0.2","","","","","","","","","","","","","","72","H","0","img/none_selected.jpg","true","0","full_practice",""
"","bandit","60","249003","0.0-32.0-9.0","75480268","wem/bandit_party_2","A3AV8KOZW78IEW","either","8","392","","","","","","","0","0","1","0.8","","0.5","0.5","0.5","0.5","","","","","0.8","0.2","0.6","0.2","","","","","","","","","","72","H","0","img/none_selected.jpg","true","0","full_practice",""
"","bandit","61","251285","0.0-32.0-10.0","75480268","wem/bandit_party_2","A3AV8KOZW78IEW","either","8","758","","","","","","","0","0","1","","0.6","0.5","0.5","0.5","0.5","0.8","0.2","0.6","0.2","","","","","","","","","","","","","","75","K","2","","true","0","full_practice",""
"","bandit","62","253335","0.0-32.0-11.0","75480268","wem/bandit_party_2","A3AV8KOZW78IEW","either","8","532","","","","","","","0","0","1","","0.2","0.5","0.5","0.5","0.5","0.8","0.2","0.6","0.2","","","","","","","","","","","","","","74","J","1","","true","0","full_practice",""
"","bandit","63","255011","0.0-32.0-12.0","75480268","wem/bandit_party_2","A3AV8KOZW78IEW","either","8","154","","","","","","","0","0","1","0.2","","0.5","0.5","0.5","0.5","","","","","0.8","0.2","0.6","0.2","","","","","","","","","","76","L","3","","true","0","full_practice",""
"","bandit","64","256815","0.0-32.0-13.0","75480268","wem/bandit_party_2","A3AV8KOZW78IEW","either","8","220","","","","","","","1","0","0","0.6","","0.5","0.5","0.5","0.5","","","","","0.8","0.2","0.6","0.2","","","","","","","","","","75","K","2","","true","0","full_practice",""
"","bandit","65","259901","0.0-32.0-14.0","75480268","wem/bandit_party_2","A3AV8KOZW78IEW","either","8","1561","","","","","","","0","0","1","","0.6","0.5","0.5","0.5","0.5","0.8","0.2","0.6","0.2","","","","","","","","","","","","","","75","K","2","","true","0","full_practice",""
"","bandit","66","261762","0.0-32.0-15.0","75480268","wem/bandit_party_2","A3AV8KOZW78IEW","either","8","275","","","","","","","0","1","0","","0.6","0.5","0.5","0.5","0.5","0.8","0.2","0.6","0.2","","","","","","","","","","","","","","75","K","2","","true","0","full_practice",""
"","bandit","67","263741","0.0-32.0-16.0","75480268","wem/bandit_party_2","A3AV8KOZW78IEW","either","8","396","","","","","","","0","1","0","","0.6","0.5","0.5","0.5","0.5","0.8","0.2","0.6","0.2","","","","","","","","","","","","","","75","K","2","","true","0","full_practice",""
"","bandit","68","265712","0.0-32.0-17.0","75480268","wem/bandit_party_2","A3AV8KOZW78IEW","either","8","436","","","","","","","1","0","0","0.6","","0.5","0.5","0.5","0.5","","","","","0.8","0.2","0.6","0.2","","","","","","","","","","75","K","2","","true","0","full_practice",""
"","bandit","69","267685","0.0-32.0-18.0","75480268","wem/bandit_party_2","A3AV8KOZW78IEW","either","8","323","","","","","","","0","0","1","","0.6","0.5","0.5","0.5","0.5","0.8","0.2","0.6","0.2","","","","","","","","","","","","","","75","K","2","","true","0","full_practice",""
"","bandit","70","270479","0.0-32.0-19.0","75480268","wem/bandit_party_2","A3AV8KOZW78IEW","either","8","1258","","","","","","","0","0","1","0.8","","0.5","0.5","0.5","0.5","","","","","0.8","0.2","0.6","0.2","","","","","","","","","","72","H","0","img/none_selected.jpg","true","0","full_practice",""
"","text","71","275119","0.0-33.0","75480268","wem/bandit_party_2","A3AV8KOZW78IEW","either","8","4607","","","32","","","","","","","","","","","","","","","","","","","","","","","","","","","","","","","","","","","","",""
"","text-replacement","72","287346","0.0-34.0","75480268","wem/bandit_party_2","A3AV8KOZW78IEW","either","8","11218","","","32","","","","","","","","","","","","","","","","","","","","","","","","","","","","","","","","","","","","",""
"","text-replacement","73","294803","0.0-35.0","75480268","wem/bandit_party_2","A3AV8KOZW78IEW","either","8","7448","","","32","","","","","","","","","","","","","","","","","","","","","","","","","","","","","","","","","","","","",""
"","text-replacement","74","298498","0.0-36.0","75480268","wem/bandit_party_2","A3AV8KOZW78IEW","either","8","3686","","","32","","","","","","","","","","","","","","","","","","","","","","","","","","","","","","","","","","","","",""
"","text-replacement","75","305029","0.0-37.0","75480268","wem/bandit_party_2","A3AV8KOZW78IEW","either","8","6521","","","32","","","","","","","","","","","","","","","","","","","","","","","","","","","","","","","","","","","","",""
"","text-replacement","76","320211","0.0-38.0","75480268","wem/bandit_party_2","A3AV8KOZW78IEW","either","8","15173","","","32","","","","","","","","","","","","","","","","","","","","","","","","","","","","","","","","","","","","",""
"","survey-multi-choice-replacement","77","326972","0.0-39.0-0.0","75480268","wem/bandit_party_2","A3AV8KOZW78IEW","either","8","6725","","","","","","","","","","","","","","","","","","","","","","","","Money will be added to the pool for <span style='color:blue;'>DEMOCRATS</span>","","","","","","","attn_check","","","","","","","","","0"
"","survey-multi-choice-replacement","78","335873","0.0-40.0-0.0","75480268","wem/bandit_party_2","A3AV8KOZW78IEW","either","8","7864","","","","","","","","","","","","","","","","","","","","","","","","Equal amounts of money will be added to the pool for <span style='color:blue;'>DEMOCRATS</span> and subtracted from the pool for <span style='color:red;'>REPUBLICANS</span>","","","","","","","attn_check","","","","","","","","","2"
"","survey-multi-choice-replacement","79","339894","0.0-41.0-0.0","75480268","wem/bandit_party_2","A3AV8KOZW78IEW","either","8","2989","","","","","","","","","","","","","","","","","","","","","","","","No money will be added to either pool","","","","","","","attn_check","","","","","","","","","3"
"","bandit","80","344695","0.0-42.0-0.0","75480268","wem/bandit_party_2","A3AV8KOZW78IEW","either","8","2240","","","","","","","0","0","1","0.2428949588","","0.4","0.8","0.2","0.6","","","","","0.6337563202","0.2428949588","0.3040937467","0.4468950172","","","","","","","","","","74","J","1","","","1","main_expt",""
"","bandit","81","347218","0.0-43.0-0.0","75480268","wem/bandit_party_2","A3AV8KOZW78IEW","either","8","986","","","","","","","1","0","0","0.2687625136","","0.4","0.8","0.2","0.6","","","","","0.7380673114","0.248961424","0.2687625136","0.3846124694","","","","","","","","","","75","K","2","","","2","main_expt",""
"","bandit","82","349854","0.0-44.0-0.0","75480268","wem/bandit_party_2","A3AV8KOZW78IEW","either","8","975","","","","","","","0","0","1","0.3885967974","","0.4","0.8","0.2","0.6","","","","","0.7715549737","0.1878604038","0.3017919557","0.3885967974","","","","","","","","","","76","L","3","","","3","main_expt",""
"","bandit","83","352174","0.0-45.0-0.0","75480268","wem/bandit_party_2","A3AV8KOZW78IEW","either","8","794","","","","","","","0","0","1","0.8257013646","","0.4","0.8","0.2","0.6","","","","","0.8257013646","0.1194049449","0.3388517529","0.2891644394","","","","","","","","","","72","H","0","img/none_selected.jpg","","4","main_expt",""
"","bandit","84","354197","0.0-46.0-0.0","75480268","wem/bandit_party_2","A3AV8KOZW78IEW","either","8","496","","","","","","","0","1","0","","0.389096829","0.4","0.8","0.2","0.6","0.8617886559","0.197046458","0.389096829","0.2654579937","","","","","","","","","","","","","","75","K","2","","","5","main_expt",""
"","bandit","85","356213","0.0-47.0-0.0","75480268","wem/bandit_party_2","A3AV8KOZW78IEW","either","8","490","","","","","","","0","1","0","","0.4799636182","0.4","0.8","0.2","0.6","0.8452125903","0.2312720201","0.4799636182","0.355160999","","","","","","","","","","","","","","75","K","2","","","6","main_expt",""
"","bandit","86","358788","0.0-48.0-0.0","75480268","wem/bandit_party_2","A3AV8KOZW78IEW","either","8","973","","","","","","","0","1","0","","0.5316557606","0.4","0.8","0.2","0.6","0.8765288384","0.3255591742","0.5316557606","0.4733904832","","","","","","","","","","","","","","75","K","2","","","7","main_expt",""
"","bandit","87","360769","0.0-49.0-0.0","75480268","wem/bandit_party_2","A3AV8KOZW78IEW","either","8","453","","","","","","","0","0","1","","0.4935712437","0.4","0.8","0.2","0.6","0.8625068071","0.163151729","0.4935712437","0.4900136729","","","","","","","","","","","","","","75","K","2","","","8","main_expt",""
"","bandit","88","362996","0.0-50.0-0.0","75480268","wem/bandit_party_2","A3AV8KOZW78IEW","either","8","706","","","","","","","0","1","0","","0.5400450001","0.4","0.8","0.2","0.6","0.8385781597","0.1671639775","0.5400450001","0.4543552171","","","","","","","","","","","","","","75","K","2","","","9","main_expt",""
"","bandit","89","365058","0.0-51.0-0.0","75480268","wem/bandit_party_2","A3AV8KOZW78IEW","either","8","541","","","","","","","0","0","1","","0.6510952772","0.4","0.8","0.2","0.6","0.833356221","0.1315225434","0.6510952772","0.4523920981","","","","","","","","","","","","","","75","K","2","","","10","main_expt",""
"","bandit","90","367013","0.0-52.0-0.0","75480268","wem/bandit_party_2","A3AV8KOZW78IEW","either","8","429","","","","","","","0","0","1","","0.6117649901","0.4","0.8","0.2","0.6","0.9030756702","0.1287002637","0.6117649901","0.4053083118","","","","","","","","","","","","","","75","K","2","","","11","main_expt",""
"","bandit","91","368973","0.0-53.0-0.0","75480268","wem/bandit_party_2","A3AV8KOZW78IEW","either","8","438","","","","","","","1","0","0","0.4059907931","","0.4","0.8","0.2","0.6","","","","","0.9129290363","0.1026596936","0.6360746298","0.4059907931","","","","","","","","","","76","L","3","","","12","main_expt",""
"","bandit","92","370924","0.0-54.0-0.0","75480268","wem/bandit_party_2","A3AV8KOZW78IEW","either","8","428","","","","","","","0","0","1","","0.2934167972","0.4","0.8","0.2","0.6","0.8638417716","0.1287514256","0.5673960652","0.2934167972","","","","","","","","","","","","","","76","L","3","","","13","main_expt",""
"","bandit","93","372699","0.0-55.0-0.0","75480268","wem/bandit_party_2","A3AV8KOZW78IEW","either","8","178","","","","","","","0","0","1","","0.3260927596","0.4","0.8","0.2","0.6","0.787806988","0.1786171179","0.6747725803","0.3260927596","","","","","","","","","","","","","","76","L","3","","","14","main_expt",""
"","bandit","94","375172","0.0-56.0-0.0","75480268","wem/bandit_party_2","A3AV8KOZW78IEW","either","8","948","","","","","","","0","0","1","0.3355382734","","0.4","0.8","0.2","0.6","","","","","0.7254212376","0.1459410532","0.6277188345","0.3355382734","","","","","","","","","","76","L","3","","","15","main_expt",""
"","bandit","95","377718","0.0-57.0-0.0","75480268","wem/bandit_party_2","A3AV8KOZW78IEW","either","8","915","","","","","","","1","0","0","0.2255600906","","0.4","0.8","0.2","0.6","","","","","0.7238415528","0.2255600906","0.5435568235","0.3040928121","","","","","","","","","","74","J","1","","","16","main_expt",""
"","bandit","96","380313","0.0-58.0-0.0","75480268","wem/bandit_party_2","A3AV8KOZW78IEW","either","8","1070","","","","","","","1","0","0","0.2052013943","","0.4","0.8","0.2","0.6","","","","","0.7796243455","0.2052013943","0.4180161478","0.2730366263","","","","","","","","","","74","J","1","","","17","main_expt",""
"","bandit","97","382920","0.0-59.0-0.0","75480268","wem/bandit_party_2","A3AV8KOZW78IEW","either","8","1009","","","","","","","0","0","1","","0.1780354615","0.4","0.8","0.2","0.6","0.6928902724","0.1780354615","0.4961111773","0.4105298721","","","","","","","","","","","","","","74","J","1","","","18","main_expt",""
"","bandit","98","385288","0.0-60.0-0.0","75480268","wem/bandit_party_2","A3AV8KOZW78IEW","either","8","849","","","","","","","1","0","0","0.1576496117","","0.4","0.8","0.2","0.6","","","","","0.7658630901","0.1576496117","0.445530788","0.3586923344","","","","","","","","","","74","J","1","","","19","main_expt",""
"","bandit","99","387700","0.0-61.0-0.0","75480268","wem/bandit_party_2","A3AV8KOZW78IEW","either","8","768","","","","","","","0","0","1","0.1618752313","","0.4","0.8","0.2","0.6","","","","","0.7584200513","0.1618752313","0.3443163705","0.3220075653","","","","","","","","","","74","J","1","","","20","main_expt",""
"","bandit","100","390214","0.0-62.0-0.0","75480268","wem/bandit_party_2","A3AV8KOZW78IEW","either","8","987","","","","","","","0","0","1","0.2152187387","","0.4","0.8","0.2","0.6","","","","","0.7727038765","0.2152187387","0.3012808647","0.2729660799","","","","","","","","","","74","J","1","","","21","main_expt",""
"","bandit","101","391905","0.0-63.0-0.0","75480268","wem/bandit_party_2","A3AV8KOZW78IEW","either","8","148","","","","","","","0","1","0","","0.8152565923","0.4","0.8","0.2","0.6","0.8152565923","0.3547982299","0.2882062485","0.2712352107","","","","","","","","","","","","","","72","H","0","img/none_selected.jpg","","22","main_expt",""
"","bandit","102","394305","0.0-64.0-0.0","75480268","wem/bandit_party_2","A3AV8KOZW78IEW","either","8","871","","","","","","","0","1","0","","0.7537075358","0.4","0.8","0.2","0.6","0.7537075358","0.323805638","0.2113421372","0.3390855774","","","","","","","","","","","","","","72","H","0","img/none_selected.jpg","","23","main_expt",""
"","bandit","103","396795","0.0-65.0-0.0","75480268","wem/bandit_party_2","A3AV8KOZW78IEW","either","8","931","","","","","","","0","1","0","","0.7108822858","0.4","0.8","0.2","0.6","0.7108822858","0.3588909826","0.2201805416","0.3483259141","","","","","","","","","","","","","","72","H","0","img/none_selected.jpg","","24","main_expt",""
"","bandit","104","399072","0.0-66.0-0.0","75480268","wem/bandit_party_2","A3AV8KOZW78IEW","either","8","755","","","","","","","0","1","0","","0.6930515954","0.4","0.8","0.2","0.6","0.6930515954","0.3885553436","0.2580956466","0.3416976173","","","","","","","","","","","","","","72","H","0","img/none_selected.jpg","","25","main_expt",""
"","bandit","105","401243","0.0-67.0-0.0","75480268","wem/bandit_party_2","A3AV8KOZW78IEW","either","8","647","","","","","","","0","1","0","","0.6905393417","0.4","0.8","0.2","0.6","0.6905393417","0.4871556374","0.2153432854","0.4243476322","","","","","","","","","","","","","","72","H","0","img/none_selected.jpg","","26","main_expt",""
"","bandit","106","403214","0.0-68.0-0.0","75480268","wem/bandit_party_2","A3AV8KOZW78IEW","either","8","448","","","","","","","0","1","0","","0.7531652131","0.4","0.8","0.2","0.6","0.7531652131","0.4934119911","0.1727955236","0.5257754898","","","","","","","","","","","","","","72","H","0","img/none_selected.jpg","","27","main_expt",""
"","bandit","107","405266","0.0-69.0-0.0","75480268","wem/bandit_party_2","A3AV8KOZW78IEW","either","8","528","","","","","","","0","1","0","","0.8001777041","0.4","0.8","0.2","0.6","0.8001777041","0.4322092846","0.1894296703","0.5246232361","","","","","","","","","","","","","","72","H","0","img/none_selected.jpg","","28","main_expt",""
"","bandit","108","407256","0.0-70.0-0.0","75480268","wem/bandit_party_2","A3AV8KOZW78IEW","either","8","464","","","","","","","0","1","0","","0.8118404327","0.4","0.8","0.2","0.6","0.8118404327","0.3459113699","0.2128919211","0.375994784","","","","","","","","","","","","","","72","H","0","img/none_selected.jpg","","29","main_expt",""
"","bandit","109","409205","0.0-71.0-0.0","75480268","wem/bandit_party_2","A3AV8KOZW78IEW","either","8","426","","","","","","","0","0","1","","0.7839534503","0.4","0.8","0.2","0.6","0.7839534503","0.280789843","0.206056468","0.2936890161","","","","","","","","","","","","","","72","H","0","img/none_selected.jpg","","30","main_expt",""
"","bandit","110","411044","0.0-72.0-0.0","75480268","wem/bandit_party_2","A3AV8KOZW78IEW","either","8","315","","","","","","","0","1","0","","0.8066372971","0.4","0.8","0.2","0.6","0.8066372971","0.2613810438","0.1725623241","0.2878812258","","","","","","","","","","","","","","72","H","0","img/none_selected.jpg","","31","main_expt",""
"","bandit","111","412990","0.0-73.0-0.0","75480268","wem/bandit_party_2","A3AV8KOZW78IEW","either","8","421","","","","","","","0","0","1","","0.8049259064","0.4","0.8","0.2","0.6","0.8049259064","0.3821585683","0.1629883914","0.2451492808","","","","","","","","","","","","","","72","H","0","img/none_selected.jpg","","32","main_expt",""
"","bandit","112","414698","0.0-74.0-0.0","75480268","wem/bandit_party_2","A3AV8KOZW78IEW","either","8","3","","","","","","","1","0","0","0.7891664673","","0.4","0.8","0.2","0.6","","","","","0.7891664673","0.2714925976","0.2107911223","0.2802113289","","","","","","","","","","72","H","0","img/none_selected.jpg","","33","main_expt",""
"","bandit","113","418974","0.0-75.0-0.0","75480268","wem/bandit_party_2","A3AV8KOZW78IEW","either","8","2751","","","","","","","0","0","1","","0.7854278051","0.4","0.8","0.2","0.6","0.7854278051","0.2755575364","0.1025901997","0.2892342718","","","","","","","","","","","","","","72","H","0","img/none_selected.jpg","","34","main_expt",""
"","bandit","114","421110","0.0-76.0-0.0","75480268","wem/bandit_party_2","A3AV8KOZW78IEW","either","8","611","","","","","","","1","0","0","0.7260182018","","0.4","0.8","0.2","0.6","","","","","0.7260182018","0.2697856654","0.1289879153","0.2486893666","","","","","","","","","","72","H","0","img/none_selected.jpg","","35","main_expt",""
"","bandit","115","423873","0.0-77.0-0.0","75480268","wem/bandit_party_2","A3AV8KOZW78IEW","either","8","1235","","","","","","","0","1","0","","0.7910957192","0.4","0.8","0.2","0.6","0.7910957192","0.2483646443","0.1645491317","0.3536408983","","","","","","","","","","","","","","72","H","0","img/none_selected.jpg","","36","main_expt",""
"","bandit","116","425834","0.0-78.0-0.0","75480268","wem/bandit_party_2","A3AV8KOZW78IEW","either","8","405","","","","","","","0","1","0","","0.7996551039","0.4","0.8","0.2","0.6","0.7996551039","0.2103950957","0.1698046746","0.2493566902","","","","","","","","","","","","","","72","H","0","img/none_selected.jpg","","37","main_expt",""
"","bandit","117","427857","0.0-79.0-0.0","75480268","wem/bandit_party_2","A3AV8KOZW78IEW","either","8","469","","","","","","","0","0","1","0.6717479894","","0.4","0.8","0.2","0.6","","","","","0.6717479894","0.2128944509","0.2281502886","0.2948354516","","","","","","","","","","72","H","0","img/none_selected.jpg","","38","main_expt",""
"","bandit","118","429837","0.0-80.0-0.0","75480268","wem/bandit_party_2","A3AV8KOZW78IEW","either","8","420","","","","","","","0","1","0","","0.7121128808","0.4","0.8","0.2","0.6","0.7121128808","0.2965153327","0.1561271762","0.3373274679","","","","","","","","","","","","","","72","H","0","img/none_selected.jpg","","39","main_expt",""
"","bandit","119","431817","0.0-81.0-0.0","75480268","wem/bandit_party_2","A3AV8KOZW78IEW","either","8","449","","","","","","","0","1","0","","0.7157410044","0.4","0.8","0.2","0.6","0.7157410044","0.4447532253","0.1543620621","0.4138768052","","","","","","","","","","","","","","72","H","0","img/none_selected.jpg","","40","main_expt",""
"","bandit","120","433889","0.0-82.0-0.0","75480268","wem/bandit_party_2","A3AV8KOZW78IEW","either","8","530","","","","","","","0","0","1","0.681196038","","0.4","0.8","0.2","0.6","","","","","0.681196038","0.5330008696","0.2271499981","0.438096834","","","","","","","","","","72","H","0","img/none_selected.jpg","","41","main_expt",""
"","bandit","121","437018","0.0-83.0-0.0","75480268","wem/bandit_party_2","A3AV8KOZW78IEW","either","8","1602","","","","","","","0","0","1","0.6504320647","","0.4","0.8","0.2","0.6","","","","","0.6504320647","0.573861049","0.2882452936","0.4185173612","","","","","","","","","","72","H","0","img/none_selected.jpg","","42","main_expt",""
"","bandit","122","438964","0.0-84.0-0.0","75480268","wem/bandit_party_2","A3AV8KOZW78IEW","either","8","420","","","","","","","0","1","0","","0.7369830744","0.4","0.8","0.2","0.6","0.7369830744","0.6654349765","0.298522686","0.3796335567","","","","","","","","","","","","","","72","H","0","img/none_selected.jpg","","43","main_expt",""
"","bandit","123","441332","0.0-85.0-0.0","75480268","wem/bandit_party_2","A3AV8KOZW78IEW","either","8","842","","","","","","","0","1","0","","0.6797935378","0.4","0.8","0.2","0.6","0.6797935378","0.691198465","0.3188886026","0.31766129","","","","","","","","","","","","","","72","H","0","img/none_selected.jpg","","44","main_expt",""
"","bandit","124","443380","0.0-86.0-0.0","75480268","wem/bandit_party_2","A3AV8KOZW78IEW","either","8","516","","","","","","","0","0","1","","0.6507473666","0.4","0.8","0.2","0.6","0.6507473666","0.7652674903","0.2705760174","0.4047397141","","","","","","","","","","","","","","72","H","0","img/none_selected.jpg","","45","main_expt",""
"","bandit","125","445342","0.0-87.0-0.0","75480268","wem/bandit_party_2","A3AV8KOZW78IEW","either","8","435","","","","","","","0","0","1","","0.6334510787","0.4","0.8","0.2","0.6","0.6334510787","0.8065230058","0.2506880939","0.4961613307","","","","","","","","","","","","","","72","H","0","img/none_selected.jpg","","46","main_expt",""
"","bandit","126","447247","0.0-88.0-0.0","75480268","wem/bandit_party_2","A3AV8KOZW78IEW","either","8","378","","","","","","","1","0","0","0.6143175143","","0.4","0.8","0.2","0.6","","","","","0.6143175143","0.7774474893","0.2491585872","0.4624468315","","","","","","","","","","72","H","0","img/none_selected.jpg","","47","main_expt",""
"","bandit","127","448960","0.0-89.0-0.0","75480268","wem/bandit_party_2","A3AV8KOZW78IEW","either","8","188","","","","","","","0","0","1","","0.6404512611","0.4","0.8","0.2","0.6","0.6404512611","0.7693176975","0.1997021219","0.4886537242","","","","","","","","","","","","","","72","H","0","img/none_selected.jpg","","48","main_expt",""
"","bandit","128","451276","0.0-90.0-0.0","75480268","wem/bandit_party_2","A3AV8KOZW78IEW","either","8","793","","","","","","","0","0","1","","0.6758621215","0.4","0.8","0.2","0.6","0.6758621215","0.807419373","0.2119577724","0.4270302022","","","","","","","","","","","","","","72","H","0","img/none_selected.jpg","","49","main_expt",""
"","bandit","129","453408","0.0-91.0-0.0","75480268","wem/bandit_party_2","A3AV8KOZW78IEW","either","8","594","","","","","","","1","0","0","0.8562769227","","0.4","0.8","0.2","0.6","","","","","0.6873234502","0.8562769227","0.2615271711","0.5151345658","","","","","","","","","","74","J","1","","","50","main_expt",""
"","bandit","130","455322","0.0-92.0-0.0","75480268","wem/bandit_party_2","A3AV8KOZW78IEW","either","8","388","","","","","","","0","1","0","","0.8705114925","0.4","0.8","0.2","0.6","0.7776044395","0.8705114925","0.2764427577","0.5134524181","","","","","","","","","","","","","","74","J","1","","","51","main_expt",""
"","bandit","131","457227","0.0-93.0-0.0","75480268","wem/bandit_party_2","A3AV8KOZW78IEW","either","8","378","","","","","","","1","0","0","0.9310361031","","0.4","0.8","0.2","0.6","","","","","0.8403410939","0.9310361031","0.3833776697","0.4842684999","","","","","","","","","","74","J","1","","","52","main_expt",""
"","bandit","132","458990","0.0-94.0-0.0","75480268","wem/bandit_party_2","A3AV8KOZW78IEW","either","8","235","","","","","","","1","0","0","0.905794742","","0.4","0.8","0.2","0.6","","","","","0.8151983534","0.905794742","0.4356502318","0.4412850773","","","","","","","","","","74","J","1","","","53","main_expt",""
"","bandit","133","461293","0.0-95.0-0.0","75480268","wem/bandit_party_2","A3AV8KOZW78IEW","either","8","780","","","","","","","0","1","0","","0.9391541593","0.4","0.8","0.2","0.6","0.8081222638","0.9391541593","0.4120588364","0.4397693946","","","","","","","","","","","","","","74","J","1","","","54","main_expt",""
"","bandit","134","463709","0.0-96.0-0.0","75480268","wem/bandit_party_2","A3AV8KOZW78IEW","either","8","885","","","","","","","1","0","0","0.9596285882","","0.4","0.8","0.2","0.6","","","","","0.742009976","0.9596285882","0.2714296105","0.3928202278","","","","","","","","","","74","J","1","","","55","main_expt",""
"","bandit","135","465811","0.0-97.0-0.0","75480268","wem/bandit_party_2","A3AV8KOZW78IEW","either","8","472","","","","","","","1","0","0","0.9565658233","","0.4","0.8","0.2","0.6","","","","","0.7065076074","0.9565658233","0.2122311877","0.4593665993","","","","","","","","","","74","J","1","","","56","main_expt",""
"","bandit","136","467873","0.0-98.0-0.0","75480268","wem/bandit_party_2","A3AV8KOZW78IEW","either","8","405","","","","","","","1","0","0","0.9681540372","","0.4","0.8","0.2","0.6","","","","","0.6860695476","0.9681540372","0.2282278588","0.4006145211","","","","","","","","","","74","J","1","","","57","main_expt",""
"","bandit","137","469921","0.0-99.0-0.0","75480268","wem/bandit_party_2","A3AV8KOZW78IEW","either","8","521","","","","","","","1","0","0","0.9207083952","","0.4","0.8","0.2","0.6","","","","","0.742301155","0.9207083952","0.1392076118","0.4597890412","","","","","","","","","","74","J","1","","","58","main_expt",""
"","bandit","138","471926","0.0-100.0-0.0","75480268","wem/bandit_party_2","A3AV8KOZW78IEW","either","8","354","","","","","","","1","0","0","0.9178227258","","0.4","0.8","0.2","0.6","","","","","0.5291004622","0.9178227258","0.1706239206","0.4232266093","","","","","","","","","","74","J","1","","","59","main_expt",""
"","bandit","139","473987","0.0-101.0-0.0","75480268","wem/bandit_party_2","A3AV8KOZW78IEW","either","8","416","","","","","","","1","0","0","0.8951285427","","0.4","0.8","0.2","0.6","","","","","0.6348838793","0.8951285427","0.1674269281","0.3565880291","","","","","","","","","","74","J","1","","","60","main_expt",""
"","bandit","140","475971","0.0-102.0-0.0","75480268","wem/bandit_party_2","A3AV8KOZW78IEW","either","8","454","","","","","","","1","0","0","0.8506814954","","0.4","0.8","0.2","0.6","","","","","0.6796423313","0.8506814954","0.2182313474","0.3663276413","","","","","","","","","","74","J","1","","","61","main_expt",""
"","bandit","141","478084","0.0-103.0-0.0","75480268","wem/bandit_party_2","A3AV8KOZW78IEW","either","8","587","","","","","","","0","0","1","0.8513854559","","0.4","0.8","0.2","0.6","","","","","0.6928172916","0.8513854559","0.2949218256","0.3193005293","","","","","","","","","","74","J","1","","","62","main_expt",""
"","bandit","142","480284","0.0-104.0-0.0","75480268","wem/bandit_party_2","A3AV8KOZW78IEW","either","8","670","","","","","","","1","0","0","0.8927579502","","0.4","0.8","0.2","0.6","","","","","0.6996506825","0.8927579502","0.3170222383","0.1562068481","","","","","","","","","","74","J","1","","","63","main_expt",""
"","bandit","143","482684","0.0-105.0-0.0","75480268","wem/bandit_party_2","A3AV8KOZW78IEW","either","8","781","","","","","","","1","0","0","0.9217936765","","0.4","0.8","0.2","0.6","","","","","0.7294442249","0.9217936765","0.3033511374","0.2300477965","","","","","","","","","","74","J","1","","","64","main_expt",""
"","bandit","144","484734","0.0-106.0-0.0","75480268","wem/bandit_party_2","A3AV8KOZW78IEW","either","8","392","","","","","","","1","0","0","0.9357047413","","0.4","0.8","0.2","0.6","","","","","0.6605354899","0.9357047413","0.3973690147","0.2869838185","","","","","","","","","","74","J","1","","","65","main_expt",""
"","bandit","145","486780","0.0-107.0-0.0","75480268","wem/bandit_party_2","A3AV8KOZW78IEW","either","8","518","","","","","","","1","0","0","0.910343843","","0.4","0.8","0.2","0.6","","","","","0.6959621059","0.910343843","0.4320294497","0.3287476356","","","","","","","","","","74","J","1","","","66","main_expt",""
"","bandit","146","488857","0.0-108.0-0.0","75480268","wem/bandit_party_2","A3AV8KOZW78IEW","either","8","538","","","","","","","1","0","0","0.9022080512","","0.4","0.8","0.2","0.6","","","","","0.653899752","0.9022080512","0.3208465419","0.3018365728","","","","","","","","","","74","J","1","","","67","main_expt",""
"","bandit","147","491679","0.0-109.0-0.0","75480268","wem/bandit_party_2","A3AV8KOZW78IEW","either","8","1266","","","","","","","0","1","0","","0.8492414063","0.4","0.8","0.2","0.6","0.6517851336","0.8492414063","0.3570730799","0.3208616414","","","","","","","","","","","","","","74","J","1","","","68","main_expt",""
"","bandit","148","494698","0.0-110.0-0.0","75480268","wem/bandit_party_2","A3AV8KOZW78IEW","either","8","1492","","","","","","","1","0","0","0.768219052","","0.4","0.8","0.2","0.6","","","","","0.7011615004","0.768219052","0.3451514791","0.386863802","","","","","","","","","","74","J","1","","","69","main_expt",""
"","bandit","149","497210","0.0-111.0-0.0","75480268","wem/bandit_party_2","A3AV8KOZW78IEW","either","8","986","","","","","","","1","0","0","0.7996218848","","0.4","0.8","0.2","0.6","","","","","0.6278947594","0.7996218848","0.3127714871","0.3628244161","","","","","","","","","","74","J","1","","","70","main_expt",""
"","bandit","150","499541","0.0-112.0-0.0","75480268","wem/bandit_party_2","A3AV8KOZW78IEW","either","8","794","","","","","","","1","0","0","0.9130189757","","0.4","0.8","0.2","0.6","","","","","0.688517509","0.9130189757","0.3855297895","0.2969295023","","","","","","","","","","74","J","1","","","71","main_expt",""
"","bandit","151","501694","0.0-113.0-0.0","75480268","wem/bandit_party_2","A3AV8KOZW78IEW","either","8","544","","","","","","","1","0","0","0.9016843832","","0.4","0.8","0.2","0.6","","","","","0.6125440106","0.9016843832","0.3555010044","0.3512325323","","","","","","","","","","74","J","1","","","72","main_expt",""
"","bandit","152","503716","0.0-114.0-0.0","75480268","wem/bandit_party_2","A3AV8KOZW78IEW","either","8","444","","","","","","","1","0","0","0.9166584401","","0.4","0.8","0.2","0.6","","","","","0.4884410468","0.9166584401","0.3278360739","0.3845321254","","","","","","","","","","74","J","1","","","73","main_expt",""
"","bandit","153","505798","0.0-115.0-0.0","75480268","wem/bandit_party_2","A3AV8KOZW78IEW","either","8","514","","","","","","","1","0","0","0.8699410266","","0.4","0.8","0.2","0.6","","","","","0.5800760741","0.8699410266","0.3275161349","0.3760614253","","","","","","","","","","74","J","1","","","74","main_expt",""
"","bandit","154","507668","0.0-116.0-0.0","75480268","wem/bandit_party_2","A3AV8KOZW78IEW","either","8","234","","","","","","","0","0","1","0.8192171788","","0.4","0.8","0.2","0.6","","","","","0.6614390465","0.8192171788","0.3454333807","0.370831352","","","","","","","","","","74","J","1","","","75","main_expt",""
"","bandit","155","509679","0.0-117.0-0.0","75480268","wem/bandit_party_2","A3AV8KOZW78IEW","either","8","407","","","","","","","0","1","0","","0.8990587115","0.4","0.8","0.2","0.6","0.6861570843","0.8990587115","0.4213924804","0.4008199491","","","","","","","","","","","","","","74","J","1","","","76","main_expt",""
"","bandit","156","511521","0.0-118.0-0.0","75480268","wem/bandit_party_2","A3AV8KOZW78IEW","either","8","295","","","","","","","0","1","0","","0.9062137116","0.4","0.8","0.2","0.6","0.5980737028","0.9062137116","0.439510692","0.3928984844","","","","","","","","","","","","","","74","J","1","","","77","main_expt",""
"","bandit","157","514353","0.0-119.0-0.0","75480268","wem/bandit_party_2","A3AV8KOZW78IEW","either","8","1308","","","","","","","0","1","0","","0.9215914722","0.4","0.8","0.2","0.6","0.6754083514","0.9215914722","0.4419424199","0.4709058574","","","","","","","","","","","","","","74","J","1","","","78","main_expt",""
"","bandit","158","516679","0.0-120.0-0.0","75480268","wem/bandit_party_2","A3AV8KOZW78IEW","either","8","763","","","","","","","1","0","0","0.895443078","","0.4","0.8","0.2","0.6","","","","","0.7012934339","0.895443078","0.5056762283","0.4971614577","","","","","","","","","","74","J","1","","","79","main_expt",""
"","bandit","159","518800","0.0-121.0-0.0","75480268","wem/bandit_party_2","A3AV8KOZW78IEW","either","8","590","","","","","","","0","0","1","0.7789772955","","0.4","0.8","0.2","0.6","","","","","0.7067798052","0.7789772955","0.4558190996","0.4828267768","","","","","","","","","","74","J","1","","","80","main_expt",""
"","bandit","160","520855","0.0-122.0-0.0","75480268","wem/bandit_party_2","A3AV8KOZW78IEW","either","8","473","","","","","","","1","0","0","0.755426824","","0.4","0.8","0.2","0.6","","","","","0.7259433061","0.755426824","0.4774921548","0.4280570329","","","","","","","","","","74","J","1","","","81","main_expt",""
"","bandit","161","522844","0.0-123.0-0.0","75480268","wem/bandit_party_2","A3AV8KOZW78IEW","either","8","402","","","","","","","0","1","0","","0.8356426425","0.4","0.8","0.2","0.6","0.7022130872","0.8356426425","0.3611036613","0.486136241","","","","","","","","","","","","","","74","J","1","","","82","main_expt",""
"","bandit","162","525920","0.0-124.0-0.0","75480268","wem/bandit_party_2","A3AV8KOZW78IEW","either","8","1551","","","","","","","0","0","1","0.8783145762","","0.4","0.8","0.2","0.6","","","","","0.75927227","0.8783145762","0.3341354767","0.3539143083","","","","","","","","","","74","J","1","","","83","main_expt",""
"","bandit","163","528145","0.0-125.0-0.0","75480268","wem/bandit_party_2","A3AV8KOZW78IEW","either","8","685","","","","","","","0","1","0","","0.9087743635","0.4","0.8","0.2","0.6","0.8556046088","0.9087743635","0.288479151","0.374811954","","","","","","","","","","","","","","74","J","1","","","84","main_expt",""
"","bandit","164","530280","0.0-126.0-0.0","75480268","wem/bandit_party_2","A3AV8KOZW78IEW","either","8","610","","","","","","","1","0","0","0.8632011641","","0.4","0.8","0.2","0.6","","","","","0.7835234447","0.8632011641","0.3061923995","0.4518264681","","","","","","","","","","74","J","1","","","85","main_expt",""
"","bandit","165","532953","0.0-127.0-0.0","75480268","wem/bandit_party_2","A3AV8KOZW78IEW","either","8","1143","","","","","","","1","0","0","0.8341253046","","0.4","0.8","0.2","0.6","","","","","0.7037548709","0.8341253046","0.3370204437","0.461936863","","","","","","","","","","74","J","1","","","86","main_expt",""
"","bandit","166","535257","0.0-128.0-0.0","75480268","wem/bandit_party_2","A3AV8KOZW78IEW","either","8","773","","","","","","","1","0","0","0.8728746981","","0.4","0.8","0.2","0.6","","","","","0.6903674631","0.8728746981","0.3900809043","0.3681660755","","","","","","","","","","74","J","1","","","87","main_expt",""
"","bandit","167","537604","0.0-129.0-0.0","75480268","wem/bandit_party_2","A3AV8KOZW78IEW","either","8","757","","","","","","","1","0","0","0.8408980459","","0.4","0.8","0.2","0.6","","","","","0.5883284312","0.8408980459","0.4296615172","0.3788462328","","","","","","","","","","74","J","1","","","88","main_expt",""
"","bandit","168","540302","0.0-130.0-0.0","75480268","wem/bandit_party_2","A3AV8KOZW78IEW","either","8","1174","","","","","","","1","0","0","0.8585781628","","0.4","0.8","0.2","0.6","","","","","0.5258490985","0.8585781628","0.4636560077","0.3316952272","","","","","","","","","","74","J","1","","","89","main_expt",""
"","bandit","169","542361","0.0-131.0-0.0","75480268","wem/bandit_party_2","A3AV8KOZW78IEW","either","8","529","","","","","","","1","0","0","0.925840658","","0.4","0.8","0.2","0.6","","","","","0.6395041767","0.925840658","0.4463585346","0.438068917","","","","","","","","","","74","J","1","","","90","main_expt",""
"","bandit","170","544536","0.0-132.0-0.0","75480268","wem/bandit_party_2","A3AV8KOZW78IEW","either","8","633","","","","","","","1","0","0","0.9201841885","","0.4","0.8","0.2","0.6","","","","","0.6931091445","0.9201841885","0.4734463503","0.5158843935","","","","","","","","","","74","J","1","","","91","main_expt",""
"","bandit","171","547259","0.0-133.0-0.0","75480268","wem/bandit_party_2","A3AV8KOZW78IEW","either","8","1195","","","","","","","1","0","0","0.8508076908","","0.4","0.8","0.2","0.6","","","","","0.6725373887","0.8508076908","0.5248255385","0.5182757575","","","","","","","","","","74","J","1","","","92","main_expt",""
"","bandit","172","549689","0.0-134.0-0.0","75480268","wem/bandit_party_2","A3AV8KOZW78IEW","either","8","825","","","","","","","1","0","0","0.8106711147","","0.4","0.8","0.2","0.6","","","","","0.7388835399","0.8106711147","0.3386726181","0.5498130742","","","","","","","","","","74","J","1","","","93","main_expt",""
"","bandit","173","551825","0.0-135.0-0.0","75480268","wem/bandit_party_2","A3AV8KOZW78IEW","either","8","568","","","","","","","0","1","0","","0.8543263914","0.4","0.8","0.2","0.6","0.697373586","0.8543263914","0.3718894848","0.6049407638","","","","","","","","","","","","","","74","J","1","","","94","main_expt",""
"","bandit","174","553801","0.0-136.0-0.0","75480268","wem/bandit_party_2","A3AV8KOZW78IEW","either","8","451","","","","","","","1","0","0","0.8387782901","","0.4","0.8","0.2","0.6","","","","","0.7550322224","0.8387782901","0.4005278521","0.6604115927","","","","","","","","","","74","J","1","","","95","main_expt",""
"","bandit","175","555985","0.0-137.0-0.0","75480268","wem/bandit_party_2","A3AV8KOZW78IEW","either","8","656","","","","","","","0","1","0","","0.8208071174","0.4","0.8","0.2","0.6","0.6576962358","0.8208071174","0.3694595514","0.7003847986","","","","","","","","","","","","","","74","J","1","","","96","main_expt",""
"","bandit","176","558145","0.0-138.0-0.0","75480268","wem/bandit_party_2","A3AV8KOZW78IEW","either","8","629","","","","","","","1","0","0","0.765358829","","0.4","0.8","0.2","0.6","","","","","0.6802484638","0.765358829","0.3186037095","0.6793148949","","","","","","","","","","74","J","1","","","97","main_expt",""
"","bandit","177","560737","0.0-139.0-0.0","75480268","wem/bandit_party_2","A3AV8KOZW78IEW","either","8","909","","","","","","","1","0","0","0.7823463211","","0.4","0.8","0.2","0.6","","","","","0.7042077447","0.7823463211","0.2786717818","0.6204607354","","","","","","","","","","74","J","1","","","98","main_expt",""
"","bandit","178","562817","0.0-140.0-0.0","75480268","wem/bandit_party_2","A3AV8KOZW78IEW","either","8","550","","","","","","","1","0","0","0.7523003034","","0.4","0.8","0.2","0.6","","","","","0.7355617892","0.7523003034","0.32929866","0.6166262367","","","","","","","","","","74","J","1","","","99","main_expt",""
"","bandit","179","565243","0.0-141.0-0.0","75480268","wem/bandit_party_2","A3AV8KOZW78IEW","either","8","889","","","","","","","1","0","0","0.7174790615","","0.4","0.8","0.2","0.6","","","","","0.7117411671","0.7174790615","0.3115323478","0.5347115766","","","","","","","","","","74","J","1","","","100","main_expt",""
"","bandit","180","567743","0.0-142.0-0.0","75480268","wem/bandit_party_2","A3AV8KOZW78IEW","either","8","966","","","","","","","1","0","0","0.7660578318","","0.4","0.8","0.2","0.6","","","","","0.7263903312","0.7660578318","0.4221749579","0.3418016043","","","","","","","","","","74","J","1","","","101","main_expt",""
"","bandit","181","569883","0.0-143.0-0.0","75480268","wem/bandit_party_2","A3AV8KOZW78IEW","either","8","611","","","","","","","0","1","0","","0.7201180075","0.4","0.8","0.2","0.6","0.7357346189","0.7201180075","0.2718078598","0.2550922237","","","","","","","","","","","","","","74","J","1","","","102","main_expt",""
"","bandit","182","572121","0.0-144.0-0.0","75480268","wem/bandit_party_2","A3AV8KOZW78IEW","either","8","707","","","","","","","1","0","0","0.8452780714","","0.4","0.8","0.2","0.6","","","","","0.7026134783","0.8452780714","0.3011307106","0.3181696353","","","","","","","","","","74","J","1","","","103","main_expt",""
"","bandit","183","574092","0.0-145.0-0.0","75480268","wem/bandit_party_2","A3AV8KOZW78IEW","either","8","441","","","","","","","1","0","0","0.7236924273","","0.4","0.8","0.2","0.6","","","","","0.8073666152","0.7236924273","0.3659291838","0.3383579412","","","","","","","","","","74","J","1","","","104","main_expt",""
"","bandit","184","576095","0.0-146.0-0.0","75480268","wem/bandit_party_2","A3AV8KOZW78IEW","either","8","471","","","","","","","1","0","0","0.743719778","","0.4","0.8","0.2","0.6","","","","","0.824483439","0.743719778","0.3499435223","0.2354673658","","","","","","","","","","74","J","1","","","105","main_expt",""
"","bandit","185","578439","0.0-147.0-0.0","75480268","wem/bandit_party_2","A3AV8KOZW78IEW","either","8","815","","","","","","","1","0","0","0.7985687284","","0.4","0.8","0.2","0.6","","","","","0.9208810438","0.7985687284","0.3602262465","0.159398249","","","","","","","","","","74","J","1","","","106","main_expt",""
"","bandit","186","580694","0.0-148.0-0.0","75480268","wem/bandit_party_2","A3AV8KOZW78IEW","either","8","685","","","","","","","1","0","0","0.799345197","","0.4","0.8","0.2","0.6","","","","","0.8911910097","0.799345197","0.3252215163","0.1295169146","","","","","","","","","","74","J","1","","","107","main_expt",""
"","bandit","187","582788","0.0-149.0-0.0","75480268","wem/bandit_party_2","A3AV8KOZW78IEW","either","8","563","","","","","","","1","0","0","0.8681690713","","0.4","0.8","0.2","0.6","","","","","0.8450149587","0.8681690713","0.2812406992","0.07754053308","","","","","","","","","","74","J","1","","","108","main_expt",""
"","bandit","188","584806","0.0-150.0-0.0","75480268","wem/bandit_party_2","A3AV8KOZW78IEW","either","8","485","","","","","","","1","0","0","0.8556732204","","0.4","0.8","0.2","0.6","","","","","0.868327257","0.8556732204","0.2559497519","0.06591215473","","","","","","","","","","74","J","1","","","109","main_expt",""
"","bandit","189","587470","0.0-151.0-0.0","75480268","wem/bandit_party_2","A3AV8KOZW78IEW","either","8","1122","","","","","","","1","0","0","0.8669893864","","0.4","0.8","0.2","0.6","","","","","0.8868335222","0.8669893864","0.2817400418","0.1189546392","","","","","","","","","","74","J","1","","","110","main_expt",""
"","bandit","190","591229","0.0-152.0-0.0","75480268","wem/bandit_party_2","A3AV8KOZW78IEW","either","8","2221","","","","","","","1","0","0","0.799383849","","0.4","0.8","0.2","0.6","","","","","0.8770728171","0.799383849","0.2773620367","0.09523351692","","","","","","","","","","74","J","1","","","111","main_expt",""
"","bandit","191","593481","0.0-153.0-0.0","75480268","wem/bandit_party_2","A3AV8KOZW78IEW","either","8","700","","","","","","","1","0","0","0.859799476","","0.4","0.8","0.2","0.6","","","","","0.8481710002","0.859799476","0.2833316415","0.107489667","","","","","","","","","","74","J","1","","","112","main_expt",""
"","bandit","192","595439","0.0-154.0-0.0","75480268","wem/bandit_party_2","A3AV8KOZW78IEW","either","8","402","","","","","","","1","0","0","0.7932436089","","0.4","0.8","0.2","0.6","","","","","0.8573528835","0.7932436089","0.3433702059","0.1026187258","","","","","","","","","","74","J","1","","","113","main_expt",""
"","bandit","193","597431","0.0-155.0-0.0","75480268","wem/bandit_party_2","A3AV8KOZW78IEW","either","8","445","","","","","","","0","0","1","0.849407262","","0.4","0.8","0.2","0.6","","","","","0.8291807482","0.849407262","0.4828882278","0.1044839951","","","","","","","","","","74","J","1","","","114","main_expt",""
"","bandit","194","599814","0.0-156.0-0.0","75480268","wem/bandit_party_2","A3AV8KOZW78IEW","either","8","856","","","","","","","0","0","1","0.8882716547","","0.4","0.8","0.2","0.6","","","","","0.761972944","0.8882716547","0.54932579","0.1213931844","","","","","","","","","","74","J","1","","","115","main_expt",""
"","bandit","195","601707","0.0-157.0-0.0","75480268","wem/bandit_party_2","A3AV8KOZW78IEW","either","8","331","","","","","","","1","0","0","0.8741354715","","0.4","0.8","0.2","0.6","","","","","0.786197192","0.8741354715","0.6971345968","0.1184144227","","","","","","","","","","74","J","1","","","116","main_expt",""
"","bandit","196","603249","0.0-158.0-0.0","75480268","wem/bandit_party_2","A3AV8KOZW78IEW","either","8","1","","","","","","","1","0","0","0.8083823922","","0.4","0.8","0.2","0.6","","","","","0.7834453561","0.8083823922","0.5396272374","0.1983931569","","","","","","","","","","74","J","1","","","117","main_expt",""
"","bandit","197","605200","0.0-159.0-0.0","75480268","wem/bandit_party_2","A3AV8KOZW78IEW","either","8","416","","","","","","","1","0","0","0.868525306","","0.4","0.8","0.2","0.6","","","","","0.6742380839","0.868525306","0.5544567993","0.2840039584","","","","","","","","","","74","J","1","","","118","main_expt",""
"","bandit","198","607177","0.0-160.0-0.0","75480268","wem/bandit_party_2","A3AV8KOZW78IEW","either","8","446","","","","","","","1","0","0","0.8386471998","","0.4","0.8","0.2","0.6","","","","","0.7350700153","0.8386471998","0.5504896642","0.3563325119","","","","","","","","","","74","J","1","","","119","main_expt",""
"","bandit","199","609182","0.0-161.0-0.0","75480268","wem/bandit_party_2","A3AV8KOZW78IEW","either","8","471","","","","","","","0","1","0","","0.8103559508","0.4","0.8","0.2","0.6","0.70601835","0.8103559508","0.5812137135","0.5682387565","","","","","","","","","","","","","","74","J","1","","","120","main_expt",""
"","bandit","200","611204","0.0-162.0-0.0","75480268","wem/bandit_party_2","A3AV8KOZW78IEW","either","8","490","","","","","","","1","0","0","0.8193015173","","0.4","0.8","0.2","0.6","","","","","0.7347719752","0.8193015173","0.6033058466","0.5189107771","","","","","","","","","","74","J","1","","","121","main_expt",""
"","bandit","201","613291","0.0-163.0-0.0","75480268","wem/bandit_party_2","A3AV8KOZW78IEW","either","8","556","","","","","","","1","0","0","0.8025146027","","0.4","0.8","0.2","0.6","","","","","0.8270923978","0.8025146027","0.6102220397","0.4428493372","","","","","","","","","","74","J","1","","","122","main_expt",""
"","bandit","202","615443","0.0-164.0-0.0","75480268","wem/bandit_party_2","A3AV8KOZW78IEW","either","8","607","","","","","","","1","0","0","0.8121847492","","0.4","0.8","0.2","0.6","","","","","0.7980631313","0.8121847492","0.6108151959","0.472724465","","","","","","","","","","74","J","1","","","123","main_expt",""
"","bandit","203","617692","0.0-165.0-0.0","75480268","wem/bandit_party_2","A3AV8KOZW78IEW","either","8","543","","","","","","","1","0","0","0.8299418439","","0.4","0.8","0.2","0.6","","","","","0.7369852887","0.8299418439","0.7117385939","0.4799585558","","","","","","","","","","74","J","1","","","124","main_expt",""
"","bandit","204","619676","0.0-166.0-0.0","75480268","wem/bandit_party_2","A3AV8KOZW78IEW","either","8","434","","","","","","","1","0","0","0.825688343","","0.4","0.8","0.2","0.6","","","","","0.7465944313","0.825688343","0.7554186078","0.5080184993","","","","","","","","","","74","J","1","","","125","main_expt",""
"","bandit","205","621688","0.0-167.0-0.0","75480268","wem/bandit_party_2","A3AV8KOZW78IEW","either","8","446","","","","","","","1","0","0","0.8372054396","","0.4","0.8","0.2","0.6","","","","","0.7596834852","0.8372054396","0.8855751833","0.4555098289","","","","","","","","","","74","J","1","","","126","main_expt",""
"","bandit","206","623824","0.0-168.0-0.0","75480268","wem/bandit_party_2","A3AV8KOZW78IEW","either","8","562","","","","","","","1","0","0","0.7906689898","","0.4","0.8","0.2","0.6","","","","","0.7398299979","0.7906689898","0.8003015049","0.5475411796","","","","","","","","","","74","J","1","","","127","main_expt",""
"","bandit","207","625759","0.0-169.0-0.0","75480268","wem/bandit_party_2","A3AV8KOZW78IEW","either","8","409","","","","","","","1","0","0","0.8008571507","","0.4","0.8","0.2","0.6","","","","","0.7764866849","0.8008571507","0.8403113951","0.612647382","","","","","","","","","","74","J","1","","","128","main_expt",""
"","bandit","208","627775","0.0-170.0-0.0","75480268","wem/bandit_party_2","A3AV8KOZW78IEW","either","8","484","","","","","","","0","1","0","","0.7829297973","0.4","0.8","0.2","0.6","0.6435675963","0.7829297973","0.8826872071","0.7128970287","","","","","","","","","","","","","","74","J","1","","","129","main_expt",""
"","bandit","209","629699","0.0-171.0-0.0","75480268","wem/bandit_party_2","A3AV8KOZW78IEW","either","8","323","","","","","","","1","0","0","0.6898445721","","0.4","0.8","0.2","0.6","","","","","0.7030252038","0.6898445721","0.8641000085","0.7309911721","","","","","","","","","","74","J","1","","","130","main_expt",""
"","bandit","210","633688","0.0-172.0-0.0","75480268","wem/bandit_party_2","A3AV8KOZW78IEW","either","8","2418","","","","","","","0","0","1","0.5864867529","","0.4","0.8","0.2","0.6","","","","","0.6829232191","0.5864867529","0.8752037592","0.73180147","","","","","","","","","","74","J","1","","","131","main_expt",""
"","bandit","211","635729","0.0-173.0-0.0","75480268","wem/bandit_party_2","A3AV8KOZW78IEW","either","8","447","","","","","","","1","0","0","0.560122833","","0.4","0.8","0.2","0.6","","","","","0.7406452387","0.560122833","0.8279556795","0.8467134838","","","","","","","","","","74","J","1","","","132","main_expt",""
"","bandit","212","637698","0.0-174.0-0.0","75480268","wem/bandit_party_2","A3AV8KOZW78IEW","either","8","399","","","","","","","0","0","1","0.48439517","","0.4","0.8","0.2","0.6","","","","","0.6666234363","0.48439517","0.8194722428","0.8481264083","","","","","","","","","","74","J","1","","","133","main_expt",""
"","bandit","213","639816","0.0-175.0-0.0","75480268","wem/bandit_party_2","A3AV8KOZW78IEW","either","8","588","","","","","","","0","0","1","0.3919863126","","0.4","0.8","0.2","0.6","","","","","0.680542061","0.3919863126","0.8037084922","0.8771050955","","","","","","","","","","74","J","1","","","134","main_expt",""
"","bandit","214","641948","0.0-176.0-0.0","75480268","wem/bandit_party_2","A3AV8KOZW78IEW","either","8","530","","","","","","","1","0","0","0.5174750093","","0.4","0.8","0.2","0.6","","","","","0.7006187635","0.5174750093","0.8155916457","0.9103241533","","","","","","","","","","74","J","1","","","135","main_expt",""
"","bandit","215","644098","0.0-177.0-0.0","75480268","wem/bandit_party_2","A3AV8KOZW78IEW","either","8","617","","","","","","","0","0","1","","0.4264762493","0.4","0.8","0.2","0.6","0.6936815578","0.4264762493","0.8281957705","0.9126032517","","","","","","","","","","","","","","74","J","1","","","136","main_expt",""
"","bandit","216","646283","0.0-178.0-0.0","75480268","wem/bandit_party_2","A3AV8KOZW78IEW","either","8","657","","","","","","","0","1","0","","0.7055403129","0.4","0.8","0.2","0.6","0.6531428085","0.5351999402","0.7055403129","0.8983360858","","","","","","","","","","","","","","75","K","2","","","137","main_expt",""
"","bandit","217","648195","0.0-179.0-0.0","75480268","wem/bandit_party_2","A3AV8KOZW78IEW","either","8","382","","","","","","","0","0","1","","0.6884351598","0.4","0.8","0.2","0.6","0.6769758131","0.4758748922","0.6884351598","0.8851370462","","","","","","","","","","","","","","75","K","2","","","138","main_expt",""
"","bandit","218","650099","0.0-180.0-0.0","75480268","wem/bandit_party_2","A3AV8KOZW78IEW","either","8","373","","","","","","","0","1","0","","0.6090423031","0.4","0.8","0.2","0.6","0.7649589049","0.4039793023","0.6090423031","0.8662270416","","","","","","","","","","","","","","75","K","2","","","139","main_expt",""
"","bandit","219","652422","0.0-181.0-0.0","75480268","wem/bandit_party_2","A3AV8KOZW78IEW","either","8","779","","","","","","","0","0","1","","0.7000077187","0.4","0.8","0.2","0.6","0.7674202191","0.384774136","0.7000077187","0.8345767194","","","","","","","","","","","","","","75","K","2","","","140","main_expt",""
"","bandit","220","654358","0.0-182.0-0.0","75480268","wem/bandit_party_2","A3AV8KOZW78IEW","either","8","405","","","","","","","0","1","0","","0.6643185619","0.4","0.8","0.2","0.6","0.8575114448","0.327254859","0.6643185619","0.8783670964","","","","","","","","","","","","","","75","K","2","","","141","main_expt",""
"","bandit","221","656309","0.0-183.0-0.0","75480268","wem/bandit_party_2","A3AV8KOZW78IEW","either","8","419","","","","","","","0","1","0","","0.7079845674","0.4","0.8","0.2","0.6","0.8134430427","0.4536641492","0.7079845674","0.8895828315","","","","","","","","","","","","","","75","K","2","","","142","main_expt",""
"","bandit","222","658227","0.0-184.0-0.0","75480268","wem/bandit_party_2","A3AV8KOZW78IEW","either","8","384","","","","","","","0","0","1","","0.6624187643","0.4","0.8","0.2","0.6","0.8345505038","0.4348486293","0.6624187643","0.9053928798","","","","","","","","","","","","","","75","K","2","","","143","main_expt",""
"","bandit","223","660816","0.0-185.0-0.0","75480268","wem/bandit_party_2","A3AV8KOZW78IEW","either","8","1042","","","","","","","0","0","1","","0.6779247185","0.4","0.8","0.2","0.6","0.7482817554","0.4086594597","0.6779247185","0.9033088386","","","","","","","","","","","","","","75","K","2","","","144","main_expt",""
"","bandit","224","662736","0.0-186.0-0.0","75480268","wem/bandit_party_2","A3AV8KOZW78IEW","either","8","391","","","","","","","0","1","0","","0.7216102374","0.4","0.8","0.2","0.6","0.7400387939","0.4420772456","0.7216102374","0.8572864227","","","","","","","","","","","","","","75","K","2","","","145","main_expt",""
"","bandit","225","664835","0.0-187.0-0.0","75480268","wem/bandit_party_2","A3AV8KOZW78IEW","either","8","546","","","","","","","0","0","1","","0.7837267619","0.4","0.8","0.2","0.6","0.795971973","0.508741462","0.7837267619","0.8687508917","","","","","","","","","","","","","","75","K","2","","","146","main_expt",""
"","bandit","226","666917","0.0-188.0-0.0","75480268","wem/bandit_party_2","A3AV8KOZW78IEW","either","8","536","","","","","","","0","1","0","","0.7652264833","0.4","0.8","0.2","0.6","0.7503502301","0.4624398998","0.7652264833","0.8657621525","","","","","","","","","","","","","","75","K","2","","","147","main_expt",""
"","bandit","227","668996","0.0-189.0-0.0","75480268","wem/bandit_party_2","A3AV8KOZW78IEW","either","8","548","","","","","","","0","1","0","","0.7358716413","0.4","0.8","0.2","0.6","0.8200474043","0.4062589849","0.7358716413","0.8362891365","","","","","","","","","","","","","","75","K","2","","","148","main_expt",""
"","bandit","228","670919","0.0-190.0-0.0","75480268","wem/bandit_party_2","A3AV8KOZW78IEW","either","8","389","","","","","","","1","0","0","0.7129200786","","0.4","0.8","0.2","0.6","","","","","0.8509010271","0.4895331913","0.7129200786","0.8144386017","","","","","","","","","","75","K","2","","","149","main_expt",""
"","bandit","229","672842","0.0-191.0-0.0","75480268","wem/bandit_party_2","A3AV8KOZW78IEW","either","8","391","","","","","","","0","1","0","","0.705531668","0.4","0.8","0.2","0.6","0.8298908313","0.4704746919","0.705531668","0.6948055455","","","","","","","","","","","","","","75","K","2","","","150","main_expt",""
"","bandit","230","674837","0.0-192.0-0.0","75480268","wem/bandit_party_2","A3AV8KOZW78IEW","either","8","465","","","","","","","0","0","1","","0.5744604188","0.4","0.8","0.2","0.6","0.7362749002","0.4725745774","0.5744604188","0.6231991314","","","","","","","","","","","","","","75","K","2","","","151","main_expt",""
"","bandit","231","676806","0.0-193.0-0.0","75480268","wem/bandit_party_2","A3AV8KOZW78IEW","either","8","379","","","","","","","0","1","0","","0.5372669321","0.4","0.8","0.2","0.6","0.7601791643","0.4943906398","0.5372669321","0.7045057733","","","","","","","","","","","","","","75","K","2","","","152","main_expt",""
"","bandit","232","678717","0.0-194.0-0.0","75480268","wem/bandit_party_2","A3AV8KOZW78IEW","either","8","350","","","","","","","0","1","0","","0.5447545218","0.4","0.8","0.2","0.6","0.7590648118","0.4639524782","0.5447545218","0.5331338622","","","","","","","","","","","","","","75","K","2","","","153","main_expt",""
"","bandit","233","680430","0.0-195.0-0.0","75480268","wem/bandit_party_2","A3AV8KOZW78IEW","either","8","169","","","","","","","1","0","0","0.4191749193","","0.4","0.8","0.2","0.6","","","","","0.7805387907","0.3935792086","0.4191749193","0.5096720896","","","","","","","","","","75","K","2","","","154","main_expt",""
"","bandit","234","682303","0.0-196.0-0.0","75480268","wem/bandit_party_2","A3AV8KOZW78IEW","either","8","340","","","","","","","0","1","0","","0.4269770229","0.4","0.8","0.2","0.6","0.8450805748","0.4127348605","0.4269770229","0.4719011365","","","","","","","","","","","","","","75","K","2","","","155","main_expt",""
"","bandit","235","684439","0.0-197.0-0.0","75480268","wem/bandit_party_2","A3AV8KOZW78IEW","either","8","580","","","","","","","0","0","1","0.4589862704","","0.4","0.8","0.2","0.6","","","","","0.8513110265","0.3697675558","0.4589862704","0.5818713095","","","","","","","","","","75","K","2","","","156","main_expt",""
"","bandit","236","686510","0.0-198.0-0.0","75480268","wem/bandit_party_2","A3AV8KOZW78IEW","either","8","537","","","","","","","0","1","0","","0.5370818316","0.4","0.8","0.2","0.6","0.8226236001","0.3604398023","0.5370818316","0.5804022203","","","","","","","","","","","","","","75","K","2","","","157","main_expt",""
"","bandit","237","689179","0.0-199.0-0.0","75480268","wem/bandit_party_2","A3AV8KOZW78IEW","either","8","1134","","","","","","","0","0","1","","0.4757376888","0.4","0.8","0.2","0.6","0.8843141367","0.4061750625","0.4757376888","0.4773166223","","","","","","","","","","","","","","75","K","2","","","158","main_expt",""
"","bandit","238","691199","0.0-200.0-0.0","75480268","wem/bandit_party_2","A3AV8KOZW78IEW","either","8","487","","","","","","","0","0","1","","0.4887287223","0.4","0.8","0.2","0.6","0.8078798749","0.4696417586","0.4887287223","0.419048585","","","","","","","","","","","","","","75","K","2","","","159","main_expt",""
"","bandit","239","693042","0.0-201.0-0.0","75480268","wem/bandit_party_2","A3AV8KOZW78IEW","either","8","312","","","","","","","0","0","1","","0.4588489809","0.4","0.8","0.2","0.6","0.7689164465","0.4659569923","0.4588489809","0.4672574386","","","","","","","","","","","","","","75","K","2","","","160","main_expt",""
"","bandit","240","694979","0.0-202.0-0.0","75480268","wem/bandit_party_2","A3AV8KOZW78IEW","either","8","405","","","","","","","0","0","1","","0.4920004413","0.4","0.8","0.2","0.6","0.7863156869","0.3947207546","0.4920004413","0.5612985374","","","","","","","","","","","","","","75","K","2","","","161","main_expt",""
"","bandit","241","696703","0.0-203.0-0.0","75480268","wem/bandit_party_2","A3AV8KOZW78IEW","either","8","102","","","","","","","0","0","1","","0.5288680036","0.4","0.8","0.2","0.6","0.8098475403","0.2460097942","0.5389881207","0.5288680036","","","","","","","","","","","","","","76","L","3","","","162","main_expt",""
"","bandit","242","698681","0.0-204.0-0.0","75480268","wem/bandit_party_2","A3AV8KOZW78IEW","either","8","369","","","","","","","0","1","0","","0.6096883849","0.4","0.8","0.2","0.6","0.8222712862","0.3603606056","0.6040136001","0.6096883849","","","","","","","","","","","","","","76","L","3","","","163","main_expt",""
"","bandit","243","700693","0.0-205.0-0.0","75480268","wem/bandit_party_2","A3AV8KOZW78IEW","either","8","295","","","","","","","1","0","0","0.4868922288","","0.4","0.8","0.2","0.6","","","","","0.7876031225","0.2507209727","0.623756827","0.4868922288","","","","","","","","","","76","L","3","","","164","main_expt",""
"","bandit","244","702703","0.0-206.0-0.0","75480268","wem/bandit_party_2","A3AV8KOZW78IEW","either","8","448","","","","","","","0","0","1","0.4055552053","","0.4","0.8","0.2","0.6","","","","","0.7435052823","0.2162043423","0.6164515281","0.4055552053","","","","","","","","","","76","L","3","","","165","main_expt",""
"","bandit","245","704985","0.0-207.0-0.0","75480268","wem/bandit_party_2","A3AV8KOZW78IEW","either","8","750","","","","","","","1","0","0","0.4748236382","","0.4","0.8","0.2","0.6","","","","","0.6545739251","0.2573409732","0.4660222187","0.4748236382","","","","","","","","","","76","L","3","","","166","main_expt",""
"","bandit","246","708911","0.0-208.0-0.0","75480268","wem/bandit_party_2","A3AV8KOZW78IEW","either","8","2347","","","","","","","0","0","1","0.4725242185","","0.4","0.8","0.2","0.6","","","","","0.6645907447","0.4016088623","0.3336058786","0.4725242185","","","","","","","","","","76","L","3","","","167","main_expt",""
"","bandit","247","710774","0.0-209.0-0.0","75480268","wem/bandit_party_2","A3AV8KOZW78IEW","either","8","333","","","","","","","0","0","1","","0.4775208721","0.4","0.8","0.2","0.6","0.7243751722","0.5522858252","0.2887723434","0.4775208721","","","","","","","","","","","","","","76","L","3","","","168","main_expt",""
"","bandit","248","712702","0.0-210.0-0.0","75480268","wem/bandit_party_2","A3AV8KOZW78IEW","either","8","237","","","","","","","0","0","1","0.4682732781","","0.4","0.8","0.2","0.6","","","","","0.6453105543","0.5461138513","0.3357056981","0.4682732781","","","","","","","","","","76","L","3","","","169","main_expt",""
"","bandit","249","714414","0.0-211.0-0.0","75480268","wem/bandit_party_2","A3AV8KOZW78IEW","either","8","171","","","","","","","1","0","0","0.4246621539","","0.4","0.8","0.2","0.6","","","","","0.5334010147","0.4402798015","0.4179693295","0.4246621539","","","","","","","","","","76","L","3","","","170","main_expt",""
"","bandit","250","716341","0.0-212.0-0.0","75480268","wem/bandit_party_2","A3AV8KOZW78IEW","either","8","394","","","","","","","0","0","1","0.2843380906","","0.4","0.8","0.2","0.6","","","","","0.498122785","0.450294849","0.3050406521","0.2843380906","","","","","","","","","","76","L","3","","","171","main_expt",""
"","bandit","251","718217","0.0-213.0-0.0","75480268","wem/bandit_party_2","A3AV8KOZW78IEW","either","8","337","","","","","","","1","0","0","0.2668952485","","0.4","0.8","0.2","0.6","","","","","0.4356988635","0.6475755847","0.3364500029","0.2668952485","","","","","","","","","","76","L","3","","","172","main_expt",""
"","bandit","252","720094","0.0-214.0-0.0","75480268","wem/bandit_party_2","A3AV8KOZW78IEW","either","8","341","","","","","","","0","0","1","0.3802819164","","0.4","0.8","0.2","0.6","","","","","0.3964199688","0.6095255177","0.421339117","0.3802819164","","","","","","","","","","76","L","3","","","173","main_expt",""
"","bandit","253","721983","0.0-215.0-0.0","75480268","wem/bandit_party_2","A3AV8KOZW78IEW","either","8","309","","","","","","","0","0","1","0.4042455133","","0.4","0.8","0.2","0.6","","","","","0.3194345802","0.5003628493","0.4913704717","0.4042455133","","","","","","","","","","76","L","3","","","174","main_expt",""
"","bandit","254","725666","0.0-216.0-0.0","75480268","wem/bandit_party_2","A3AV8KOZW78IEW","either","8","2043","","","","","","","1","0","0","0.2865230234","","0.4","0.8","0.2","0.6","","","","","0.2865230234","0.5576212716","0.5882611891","0.4393989914","","","","","","","","","","72","H","0","img/none_selected.jpg","","175","main_expt",""
"","bandit","255","727487","0.0-217.0-0.0","75480268","wem/bandit_party_2","A3AV8KOZW78IEW","either","8","286","","","","","","","0","0","1","","0.3352692614","0.4","0.8","0.2","0.6","0.3352692614","0.6230679906","0.6313830356","0.4705173801","","","","","","","","","","","","","","72","H","0","img/none_selected.jpg","","176","main_expt",""
"","bandit","256","729364","0.0-218.0-0.0","75480268","wem/bandit_party_2","A3AV8KOZW78IEW","either","8","337","","","","","","","0","0","1","","0.3389264817","0.4","0.8","0.2","0.6","0.3389264817","0.6501784685","0.5531265137","0.4698597734","","","","","","","","","","","","","","72","H","0","img/none_selected.jpg","","177","main_expt",""
"","bandit","257","731177","0.0-219.0-0.0","75480268","wem/bandit_party_2","A3AV8KOZW78IEW","either","8","279","","","","","","","0","0","1","","0.3709673039","0.4","0.8","0.2","0.6","0.3709673039","0.6334155083","0.4621004187","0.3570804947","","","","","","","","","","","","","","72","H","0","img/none_selected.jpg","","178","main_expt",""
"","bandit","258","733046","0.0-220.0-0.0","75480268","wem/bandit_party_2","A3AV8KOZW78IEW","either","8","337","","","","","","","1","0","0","0.2940579202","","0.4","0.8","0.2","0.6","","","","","0.2940579202","0.7548338289","0.512884041","0.3441184995","","","","","","","","","","72","H","0","img/none_selected.jpg","","179","main_expt",""
"","bandit","259","735019","0.0-221.0-0.0","75480268","wem/bandit_party_2","A3AV8KOZW78IEW","either","8","440","","","","","","","0","0","1","","0.3218724025","0.4","0.8","0.2","0.6","0.3218724025","0.8074073351","0.506744284","0.3646136501","","","","","","","","","","","","","","72","H","0","img/none_selected.jpg","","180","main_expt",""
"","bandit","260","737503","0.0-222.0-0.0","75480268","wem/bandit_party_2","A3AV8KOZW78IEW","either","8","947","","","","","","","0","0","1","0.3633286182","","0.4","0.8","0.2","0.6","","","","","0.3633286182","0.780721516","0.4556494723","0.3777688814","","","","","","","","","","72","H","0","img/none_selected.jpg","","181","main_expt",""
"","bandit","261","739437","0.0-223.0-0.0","75480268","wem/bandit_party_2","A3AV8KOZW78IEW","either","8","391","","","","","","","1","0","0","0.3324048704","","0.4","0.8","0.2","0.6","","","","","0.3324048704","0.7647415088","0.4494525508","0.4578236703","","","","","","","","","","72","H","0","img/none_selected.jpg","","182","main_expt",""
"","bandit","262","741728","0.0-224.0-0.0","75480268","wem/bandit_party_2","A3AV8KOZW78IEW","either","8","640","","","","","","","0","0","1","","0.3092830871","0.4","0.8","0.2","0.6","0.3092830871","0.7349307529","0.5189143621","0.4244895098","","","","","","","","","","","","","","72","H","0","img/none_selected.jpg","","183","main_expt",""
"","bandit","263","743701","0.0-225.0-0.0","75480268","wem/bandit_party_2","A3AV8KOZW78IEW","either","8","286","","","","","","","1","0","0","0.8298088288","","0.4","0.8","0.2","0.6","","","","","0.3905692936","0.8298088288","0.5167606333","0.3566779322","","","","","","","","","","74","J","1","","","184","main_expt",""
"","bandit","264","745708","0.0-226.0-0.0","75480268","wem/bandit_party_2","A3AV8KOZW78IEW","either","8","355","","","","","","","1","0","0","0.7894193193","","0.4","0.8","0.2","0.6","","","","","0.4626192444","0.7894193193","0.5270237034","0.3737416658","","","","","","","","","","74","J","1","","","185","main_expt",""
"","bandit","265","747684","0.0-227.0-0.0","75480268","wem/bandit_party_2","A3AV8KOZW78IEW","either","8","314","","","","","","","1","0","0","0.7665022487","","0.4","0.8","0.2","0.6","","","","","0.6061762586","0.7665022487","0.5556036571","0.3120176694","","","","","","","","","","74","J","1","","","186","main_expt",""
"","bandit","266","749714","0.0-228.0-0.0","75480268","wem/bandit_party_2","A3AV8KOZW78IEW","either","8","393","","","","","","","0","1","0","","0.7394266891","0.4","0.8","0.2","0.6","0.530958695","0.7394266891","0.5865134094","0.4134691065","","","","","","","","","","","","","","74","J","1","","","187","main_expt",""
"","bandit","267","751758","0.0-229.0-0.0","75480268","wem/bandit_party_2","A3AV8KOZW78IEW","either","8","501","","","","","","","0","0","1","0.6567361442","","0.4","0.8","0.2","0.6","","","","","0.380024655","0.6567361442","0.5034866795","0.4637770407","","","","","","","","","","74","J","1","","","188","main_expt",""
"","bandit","268","753700","0.0-230.0-0.0","75480268","wem/bandit_party_2","A3AV8KOZW78IEW","either","8","357","","","","","","","0","0","1","","0.6572443956","0.4","0.8","0.2","0.6","0.4563575644","0.6572443956","0.5761715841","0.5739034088","","","","","","","","","","","","","","74","J","1","","","189","main_expt",""
"","bandit","269","755715","0.0-231.0-0.0","75480268","wem/bandit_party_2","A3AV8KOZW78IEW","either","8","409","","","","","","","1","0","0","0.6735764162","","0.4","0.8","0.2","0.6","","","","","0.4540853102","0.6735764162","0.5325489933","0.5859504021","","","","","","","","","","74","J","1","","","190","main_expt",""
"","bandit","270","757718","0.0-232.0-0.0","75480268","wem/bandit_party_2","A3AV8KOZW78IEW","either","8","337","","","","","","","0","0","1","0.5997518312","","0.4","0.8","0.2","0.6","","","","","0.4328006462","0.5997518312","0.5614919892","0.5325822721","","","","","","","","","","74","J","1","","","191","main_expt",""
"","bandit","271","759687","0.0-233.0-0.0","75480268","wem/bandit_party_2","A3AV8KOZW78IEW","either","8","387","","","","","","","1","0","0","0.6582178794","","0.4","0.8","0.2","0.6","","","","","0.4979354652","0.6582178794","0.5972832049","0.4622441745","","","","","","","","","","74","J","1","","","192","main_expt",""
"","bandit","272","761687","0.0-234.0-0.0","75480268","wem/bandit_party_2","A3AV8KOZW78IEW","either","8","385","","","","","","","0","0","1","","0.7246172867","0.4","0.8","0.2","0.6","0.4887187701","0.7246172867","0.6997951875","0.4765036663","","","","","","","","","","","","","","74","J","1","","","193","main_expt",""
"","bandit","273","763694","0.0-235.0-0.0","75480268","wem/bandit_party_2","A3AV8KOZW78IEW","either","8","320","","","","","","","0","1","0","","0.7721250451","0.4","0.8","0.2","0.6","0.4993882896","0.7721250451","0.7511051992","0.4504155567","","","","","","","","","","","","","","74","J","1","","","194","main_expt",""
"","bandit","274","765573","0.0-236.0-0.0","75480268","wem/bandit_party_2","A3AV8KOZW78IEW","either","8","342","","","","","","","1","0","0","0.8366496483","","0.4","0.8","0.2","0.6","","","","","0.5011331455","0.8366496483","0.8281457055","0.4354252764","","","","","","","","","","74","J","1","","","195","main_expt",""
"","bandit","275","767721","0.0-237.0-0.0","75480268","wem/bandit_party_2","A3AV8KOZW78IEW","either","8","576","","","","","","","1","0","0","0.8484646997","","0.4","0.8","0.2","0.6","","","","","0.4487960683","0.8484646997","0.8248544968","0.4170899215","","","","","","","","","","74","J","1","","","196","main_expt",""
"","bandit","276","770693","0.0-238.0-0.0","75480268","wem/bandit_party_2","A3AV8KOZW78IEW","either","8","1258","","","","","","","1","0","0","0.8734060335","","0.4","0.8","0.2","0.6","","","","","0.3975590019","0.8734060335","0.8532714289","0.4149059055","","","","","","","","","","74","J","1","","","197","main_expt",""
"","bandit","277","774274","0.0-239.0-0.0","75480268","wem/bandit_party_2","A3AV8KOZW78IEW","either","8","2035","","","","","","","1","0","0","0.8515360685","","0.4","0.8","0.2","0.6","","","","","0.4161601929","0.8515360685","0.7587337752","0.4737306044","","","","","","","","","","74","J","1","","","198","main_expt",""
"","bandit","278","776261","0.0-240.0-0.0","75480268","wem/bandit_party_2","A3AV8KOZW78IEW","either","8","457","","","","","","","1","0","0","0.8805923715","","0.4","0.8","0.2","0.6","","","","","0.4483979408","0.8805923715","0.8124408481","0.4541760911","","","","","","","","","","74","J","1","","","199","main_expt",""
"","bandit","279","778451","0.0-241.0-0.0","75480268","wem/bandit_party_2","A3AV8KOZW78IEW","either","8","646","","","","","","","0","1","0","","0.9645818821","0.4","0.8","0.2","0.6","0.5303380975","0.9645818821","0.7935778268","0.3964714959","","","","","","","","","","","","","","74","J","1","","","200","main_expt",""
"","bandit","280","780027","0.0-242.0-0.0","75480268","wem/bandit_party_2","A3AV8KOZW78IEW","either","8","38","","","","","","","0","1","0","","0.9689478708","0.4","0.8","0.2","0.6","0.4014045657","0.9689478708","0.736942723","0.3815447649","","","","","","","","","","","","","","74","J","1","","","201","main_expt",""
"","bandit","281","782320","0.0-243.0-0.0","75480268","wem/bandit_party_2","A3AV8KOZW78IEW","either","8","755","","","","","","","1","0","0","0.9678291885","","0.4","0.8","0.2","0.6","","","","","0.5115169607","0.9678291885","0.7001951276","0.3726367513","","","","","","","","","","74","J","1","","","202","main_expt",""
"","bandit","282","784859","0.0-244.0-0.0","75480268","wem/bandit_party_2","A3AV8KOZW78IEW","either","8","1004","","","","","","","0","1","0","","0.9633244117","0.4","0.8","0.2","0.6","0.5026191452","0.9633244117","0.7209300446","0.3062653216","","","","","","","","","","","","","","74","J","1","","","203","main_expt",""
"","bandit","283","786912","0.0-245.0-0.0","75480268","wem/bandit_party_2","A3AV8KOZW78IEW","either","8","350","","","","","","","0","1","0","","0.9730812582","0.4","0.8","0.2","0.6","0.4736298566","0.9730812582","0.8574132932","0.2848501254","","","","","","","","","","","","","","74","J","1","","","204","main_expt",""
"","bandit","284","789728","0.0-246.0-0.0","75480268","wem/bandit_party_2","A3AV8KOZW78IEW","either","8","1282","","","","","","","1","0","0","0.9521206422","","0.4","0.8","0.2","0.6","","","","","0.6121858428","0.9521206422","0.9038760074","0.3457586416","","","","","","","","","","74","J","1","","","205","main_expt",""
"","bandit","285","791674","0.0-247.0-0.0","75480268","wem/bandit_party_2","A3AV8KOZW78IEW","either","8","353","","","","","","","1","0","0","0.9614764056","","0.4","0.8","0.2","0.6","","","","","0.6377028942","0.9614764056","0.9273356803","0.4609097875","","","","","","","","","","74","J","1","","","206","main_expt",""
"","bandit","286","794106","0.0-248.0-0.0","75480268","wem/bandit_party_2","A3AV8KOZW78IEW","either","8","899","","","","","","","1","0","0","0.9625830716","","0.4","0.8","0.2","0.6","","","","","0.5700483165","0.9625830716","0.9502037039","0.4980316736","","","","","","","","","","74","J","1","","","207","main_expt",""
"","bandit","287","795971","0.0-249.0-0.0","75480268","wem/bandit_party_2","A3AV8KOZW78IEW","either","8","331","","","","","","","1","0","0","0.9359306517","","0.4","0.8","0.2","0.6","","","","","0.624428721","0.9359306517","0.944094639","0.4537691537","","","","","","","","","","74","J","1","","","208","main_expt",""
"","bandit","288","798267","0.0-250.0-0.0","75480268","wem/bandit_party_2","A3AV8KOZW78IEW","either","8","760","","","","","","","1","0","0","0.9632917203","","0.4","0.8","0.2","0.6","","","","","0.4861871301","0.9632917203","0.9070839441","0.4475842875","","","","","","","","","","74","J","1","","","209","main_expt",""
"","bandit","289","800133","0.0-251.0-0.0","75480268","wem/bandit_party_2","A3AV8KOZW78IEW","either","8","331","","","","","","","1","0","0","0.9633226214","","0.4","0.8","0.2","0.6","","","","","0.3956361612","0.9633226214","0.8960653589","0.4803454055","","","","","","","","","","74","J","1","","","210","main_expt",""
"","bandit","290","801957","0.0-252.0-0.0","75480268","wem/bandit_party_2","A3AV8KOZW78IEW","either","8","270","","","","","","","1","0","0","0.9719781217","","0.4","0.8","0.2","0.6","","","","","0.3599204452","0.9719781217","0.9155455821","0.4126443349","","","","","","","","","","74","J","1","","","211","main_expt",""
"","bandit","291","803958","0.0-253.0-0.0","75480268","wem/bandit_party_2","A3AV8KOZW78IEW","either","8","258","","","","","","","1","0","0","0.9700781686","","0.4","0.8","0.2","0.6","","","","","0.3349000901","0.9700781686","0.9087954588","0.3384802849","","","","","","","","","","74","J","1","","","212","main_expt",""
"","bandit","292","805860","0.0-254.0-0.0","75480268","wem/bandit_party_2","A3AV8KOZW78IEW","either","8","327","","","","","","","0","1","0","","0.971165811","0.4","0.8","0.2","0.6","0.3183344176","0.971165811","0.8528540962","0.3039242722","","","","","","","","","","","","","","74","J","1","","","213","main_expt",""
"","bandit","293","807820","0.0-255.0-0.0","75480268","wem/bandit_party_2","A3AV8KOZW78IEW","either","8","418","","","","","","","1","0","0","0.9627117","","0.4","0.8","0.2","0.6","","","","","0.2390758011","0.9627117","0.8506041988","0.4541530846","","","","","","","","","","74","J","1","","","214","main_expt",""
"","bandit","294","809672","0.0-256.0-0.0","75480268","wem/bandit_party_2","A3AV8KOZW78IEW","either","8","309","","","","","","","1","0","0","0.9552130497","","0.4","0.8","0.2","0.6","","","","","0.1997060473","0.9552130497","0.8001829978","0.5101749692","","","","","","","","","","74","J","1","","","215","main_expt",""
"","bandit","295","811710","0.0-257.0-0.0","75480268","wem/bandit_party_2","A3AV8KOZW78IEW","either","8","384","","","","","","","0","1","0","","0.9220350188","0.4","0.8","0.2","0.6","0.2326539104","0.9220350188","0.733614842","0.5580520347","","","","","","","","","","","","","","74","J","1","","","216","main_expt",""
"","bandit","296","813703","0.0-258.0-0.0","75480268","wem/bandit_party_2","A3AV8KOZW78IEW","either","8","313","","","","","","","1","0","0","0.8736667029","","0.4","0.8","0.2","0.6","","","","","0.2319826337","0.8736667029","0.7479737912","0.4368451062","","","","","","","","","","74","J","1","","","217","main_expt",""
"","bandit","297","815689","0.0-259.0-0.0","75480268","wem/bandit_party_2","A3AV8KOZW78IEW","either","8","339","","","","","","","1","0","0","0.7602784417","","0.4","0.8","0.2","0.6","","","","","0.3143382807","0.7602784417","0.7713398237","0.3963441813","","","","","","","","","","74","J","1","","","218","main_expt",""
"","bandit","298","817733","0.0-260.0-0.0","75480268","wem/bandit_party_2","A3AV8KOZW78IEW","either","8","502","","","","","","","1","0","0","0.7643050859","","0.4","0.8","0.2","0.6","","","","","0.3304972923","0.7643050859","0.8077055691","0.4809426617","","","","","","","","","","74","J","1","","","219","main_expt",""
"","bandit","299","819700","0.0-261.0-0.0","75480268","wem/bandit_party_2","A3AV8KOZW78IEW","either","8","435","","","","","","","1","0","0","0.7793587236","","0.4","0.8","0.2","0.6","","","","","0.2866104843","0.7793587236","0.7778114837","0.397759556","","","","","","","","","","74","J","1","","","220","main_expt",""
"","bandit","300","821817","0.0-262.0-0.0","75480268","wem/bandit_party_2","A3AV8KOZW78IEW","either","8","579","","","","","","","1","0","0","0.82086311","","0.4","0.8","0.2","0.6","","","","","0.3602561646","0.82086311","0.7214198583","0.4087677593","","","","","","","","","","74","J","1","","","221","main_expt",""
"","bandit","301","823756","0.0-263.0-0.0","75480268","wem/bandit_party_2","A3AV8KOZW78IEW","either","8","404","","","","","","","1","0","0","0.8543662658","","0.4","0.8","0.2","0.6","","","","","0.3228749062","0.8543662658","0.8091526303","0.4561280915","","","","","","","","","","74","J","1","","","222","main_expt",""
"","bandit","302","825638","0.0-264.0-0.0","75480268","wem/bandit_party_2","A3AV8KOZW78IEW","either","8","329","","","","","","","1","0","0","0.8599459829","","0.4","0.8","0.2","0.6","","","","","0.2549485676","0.8599459829","0.8240838469","0.4419858618","","","","","","","","","","74","J","1","","","223","main_expt",""
"","bandit","303","827690","0.0-265.0-0.0","75480268","wem/bandit_party_2","A3AV8KOZW78IEW","either","8","431","","","","","","","1","0","0","0.8747991669","","0.4","0.8","0.2","0.6","","","","","0.2389333491","0.8747991669","0.7670685714","0.494409337","","","","","","","","","","74","J","1","","","224","main_expt",""
"","bandit","304","829681","0.0-266.0-0.0","75480268","wem/bandit_party_2","A3AV8KOZW78IEW","either","8","364","","","","","","","0","1","0","","0.7910409491","0.4","0.8","0.2","0.6","0.1517307125","0.7910409491","0.8775689376","0.3713348049","","","","","","","","","","","","","","74","J","1","","","225","main_expt",""
"","bandit","305","831679","0.0-267.0-0.0","75480268","wem/bandit_party_2","A3AV8KOZW78IEW","either","8","341","","","","","","","1","0","0","0.7212928749","","0.4","0.8","0.2","0.6","","","","","0.1002450003","0.7212928749","0.8846504348","0.4013452417","","","","","","","","","","74","J","1","","","226","main_expt",""
"","bandit","306","833682","0.0-268.0-0.0","75480268","wem/bandit_party_2","A3AV8KOZW78IEW","either","8","450","","","","","","","0","0","1","0.7090989562","","0.4","0.8","0.2","0.6","","","","","0.1049945928","0.7090989562","0.851087938","0.393451628","","","","","","","","","","74","J","1","","","227","main_expt",""
"","bandit","307","835751","0.0-269.0-0.0","75480268","wem/bandit_party_2","A3AV8KOZW78IEW","either","8","531","","","","","","","1","0","0","0.6606736223","","0.4","0.8","0.2","0.6","","","","","0.03915988122","0.6606736223","0.9074720337","0.4175844788","","","","","","","","","","74","J","1","","","228","main_expt",""
"","bandit","308","837685","0.0-270.0-0.0","75480268","wem/bandit_party_2","A3AV8KOZW78IEW","either","8","380","","","","","","","0","1","0","","0.6893924153","0.4","0.8","0.2","0.6","0.03767516843","0.6893924153","0.872332114","0.408368909","","","","","","","","","","","","","","74","J","1","","","229","main_expt",""
"","bandit","309","839710","0.0-271.0-0.0","75480268","wem/bandit_party_2","A3AV8KOZW78IEW","either","8","454","","","","","","","0","0","1","","0.6067604319","0.4","0.8","0.2","0.6","0.05804790214","0.6067604319","0.7967167456","0.4777699032","","","","","","","","","","","","","","74","J","1","","","230","main_expt",""
"","bandit","310","841805","0.0-272.0-0.0","75480268","wem/bandit_party_2","A3AV8KOZW78IEW","either","8","544","","","","","","","1","0","0","0.5037419277","","0.4","0.8","0.2","0.6","","","","","0.04963095007","0.5037419277","0.7760618079","0.4935442242","","","","","","","","","","74","J","1","","","231","main_expt",""
"","bandit","311","843729","0.0-273.0-0.0","75480268","wem/bandit_party_2","A3AV8KOZW78IEW","either","8","393","","","","","","","1","0","0","0.4339479185","","0.4","0.8","0.2","0.6","","","","","0.03759782928","0.4339479185","0.7765467853","0.4889590317","","","","","","","","","","74","J","1","","","232","main_expt",""
"","bandit","312","845855","0.0-274.0-0.0","75480268","wem/bandit_party_2","A3AV8KOZW78IEW","either","8","432","","","","","","","0","0","1","","0.4525546635","0.4","0.8","0.2","0.6","0.03147013274","0.4525546635","0.7895219362","0.5212294662","","","","","","","","","","","","","","74","J","1","","","233","main_expt",""
"","bandit","313","847750","0.0-275.0-0.0","75480268","wem/bandit_party_2","A3AV8KOZW78IEW","either","8","344","","","","","","","1","0","0","0.3680080929","","0.4","0.8","0.2","0.6","","","","","0.03547440544","0.3680080929","0.7491899586","0.4420617392","","","","","","","","","","74","J","1","","","234","main_expt",""
"","bandit","314","849859","0.0-276.0-0.0","75480268","wem/bandit_party_2","A3AV8KOZW78IEW","either","8","513","","","","","","","0","0","1","0.3416373547","","0.4","0.8","0.2","0.6","","","","","0.04486782706","0.3416373547","0.7397351474","0.4816955248","","","","","","","","","","74","J","1","","","235","main_expt",""
"","bandit","315","851938","0.0-277.0-0.0","75480268","wem/bandit_party_2","A3AV8KOZW78IEW","either","8","336","","","","","","","0","1","0","","0.3722877153","0.4","0.8","0.2","0.6","0.03122339122","0.3722877153","0.6587673302","0.3028121716","","","","","","","","","","","","","","74","J","1","","","236","main_expt",""
"","bandit","316","853695","0.0-278.0-0.0","75480268","wem/bandit_party_2","A3AV8KOZW78IEW","either","8","202","","","","","","","0","0","1","0.3081002542","","0.4","0.8","0.2","0.6","","","","","0.04191117605","0.3081002542","0.7534934878","0.3802502189","","","","","","","","","","74","J","1","","","237","main_expt",""
"","bandit","317","855802","0.0-279.0-0.0","75480268","wem/bandit_party_2","A3AV8KOZW78IEW","either","8","546","","","","","","","0","0","1","0.2546656634","","0.4","0.8","0.2","0.6","","","","","0.06367740527","0.2546656634","0.8023031038","0.4160754302","","","","","","","","","","74","J","1","","","238","main_expt",""
