"consent","trial_type","trial_index","time_elapsed","internal_node_id","subjID","study","MID","cond","drift","rt","responses","button_pressed","key_press","like","value","connected","gems","bombs","no_reward","GemPrChosen","BombPrChosen","GainOverPainPr_0","GainOverPainPr_1","GainOverPainPr_2","GainOverPainPr_3","LosePr_0","LosePr_1","LosePr_2","LosePr_3","WinPr_0","WinPr_1","WinPr_2","WinPr_3","Q0","Q1","Q2","gender","age","ethnicity","label","expt_phase","target","respCharCode","respKey","respChoiceNum","respChoice","practice","trial_counter","trial_label","Q0_index"
"GDM/GDM_behavioral_consent_30min_online.html","consent","0","9969","0.0-0.0","75949891","wem/bandit_party_2","A2XP8RZM8ERTY","either","1","","","","","","","","","","","","","","","","","","","","","","","","","","","","","","","","","","","","","","","","",""
"","survey-text","1","15148","0.0-1.0","75949891","wem/bandit_party_2","A2XP8RZM8ERTY","either","1","4172","{""Q0"":""A2XP8RZM8ERTY""}","","","","","","","","","","","","","","","","","","","","","","","","","","","","","","","","","","","","","","",""
"","button-response","2","18317","0.0-2.0","75949891","wem/bandit_party_2","A2XP8RZM8ERTY","either","1","2165","","0","","","","","","","","","","","","","","","","","","","","","","","","","","","","","","","","","","","","","",""
"","text-replacement","3","33965","0.0-3.0","75949891","wem/bandit_party_2","A2XP8RZM8ERTY","either","1","14644","","","32","","","","","","","","","","","","","","","","","","","","","","","","","","","","","","","","","","","","",""
"","text-replacement","4","42044","0.0-4.0","75949891","wem/bandit_party_2","A2XP8RZM8ERTY","either","1","8077","","","32","","","","","","","","","","","","","","","","","","","","","","","","","","","","","","","","","","","","",""
"","identification","5","52374","0.0-6.0-0.0","75949891","wem/bandit_party_2","A2XP8RZM8ERTY","either","1","10321","","","","1","1","0","","","","","","","","","","","","","","","","","","","","","","","","pre","identification_pre","the Democratic Party","","","","","","","",""
"","identification","6","59732","0.0-6.0-1.0","75949891","wem/bandit_party_2","A2XP8RZM8ERTY","either","1","6350","","","","3","4","3","","","","","","","","","","","","","","","","","","","","","","","","pre","identification_pre","the Republican Party","","","","","","","",""
"","text-replacement","7","72870","0.0-7.0","75949891","wem/bandit_party_2","A2XP8RZM8ERTY","either","1","12133","","","32","","","","","","","","","","","","","","","","","","","","","","","","","","","","","","","","","","","","",""
"","text-replacement","8","78990","0.0-8.0","75949891","wem/bandit_party_2","A2XP8RZM8ERTY","either","1","6116","","","32","","","","","","","","","","","","","","","","","","","","","","","","","","","","","","","","","","","","",""
"","text-replacement","9","89182","0.0-9.0","75949891","wem/bandit_party_2","A2XP8RZM8ERTY","either","1","10190","","","32","","","","","","","","","","","","","","","","","","","","","","","","","","","","","","","","","","","","",""
"","text-replacement","10","94982","0.0-10.0","75949891","wem/bandit_party_2","A2XP8RZM8ERTY","either","1","5798","","","32","","","","","","","","","","","","","","","","","","","","","","","","","","","","","","","","","","","","",""
"","text-replacement","11","100638","0.0-11.0","75949891","wem/bandit_party_2","A2XP8RZM8ERTY","either","1","5654","","","32","","","","","","","","","","","","","","","","","","","","","","","","","","","","","","","","","","","","",""
"","bandit","12","105854","0.0-12.0-0.0","75949891","wem/bandit_party_2","A2XP8RZM8ERTY","either","1","3709","","","","","","","0","0","1","0","0","","","","","0","","","","0","","","","","","","","","","","","","74","J","0","img/none_selected_demo.jpg","true","0","",""
"","bandit","13","108653","0.0-13.0-0.0","75949891","wem/bandit_party_2","A2XP8RZM8ERTY","either","1","1293","","","","","","","0","0","1","0","0","","","","","0","","","","0","","","","","","","","","","","","","75","K","0","img/none_selected_demo.jpg","true","0","",""
"","text-replacement","14","115275","0.0-14.0","75949891","wem/bandit_party_2","A2XP8RZM8ERTY","either","1","6620","","","32","","","","","","","","","","","","","","","","","","","","","","","","","","","","","","","","","","","","",""
"","text-replacement","15","120853","0.0-15.0","75949891","wem/bandit_party_2","A2XP8RZM8ERTY","either","1","5574","","","32","","","","","","","","","","","","","","","","","","","","","","","","","","","","","","","","","","","","",""
"","text-replacement","16","130106","0.0-16.0","75949891","wem/bandit_party_2","A2XP8RZM8ERTY","either","1","9251","","","32","","","","","","","","","","","","","","","","","","","","","","","","","","","","","","","","","","","","",""
"","text-replacement","17","137637","0.0-17.0","75949891","wem/bandit_party_2","A2XP8RZM8ERTY","either","1","7530","","","32","","","","","","","","","","","","","","","","","","","","","","","","","","","","","","","","","","","","",""
"","bandit","18","140357","0.0-18.0-0.0","75949891","wem/bandit_party_2","A2XP8RZM8ERTY","either","1","1213","","","","","","","0","0","1","","0.2","0.5","0.5","","","0.8","0.2","","","","","","","","","","","","","","","","75","K","1","","true","0","80_20_practice",""
"","bandit","19","143729","0.0-18.0-1.0","75949891","wem/bandit_party_2","A2XP8RZM8ERTY","either","1","1868","","","","","","","0","0","1","0.2","","0.5","0.5","","","","","","","0.8","0.2","","","","","","","","","","","","75","K","1","","true","0","80_20_practice",""
"","bandit","20","146350","0.0-18.0-2.0","75949891","wem/bandit_party_2","A2XP8RZM8ERTY","either","1","1111","","","","","","","0","0","1","","0.8","0.5","0.5","","","0.8","0.2","","","","","","","","","","","","","","","","74","J","0","img/none_selected_demo.jpg","true","0","80_20_practice",""
"","bandit","21","150098","0.0-18.0-3.0","75949891","wem/bandit_party_2","A2XP8RZM8ERTY","either","1","2241","","","","","","","0","0","1","","0.2","0.5","0.5","","","0.8","0.2","","","","","","","","","","","","","","","","75","K","1","","true","0","80_20_practice",""
"","bandit","22","151993","0.0-18.0-4.0","75949891","wem/bandit_party_2","A2XP8RZM8ERTY","either","1","390","","","","","","","0","0","1","","0.2","0.5","0.5","","","0.8","0.2","","","","","","","","","","","","","","","","75","K","1","","true","0","80_20_practice",""
"","bandit","23","153841","0.0-18.0-5.0","75949891","wem/bandit_party_2","A2XP8RZM8ERTY","either","1","342","","","","","","","0","0","1","0.2","","0.5","0.5","","","","","","","0.8","0.2","","","","","","","","","","","","75","K","1","","true","0","80_20_practice",""
"","bandit","24","155713","0.0-18.0-6.0","75949891","wem/bandit_party_2","A2XP8RZM8ERTY","either","1","366","","","","","","","0","0","1","0.2","","0.5","0.5","","","","","","","0.8","0.2","","","","","","","","","","","","75","K","1","","true","0","80_20_practice",""
"","bandit","25","157561","0.0-18.0-7.0","75949891","wem/bandit_party_2","A2XP8RZM8ERTY","either","1","342","","","","","","","0","1","0","","0.8","0.5","0.5","","","0.8","0.2","","","","","","","","","","","","","","","","74","J","0","img/none_selected_demo.jpg","true","0","80_20_practice",""
"","bandit","26","159937","0.0-18.0-8.0","75949891","wem/bandit_party_2","A2XP8RZM8ERTY","either","1","871","","","","","","","0","0","1","0.2","","0.5","0.5","","","","","","","0.8","0.2","","","","","","","","","","","","75","K","1","","true","0","80_20_practice",""
"","bandit","27","162044","0.0-18.0-9.0","75949891","wem/bandit_party_2","A2XP8RZM8ERTY","either","1","598","","","","","","","1","0","0","0.8","","0.5","0.5","","","","","","","0.8","0.2","","","","","","","","","","","","74","J","0","img/none_selected_demo.jpg","true","0","80_20_practice",""
"","bandit","28","163930","0.0-18.0-10.0","75949891","wem/bandit_party_2","A2XP8RZM8ERTY","either","1","379","","","","","","","1","0","0","0.8","","0.5","0.5","","","","","","","0.8","0.2","","","","","","","","","","","","74","J","0","img/none_selected_demo.jpg","true","0","80_20_practice",""
"","bandit","29","165793","0.0-18.0-11.0","75949891","wem/bandit_party_2","A2XP8RZM8ERTY","either","1","358","","","","","","","1","0","0","0.8","","0.5","0.5","","","","","","","0.8","0.2","","","","","","","","","","","","74","J","0","img/none_selected_demo.jpg","true","0","80_20_practice",""
"","bandit","30","167641","0.0-18.0-12.0","75949891","wem/bandit_party_2","A2XP8RZM8ERTY","either","1","343","","","","","","","0","1","0","","0.8","0.5","0.5","","","0.8","0.2","","","","","","","","","","","","","","","","74","J","0","img/none_selected_demo.jpg","true","0","80_20_practice",""
"","bandit","31","170833","0.0-18.0-13.0","75949891","wem/bandit_party_2","A2XP8RZM8ERTY","either","1","1687","","","","","","","0","1","0","","0.8","0.5","0.5","","","0.8","0.2","","","","","","","","","","","","","","","","74","J","0","img/none_selected_demo.jpg","true","0","80_20_practice",""
"","bandit","32","172785","0.0-18.0-14.0","75949891","wem/bandit_party_2","A2XP8RZM8ERTY","either","1","447","","","","","","","0","0","1","0.8","","0.5","0.5","","","","","","","0.8","0.2","","","","","","","","","","","","74","J","0","img/none_selected_demo.jpg","true","0","80_20_practice",""
"","bandit","33","174809","0.0-18.0-15.0","75949891","wem/bandit_party_2","A2XP8RZM8ERTY","either","1","519","","","","","","","1","0","0","0.2","","0.5","0.5","","","","","","","0.8","0.2","","","","","","","","","","","","75","K","1","","true","0","80_20_practice",""
"","bandit","34","176732","0.0-18.0-16.0","75949891","wem/bandit_party_2","A2XP8RZM8ERTY","either","1","417","","","","","","","0","0","1","0.2","","0.5","0.5","","","","","","","0.8","0.2","","","","","","","","","","","","75","K","1","","true","0","80_20_practice",""
"","bandit","35","178737","0.0-18.0-17.0","75949891","wem/bandit_party_2","A2XP8RZM8ERTY","either","1","498","","","","","","","0","0","1","","0.2","0.5","0.5","","","0.8","0.2","","","","","","","","","","","","","","","","75","K","1","","true","0","80_20_practice",""
"","bandit","36","180592","0.0-18.0-18.0","75949891","wem/bandit_party_2","A2XP8RZM8ERTY","either","1","350","","","","","","","1","0","0","0.8","","0.5","0.5","","","","","","","0.8","0.2","","","","","","","","","","","","74","J","0","img/none_selected_demo.jpg","true","0","80_20_practice",""
"","bandit","37","182607","0.0-18.0-19.0","75949891","wem/bandit_party_2","A2XP8RZM8ERTY","either","1","510","","","","","","","0","1","0","","0.8","0.5","0.5","","","0.8","0.2","","","","","","","","","","","","","","","","74","J","0","img/none_selected_demo.jpg","true","0","80_20_practice",""
"","text-replacement","38","188201","0.0-19.0","75949891","wem/bandit_party_2","A2XP8RZM8ERTY","either","1","5592","","","32","","","","","","","","","","","","","","","","","","","","","","","","","","","","","","","","","","","","",""
"","bandit","39","191396","0.0-20.0-0.0","75949891","wem/bandit_party_2","A2XP8RZM8ERTY","either","1","1688","","","","","","","1","0","0","1","0","","","","","0","1","","","1","0","","","","","","","","","","","","74","J","0","img/none_selected_demo.jpg","true","0","",""
"","text-replacement","40","199184","0.0-21.0","75949891","wem/bandit_party_2","A2XP8RZM8ERTY","either","1","7787","","","32","","","","","","","","","","","","","","","","","","","","","","","","","","","","","","","","","","","","",""
"","text-replacement","41","203152","0.0-22.0","75949891","wem/bandit_party_2","A2XP8RZM8ERTY","either","1","3967","","","32","","","","","","","","","","","","","","","","","","","","","","","","","","","","","","","","","","","","",""
"","text-replacement","42","207080","0.0-23.0","75949891","wem/bandit_party_2","A2XP8RZM8ERTY","either","1","3927","","","32","","","","","","","","","","","","","","","","","","","","","","","","","","","","","","","","","","","","",""
"","text-replacement","43","210286","0.0-24.0","75949891","wem/bandit_party_2","A2XP8RZM8ERTY","either","1","3204","","","32","","","","","","","","","","","","","","","","","","","","","","","","","","","","","","","","","","","","",""
"","text-replacement","44","218378","0.0-25.0","75949891","wem/bandit_party_2","A2XP8RZM8ERTY","either","1","8091","","","32","","","","","","","","","","","","","","","","","","","","","","","","","","","","","","","","","","","","",""
"","text-replacement","45","221764","0.0-26.0","75949891","wem/bandit_party_2","A2XP8RZM8ERTY","either","1","3385","","","32","","","","","","","","","","","","","","","","","","","","","","","","","","","","","","","","","","","","",""
"","text-replacement","46","224298","0.0-27.0","75949891","wem/bandit_party_2","A2XP8RZM8ERTY","either","1","2533","","","32","","","","","","","","","","","","","","","","","","","","","","","","","","","","","","","","","","","","",""
"","text-replacement","47","227410","0.0-28.0","75949891","wem/bandit_party_2","A2XP8RZM8ERTY","either","1","3110","","","32","","","","","","","","","","","","","","","","","","","","","","","","","","","","","","","","","","","","",""
"","text-replacement","48","232122","0.0-29.0","75949891","wem/bandit_party_2","A2XP8RZM8ERTY","either","1","4710","","","32","","","","","","","","","","","","","","","","","","","","","","","","","","","","","","","","","","","","",""
"","text-replacement","49","234594","0.0-30.0","75949891","wem/bandit_party_2","A2XP8RZM8ERTY","either","1","2470","","","32","","","","","","","","","","","","","","","","","","","","","","","","","","","","","","","","","","","","",""
"","text-replacement","50","238033","0.0-31.0","75949891","wem/bandit_party_2","A2XP8RZM8ERTY","either","1","3438","","","32","","","","","","","","","","","","","","","","","","","","","","","","","","","","","","","","","","","","",""
"","bandit","51","240249","0.0-32.0-0.0","75949891","wem/bandit_party_2","A2XP8RZM8ERTY","either","1","710","","","","","","","0","0","1","","0.2","0.5","0.5","0.5","0.5","0.8","0.2","0.6","0.2","","","","","","","","","","","","","","74","J","1","","true","0","full_practice",""
"","bandit","52","242625","0.0-32.0-1.0","75949891","wem/bandit_party_2","A2XP8RZM8ERTY","either","1","870","","","","","","","1","0","0","0.8","","0.5","0.5","0.5","0.5","","","","","0.8","0.2","0.6","0.2","","","","","","","","","","72","H","0","img/none_selected.jpg","true","0","full_practice",""
"","bandit","53","245025","0.0-32.0-2.0","75949891","wem/bandit_party_2","A2XP8RZM8ERTY","either","1","894","","","","","","","0","0","1","0.8","","0.5","0.5","0.5","0.5","","","","","0.8","0.2","0.6","0.2","","","","","","","","","","72","H","0","img/none_selected.jpg","true","0","full_practice",""
"","bandit","54","246873","0.0-32.0-3.0","75949891","wem/bandit_party_2","A2XP8RZM8ERTY","either","1","342","","","","","","","0","1","0","","0.2","0.5","0.5","0.5","0.5","0.8","0.2","0.6","0.2","","","","","","","","","","","","","","76","L","3","","true","0","full_practice",""
"","bandit","55","248785","0.0-32.0-4.0","75949891","wem/bandit_party_2","A2XP8RZM8ERTY","either","1","404","","","","","","","0","0","1","","0.2","0.5","0.5","0.5","0.5","0.8","0.2","0.6","0.2","","","","","","","","","","","","","","76","L","3","","true","0","full_practice",""
"","bandit","56","250769","0.0-32.0-5.0","75949891","wem/bandit_party_2","A2XP8RZM8ERTY","either","1","477","","","","","","","1","0","0","0.2","","0.5","0.5","0.5","0.5","","","","","0.8","0.2","0.6","0.2","","","","","","","","","","74","J","1","","true","0","full_practice",""
"","bandit","57","252640","0.0-32.0-6.0","75949891","wem/bandit_party_2","A2XP8RZM8ERTY","either","1","365","","","","","","","1","0","0","0.8","","0.5","0.5","0.5","0.5","","","","","0.8","0.2","0.6","0.2","","","","","","","","","","72","H","0","img/none_selected.jpg","true","0","full_practice",""
"","bandit","58","254456","0.0-32.0-7.0","75949891","wem/bandit_party_2","A2XP8RZM8ERTY","either","1","310","","","","","","","0","0","1","","0.2","0.5","0.5","0.5","0.5","0.8","0.2","0.6","0.2","","","","","","","","","","","","","","76","L","3","","true","0","full_practice",""
"","bandit","59","256472","0.0-32.0-8.0","75949891","wem/bandit_party_2","A2XP8RZM8ERTY","either","1","510","","","","","","","0","0","1","0.2","","0.5","0.5","0.5","0.5","","","","","0.8","0.2","0.6","0.2","","","","","","","","","","74","J","1","","true","0","full_practice",""
"","bandit","60","258024","0.0-32.0-9.0","75949891","wem/bandit_party_2","A2XP8RZM8ERTY","either","1","46","","","","","","","0","0","1","","0.8","0.5","0.5","0.5","0.5","0.8","0.2","0.6","0.2","","","","","","","","","","","","","","72","H","0","img/none_selected.jpg","true","0","full_practice",""
"","bandit","61","259576","0.0-32.0-10.0","75949891","wem/bandit_party_2","A2XP8RZM8ERTY","either","1","46","","","","","","","0","0","1","","0.2","0.5","0.5","0.5","0.5","0.8","0.2","0.6","0.2","","","","","","","","","","","","","","76","L","3","","true","0","full_practice",""
"","bandit","62","262507","0.0-32.0-11.0","75949891","wem/bandit_party_2","A2XP8RZM8ERTY","either","1","1422","","","","","","","0","1","0","","0.6","0.5","0.5","0.5","0.5","0.8","0.2","0.6","0.2","","","","","","","","","","","","","","75","K","2","","true","0","full_practice",""
"","bandit","63","264376","0.0-32.0-12.0","75949891","wem/bandit_party_2","A2XP8RZM8ERTY","either","1","363","","","","","","","0","0","1","0.2","","0.5","0.5","0.5","0.5","","","","","0.8","0.2","0.6","0.2","","","","","","","","","","76","L","3","","true","0","full_practice",""
"","bandit","64","266240","0.0-32.0-13.0","75949891","wem/bandit_party_2","A2XP8RZM8ERTY","either","1","358","","","","","","","1","0","0","0.6","","0.5","0.5","0.5","0.5","","","","","0.8","0.2","0.6","0.2","","","","","","","","","","75","K","2","","true","0","full_practice",""
"","bandit","65","268216","0.0-32.0-14.0","75949891","wem/bandit_party_2","A2XP8RZM8ERTY","either","1","471","","","","","","","1","0","0","0.6","","0.5","0.5","0.5","0.5","","","","","0.8","0.2","0.6","0.2","","","","","","","","","","75","K","2","","true","0","full_practice",""
"","bandit","66","270113","0.0-32.0-15.0","75949891","wem/bandit_party_2","A2XP8RZM8ERTY","either","1","390","","","","","","","0","1","0","","0.6","0.5","0.5","0.5","0.5","0.8","0.2","0.6","0.2","","","","","","","","","","","","","","75","K","2","","true","0","full_practice",""
"","bandit","67","272065","0.0-32.0-16.0","75949891","wem/bandit_party_2","A2XP8RZM8ERTY","either","1","442","","","","","","","1","0","0","0.6","","0.5","0.5","0.5","0.5","","","","","0.8","0.2","0.6","0.2","","","","","","","","","","75","K","2","","true","0","full_practice",""
"","bandit","68","273912","0.0-32.0-17.0","75949891","wem/bandit_party_2","A2XP8RZM8ERTY","either","1","341","","","","","","","0","1","0","","0.6","0.5","0.5","0.5","0.5","0.8","0.2","0.6","0.2","","","","","","","","","","","","","","75","K","2","","true","0","full_practice",""
"","bandit","69","275767","0.0-32.0-18.0","75949891","wem/bandit_party_2","A2XP8RZM8ERTY","either","1","350","","","","","","","0","1","0","","0.6","0.5","0.5","0.5","0.5","0.8","0.2","0.6","0.2","","","","","","","","","","","","","","75","K","2","","true","0","full_practice",""
"","bandit","70","277584","0.0-32.0-19.0","75949891","wem/bandit_party_2","A2XP8RZM8ERTY","either","1","311","","","","","","","1","0","0","0.6","","0.5","0.5","0.5","0.5","","","","","0.8","0.2","0.6","0.2","","","","","","","","","","75","K","2","","true","0","full_practice",""
"","text","71","280528","0.0-33.0","75949891","wem/bandit_party_2","A2XP8RZM8ERTY","either","1","2940","","","32","","","","","","","","","","","","","","","","","","","","","","","","","","","","","","","","","","","","",""
"","text-replacement","72","286242","0.0-34.0","75949891","wem/bandit_party_2","A2XP8RZM8ERTY","either","1","4708","","","32","","","","","","","","","","","","","","","","","","","","","","","","","","","","","","","","","","","","",""
"","text-replacement","73","298242","0.0-35.0","75949891","wem/bandit_party_2","A2XP8RZM8ERTY","either","1","11997","","","32","","","","","","","","","","","","","","","","","","","","","","","","","","","","","","","","","","","","",""
"","text-replacement","74","301138","0.0-36.0","75949891","wem/bandit_party_2","A2XP8RZM8ERTY","either","1","2894","","","32","","","","","","","","","","","","","","","","","","","","","","","","","","","","","","","","","","","","",""
"","text-replacement","75","306017","0.0-37.0","75949891","wem/bandit_party_2","A2XP8RZM8ERTY","either","1","4878","","","32","","","","","","","","","","","","","","","","","","","","","","","","","","","","","","","","","","","","",""
"","text-replacement","76","309788","0.0-38.0","75949891","wem/bandit_party_2","A2XP8RZM8ERTY","either","1","3768","","","32","","","","","","","","","","","","","","","","","","","","","","","","","","","","","","","","","","","","",""
"","survey-multi-choice-replacement","77","318230","0.0-39.0-0.0","75949891","wem/bandit_party_2","A2XP8RZM8ERTY","either","1","8436","","","","","","","","","","","","","","","","","","","","","","","","Money will be added to the pool for <span style='color:red;'>REPUBLICANS</span>","","","","","","","attn_check","","","","","","","","","0"
"","survey-multi-choice-replacement","78","323767","0.0-40.0-0.0","75949891","wem/bandit_party_2","A2XP8RZM8ERTY","either","1","4530","","","","","","","","","","","","","","","","","","","","","","","","Equal amounts of money will be added to the pool for <span style='color:red;'>REPUBLICANS</span> and subtracted from the pool for <span style='color:blue;'>DEMOCRATS</span>","","","","","","","attn_check","","","","","","","","","2"
"","survey-multi-choice-replacement","79","329056","0.0-41.0-0.0","75949891","wem/bandit_party_2","A2XP8RZM8ERTY","either","1","4282","","","","","","","","","","","","","","","","","","","","","","","","No money will be added to either pool","","","","","","","attn_check","","","","","","","","","3"
"","bandit","80","334182","0.0-42.0-0.0","75949891","wem/bandit_party_2","A2XP8RZM8ERTY","either","1","2616","","","","","","","0","0","1","0.4995060561","","0.4","0.2","0.6","0.8","","","","","0.4995060561","0.5202783506","0.7674833066","0.8101107889","","","","","","","","","","72","H","0","img/none_selected.jpg","","1","main_expt",""
"","bandit","81","336099","0.0-43.0-0.0","75949891","wem/bandit_party_2","A2XP8RZM8ERTY","either","1","407","","","","","","","0","1","0","","0.4559554218","0.4","0.2","0.6","0.8","0.4452888422","0.4559554218","0.7786696111","0.8827976921","","","","","","","","","","","","","","74","J","1","","","2","main_expt",""
"","bandit","82","338026","0.0-44.0-0.0","75949891","wem/bandit_party_2","A2XP8RZM8ERTY","either","1","421","","","","","","","0","1","0","","0.3791335739","0.4","0.2","0.6","0.8","0.4956599627","0.3791335739","0.7883912796","0.918633781","","","","","","","","","","","","","","74","J","1","","","3","main_expt",""
"","bandit","83","340066","0.0-45.0-0.0","75949891","wem/bandit_party_2","A2XP8RZM8ERTY","either","1","534","","","","","","","0","0","1","","0.362446662","0.4","0.2","0.6","0.8","0.3939226057","0.362446662","0.8311681014","0.8961075186","","","","","","","","","","","","","","74","J","1","","","4","main_expt",""
"","bandit","84","341946","0.0-46.0-0.0","75949891","wem/bandit_party_2","A2XP8RZM8ERTY","either","1","374","","","","","","","1","0","0","0.4337427147","","0.4","0.2","0.6","0.8","","","","","0.4737796053","0.4337427147","0.706748425","0.9065038385","","","","","","","","","","74","J","1","","","5","main_expt",""
"","bandit","85","343906","0.0-47.0-0.0","75949891","wem/bandit_party_2","A2XP8RZM8ERTY","either","1","454","","","","","","","0","0","1","","0.4260566605","0.4","0.2","0.6","0.8","0.5798080576","0.4260566605","0.7246132019","0.9628954729","","","","","","","","","","","","","","74","J","1","","","6","main_expt",""
"","bandit","86","345769","0.0-48.0-0.0","75949891","wem/bandit_party_2","A2XP8RZM8ERTY","either","1","358","","","","","","","0","0","1","","0.5595739282","0.4","0.2","0.6","0.8","0.6184433593","0.5595739282","0.822103072","0.9244273404","","","","","","","","","","","","","","74","J","1","","","7","main_expt",""
"","bandit","87","347613","0.0-49.0-0.0","75949891","wem/bandit_party_2","A2XP8RZM8ERTY","either","1","335","","","","","","","0","1","0","","0.5757792393","0.4","0.2","0.6","0.8","0.5380809204","0.5757792393","0.8176183596","0.9214665689","","","","","","","","","","","","","","74","J","1","","","8","main_expt",""
"","bandit","88","349538","0.0-50.0-0.0","75949891","wem/bandit_party_2","A2XP8RZM8ERTY","either","1","419","","","","","","","1","0","0","0.5508288143","","0.4","0.2","0.6","0.8","","","","","0.4884558296","0.5508288143","0.7421782695","0.9604963414","","","","","","","","","","74","J","1","","","9","main_expt",""
"","bandit","89","351402","0.0-51.0-0.0","75949891","wem/bandit_party_2","A2XP8RZM8ERTY","either","1","358","","","","","","","0","0","1","","0.4615344473","0.4","0.2","0.6","0.8","0.6062827564","0.4615344473","0.7112185725","0.973544224","","","","","","","","","","","","","","74","J","1","","","10","main_expt",""
"","bandit","90","353225","0.0-52.0-0.0","75949891","wem/bandit_party_2","A2XP8RZM8ERTY","either","1","318","","","","","","","1","0","0","0.4731032433","","0.4","0.2","0.6","0.8","","","","","0.6618996933","0.4731032433","0.6656122322","0.9756729976","","","","","","","","","","74","J","1","","","11","main_expt",""
"","bandit","91","355057","0.0-53.0-0.0","75949891","wem/bandit_party_2","A2XP8RZM8ERTY","either","1","327","","","","","","","0","0","1","","0.5028989732","0.4","0.2","0.6","0.8","0.6589688621","0.5028989732","0.632951522","0.9824084628","","","","","","","","","","","","","","74","J","1","","","12","main_expt",""
"","bandit","92","356834","0.0-54.0-0.0","75949891","wem/bandit_party_2","A2XP8RZM8ERTY","either","1","271","","","","","","","0","1","0","","0.5252386458","0.4","0.2","0.6","0.8","0.7483501345","0.5252386458","0.6428643634","0.9852841122","","","","","","","","","","","","","","74","J","1","","","13","main_expt",""
"","bandit","93","358724","0.0-55.0-0.0","75949891","wem/bandit_party_2","A2XP8RZM8ERTY","either","1","381","","","","","","","0","1","0","","0.4883642101","0.4","0.2","0.6","0.8","0.7642220585","0.4883642101","0.5693663763","0.9844185579","","","","","","","","","","","","","","74","J","1","","","14","main_expt",""
"","bandit","94","360586","0.0-56.0-0.0","75949891","wem/bandit_party_2","A2XP8RZM8ERTY","either","1","354","","","","","","","0","0","1","0.5125695872","","0.4","0.2","0.6","0.8","","","","","0.8255663415","0.5125695872","0.6354763258","0.9716790186","","","","","","","","","","74","J","1","","","15","main_expt",""
"","bandit","95","362369","0.0-57.0-0.0","75949891","wem/bandit_party_2","A2XP8RZM8ERTY","either","1","277","","","","","","","0","1","0","","0.483313844","0.4","0.2","0.6","0.8","0.8262734196","0.483313844","0.6074668868","0.9724226268","","","","","","","","","","","","","","74","J","1","","","16","main_expt",""
"","bandit","96","364177","0.0-58.0-0.0","75949891","wem/bandit_party_2","A2XP8RZM8ERTY","either","1","301","","","","","","","0","0","1","","0.4764119597","0.4","0.2","0.6","0.8","0.8957105494","0.4764119597","0.634379517","0.969397438","","","","","","","","","","","","","","74","J","1","","","17","main_expt",""
"","bandit","97","365945","0.0-59.0-0.0","75949891","wem/bandit_party_2","A2XP8RZM8ERTY","either","1","261","","","","","","","0","1","0","","0.4742144938","0.4","0.2","0.6","0.8","0.8243017832","0.4742144938","0.7399013172","0.9487821198","","","","","","","","","","","","","","74","J","1","","","18","main_expt",""
"","bandit","98","367780","0.0-60.0-0.0","75949891","wem/bandit_party_2","A2XP8RZM8ERTY","either","1","325","","","","","","","0","1","0","","0.5445729057","0.4","0.2","0.6","0.8","0.8174393347","0.5445729057","0.6892422428","0.8822386923","","","","","","","","","","","","","","74","J","1","","","19","main_expt",""
"","bandit","99","369665","0.0-61.0-0.0","75949891","wem/bandit_party_2","A2XP8RZM8ERTY","either","1","379","","","","","","","1","0","0","0.5114357523","","0.4","0.2","0.6","0.8","","","","","0.8457625901","0.5114357523","0.5544472153","0.8658452863","","","","","","","","","","74","J","1","","","20","main_expt",""
"","bandit","100","371609","0.0-62.0-0.0","75949891","wem/bandit_party_2","A2XP8RZM8ERTY","either","1","438","","","","","","","0","0","1","","0.4948626968","0.4","0.2","0.6","0.8","0.8565453533","0.4948626968","0.4705077418","0.8597265301","","","","","","","","","","","","","","74","J","1","","","21","main_expt",""
"","bandit","101","373433","0.0-63.0-0.0","75949891","wem/bandit_party_2","A2XP8RZM8ERTY","either","1","318","","","","","","","0","0","1","","0.3750889156","0.4","0.2","0.6","0.8","0.8821281293","0.3750889156","0.5364913494","0.929530396","","","","","","","","","","","","","","74","J","1","","","22","main_expt",""
"","bandit","102","375225","0.0-64.0-0.0","75949891","wem/bandit_party_2","A2XP8RZM8ERTY","either","1","286","","","","","","","0","1","0","","0.3874093852","0.4","0.2","0.6","0.8","0.8253896901","0.3874093852","0.5450887529","0.9149061772","","","","","","","","","","","","","","74","J","1","","","23","main_expt",""
"","bandit","103","377073","0.0-65.0-0.0","75949891","wem/bandit_party_2","A2XP8RZM8ERTY","either","1","342","","","","","","","0","0","1","0.4126546177","","0.4","0.2","0.6","0.8","","","","","0.8682133559","0.4126546177","0.6013055931","0.9389899916","","","","","","","","","","74","J","1","","","24","main_expt",""
"","bandit","104","378820","0.0-66.0-0.0","75949891","wem/bandit_party_2","A2XP8RZM8ERTY","either","1","238","","","","","","","0","0","1","","0.3871809826","0.4","0.2","0.6","0.8","0.8186134727","0.3871809826","0.7116226269","0.9583062328","","","","","","","","","","","","","","74","J","1","","","25","main_expt",""
"","bandit","105","380633","0.0-67.0-0.0","75949891","wem/bandit_party_2","A2XP8RZM8ERTY","either","1","307","","","","","","","0","1","0","","0.4162773602","0.4","0.2","0.6","0.8","0.841170918","0.4162773602","0.7284905038","0.9349434311","","","","","","","","","","","","","","74","J","1","","","26","main_expt",""
"","bandit","106","382481","0.0-68.0-0.0","75949891","wem/bandit_party_2","A2XP8RZM8ERTY","either","1","342","","","","","","","0","0","1","","0.4153433109","0.4","0.2","0.6","0.8","0.8332298301","0.4153433109","0.7007901837","0.9147743466","","","","","","","","","","","","","","74","J","1","","","27","main_expt",""
"","bandit","107","384232","0.0-69.0-0.0","75949891","wem/bandit_party_2","A2XP8RZM8ERTY","either","1","246","","","","","","","0","1","0","","0.3083156359","0.4","0.2","0.6","0.8","0.8340804883","0.3083156359","0.7197690037","0.8913744663","","","","","","","","","","","","","","74","J","1","","","28","main_expt",""
"","bandit","108","388369","0.0-70.0-0.0","75949891","wem/bandit_party_2","A2XP8RZM8ERTY","either","1","2631","","","","","","","0","0","1","0.4048150761","","0.4","0.2","0.6","0.8","","","","","0.8800986549","0.4048150761","0.7569205749","0.9004815278","","","","","","","","","","74","J","1","","","29","main_expt",""
"","bandit","109","390242","0.0-71.0-0.0","75949891","wem/bandit_party_2","A2XP8RZM8ERTY","either","1","365","","","","","","","0","0","1","","0.5604470694","0.4","0.2","0.6","0.8","0.800988266","0.5604470694","0.7007062976","0.8335499875","","","","","","","","","","","","","","74","J","1","","","30","main_expt",""
"","bandit","110","392129","0.0-72.0-0.0","75949891","wem/bandit_party_2","A2XP8RZM8ERTY","either","1","380","","","","","","","1","0","0","0.5114456598","","0.4","0.2","0.6","0.8","","","","","0.8092707987","0.5114456598","0.6218809145","0.7904098286","","","","","","","","","","74","J","1","","","31","main_expt",""
"","bandit","111","393936","0.0-73.0-0.0","75949891","wem/bandit_party_2","A2XP8RZM8ERTY","either","1","301","","","","","","","0","1","0","","0.5195843055","0.4","0.2","0.6","0.8","0.7600689364","0.5195843055","0.5448888872","0.8156470634","","","","","","","","","","","","","","74","J","1","","","32","main_expt",""
"","bandit","112","395808","0.0-74.0-0.0","75949891","wem/bandit_party_2","A2XP8RZM8ERTY","either","1","365","","","","","","","0","1","0","","0.4278216128","0.4","0.2","0.6","0.8","0.7268405739","0.4278216128","0.4396040002","0.7458483223","","","","","","","","","","","","","","74","J","1","","","33","main_expt",""
"","bandit","113","397658","0.0-75.0-0.0","75949891","wem/bandit_party_2","A2XP8RZM8ERTY","either","1","342","","","","","","","0","1","0","","0.4581725564","0.4","0.2","0.6","0.8","0.7867385379","0.4581725564","0.3418027302","0.8745519215","","","","","","","","","","","","","","74","J","1","","","34","main_expt",""
"","bandit","114","399497","0.0-76.0-0.0","75949891","wem/bandit_party_2","A2XP8RZM8ERTY","either","1","332","","","","","","","0","1","0","","0.5170179058","0.4","0.2","0.6","0.8","0.7776722478","0.5170179058","0.3770378826","0.8761773117","","","","","","","","","","","","","","74","J","1","","","35","main_expt",""
"","bandit","115","401391","0.0-77.0-0.0","75949891","wem/bandit_party_2","A2XP8RZM8ERTY","either","1","389","","","","","","","0","1","0","","0.5761285305","0.4","0.2","0.6","0.8","0.8110731924","0.5761285305","0.3264650107","0.8898579413","","","","","","","","","","","","","","74","J","1","","","36","main_expt",""
"","bandit","116","403480","0.0-78.0-0.0","75949891","wem/bandit_party_2","A2XP8RZM8ERTY","either","1","582","","","","","","","0","0","1","","0.5824592389","0.4","0.2","0.6","0.8","0.8371501114","0.5824592389","0.1696248696","0.9189960073","","","","","","","","","","","","","","74","J","1","","","37","main_expt",""
"","bandit","117","405320","0.0-79.0-0.0","75949891","wem/bandit_party_2","A2XP8RZM8ERTY","either","1","334","","","","","","","1","0","0","0.5039158184","","0.4","0.2","0.6","0.8","","","","","0.801984358","0.5039158184","0.3008725236","0.9429067042","","","","","","","","","","74","J","1","","","38","main_expt",""
"","bandit","118","407208","0.0-80.0-0.0","75949891","wem/bandit_party_2","A2XP8RZM8ERTY","either","1","382","","","","","","","0","1","0","","0.4906961915","0.4","0.2","0.6","0.8","0.836760671","0.4906961915","0.3612597963","0.8860185862","","","","","","","","","","","","","","74","J","1","","","39","main_expt",""
"","bandit","119","409097","0.0-81.0-0.0","75949891","wem/bandit_party_2","A2XP8RZM8ERTY","either","1","382","","","","","","","0","0","1","0.5118773476","","0.4","0.2","0.6","0.8","","","","","0.7930168878","0.5118773476","0.3316001813","0.8958725565","","","","","","","","","","74","J","1","","","40","main_expt",""
"","bandit","120","410808","0.0-82.0-0.0","75949891","wem/bandit_party_2","A2XP8RZM8ERTY","either","1","204","","","","","","","0","0","1","","0.5207000815","0.4","0.2","0.6","0.8","0.6758505439","0.5207000815","0.251761063","0.8369757826","","","","","","","","","","","","","","74","J","1","","","41","main_expt",""
"","bandit","121","412576","0.0-83.0-0.0","75949891","wem/bandit_party_2","A2XP8RZM8ERTY","either","1","261","","","","","","","0","0","1","","0.6208632684","0.4","0.2","0.6","0.8","0.669091732","0.6208632684","0.3764367217","0.8724413244","","","","","","","","","","","","","","74","J","1","","","42","main_expt",""
"","bandit","122","414448","0.0-84.0-0.0","75949891","wem/bandit_party_2","A2XP8RZM8ERTY","either","1","366","","","","","","","0","1","0","","0.6736877605","0.4","0.2","0.6","0.8","0.5774386383","0.6736877605","0.4280411123","0.8721156492","","","","","","","","","","","","","","74","J","1","","","43","main_expt",""
"","bandit","123","416338","0.0-85.0-0.0","75949891","wem/bandit_party_2","A2XP8RZM8ERTY","either","1","382","","","","","","","0","1","0","","0.6770598463","0.4","0.2","0.6","0.8","0.5402750746","0.6770598463","0.4250007774","0.874486911","","","","","","","","","","","","","","74","J","1","","","44","main_expt",""
"","bandit","124","418192","0.0-86.0-0.0","75949891","wem/bandit_party_2","A2XP8RZM8ERTY","either","1","348","","","","","","","0","0","1","","0.6811336834","0.4","0.2","0.6","0.8","0.4769525635","0.6811336834","0.3964774122","0.7653026016","","","","","","","","","","","","","","74","J","1","","","45","main_expt",""
"","bandit","125","419736","0.0-87.0-0.0","75949891","wem/bandit_party_2","A2XP8RZM8ERTY","either","1","36","","","","","","","0","0","1","","0.7409040253","0.4","0.2","0.6","0.8","0.460739512","0.7409040253","0.3755541509","0.6884850605","","","","","","","","","","","","","","74","J","1","","","46","main_expt",""
"","bandit","126","421527","0.0-88.0-0.0","75949891","wem/bandit_party_2","A2XP8RZM8ERTY","either","1","285","","","","","","","0","0","1","0.8602274841","","0.4","0.2","0.6","0.8","","","","","0.3953603582","0.8602274841","0.3698766084","0.6869729855","","","","","","","","","","74","J","1","","","47","main_expt",""
"","bandit","127","423391","0.0-89.0-0.0","75949891","wem/bandit_party_2","A2XP8RZM8ERTY","either","1","357","","","","","","","0","1","0","","0.8947369126","0.4","0.2","0.6","0.8","0.5194217752","0.8947369126","0.2924141828","0.624749708","","","","","","","","","","","","","","74","J","1","","","48","main_expt",""
"","bandit","128","425330","0.0-90.0-0.0","75949891","wem/bandit_party_2","A2XP8RZM8ERTY","either","1","429","","","","","","","0","1","0","","0.9071052574","0.4","0.2","0.6","0.8","0.5015721984","0.9071052574","0.2506794134","0.6269608649","","","","","","","","","","","","","","74","J","1","","","49","main_expt",""
"","bandit","129","427384","0.0-91.0-0.0","75949891","wem/bandit_party_2","A2XP8RZM8ERTY","either","1","546","","","","","","","0","1","0","","0.8569531155","0.4","0.2","0.6","0.8","0.4427204185","0.8569531155","0.2200095001","0.5394470416","","","","","","","","","","","","","","74","J","1","","","50","main_expt",""
"","bandit","130","429247","0.0-92.0-0.0","75949891","wem/bandit_party_2","A2XP8RZM8ERTY","either","1","357","","","","","","","0","1","0","","0.8728609703","0.4","0.2","0.6","0.8","0.5194544998","0.8728609703","0.2703780474","0.4991806479","","","","","","","","","","","","","","74","J","1","","","51","main_expt",""
"","bandit","131","431122","0.0-93.0-0.0","75949891","wem/bandit_party_2","A2XP8RZM8ERTY","either","1","365","","","","","","","0","1","0","","0.902184381","0.4","0.2","0.6","0.8","0.4420680866","0.902184381","0.3215640211","0.5431464126","","","","","","","","","","","","","","74","J","1","","","52","main_expt",""
"","bandit","132","433119","0.0-94.0-0.0","75949891","wem/bandit_party_2","A2XP8RZM8ERTY","either","1","491","","","","","","","0","0","1","","0.8975054296","0.4","0.2","0.6","0.8","0.5541791803","0.8975054296","0.2918797996","0.4799783957","","","","","","","","","","","","","","74","J","1","","","53","main_expt",""
"","bandit","133","434855","0.0-95.0-0.0","75949891","wem/bandit_party_2","A2XP8RZM8ERTY","either","1","229","","","","","","","0","1","0","","0.9436546011","0.4","0.2","0.6","0.8","0.6187664305","0.9436546011","0.2432815539","0.3946877269","","","","","","","","","","","","","","74","J","1","","","54","main_expt",""
"","bandit","134","436655","0.0-96.0-0.0","75949891","wem/bandit_party_2","A2XP8RZM8ERTY","either","1","294","","","","","","","0","1","0","","0.9411334538","0.4","0.2","0.6","0.8","0.538030076","0.9411334538","0.1993500609","0.3892466866","","","","","","","","","","","","","","74","J","1","","","55","main_expt",""
"","bandit","135","438495","0.0-97.0-0.0","75949891","wem/bandit_party_2","A2XP8RZM8ERTY","either","1","334","","","","","","","1","0","0","0.862285227","","0.4","0.2","0.6","0.8","","","","","0.5137881872","0.862285227","0.1832364248","0.347268188","","","","","","","","","","74","J","1","","","56","main_expt",""
"","bandit","136","440295","0.0-98.0-0.0","75949891","wem/bandit_party_2","A2XP8RZM8ERTY","either","1","293","","","","","","","0","1","0","","0.9034803314","0.4","0.2","0.6","0.8","0.6274604021","0.9034803314","0.1703919496","0.3462231845","","","","","","","","","","","","","","74","J","1","","","57","main_expt",""
"","bandit","137","442074","0.0-99.0-0.0","75949891","wem/bandit_party_2","A2XP8RZM8ERTY","either","1","270","","","","","","","0","1","0","","0.9062052911","0.4","0.2","0.6","0.8","0.5636132077","0.9062052911","0.2146973212","0.3707442777","","","","","","","","","","","","","","74","J","1","","","58","main_expt",""
"","bandit","138","444031","0.0-100.0-0.0","75949891","wem/bandit_party_2","A2XP8RZM8ERTY","either","1","451","","","","","","","0","1","0","","0.9169546289","0.4","0.2","0.6","0.8","0.6555757088","0.9169546289","0.2118107272","0.4530366532","","","","","","","","","","","","","","74","J","1","","","59","main_expt",""
"","bandit","139","445920","0.0-101.0-0.0","75949891","wem/bandit_party_2","A2XP8RZM8ERTY","either","1","382","","","","","","","0","1","0","","0.9048679239","0.4","0.2","0.6","0.8","0.6555481193","0.9048679239","0.2096036334","0.4335409142","","","","","","","","","","","","","","74","J","1","","","60","main_expt",""
"","bandit","140","447839","0.0-102.0-0.0","75949891","wem/bandit_party_2","A2XP8RZM8ERTY","either","1","410","","","","","","","0","1","0","","0.9346572725","0.4","0.2","0.6","0.8","0.6988977931","0.9346572725","0.1985607356","0.3601573371","","","","","","","","","","","","","","74","J","1","","","61","main_expt",""
"","bandit","141","449702","0.0-103.0-0.0","75949891","wem/bandit_party_2","A2XP8RZM8ERTY","either","1","356","","","","","","","1","0","0","0.9332729597","","0.4","0.2","0.6","0.8","","","","","0.6124712875","0.9332729597","0.2352246004","0.3187004912","","","","","","","","","","74","J","1","","","62","main_expt",""
"","bandit","142","451542","0.0-104.0-0.0","75949891","wem/bandit_party_2","A2XP8RZM8ERTY","either","1","334","","","","","","","0","1","0","","0.9300142507","0.4","0.2","0.6","0.8","0.4881994696","0.9300142507","0.1989126294","0.331276396","","","","","","","","","","","","","","74","J","1","","","63","main_expt",""
"","bandit","143","453390","0.0-105.0-0.0","75949891","wem/bandit_party_2","A2XP8RZM8ERTY","either","1","343","","","","","","","0","1","0","","0.8992917639","0.4","0.2","0.6","0.8","0.5007509184","0.8992917639","0.2231035509","0.3984677","","","","","","","","","","","","","","74","J","1","","","64","main_expt",""
"","bandit","144","455281","0.0-106.0-0.0","75949891","wem/bandit_party_2","A2XP8RZM8ERTY","either","1","383","","","","","","","0","1","0","","0.7939475476","0.4","0.2","0.6","0.8","0.6077525222","0.7939475476","0.174077904","0.3012021372","","","","","","","","","","","","","","74","J","1","","","65","main_expt",""
"","bandit","145","457126","0.0-107.0-0.0","75949891","wem/bandit_party_2","A2XP8RZM8ERTY","either","1","338","","","","","","","0","1","0","","0.7848839068","0.4","0.2","0.6","0.8","0.4876759876","0.7848839068","0.1505104035","0.2848395029","","","","","","","","","","","","","","74","J","1","","","66","main_expt",""
"","bandit","146","458958","0.0-108.0-0.0","75949891","wem/bandit_party_2","A2XP8RZM8ERTY","either","1","325","","","","","","","0","1","0","","0.7712869283","0.4","0.2","0.6","0.8","0.4705728971","0.7712869283","0.1706094741","0.2908363747","","","","","","","","","","","","","","74","J","1","","","67","main_expt",""
"","bandit","147","460847","0.0-109.0-0.0","75949891","wem/bandit_party_2","A2XP8RZM8ERTY","either","1","381","","","","","","","0","0","1","","0.7426915226","0.4","0.2","0.6","0.8","0.5822594153","0.7426915226","0.193375558","0.3226378352","","","","","","","","","","","","","","74","J","1","","","68","main_expt",""
"","bandit","148","462662","0.0-110.0-0.0","75949891","wem/bandit_party_2","A2XP8RZM8ERTY","either","1","308","","","","","","","1","0","0","0.592712881","","0.4","0.2","0.6","0.8","","","","","0.6189715015","0.592712881","0.226811003","0.4490581071","","","","","","","","","","74","J","1","","","69","main_expt",""
"","bandit","149","464462","0.0-111.0-0.0","75949891","wem/bandit_party_2","A2XP8RZM8ERTY","either","1","293","","","","","","","1","0","0","0.6587085967","","0.4","0.2","0.6","0.8","","","","","0.5307799745","0.6587085967","0.191142909","0.42365523","","","","","","","","","","74","J","1","","","70","main_expt",""
"","bandit","150","466278","0.0-112.0-0.0","75949891","wem/bandit_party_2","A2XP8RZM8ERTY","either","1","309","","","","","","","0","1","0","","0.7562029562","0.4","0.2","0.6","0.8","0.5205551237","0.7562029562","0.2371486809","0.427101634","","","","","","","","","","","","","","74","J","1","","","71","main_expt",""
"","bandit","151","468142","0.0-113.0-0.0","75949891","wem/bandit_party_2","A2XP8RZM8ERTY","either","1","357","","","","","","","0","1","0","","0.670676276","0.4","0.2","0.6","0.8","0.5913901284","0.670676276","0.2602117984","0.5387899421","","","","","","","","","","","","","","74","J","1","","","72","main_expt",""
"","bandit","152","469942","0.0-114.0-0.0","75949891","wem/bandit_party_2","A2XP8RZM8ERTY","either","1","292","","","","","","","0","0","1","","0.6870219419","0.4","0.2","0.6","0.8","0.7127465592","0.6870219419","0.1837165363","0.4931252492","","","","","","","","","","","","","","74","J","1","","","73","main_expt",""
"","bandit","153","471760","0.0-115.0-0.0","75949891","wem/bandit_party_2","A2XP8RZM8ERTY","either","1","312","","","","","","","0","1","0","","0.582898469","0.4","0.2","0.6","0.8","0.7804212289","0.582898469","0.2032334464","0.3888626504","","","","","","","","","","","","","","74","J","1","","","74","main_expt",""
"","bandit","154","473581","0.0-116.0-0.0","75949891","wem/bandit_party_2","A2XP8RZM8ERTY","either","1","315","","","","","","","0","0","1","","0.6452442043","0.4","0.2","0.6","0.8","0.7966502287","0.6452442043","0.2782751631","0.3866429177","","","","","","","","","","","","","","74","J","1","","","75","main_expt",""
"","bandit","155","475374","0.0-117.0-0.0","75949891","wem/bandit_party_2","A2XP8RZM8ERTY","either","1","286","","","","","","","0","1","0","","0.7031137023","0.4","0.2","0.6","0.8","0.7775959854","0.7031137023","0.3318782676","0.3948468247","","","","","","","","","","","","","","74","J","1","","","76","main_expt",""
"","bandit","156","477206","0.0-118.0-0.0","75949891","wem/bandit_party_2","A2XP8RZM8ERTY","either","1","326","","","","","","","1","0","0","0.6096498107","","0.4","0.2","0.6","0.8","","","","","0.8523583745","0.6096498107","0.312607664","0.4853082722","","","","","","","","","","74","J","1","","","77","main_expt",""
"","bandit","157","479055","0.0-119.0-0.0","75949891","wem/bandit_party_2","A2XP8RZM8ERTY","either","1","342","","","","","","","0","1","0","","0.532302087","0.4","0.2","0.6","0.8","0.7707034136","0.532302087","0.3250695504","0.4971609959","","","","","","","","","","","","","","74","J","1","","","78","main_expt",""
"","bandit","158","480902","0.0-120.0-0.0","75949891","wem/bandit_party_2","A2XP8RZM8ERTY","either","1","338","","","","","","","0","0","1","","0.4448734945","0.4","0.2","0.6","0.8","0.7919080975","0.4448734945","0.277144637","0.5349041547","","","","","","","","","","","","","","74","J","1","","","79","main_expt",""
"","bandit","159","482445","0.0-121.0-0.0","75949891","wem/bandit_party_2","A2XP8RZM8ERTY","either","1","36","","","","","","","0","0","1","","0.34513516","0.4","0.2","0.6","0.8","0.8107458935","0.34513516","0.293018971","0.4713204996","","","","","","","","","","","","","","74","J","1","","","80","main_expt",""
"","bandit","160","484101","0.0-122.0-0.0","75949891","wem/bandit_party_2","A2XP8RZM8ERTY","either","1","149","","","","","","","0","1","0","","0.406584365","0.4","0.2","0.6","0.8","0.7851591746","0.406584365","0.2730851157","0.4132476049","","","","","","","","","","","","","","74","J","1","","","81","main_expt",""
"","bandit","161","485621","0.0-123.0-0.0","75949891","wem/bandit_party_2","A2XP8RZM8ERTY","either","1","13","","","","","","","0","0","1","","0.5068312928","0.4","0.2","0.6","0.8","0.8067558171","0.5068312928","0.2436011542","0.4640808921","","","","","","","","","","","","","","74","J","1","","","82","main_expt",""
"","bandit","162","489039","0.0-124.0-0.0","75949891","wem/bandit_party_2","A2XP8RZM8ERTY","either","1","1910","","","","","","","0","1","0","","0.5209063211","0.4","0.2","0.6","0.8","0.7777816444","0.5209063211","0.2009218657","0.442115463","","","","","","","","","","","","","","74","J","1","","","83","main_expt",""
"","bandit","163","490893","0.0-125.0-0.0","75949891","wem/bandit_party_2","A2XP8RZM8ERTY","either","1","347","","","","","","","0","1","0","","0.6221591745","0.4","0.2","0.6","0.8","0.7801041195","0.6221591745","0.1550904625","0.5117806844","","","","","","","","","","","","","","74","J","1","","","84","main_expt",""
"","bandit","164","492757","0.0-126.0-0.0","75949891","wem/bandit_party_2","A2XP8RZM8ERTY","either","1","357","","","","","","","0","0","1","0.6939346182","","0.4","0.2","0.6","0.8","","","","","0.7593249252","0.6939346182","0.1193398435","0.5309627618","","","","","","","","","","74","J","1","","","85","main_expt",""
"","bandit","165","494632","0.0-127.0-0.0","75949891","wem/bandit_party_2","A2XP8RZM8ERTY","either","1","365","","","","","","","0","0","1","0.7533471596","","0.4","0.2","0.6","0.8","","","","","0.7911667705","0.7533471596","0.1398572341","0.5482659382","","","","","","","","","","74","J","1","","","86","main_expt",""
"","bandit","166","496469","0.0-128.0-0.0","75949891","wem/bandit_party_2","A2XP8RZM8ERTY","either","1","330","","","","","","","1","0","0","0.8040573679","","0.4","0.2","0.6","0.8","","","","","0.8480662183","0.8040573679","0.1941505275","0.4772076429","","","","","","","","","","74","J","1","","","87","main_expt",""
"","bandit","167","498214","0.0-129.0-0.0","75949891","wem/bandit_party_2","A2XP8RZM8ERTY","either","1","237","","","","","","","1","0","0","0.7800800897","","0.4","0.2","0.6","0.8","","","","","0.8110462569","0.7800800897","0.09645570925","0.5202977678","","","","","","","","","","74","J","1","","","88","main_expt",""
"","bandit","168","499909","0.0-130.0-0.0","75949891","wem/bandit_party_2","A2XP8RZM8ERTY","either","1","188","","","","","","","0","1","0","","0.7329239748","0.4","0.2","0.6","0.8","0.7924414871","0.7329239748","0.1304326216","0.4970482359","","","","","","","","","","","","","","74","J","1","","","89","main_expt",""
"","bandit","169","501741","0.0-131.0-0.0","75949891","wem/bandit_party_2","A2XP8RZM8ERTY","either","1","325","","","","","","","0","0","1","","0.7202813078","0.4","0.2","0.6","0.8","0.8190855249","0.7202813078","0.1410434261","0.4671205494","","","","","","","","","","","","","","74","J","1","","","90","main_expt",""
"","bandit","170","503901","0.0-132.0-0.0","75949891","wem/bandit_party_2","A2XP8RZM8ERTY","either","1","653","","","","","","","1","0","0","0.698586111","","0.4","0.2","0.6","0.8","","","","","0.858270253","0.698586111","0.1277095213","0.5518401665","","","","","","","","","","74","J","1","","","91","main_expt",""
"","bandit","171","505845","0.0-133.0-0.0","75949891","wem/bandit_party_2","A2XP8RZM8ERTY","either","1","438","","","","","","","0","1","0","","0.6054304462","0.4","0.2","0.6","0.8","0.8583259383","0.6054304462","0.08596821216","0.620788192","","","","","","","","","","","","","","74","J","1","","","92","main_expt",""
"","bandit","172","507885","0.0-134.0-0.0","75949891","wem/bandit_party_2","A2XP8RZM8ERTY","either","1","533","","","","","","","0","1","0","","0.6829204303","0.4","0.2","0.6","0.8","0.8335107661","0.6829204303","0.05652587691","0.679669404","","","","","","","","","","","","","","74","J","1","","","93","main_expt",""
"","bandit","173","509731","0.0-135.0-0.0","75949891","wem/bandit_party_2","A2XP8RZM8ERTY","either","1","342","","","","","","","0","1","0","","0.6084783934","0.4","0.2","0.6","0.8","0.8849423118","0.6084783934","0.07490457358","0.6726581754","","","","","","","","","","","","","","74","J","1","","","94","main_expt",""
"","bandit","174","511620","0.0-136.0-0.0","75949891","wem/bandit_party_2","A2XP8RZM8ERTY","either","1","382","","","","","","","0","1","0","","0.51962455","0.4","0.2","0.6","0.8","0.9175662658","0.51962455","0.05201682933","0.5983950962","","","","","","","","","","","","","","74","J","1","","","95","main_expt",""
"","bandit","175","513540","0.0-137.0-0.0","75949891","wem/bandit_party_2","A2XP8RZM8ERTY","either","1","413","","","","","","","0","0","1","","0.453067158","0.4","0.2","0.6","0.8","0.8726153548","0.453067158","0.0353667714","0.6316158747","","","","","","","","","","","","","","74","J","1","","","96","main_expt",""
"","bandit","176","515404","0.0-138.0-0.0","75949891","wem/bandit_party_2","A2XP8RZM8ERTY","either","1","357","","","","","","","0","0","1","","0.4090095009","0.4","0.2","0.6","0.8","0.7260562137","0.4090095009","0.04301306848","0.6660601513","","","","","","","","","","","","","","74","J","1","","","97","main_expt",""
"","bandit","177","517199","0.0-139.0-0.0","75949891","wem/bandit_party_2","A2XP8RZM8ERTY","either","1","285","","","","","","","1","0","0","0.360727585","","0.4","0.2","0.6","0.8","","","","","0.6506148609","0.360727585","0.03950067624","0.6185462561","","","","","","","","","","74","J","1","","","98","main_expt",""
"","bandit","178","518997","0.0-140.0-0.0","75949891","wem/bandit_party_2","A2XP8RZM8ERTY","either","1","289","","","","","","","0","0","1","","0.3351327477","0.4","0.2","0.6","0.8","0.5816342488","0.3351327477","0.03156699585","0.581128502","","","","","","","","","","","","","","74","J","1","","","99","main_expt",""
"","bandit","179","520884","0.0-141.0-0.0","75949891","wem/bandit_party_2","A2XP8RZM8ERTY","either","1","380","","","","","","","0","0","1","","0.3491912274","0.4","0.2","0.6","0.8","0.5521464449","0.3491912274","0.0248161238","0.479775063","","","","","","","","","","","","","","74","J","1","","","100","main_expt",""
"","bandit","180","522707","0.0-142.0-0.0","75949891","wem/bandit_party_2","A2XP8RZM8ERTY","either","1","317","","","","","","","1","0","0","0.4105375765","","0.4","0.2","0.6","0.8","","","","","0.6063232436","0.4105375765","0.02218075004","0.5114647241","","","","","","","","","","74","J","1","","","101","main_expt",""
"","bandit","181","524535","0.0-143.0-0.0","75949891","wem/bandit_party_2","A2XP8RZM8ERTY","either","1","318","","","","","","","0","1","0","","0.438632671","0.4","0.2","0.6","0.8","0.5636213764","0.438632671","0.01802152149","0.4718740674","","","","","","","","","","","","","","74","J","1","","","102","main_expt",""
"","bandit","182","526388","0.0-144.0-0.0","75949891","wem/bandit_party_2","A2XP8RZM8ERTY","either","1","345","","","","","","","0","0","1","","0.372838406","0.4","0.2","0.6","0.8","0.5370473259","0.372838406","0.01877214671","0.5245129891","","","","","","","","","","","","","","74","J","1","","","103","main_expt",""
"","bandit","183","528204","0.0-145.0-0.0","75949891","wem/bandit_party_2","A2XP8RZM8ERTY","either","1","309","","","","","","","0","0","1","","0.3057692375","0.4","0.2","0.6","0.8","0.549647281","0.3057692375","0.01556743346","0.5170751474","","","","","","","","","","","","","","74","J","1","","","104","main_expt",""
"","bandit","184","530063","0.0-146.0-0.0","75949891","wem/bandit_party_2","A2XP8RZM8ERTY","either","1","349","","","","","","","0","0","1","","0.37369274","0.4","0.2","0.6","0.8","0.4225976111","0.37369274","0.03717147126","0.472330124","","","","","","","","","","","","","","74","J","1","","","105","main_expt",""
"","bandit","185","531892","0.0-147.0-0.0","75949891","wem/bandit_party_2","A2XP8RZM8ERTY","either","1","322","","","","","","","0","0","1","0.3179799449","","0.4","0.2","0.6","0.8","","","","","0.5005163425","0.3179799449","0.07687033395","0.568133852","","","","","","","","","","74","J","1","","","106","main_expt",""
"","bandit","186","533676","0.0-148.0-0.0","75949891","wem/bandit_party_2","A2XP8RZM8ERTY","either","1","277","","","","","","","0","0","1","","0.3053765494","0.4","0.2","0.6","0.8","0.3995396385","0.3053765494","0.07659049968","0.536018559","","","","","","","","","","","","","","74","J","1","","","107","main_expt",""
"","bandit","187","535555","0.0-149.0-0.0","75949891","wem/bandit_party_2","A2XP8RZM8ERTY","either","1","372","","","","","","","0","0","1","0.2732860947","","0.4","0.2","0.6","0.8","","","","","0.3855926336","0.2732860947","0.07827602418","0.3880888981","","","","","","","","","","74","J","1","","","108","main_expt",""
"","bandit","188","537356","0.0-150.0-0.0","75949891","wem/bandit_party_2","A2XP8RZM8ERTY","either","1","294","","","","","","","0","0","1","","0.2624197952","0.4","0.2","0.6","0.8","0.3059937163","0.2624197952","0.1352418701","0.3675045314","","","","","","","","","","","","","","74","J","1","","","109","main_expt",""
"","bandit","189","539180","0.0-151.0-0.0","75949891","wem/bandit_party_2","A2XP8RZM8ERTY","either","1","317","","","","","","","0","1","0","","0.3303210632","0.4","0.2","0.6","0.8","0.2752892785","0.3303210632","0.1705666919","0.4560700489","","","","","","","","","","","","","","74","J","1","","","110","main_expt",""
"","bandit","190","540756","0.0-152.0-0.0","75949891","wem/bandit_party_2","A2XP8RZM8ERTY","either","1","68","","","","","","","0","0","1","0.3541452024","","0.4","0.2","0.6","0.8","","","","","0.3038626008","0.3541452024","0.2202970635","0.5366389876","","","","","","","","","","74","J","1","","","111","main_expt",""
"","bandit","191","542492","0.0-153.0-0.0","75949891","wem/bandit_party_2","A2XP8RZM8ERTY","either","1","226","","","","","","","0","0","1","","0.4468573219","0.4","0.2","0.6","0.8","0.2308866464","0.4468573219","0.2368742277","0.5742054707","","","","","","","","","","","","","","74","J","1","","","112","main_expt",""
"","bandit","192","544139","0.0-154.0-0.0","75949891","wem/bandit_party_2","A2XP8RZM8ERTY","either","1","140","","","","","","","0","0","1","","0.5163231944","0.4","0.2","0.6","0.8","0.2420052043","0.5163231944","0.2487241586","0.6014260319","","","","","","","","","","","","","","74","J","1","","","113","main_expt",""
"","bandit","193","545908","0.0-155.0-0.0","75949891","wem/bandit_party_2","A2XP8RZM8ERTY","either","1","261","","","","","","","0","0","1","0.4064640458","","0.4","0.2","0.6","0.8","","","","","0.3277817495","0.4064640458","0.238824581","0.5398035654","","","","","","","","","","74","J","1","","","114","main_expt",""
"","bandit","194","547691","0.0-156.0-0.0","75949891","wem/bandit_party_2","A2XP8RZM8ERTY","either","1","277","","","","","","","0","1","0","","0.4085425191","0.4","0.2","0.6","0.8","0.3280884562","0.4085425191","0.1480638281","0.5008208772","","","","","","","","","","","","","","74","J","1","","","115","main_expt",""
"","bandit","195","549451","0.0-157.0-0.0","75949891","wem/bandit_party_2","A2XP8RZM8ERTY","either","1","253","","","","","","","0","1","0","","0.4412864427","0.4","0.2","0.6","0.8","0.4137256642","0.4412864427","0.1246447603","0.4200837231","","","","","","","","","","","","","","74","J","1","","","116","main_expt",""
"","bandit","196","551123","0.0-158.0-0.0","75949891","wem/bandit_party_2","A2XP8RZM8ERTY","either","1","163","","","","","","","0","0","1","","0.5188885271","0.4","0.2","0.6","0.8","0.372751341","0.5188885271","0.1308085784","0.4094987027","","","","","","","","","","","","","","74","J","1","","","117","main_expt",""
"","bandit","197","552899","0.0-159.0-0.0","75949891","wem/bandit_party_2","A2XP8RZM8ERTY","either","1","269","","","","","","","0","0","1","0.5728151575","","0.4","0.2","0.6","0.8","","","","","0.4225631273","0.5728151575","0.09076242324","0.3862907493","","","","","","","","","","74","J","1","","","118","main_expt",""
"","bandit","198","555858","0.0-160.0-0.0","75949891","wem/bandit_party_2","A2XP8RZM8ERTY","either","1","1453","","","","","","","0","0","1","0.5065624602","","0.4","0.2","0.6","0.8","","","","","0.4188482812","0.5065624602","0.09057925276","0.4437318585","","","","","","","","","","74","J","1","","","119","main_expt",""
"","bandit","199","557702","0.0-161.0-0.0","75949891","wem/bandit_party_2","A2XP8RZM8ERTY","either","1","334","","","","","","","1","0","0","0.4064427813","","0.4","0.2","0.6","0.8","","","","","0.3729077829","0.4064427813","0.1288926122","0.293469011","","","","","","","","","","74","J","1","","","120","main_expt",""
"","bandit","200","559539","0.0-162.0-0.0","75949891","wem/bandit_party_2","A2XP8RZM8ERTY","either","1","330","","","","","","","0","0","1","","0.3948988447","0.4","0.2","0.6","0.8","0.3817262037","0.3948988447","0.1479701512","0.2141601759","","","","","","","","","","","","","","74","J","1","","","121","main_expt",""
"","bandit","201","561275","0.0-163.0-0.0","75949891","wem/bandit_party_2","A2XP8RZM8ERTY","either","1","229","","","","","","","0","0","1","","0.316823658","0.4","0.2","0.6","0.8","0.3537210734","0.316823658","0.1663524813","0.2594293103","","","","","","","","","","","","","","74","J","1","","","122","main_expt",""
"","bandit","202","563162","0.0-164.0-0.0","75949891","wem/bandit_party_2","A2XP8RZM8ERTY","either","1","381","","","","","","","0","0","1","","0.3045978244","0.4","0.2","0.6","0.8","0.3633727708","0.3045978244","0.1993917655","0.1519240937","","","","","","","","","","","","","","74","J","1","","","123","main_expt",""
"","bandit","203","564990","0.0-165.0-0.0","75949891","wem/bandit_party_2","A2XP8RZM8ERTY","either","1","318","","","","","","","0","0","1","0.2389028675","","0.4","0.2","0.6","0.8","","","","","0.4139908316","0.2389028675","0.2948689786","0.2311656533","","","","","","","","","","74","J","1","","","124","main_expt",""
"","bandit","204","566827","0.0-166.0-0.0","75949891","wem/bandit_party_2","A2XP8RZM8ERTY","either","1","330","","","","","","","0","0","1","0.2166803268","","0.4","0.2","0.6","0.8","","","","","0.3619800754","0.2166803268","0.4054398129","0.1956748967","","","","","","","","","","74","J","1","","","125","main_expt",""
"","bandit","205","568698","0.0-167.0-0.0","75949891","wem/bandit_party_2","A2XP8RZM8ERTY","either","1","364","","","","","","","0","0","1","0.1613674106","","0.4","0.2","0.6","0.8","","","","","0.353362548","0.1613674106","0.5337661481","0.1419383156","","","","","","","","","","74","J","1","","","126","main_expt",""
"","bandit","206","570747","0.0-168.0-0.0","75949891","wem/bandit_party_2","A2XP8RZM8ERTY","either","1","541","","","","","","","0","0","1","0.1768105291","","0.4","0.2","0.6","0.8","","","","","0.2888217425","0.1682412955","0.5510518781","0.1768105291","","","","","","","","","","76","L","3","","","127","main_expt",""
"","bandit","207","572619","0.0-169.0-0.0","75949891","wem/bandit_party_2","A2XP8RZM8ERTY","either","1","364","","","","","","","0","0","1","","0.3131893798","0.4","0.2","0.6","0.8","0.3131893798","0.1655910943","0.4746642732","0.1187699492","","","","","","","","","","","","","","72","H","0","img/none_selected.jpg","","128","main_expt",""
"","bandit","208","574467","0.0-170.0-0.0","75949891","wem/bandit_party_2","A2XP8RZM8ERTY","either","1","338","","","","","","","0","1","0","","0.5345142674","0.4","0.2","0.6","0.8","0.2826861836","0.1845506081","0.5345142674","0.1860330609","","","","","","","","","","","","","","75","K","2","","","129","main_expt",""
"","bandit","209","576387","0.0-171.0-0.0","75949891","wem/bandit_party_2","A2XP8RZM8ERTY","either","1","412","","","","","","","1","0","0","0.6617219445","","0.4","0.2","0.6","0.8","","","","","0.3434973012","0.1548240476","0.6617219445","0.09722607165","","","","","","","","","","75","K","2","","","130","main_expt",""
"","bandit","210","578354","0.0-172.0-0.0","75949891","wem/bandit_party_2","A2XP8RZM8ERTY","either","1","460","","","","","","","0","0","1","","0.6183560712","0.4","0.2","0.6","0.8","0.3848082556","0.1503989","0.6183560712","0.05626421391","","","","","","","","","","","","","","75","K","2","","","131","main_expt",""
"","bandit","211","580284","0.0-173.0-0.0","75949891","wem/bandit_party_2","A2XP8RZM8ERTY","either","1","421","","","","","","","0","1","0","","0.7009512511","0.4","0.2","0.6","0.8","0.4140069858","0.1199593994","0.7009512511","0.1149854728","","","","","","","","","","","","","","75","K","2","","","132","main_expt",""
"","bandit","212","582386","0.0-174.0-0.0","75949891","wem/bandit_party_2","A2XP8RZM8ERTY","either","1","594","","","","","","","0","0","1","","0.5838974895","0.4","0.2","0.6","0.8","0.3745017877","0.1518383839","0.5838974895","0.1698175541","","","","","","","","","","","","","","75","K","2","","","133","main_expt",""
"","bandit","213","584250","0.0-175.0-0.0","75949891","wem/bandit_party_2","A2XP8RZM8ERTY","either","1","357","","","","","","","0","0","1","0.6628563986","","0.4","0.2","0.6","0.8","","","","","0.3918835711","0.1855528241","0.6628563986","0.1925371395","","","","","","","","","","75","K","2","","","134","main_expt",""
"","bandit","214","586098","0.0-176.0-0.0","75949891","wem/bandit_party_2","A2XP8RZM8ERTY","either","1","341","","","","","","","0","1","0","","0.5610912218","0.4","0.2","0.6","0.8","0.3405764209","0.2187769305","0.5610912218","0.246136332","","","","","","","","","","","","","","75","K","2","","","135","main_expt",""
"","bandit","215","588005","0.0-177.0-0.0","75949891","wem/bandit_party_2","A2XP8RZM8ERTY","either","1","397","","","","","","","1","0","0","0.4834649218","","0.4","0.2","0.6","0.8","","","","","0.4155430462","0.2001534018","0.4834649218","0.2277518718","","","","","","","","","","75","K","2","","","136","main_expt",""
"","bandit","216","589826","0.0-178.0-0.0","75949891","wem/bandit_party_2","A2XP8RZM8ERTY","either","1","314","","","","","","","0","0","1","","0.513072369","0.4","0.2","0.6","0.8","0.3389252929","0.176995917","0.513072369","0.252962458","","","","","","","","","","","","","","75","K","2","","","137","main_expt",""
"","bandit","217","591698","0.0-179.0-0.0","75949891","wem/bandit_party_2","A2XP8RZM8ERTY","either","1","365","","","","","","","0","0","1","0.5502636267","","0.4","0.2","0.6","0.8","","","","","0.2698753193","0.1460019238","0.5502636267","0.3018696236","","","","","","","","","","75","K","2","","","138","main_expt",""
"","bandit","218","593516","0.0-180.0-0.0","75949891","wem/bandit_party_2","A2XP8RZM8ERTY","either","1","309","","","","","","","0","0","1","0.4564922144","","0.4","0.2","0.6","0.8","","","","","0.2821570394","0.06707115951","0.4564922144","0.347353107","","","","","","","","","","75","K","2","","","139","main_expt",""
"","bandit","219","595402","0.0-181.0-0.0","75949891","wem/bandit_party_2","A2XP8RZM8ERTY","either","1","378","","","","","","","0","0","1","","0.4116013625","0.4","0.2","0.6","0.8","0.3577533322","0.1071331831","0.4116013625","0.2477375586","","","","","","","","","","","","","","75","K","2","","","140","main_expt",""
"","bandit","220","597329","0.0-182.0-0.0","75949891","wem/bandit_party_2","A2XP8RZM8ERTY","either","1","421","","","","","","","0","1","0","","0.4498847811","0.4","0.2","0.6","0.8","0.4250900652","0.1224459691","0.4498847811","0.2880826197","","","","","","","","","","","","","","75","K","2","","","141","main_expt",""
"","bandit","221","599201","0.0-183.0-0.0","75949891","wem/bandit_party_2","A2XP8RZM8ERTY","either","1","365","","","","","","","1","0","0","0.4822150968","","0.4","0.2","0.6","0.8","","","","","0.3451055681","0.1127900777","0.4822150968","0.2287108423","","","","","","","","","","75","K","2","","","142","main_expt",""
"","bandit","222","601001","0.0-184.0-0.0","75949891","wem/bandit_party_2","A2XP8RZM8ERTY","either","1","292","","","","","","","0","0","1","0.513506041","","0.4","0.2","0.6","0.8","","","","","0.4661026996","0.1736101882","0.513506041","0.2096850542","","","","","","","","","","75","K","2","","","143","main_expt",""
"","bandit","223","602834","0.0-185.0-0.0","75949891","wem/bandit_party_2","A2XP8RZM8ERTY","either","1","324","","","","","","","0","0","1","0.556822441","","0.4","0.2","0.6","0.8","","","","","0.4683168179","0.1231714597","0.556822441","0.2214165798","","","","","","","","","","75","K","2","","","144","main_expt",""
"","bandit","224","604721","0.0-186.0-0.0","75949891","wem/bandit_party_2","A2XP8RZM8ERTY","either","1","380","","","","","","","1","0","0","0.5633269006","","0.4","0.2","0.6","0.8","","","","","0.448697065","0.10514291","0.5633269006","0.2412424024","","","","","","","","","","75","K","2","","","145","main_expt",""
"","bandit","225","606665","0.0-187.0-0.0","75949891","wem/bandit_party_2","A2XP8RZM8ERTY","either","1","436","","","","","","","1","0","0","0.6482805244","","0.4","0.2","0.6","0.8","","","","","0.4560677512","0.0972381369","0.6482805244","0.1841611904","","","","","","","","","","75","K","2","","","146","main_expt",""
"","bandit","226","608513","0.0-188.0-0.0","75949891","wem/bandit_party_2","A2XP8RZM8ERTY","either","1","342","","","","","","","0","0","1","","0.6036290043","0.4","0.2","0.6","0.8","0.513472809","0.1897119627","0.6036290043","0.1577922033","","","","","","","","","","","","","","75","K","2","","","147","main_expt",""
"","bandit","227","610324","0.0-189.0-0.0","75949891","wem/bandit_party_2","A2XP8RZM8ERTY","either","1","300","","","","","","","0","0","1","","0.6110248825","0.4","0.2","0.6","0.8","0.3820674583","0.1759094881","0.6110248825","0.1663963597","","","","","","","","","","","","","","75","K","2","","","148","main_expt",""
"","bandit","228","612114","0.0-190.0-0.0","75949891","wem/bandit_party_2","A2XP8RZM8ERTY","either","1","281","","","","","","","0","0","1","","0.6453676348","0.4","0.2","0.6","0.8","0.3116557105","0.2204336569","0.6453676348","0.319747154","","","","","","","","","","","","","","75","K","2","","","149","main_expt",""
"","bandit","229","613961","0.0-191.0-0.0","75949891","wem/bandit_party_2","A2XP8RZM8ERTY","either","1","340","","","","","","","1","0","0","0.66235511","","0.4","0.2","0.6","0.8","","","","","0.3039338698","0.2328853871","0.66235511","0.5410110608","","","","","","","","","","75","K","2","","","150","main_expt",""
"","bandit","230","615956","0.0-192.0-0.0","75949891","wem/bandit_party_2","A2XP8RZM8ERTY","either","1","485","","","","","","","0","0","1","0.5547575852","","0.4","0.2","0.6","0.8","","","","","0.3092958796","0.2652525627","0.5547575852","0.5584745132","","","","","","","","","","75","K","2","","","151","main_expt",""
"","bandit","231","618081","0.0-193.0-0.0","75949891","wem/bandit_party_2","A2XP8RZM8ERTY","either","1","618","","","","","","","1","0","0","0.5223098228","","0.4","0.2","0.6","0.8","","","","","0.3097370874","0.2654363334","0.5223098228","0.5709378499","","","","","","","","","","75","K","2","","","152","main_expt",""
"","bandit","232","620041","0.0-194.0-0.0","75949891","wem/bandit_party_2","A2XP8RZM8ERTY","either","1","453","","","","","","","0","0","1","0.5137303037","","0.4","0.2","0.6","0.8","","","","","0.2955649657","0.3505589273","0.5137303037","0.6314515046","","","","","","","","","","75","K","2","","","153","main_expt",""
"","bandit","233","621945","0.0-195.0-0.0","75949891","wem/bandit_party_2","A2XP8RZM8ERTY","either","1","397","","","","","","","0","1","0","","0.5193194566","0.4","0.2","0.6","0.8","0.221553637","0.39889796","0.5193194566","0.6734276465","","","","","","","","","","","","","","75","K","2","","","154","main_expt",""
"","bandit","234","624083","0.0-196.0-0.0","75949891","wem/bandit_party_2","A2XP8RZM8ERTY","either","1","629","","","","","","","1","0","0","0.4736812385","","0.4","0.2","0.6","0.8","","","","","0.2231547498","0.4202606707","0.4736812385","0.7019144477","","","","","","","","","","75","K","2","","","155","main_expt",""
"","bandit","235","626345","0.0-197.0-0.0","75949891","wem/bandit_party_2","A2XP8RZM8ERTY","either","1","754","","","","","","","1","0","0","0.4616442501","","0.4","0.2","0.6","0.8","","","","","0.2750957943","0.4814159609","0.4616442501","0.6695455193","","","","","","","","","","75","K","2","","","156","main_expt",""
"","bandit","236","628657","0.0-198.0-0.0","75949891","wem/bandit_party_2","A2XP8RZM8ERTY","either","1","805","","","","","","","0","0","1","0.5025740222","","0.4","0.2","0.6","0.8","","","","","0.2005793054","0.5316807058","0.5025740222","0.6179864128","","","","","","","","","","75","K","2","","","157","main_expt",""
"","bandit","237","630801","0.0-199.0-0.0","75949891","wem/bandit_party_2","A2XP8RZM8ERTY","either","1","636","","","","","","","0","1","0","","0.4548105643","0.4","0.2","0.6","0.8","0.2502080146","0.5429668589","0.4548105643","0.7380689997","","","","","","","","","","","","","","75","K","2","","","158","main_expt",""
"","bandit","238","632714","0.0-200.0-0.0","75949891","wem/bandit_party_2","A2XP8RZM8ERTY","either","1","406","","","","","","","0","0","1","","0.4622667215","0.4","0.2","0.6","0.8","0.2729805177","0.5991419929","0.4622667215","0.7632184112","","","","","","","","","","","","","","75","K","2","","","159","main_expt",""
"","bandit","239","634633","0.0-201.0-0.0","75949891","wem/bandit_party_2","A2XP8RZM8ERTY","either","1","411","","","","","","","0","0","1","0.4600517474","","0.4","0.2","0.6","0.8","","","","","0.2801697818","0.6480894682","0.4600517474","0.6917664031","","","","","","","","","","75","K","2","","","160","main_expt",""
"","bandit","240","636561","0.0-202.0-0.0","75949891","wem/bandit_party_2","A2XP8RZM8ERTY","either","1","420","","","","","","","0","0","1","","0.481388234","0.4","0.2","0.6","0.8","0.2437938608","0.6776161973","0.481388234","0.7106531984","","","","","","","","","","","","","","75","K","2","","","161","main_expt",""
"","bandit","241","638616","0.0-203.0-0.0","75949891","wem/bandit_party_2","A2XP8RZM8ERTY","either","1","548","","","","","","","0","0","1","0.3850106192","","0.4","0.2","0.6","0.8","","","","","0.2687553501","0.7134031715","0.3850106192","0.809310282","","","","","","","","","","75","K","2","","","162","main_expt",""
"","bandit","242","640728","0.0-204.0-0.0","75949891","wem/bandit_party_2","A2XP8RZM8ERTY","either","1","603","","","","","","","0","1","0","","0.6215635068","0.4","0.2","0.6","0.8","0.245991677","0.6215635068","0.3498723973","0.7492875705","","","","","","","","","","","","","","74","J","1","","","163","main_expt",""
"","bandit","243","642801","0.0-205.0-0.0","75949891","wem/bandit_party_2","A2XP8RZM8ERTY","either","1","564","","","","","","","0","0","1","","0.5219240024","0.4","0.2","0.6","0.8","0.270385563","0.5219240024","0.4287417444","0.7561394707","","","","","","","","","","","","","","74","J","1","","","164","main_expt",""
"","bandit","244","644745","0.0-206.0-0.0","75949891","wem/bandit_party_2","A2XP8RZM8ERTY","either","1","433","","","","","","","0","0","1","","0.4727302842","0.4","0.2","0.6","0.8","0.3037855967","0.4727302842","0.3150145745","0.8111415702","","","","","","","","","","","","","","74","J","1","","","165","main_expt",""
"","bandit","245","646728","0.0-207.0-0.0","75949891","wem/bandit_party_2","A2XP8RZM8ERTY","either","1","476","","","","","","","0","1","0","","0.5181018645","0.4","0.2","0.6","0.8","0.3395577104","0.5181018645","0.2927018344","0.7759938205","","","","","","","","","","","","","","74","J","1","","","166","main_expt",""
"","bandit","246","648616","0.0-208.0-0.0","75949891","wem/bandit_party_2","A2XP8RZM8ERTY","either","1","381","","","","","","","0","0","1","","0.5280433419","0.4","0.2","0.6","0.8","0.3443901906","0.5280433419","0.3610256338","0.8267633335","","","","","","","","","","","","","","74","J","1","","","167","main_expt",""
"","bandit","247","650504","0.0-209.0-0.0","75949891","wem/bandit_party_2","A2XP8RZM8ERTY","either","1","381","","","","","","","0","1","0","","0.5470010145","0.4","0.2","0.6","0.8","0.2552323567","0.5470010145","0.3137127159","0.8136073627","","","","","","","","","","","","","","74","J","1","","","168","main_expt",""
"","bandit","248","652472","0.0-210.0-0.0","75949891","wem/bandit_party_2","A2XP8RZM8ERTY","either","1","459","","","","","","","0","1","0","","0.5558845962","0.4","0.2","0.6","0.8","0.289352286","0.5558845962","0.2292796242","0.7308533614","","","","","","","","","","","","","","74","J","1","","","169","main_expt",""
"","bandit","249","654607","0.0-211.0-0.0","75949891","wem/bandit_party_2","A2XP8RZM8ERTY","either","1","628","","","","","","","0","1","0","","0.5799309324","0.4","0.2","0.6","0.8","0.2262743404","0.5799309324","0.221948569","0.7090730391","","","","","","","","","","","","","","74","J","1","","","170","main_expt",""
"","bandit","250","656672","0.0-212.0-0.0","75949891","wem/bandit_party_2","A2XP8RZM8ERTY","either","1","556","","","","","","","0","1","0","","0.6643953266","0.4","0.2","0.6","0.8","0.2644351609","0.6643953266","0.159615594","0.7229684446","","","","","","","","","","","","","","74","J","1","","","171","main_expt",""
"","bandit","251","658914","0.0-213.0-0.0","75949891","wem/bandit_party_2","A2XP8RZM8ERTY","either","1","733","","","","","","","0","1","0","","0.7610666705","0.4","0.2","0.6","0.8","0.4136296373","0.7610666705","0.1303854457","0.6612043244","","","","","","","","","","","","","","74","J","1","","","172","main_expt",""
"","bandit","252","661167","0.0-214.0-0.0","75949891","wem/bandit_party_2","A2XP8RZM8ERTY","either","1","746","","","","","","","0","1","0","","0.8006149786","0.4","0.2","0.6","0.8","0.491318492","0.8006149786","0.07729024622","0.7669021743","","","","","","","","","","","","","","74","J","1","","","173","main_expt",""
"","bandit","253","663031","0.0-215.0-0.0","75949891","wem/bandit_party_2","A2XP8RZM8ERTY","either","1","357","","","","","","","0","1","0","","0.791095403","0.4","0.2","0.6","0.8","0.4966763124","0.791095403","0.1227026474","0.8111867287","","","","","","","","","","","","","","74","J","1","","","174","main_expt",""
"","bandit","254","665130","0.0-216.0-0.0","75949891","wem/bandit_party_2","A2XP8RZM8ERTY","either","1","589","","","","","","","0","1","0","","0.8572088762","0.4","0.2","0.6","0.8","0.5109350621","0.8572088762","0.09483306355","0.8192498968","","","","","","","","","","","","","","74","J","1","","","175","main_expt",""
"","bandit","255","667263","0.0-217.0-0.0","75949891","wem/bandit_party_2","A2XP8RZM8ERTY","either","1","626","","","","","","","0","1","0","","0.8576080684","0.4","0.2","0.6","0.8","0.6321295754","0.8576080684","0.143069758","0.8371283275","","","","","","","","","","","","","","74","J","1","","","176","main_expt",""
"","bandit","256","669350","0.0-218.0-0.0","75949891","wem/bandit_party_2","A2XP8RZM8ERTY","either","1","580","","","","","","","1","0","0","0.8678158231","","0.4","0.2","0.6","0.8","","","","","0.5515755996","0.8678158231","0.1741656422","0.8545140947","","","","","","","","","","74","J","1","","","177","main_expt",""
"","bandit","257","671591","0.0-219.0-0.0","75949891","wem/bandit_party_2","A2XP8RZM8ERTY","either","1","733","","","","","","","0","1","0","","0.8820542777","0.4","0.2","0.6","0.8","0.5086275016","0.8820542777","0.1904086474","0.8794893657","","","","","","","","","","","","","","74","J","1","","","178","main_expt",""
"","bandit","258","673794","0.0-220.0-0.0","75949891","wem/bandit_party_2","A2XP8RZM8ERTY","either","1","692","","","","","","","0","1","0","","0.8907334788","0.4","0.2","0.6","0.8","0.5215192908","0.8907334788","0.1778905233","0.8939587296","","","","","","","","","","","","","","74","J","1","","","179","main_expt",""
"","bandit","259","675943","0.0-221.0-0.0","75949891","wem/bandit_party_2","A2XP8RZM8ERTY","either","1","642","","","","","","","0","0","1","","0.9161653667","0.4","0.2","0.6","0.8","0.5193414217","0.9161653667","0.2112817454","0.868077767","","","","","","","","","","","","","","74","J","1","","","180","main_expt",""
"","bandit","260","677983","0.0-222.0-0.0","75949891","wem/bandit_party_2","A2XP8RZM8ERTY","either","1","532","","","","","","","0","1","0","","0.9327112184","0.4","0.2","0.6","0.8","0.4613460131","0.9327112184","0.2236312472","0.9295405476","","","","","","","","","","","","","","74","J","1","","","181","main_expt",""
"","bandit","261","680009","0.0-223.0-0.0","75949891","wem/bandit_party_2","A2XP8RZM8ERTY","either","1","517","","","","","","","0","1","0","","0.9284398706","0.4","0.2","0.6","0.8","0.4468633868","0.9284398706","0.264467441","0.9213574857","","","","","","","","","","","","","","74","J","1","","","182","main_expt",""
"","bandit","262","682215","0.0-224.0-0.0","75949891","wem/bandit_party_2","A2XP8RZM8ERTY","either","1","699","","","","","","","0","1","0","","0.89591471","0.4","0.2","0.6","0.8","0.4985091709","0.89591471","0.2240632979","0.9374560388","","","","","","","","","","","","","","74","J","1","","","183","main_expt",""
"","bandit","263","684280","0.0-225.0-0.0","75949891","wem/bandit_party_2","A2XP8RZM8ERTY","either","1","556","","","","","","","0","1","0","","0.9146434193","0.4","0.2","0.6","0.8","0.6057575335","0.9146434193","0.1671404848","0.9120054929","","","","","","","","","","","","","","74","J","1","","","184","main_expt",""
"","bandit","264","686439","0.0-226.0-0.0","75949891","wem/bandit_party_2","A2XP8RZM8ERTY","either","1","649","","","","","","","0","1","0","","0.8575823977","0.4","0.2","0.6","0.8","0.4915456485","0.8575823977","0.1932257563","0.8428471033","","","","","","","","","","","","","","74","J","1","","","185","main_expt",""
"","bandit","265","688623","0.0-227.0-0.0","75949891","wem/bandit_party_2","A2XP8RZM8ERTY","either","1","675","","","","","","","1","0","0","0.8487952361","","0.4","0.2","0.6","0.8","","","","","0.5976273718","0.8487952361","0.155472597","0.7734335662","","","","","","","","","","74","J","1","","","186","main_expt",""
"","bandit","266","690679","0.0-228.0-0.0","75949891","wem/bandit_party_2","A2XP8RZM8ERTY","either","1","549","","","","","","","0","1","0","","0.8603972339","0.4","0.2","0.6","0.8","0.5743595779","0.8603972339","0.1895871356","0.7667319261","","","","","","","","","","","","","","74","J","1","","","187","main_expt",""
"","bandit","267","692785","0.0-229.0-0.0","75949891","wem/bandit_party_2","A2XP8RZM8ERTY","either","1","597","","","","","","","0","1","0","","0.8834510925","0.4","0.2","0.6","0.8","0.6833173747","0.8834510925","0.2119556673","0.5945875292","","","","","","","","","","","","","","74","J","1","","","188","main_expt",""
"","bandit","268","694935","0.0-230.0-0.0","75949891","wem/bandit_party_2","A2XP8RZM8ERTY","either","1","642","","","","","","","0","1","0","","0.8973947779","0.4","0.2","0.6","0.8","0.651089354","0.8973947779","0.2255007403","0.7406569186","","","","","","","","","","","","","","74","J","1","","","189","main_expt",""
"","bandit","269","697366","0.0-231.0-0.0","75949891","wem/bandit_party_2","A2XP8RZM8ERTY","either","1","923","","","","","","","0","1","0","","0.8824587855","0.4","0.2","0.6","0.8","0.6599652607","0.8824587855","0.1754842532","0.7371931777","","","","","","","","","","","","","","74","J","1","","","190","main_expt",""
"","bandit","270","699657","0.0-232.0-0.0","75949891","wem/bandit_party_2","A2XP8RZM8ERTY","either","1","780","","","","","","","0","1","0","","0.9076431997","0.4","0.2","0.6","0.8","0.6960236584","0.9076431997","0.1936311571","0.7019705866","","","","","","","","","","","","","","74","J","1","","","191","main_expt",""
"","bandit","271","702086","0.0-233.0-0.0","75949891","wem/bandit_party_2","A2XP8RZM8ERTY","either","1","921","","","","","","","1","0","0","0.8673165995","","0.4","0.2","0.6","0.8","","","","","0.6713911156","0.8673165995","0.215612591","0.6198122665","","","","","","","","","","74","J","1","","","192","main_expt",""
"","bandit","272","704214","0.0-234.0-0.0","75949891","wem/bandit_party_2","A2XP8RZM8ERTY","either","1","620","","","","","","","1","0","0","0.8264401474","","0.4","0.2","0.6","0.8","","","","","0.7244072205","0.8264401474","0.2818734505","0.6100930929","","","","","","","","","","74","J","1","","","193","main_expt",""
"","bandit","273","706345","0.0-235.0-0.0","75949891","wem/bandit_party_2","A2XP8RZM8ERTY","either","1","623","","","","","","","1","0","0","0.8546086414","","0.4","0.2","0.6","0.8","","","","","0.7397798508","0.8546086414","0.3616108755","0.6332739585","","","","","","","","","","74","J","1","","","194","main_expt",""
"","bandit","274","708694","0.0-236.0-0.0","75949891","wem/bandit_party_2","A2XP8RZM8ERTY","either","1","841","","","","","","","1","0","0","0.7914914872","","0.4","0.2","0.6","0.8","","","","","0.7602069811","0.7914914872","0.3979961615","0.609207161","","","","","","","","","","74","J","1","","","195","main_expt",""
"","bandit","275","710854","0.0-237.0-0.0","75949891","wem/bandit_party_2","A2XP8RZM8ERTY","either","1","652","","","","","","","0","1","0","","0.7608346536","0.4","0.2","0.6","0.8","0.7114092524","0.7608346536","0.4366641927","0.6560649547","","","","","","","","","","","","","","74","J","1","","","196","main_expt",""
"","bandit","276","713265","0.0-238.0-0.0","75949891","wem/bandit_party_2","A2XP8RZM8ERTY","either","1","901","","","","","","","0","1","0","","0.7003784325","0.4","0.2","0.6","0.8","0.6917424169","0.7003784325","0.560782874","0.6656533059","","","","","","","","","","","","","","74","J","1","","","197","main_expt",""
"","bandit","277","715718","0.0-239.0-0.0","75949891","wem/bandit_party_2","A2XP8RZM8ERTY","either","1","945","","","","","","","0","1","0","","0.6036075577","0.4","0.2","0.6","0.8","0.6561069913","0.6036075577","0.5649388288","0.6841747727","","","","","","","","","","","","","","74","J","1","","","198","main_expt",""
"","bandit","278","717942","0.0-240.0-0.0","75949891","wem/bandit_party_2","A2XP8RZM8ERTY","either","1","717","","","","","","","0","0","1","0.5843314555","","0.4","0.2","0.6","0.8","","","","","0.6948346643","0.5843314555","0.5375892324","0.7105065455","","","","","","","","","","74","J","1","","","199","main_expt",""
"","bandit","279","720072","0.0-241.0-0.0","75949891","wem/bandit_party_2","A2XP8RZM8ERTY","either","1","621","","","","","","","0","0","1","","0.539414212","0.4","0.2","0.6","0.8","0.7369743936","0.539414212","0.5625167851","0.7380433654","","","","","","","","","","","","","","74","J","1","","","200","main_expt",""
"","bandit","280","722158","0.0-242.0-0.0","75949891","wem/bandit_party_2","A2XP8RZM8ERTY","either","1","578","","","","","","","0","0","1","0.3774065742","","0.4","0.2","0.6","0.8","","","","","0.8347268415","0.3774065742","0.6266810217","0.6432951689","","","","","","","","","","74","J","1","","","201","main_expt",""
"","bandit","281","724038","0.0-243.0-0.0","75949891","wem/bandit_party_2","A2XP8RZM8ERTY","either","1","372","","","","","","","0","0","1","","0.2824615609","0.4","0.2","0.6","0.8","0.7612264534","0.2824615609","0.6661075828","0.4995879772","","","","","","","","","","","","","","74","J","1","","","202","main_expt",""
"","bandit","282","725952","0.0-244.0-0.0","75949891","wem/bandit_party_2","A2XP8RZM8ERTY","either","1","406","","","","","","","0","0","1","","0.210170224","0.4","0.2","0.6","0.8","0.6904596671","0.210170224","0.7534099026","0.4767352753","","","","","","","","","","","","","","74","J","1","","","203","main_expt",""
"","bandit","283","727790","0.0-245.0-0.0","75949891","wem/bandit_party_2","A2XP8RZM8ERTY","either","1","329","","","","","","","1","0","0","0.7033522103","","0.4","0.2","0.6","0.8","","","","","0.6855485072","0.2708138581","0.7033522103","0.3680612217","","","","","","","","","","75","K","2","","","204","main_expt",""
"","bandit","284","729758","0.0-246.0-0.0","75949891","wem/bandit_party_2","A2XP8RZM8ERTY","either","1","456","","","","","","","0","1","0","","0.6105989365","0.4","0.2","0.6","0.8","0.7006332368","0.3319820794","0.6105989365","0.3404512965","","","","","","","","","","","","","","75","K","2","","","205","main_expt",""
"","bandit","285","731749","0.0-247.0-0.0","75949891","wem/bandit_party_2","A2XP8RZM8ERTY","either","1","483","","","","","","","0","1","0","","0.725137222","0.4","0.2","0.6","0.8","0.7533130943","0.3517339603","0.725137222","0.2774568564","","","","","","","","","","","","","","75","K","2","","","206","main_expt",""
"","bandit","286","733853","0.0-248.0-0.0","75949891","wem/bandit_party_2","A2XP8RZM8ERTY","either","1","596","","","","","","","1","0","0","0.5888984072","","0.4","0.2","0.6","0.8","","","","","0.7191760557","0.2871079035","0.5888984072","0.2228883469","","","","","","","","","","75","K","2","","","207","main_expt",""
"","bandit","287","735845","0.0-249.0-0.0","75949891","wem/bandit_party_2","A2XP8RZM8ERTY","either","1","484","","","","","","","0","0","1","","0.4650323514","0.4","0.2","0.6","0.8","0.6264293856","0.2642306377","0.4650323514","0.2829247412","","","","","","","","","","","","","","75","K","2","","","208","main_expt",""
"","bandit","288","737671","0.0-250.0-0.0","75949891","wem/bandit_party_2","A2XP8RZM8ERTY","either","1","316","","","","","","","0","0","1","","0.4100719568","0.4","0.2","0.6","0.8","0.6500478562","0.3587725811","0.4100719568","0.3169104167","","","","","","","","","","","","","","75","K","2","","","209","main_expt",""
"","bandit","289","739525","0.0-251.0-0.0","75949891","wem/bandit_party_2","A2XP8RZM8ERTY","either","1","346","","","","","","","0","0","1","0.5177296744","","0.4","0.2","0.6","0.8","","","","","0.6498865343","0.3103342645","0.5177296744","0.2090062306","","","","","","","","","","75","K","2","","","210","main_expt",""
"","bandit","290","741405","0.0-252.0-0.0","75949891","wem/bandit_party_2","A2XP8RZM8ERTY","either","1","372","","","","","","","0","0","1","0.5950812693","","0.4","0.2","0.6","0.8","","","","","0.6056301442","0.3760595068","0.5950812693","0.1481662818","","","","","","","","","","75","K","2","","","211","main_expt",""
"","bandit","291","743255","0.0-253.0-0.0","75949891","wem/bandit_party_2","A2XP8RZM8ERTY","either","1","340","","","","","","","1","0","0","0.447023013","","0.4","0.2","0.6","0.8","","","","","0.5524844402","0.447023013","0.7169745983","0.2114888193","","","","","","","","","","74","J","1","","","212","main_expt",""
"","bandit","292","745245","0.0-254.0-0.0","75949891","wem/bandit_party_2","A2XP8RZM8ERTY","either","1","482","","","","","","","0","0","1","0.4529182837","","0.4","0.2","0.6","0.8","","","","","0.6984249358","0.4529182837","0.6766124197","0.2234642754","","","","","","","","","","74","J","1","","","213","main_expt",""
"","bandit","293","747213","0.0-255.0-0.0","75949891","wem/bandit_party_2","A2XP8RZM8ERTY","either","1","461","","","","","","","0","0","1","","0.4306534983","0.4","0.2","0.6","0.8","0.5996975418","0.4306534983","0.8005648136","0.2315139555","","","","","","","","","","","","","","74","J","1","","","214","main_expt",""
"","bandit","294","749172","0.0-256.0-0.0","75949891","wem/bandit_party_2","A2XP8RZM8ERTY","either","1","452","","","","","","","0","1","0","","0.4314469479","0.4","0.2","0.6","0.8","0.6067129047","0.4314469479","0.8487964291","0.1949488974","","","","","","","","","","","","","","74","J","1","","","215","main_expt",""
"","bandit","295","751111","0.0-257.0-0.0","75949891","wem/bandit_party_2","A2XP8RZM8ERTY","either","1","429","","","","","","","0","1","0","","0.45439575","0.4","0.2","0.6","0.8","0.6297976658","0.45439575","0.8674123454","0.2333303883","","","","","","","","","","","","","","74","J","1","","","216","main_expt",""
"","bandit","296","753053","0.0-258.0-0.0","75949891","wem/bandit_party_2","A2XP8RZM8ERTY","either","1","433","","","","","","","0","1","0","","0.5228861726","0.4","0.2","0.6","0.8","0.6095272491","0.5228861726","0.8774404243","0.2027763819","","","","","","","","","","","","","","74","J","1","","","217","main_expt",""
"","bandit","297","755125","0.0-259.0-0.0","75949891","wem/bandit_party_2","A2XP8RZM8ERTY","either","1","564","","","","","","","0","0","1","","0.463703458","0.4","0.2","0.6","0.8","0.7058099393","0.463703458","0.8836448068","0.1895874514","","","","","","","","","","","","","","74","J","1","","","218","main_expt",""
"","bandit","298","757006","0.0-260.0-0.0","75949891","wem/bandit_party_2","A2XP8RZM8ERTY","either","1","371","","","","","","","0","0","1","","0.4522864467","0.4","0.2","0.6","0.8","0.7396246451","0.4522864467","0.880498508","0.1537120117","","","","","","","","","","","","","","74","J","1","","","219","main_expt",""
"","bandit","299","758836","0.0-261.0-0.0","75949891","wem/bandit_party_2","A2XP8RZM8ERTY","either","1","323","","","","","","","0","0","1","","0.4561576612","0.4","0.2","0.6","0.8","0.7091968036","0.4561576612","0.8740874997","0.2022747423","","","","","","","","","","","","","","74","J","1","","","220","main_expt",""
"","bandit","300","760652","0.0-262.0-0.0","75949891","wem/bandit_party_2","A2XP8RZM8ERTY","either","1","308","","","","","","","0","0","1","0.4264657168","","0.4","0.2","0.6","0.8","","","","","0.7116308873","0.4264657168","0.8527830905","0.3174413427","","","","","","","","","","74","J","1","","","221","main_expt",""
"","bandit","301","762580","0.0-263.0-0.0","75949891","wem/bandit_party_2","A2XP8RZM8ERTY","either","1","420","","","","","","","0","0","1","0.3055141729","","0.4","0.2","0.6","0.8","","","","","0.769465391","0.3055141729","0.7717907476","0.2315667073","","","","","","","","","","74","J","1","","","222","main_expt",""
"","bandit","302","764444","0.0-264.0-0.0","75949891","wem/bandit_party_2","A2XP8RZM8ERTY","either","1","356","","","","","","","0","1","0","","0.8359700354","0.4","0.2","0.6","0.8","0.7509006974","0.2868954791","0.8359700354","0.2261006122","","","","","","","","","","","","","","75","K","2","","","223","main_expt",""
"","bandit","303","766372","0.0-265.0-0.0","75949891","wem/bandit_party_2","A2XP8RZM8ERTY","either","1","419","","","","","","","0","0","1","0.819670806","","0.4","0.2","0.6","0.8","","","","","0.7007688409","0.2698185242","0.819670806","0.2662378096","","","","","","","","","","75","K","2","","","224","main_expt",""
"","bandit","304","768291","0.0-266.0-0.0","75949891","wem/bandit_party_2","A2XP8RZM8ERTY","either","1","412","","","","","","","1","0","0","0.8512382749","","0.4","0.2","0.6","0.8","","","","","0.7409020096","0.213842325","0.8512382749","0.2163280173","","","","","","","","","","75","K","2","","","225","main_expt",""
"","bandit","305","770134","0.0-267.0-0.0","75949891","wem/bandit_party_2","A2XP8RZM8ERTY","either","1","333","","","","","","","1","0","0","0.8342861847","","0.4","0.2","0.6","0.8","","","","","0.7052945704","0.1616408491","0.8342861847","0.2809353625","","","","","","","","","","75","K","2","","","226","main_expt",""
"","bandit","306","772076","0.0-268.0-0.0","75949891","wem/bandit_party_2","A2XP8RZM8ERTY","either","1","434","","","","","","","1","0","0","0.7736041865","","0.4","0.2","0.6","0.8","","","","","0.606091252","0.1777599287","0.7736041865","0.2396571279","","","","","","","","","","75","K","2","","","227","main_expt",""
"","bandit","307","773980","0.0-269.0-0.0","75949891","wem/bandit_party_2","A2XP8RZM8ERTY","either","1","396","","","","","","","0","1","0","","0.8094350608","0.4","0.2","0.6","0.8","0.5834203199","0.2866543064","0.8094350608","0.3430446928","","","","","","","","","","","","","","75","K","2","","","228","main_expt",""
"","bandit","308","775869","0.0-270.0-0.0","75949891","wem/bandit_party_2","A2XP8RZM8ERTY","either","1","382","","","","","","","0","0","1","","0.8078722129","0.4","0.2","0.6","0.8","0.5466214007","0.3948293382","0.8078722129","0.2886233194","","","","","","","","","","","","","","75","K","2","","","229","main_expt",""
"","bandit","309","777716","0.0-271.0-0.0","75949891","wem/bandit_party_2","A2XP8RZM8ERTY","either","1","339","","","","","","","0","1","0","","0.7719043616","0.4","0.2","0.6","0.8","0.5519014059","0.3291786684","0.7719043616","0.3213731463","","","","","","","","","","","","","","75","K","2","","","230","main_expt",""
"","bandit","310","779604","0.0-272.0-0.0","75949891","wem/bandit_party_2","A2XP8RZM8ERTY","either","1","381","","","","","","","0","1","0","","0.8049264475","0.4","0.2","0.6","0.8","0.4527164215","0.2378236032","0.8049264475","0.2771614906","","","","","","","","","","","","","","75","K","2","","","231","main_expt",""
"","bandit","311","781469","0.0-273.0-0.0","75949891","wem/bandit_party_2","A2XP8RZM8ERTY","either","1","357","","","","","","","0","0","1","","0.8850589997","0.4","0.2","0.6","0.8","0.5135082398","0.246393804","0.8850589997","0.2249105956","","","","","","","","","","","","","","75","K","2","","","232","main_expt",""
"","bandit","312","783188","0.0-274.0-0.0","75949891","wem/bandit_party_2","A2XP8RZM8ERTY","either","1","210","","","","","","","1","0","0","0.9183615156","","0.4","0.2","0.6","0.8","","","","","0.5502454751","0.2141634692","0.9183615156","0.2447973041","","","","","","","","","","75","K","2","","","233","main_expt",""
"","bandit","313","785051","0.0-275.0-0.0","75949891","wem/bandit_party_2","A2XP8RZM8ERTY","either","1","356","","","","","","","1","0","0","0.9639410842","","0.4","0.2","0.6","0.8","","","","","0.3783923662","0.2876436191","0.9639410842","0.24601643","","","","","","","","","","75","K","2","","","234","main_expt",""
"","bandit","314","786875","0.0-276.0-0.0","75949891","wem/bandit_party_2","A2XP8RZM8ERTY","either","1","316","","","","","","","1","0","0","0.9697187448","","0.4","0.2","0.6","0.8","","","","","0.2814299379","0.2769077257","0.9697187448","0.1629844561","","","","","","","","","","75","K","2","","","235","main_expt",""
"","bandit","315","788740","0.0-277.0-0.0","75949891","wem/bandit_party_2","A2XP8RZM8ERTY","either","1","356","","","","","","","1","0","0","0.9571573523","","0.4","0.2","0.6","0.8","","","","","0.3106100538","0.136865198","0.9571573523","0.1929455839","","","","","","","","","","75","K","2","","","236","main_expt",""
"","bandit","316","790635","0.0-278.0-0.0","75949891","wem/bandit_party_2","A2XP8RZM8ERTY","either","1","387","","","","","","","0","0","1","0.9170696074","","0.4","0.2","0.6","0.8","","","","","0.3152445528","0.1123790732","0.9170696074","0.1497712966","","","","","","","","","","75","K","2","","","237","main_expt",""
"","bandit","317","792563","0.0-279.0-0.0","75949891","wem/bandit_party_2","A2XP8RZM8ERTY","either","1","420","","","","","","","1","0","0","0.9207491077","","0.4","0.2","0.6","0.8","","","","","0.2637175197","0.09027024906","0.9207491077","0.1526491196","","","","","","","","","","75","K","2","","","238","main_expt",""
"","bandit","318","794597","0.0-280.0-0.0","75949891","wem/bandit_party_2","A2XP8RZM8ERTY","either","1","525","","","","","","","0","1","0","","0.9211301165","0.4","0.2","0.6","0.8","0.1889878372","0.08323179304","0.9211301165","0.1745924244","","","","","","","","","","","","","","75","K","2","","","239","main_expt",""
"","bandit","319","796555","0.0-281.0-0.0","75949891","wem/bandit_party_2","A2XP8RZM8ERTY","either","1","450","","","","","","","1","0","0","0.8992774771","","0.4","0.2","0.6","0.8","","","","","0.1710885746","0.08130265934","0.8992774771","0.1159399908","","","","","","","","","","75","K","2","","","240","main_expt",""
"","bandit","320","798803","0.0-282.0-0.0","75949891","wem/bandit_party_2","A2XP8RZM8ERTY","either","1","740","","","","","","","1","0","0","0.8977441673","","0.4","0.2","0.6","0.8","","","","","0.1232632504","0.1424736114","0.8977441673","0.1682101231","","","","","","","","","","75","K","2","","","241","main_expt",""
"","bandit","321","800779","0.0-283.0-0.0","75949891","wem/bandit_party_2","A2XP8RZM8ERTY","either","1","468","","","","","","","0","1","0","","0.853076495","0.4","0.2","0.6","0.8","0.210295675","0.2433221762","0.853076495","0.1643169396","","","","","","","","","","","","","","75","K","2","","","242","main_expt",""
