"consent","trial_type","trial_index","time_elapsed","internal_node_id","subjID","study","MID","cond","drift","rt","responses","button_pressed","key_press","like","value","connected","gems","bombs","no_reward","GemPrChosen","BombPrChosen","GainOverPainPr_0","GainOverPainPr_1","GainOverPainPr_2","GainOverPainPr_3","LosePr_0","LosePr_1","LosePr_2","LosePr_3","WinPr_0","WinPr_1","WinPr_2","WinPr_3","Q0","Q1","Q2","gender","age","ethnicity","label","expt_phase","target","respCharCode","respKey","respChoiceNum","respChoice","practice","trial_counter","trial_label","Q0_index","view_history"
"GDM/GDM_behavioral_consent_30min_online.html","consent","0","139747","0.0-0.0","76623023","wem/bandit_party_2","A2MEJZRCLOSOSF","either","6","","","","","","","","","","","","","","","","","","","","","","","","","","","","","","","","","","","","","","","","","",""
"","survey-text","1","149322","0.0-1.0","76623023","wem/bandit_party_2","A2MEJZRCLOSOSF","either","6","8538","{""Q0"":""A2MEJZRCLOSOSF""}","","","","","","","","","","","","","","","","","","","","","","","","","","","","","","","","","","","","","","","",""
"","button-response","2","153457","0.0-2.0","76623023","wem/bandit_party_2","A2MEJZRCLOSOSF","either","6","3111","","1","","","","","","","","","","","","","","","","","","","","","","","","","","","","","","","","","","","","","","",""
"","text-replacement","3","181815","0.0-3.0","76623023","wem/bandit_party_2","A2MEJZRCLOSOSF","either","6","27341","","","32","","","","","","","","","","","","","","","","","","","","","","","","","","","","","","","","","","","","","",""
"","text-replacement","4","190386","0.0-4.0","76623023","wem/bandit_party_2","A2MEJZRCLOSOSF","either","6","8569","","","32","","","","","","","","","","","","","","","","","","","","","","","","","","","","","","","","","","","","","",""
"","identification","5","202723","0.0-6.0-0.0","76623023","wem/bandit_party_2","A2MEJZRCLOSOSF","either","6","12287","","","","6","6","6","","","","","","","","","","","","","","","","","","","","","","","","pre","identification_pre","the Democratic Party","","","","","","","","",""
"","identification","6","209882","0.0-6.0-1.0","76623023","wem/bandit_party_2","A2MEJZRCLOSOSF","either","6","6098","","","","3","3","3","","","","","","","","","","","","","","","","","","","","","","","","pre","identification_pre","the Republican Party","","","","","","","","",""
"","text-replacement","7","235949","0.0-7.0","76623023","wem/bandit_party_2","A2MEJZRCLOSOSF","either","6","25052","","","32","","","","","","","","","","","","","","","","","","","","","","","","","","","","","","","","","","","","","",""
"","text-replacement","8","246452","0.0-8.0","76623023","wem/bandit_party_2","A2MEJZRCLOSOSF","either","6","10500","","","32","","","","","","","","","","","","","","","","","","","","","","","","","","","","","","","","","","","","","",""
"","text-replacement","9","263757","0.0-9.0","76623023","wem/bandit_party_2","A2MEJZRCLOSOSF","either","6","17302","","","32","","","","","","","","","","","","","","","","","","","","","","","","","","","","","","","","","","","","","",""
"","text-replacement","10","274411","0.0-10.0","76623023","wem/bandit_party_2","A2MEJZRCLOSOSF","either","6","10651","","","32","","","","","","","","","","","","","","","","","","","","","","","","","","","","","","","","","","","","","",""
"","text-replacement","11","281477","0.0-11.0","76623023","wem/bandit_party_2","A2MEJZRCLOSOSF","either","6","7064","","","32","","","","","","","","","","","","","","","","","","","","","","","","","","","","","","","","","","","","","",""
"","bandit","12","289582","0.0-12.0-0.0","76623023","wem/bandit_party_2","A2MEJZRCLOSOSF","either","6","6570","","","","","","","0","0","1","0","0","","","","","0","","","","0","","","","","","","","","","","","","74","J","0","img/none_selected_demo.jpg","true","0","","",""
"","bandit","13","295862","0.0-13.0-0.0","76623023","wem/bandit_party_2","A2MEJZRCLOSOSF","either","6","4750","","","","","","","0","0","1","0","0","","","","","0","","","","0","","","","","","","","","","","","","75","K","0","img/none_selected_demo.jpg","true","0","","",""
"","text-replacement","14","305635","0.0-14.0","76623023","wem/bandit_party_2","A2MEJZRCLOSOSF","either","6","9770","","","32","","","","","","","","","","","","","","","","","","","","","","","","","","","","","","","","","","","","","",""
"","text-replacement","15","316342","0.0-15.0","76623023","wem/bandit_party_2","A2MEJZRCLOSOSF","either","6","10704","","","32","","","","","","","","","","","","","","","","","","","","","","","","","","","","","","","","","","","","","",""
"","text-replacement","16","329787","0.0-16.0","76623023","wem/bandit_party_2","A2MEJZRCLOSOSF","either","6","13442","","","32","","","","","","","","","","","","","","","","","","","","","","","","","","","","","","","","","","","","","",""
"","text-replacement","17","337635","0.0-17.0","76623023","wem/bandit_party_2","A2MEJZRCLOSOSF","either","6","7845","","","32","","","","","","","","","","","","","","","","","","","","","","","","","","","","","","","","","","","","","",""
"","bandit","18","342753","0.0-18.0-0.0","76623023","wem/bandit_party_2","A2MEJZRCLOSOSF","either","6","3594","","","","","","","0","0","1","0.2","","0.5","0.5","","","","","","","0.8","0.2","","","","","","","","","","","","75","K","1","","true","0","80_20_practice","",""
"","bandit","19","346503","0.0-18.0-1.0","76623023","wem/bandit_party_2","A2MEJZRCLOSOSF","either","6","2232","","","","","","","0","0","1","","0.8","0.5","0.5","","","0.8","0.2","","","","","","","","","","","","","","","","74","J","0","img/none_selected_demo.jpg","true","0","80_20_practice","",""
"","bandit","20","349964","0.0-18.0-2.0","76623023","wem/bandit_party_2","A2MEJZRCLOSOSF","either","6","1935","","","","","","","0","0","1","0.2","","0.5","0.5","","","","","","","0.8","0.2","","","","","","","","","","","","75","K","1","","true","0","80_20_practice","",""
"","bandit","21","352304","0.0-18.0-3.0","76623023","wem/bandit_party_2","A2MEJZRCLOSOSF","either","6","808","","","","","","","0","1","0","","0.2","0.5","0.5","","","0.8","0.2","","","","","","","","","","","","","","","","75","K","1","","true","0","80_20_practice","",""
"","bandit","22","366262","0.0-18.0-4.0","76623023","wem/bandit_party_2","A2MEJZRCLOSOSF","either","6","12441","","","","","","","0","0","1","","0.2","0.5","0.5","","","0.8","0.2","","","","","","","","","","","","","","","","75","K","1","","true","0","80_20_practice","",""
"","bandit","23","369275","0.0-18.0-5.0","76623023","wem/bandit_party_2","A2MEJZRCLOSOSF","either","6","1485","","","","","","","0","1","0","","0.8","0.5","0.5","","","0.8","0.2","","","","","","","","","","","","","","","","74","J","0","img/none_selected_demo.jpg","true","0","80_20_practice","",""
"","bandit","24","371518","0.0-18.0-6.0","76623023","wem/bandit_party_2","A2MEJZRCLOSOSF","either","6","720","","","","","","","1","0","0","0.8","","0.5","0.5","","","","","","","0.8","0.2","","","","","","","","","","","","74","J","0","img/none_selected_demo.jpg","true","0","80_20_practice","",""
"","bandit","25","373618","0.0-18.0-7.0","76623023","wem/bandit_party_2","A2MEJZRCLOSOSF","either","6","579","","","","","","","0","0","1","0.2","","0.5","0.5","","","","","","","0.8","0.2","","","","","","","","","","","","75","K","1","","true","0","80_20_practice","",""
"","bandit","26","375846","0.0-18.0-8.0","76623023","wem/bandit_party_2","A2MEJZRCLOSOSF","either","6","705","","","","","","","0","0","1","0.2","","0.5","0.5","","","","","","","0.8","0.2","","","","","","","","","","","","75","K","1","","true","0","80_20_practice","",""
"","bandit","27","377882","0.0-18.0-9.0","76623023","wem/bandit_party_2","A2MEJZRCLOSOSF","either","6","507","","","","","","","0","0","1","","0.2","0.5","0.5","","","0.8","0.2","","","","","","","","","","","","","","","","75","K","1","","true","0","80_20_practice","",""
"","bandit","28","379860","0.0-18.0-10.0","76623023","wem/bandit_party_2","A2MEJZRCLOSOSF","either","6","453","","","","","","","0","0","1","0.8","","0.5","0.5","","","","","","","0.8","0.2","","","","","","","","","","","","74","J","0","img/none_selected_demo.jpg","true","0","80_20_practice","",""
"","bandit","29","381743","0.0-18.0-11.0","76623023","wem/bandit_party_2","A2MEJZRCLOSOSF","either","6","354","","","","","","","0","1","0","","0.8","0.5","0.5","","","0.8","0.2","","","","","","","","","","","","","","","","74","J","0","img/none_selected_demo.jpg","true","0","80_20_practice","",""
"","bandit","30","383828","0.0-18.0-12.0","76623023","wem/bandit_party_2","A2MEJZRCLOSOSF","either","6","558","","","","","","","1","0","0","0.8","","0.5","0.5","","","","","","","0.8","0.2","","","","","","","","","","","","74","J","0","img/none_selected_demo.jpg","true","0","80_20_practice","",""
"","bandit","31","385637","0.0-18.0-13.0","76623023","wem/bandit_party_2","A2MEJZRCLOSOSF","either","6","288","","","","","","","0","1","0","","0.8","0.5","0.5","","","0.8","0.2","","","","","","","","","","","","","","","","74","J","0","img/none_selected_demo.jpg","true","0","80_20_practice","",""
"","bandit","32","387720","0.0-18.0-14.0","76623023","wem/bandit_party_2","A2MEJZRCLOSOSF","either","6","560","","","","","","","0","0","1","0.2","","0.5","0.5","","","","","","","0.8","0.2","","","","","","","","","","","","75","K","1","","true","0","80_20_practice","",""
"","bandit","33","389724","0.0-18.0-15.0","76623023","wem/bandit_party_2","A2MEJZRCLOSOSF","either","6","478","","","","","","","0","0","1","0.2","","0.5","0.5","","","","","","","0.8","0.2","","","","","","","","","","","","75","K","1","","true","0","80_20_practice","",""
"","bandit","34","391679","0.0-18.0-16.0","76623023","wem/bandit_party_2","A2MEJZRCLOSOSF","either","6","436","","","","","","","0","0","1","0.2","","0.5","0.5","","","","","","","0.8","0.2","","","","","","","","","","","","75","K","1","","true","0","80_20_practice","",""
"","bandit","35","393618","0.0-18.0-17.0","76623023","wem/bandit_party_2","A2MEJZRCLOSOSF","either","6","412","","","","","","","0","0","1","0.2","","0.5","0.5","","","","","","","0.8","0.2","","","","","","","","","","","","75","K","1","","true","0","80_20_practice","",""
"","bandit","36","395558","0.0-18.0-18.0","76623023","wem/bandit_party_2","A2MEJZRCLOSOSF","either","6","416","","","","","","","0","1","0","","0.2","0.5","0.5","","","0.8","0.2","","","","","","","","","","","","","","","","75","K","1","","true","0","80_20_practice","",""
"","bandit","37","397577","0.0-18.0-19.0","76623023","wem/bandit_party_2","A2MEJZRCLOSOSF","either","6","492","","","","","","","0","1","0","","0.8","0.5","0.5","","","0.8","0.2","","","","","","","","","","","","","","","","74","J","0","img/none_selected_demo.jpg","true","0","80_20_practice","",""
"","text-replacement","38","405718","0.0-19.0","76623023","wem/bandit_party_2","A2MEJZRCLOSOSF","either","6","8138","","","32","","","","","","","","","","","","","","","","","","","","","","","","","","","","","","","","","","","","","",""
"","bandit","39","411809","0.0-20.0-0.0","76623023","wem/bandit_party_2","A2MEJZRCLOSOSF","either","6","4534","","","","","","","0","1","0","0","1","","","","","0","1","","","1","0","","","","","","","","","","","","75","K","1","","true","0","","",""
"","text-replacement","40","424534","0.0-21.0","76623023","wem/bandit_party_2","A2MEJZRCLOSOSF","either","6","12722","","","32","","","","","","","","","","","","","","","","","","","","","","","","","","","","","","","","","","","","","",""
"","text-replacement","41","449067","0.0-22.0","76623023","wem/bandit_party_2","A2MEJZRCLOSOSF","either","6","24530","","","32","","","","","","","","","","","","","","","","","","","","","","","","","","","","","","","","","","","","","",""
"","text-replacement","42","455206","0.0-23.0","76623023","wem/bandit_party_2","A2MEJZRCLOSOSF","either","6","6136","","","32","","","","","","","","","","","","","","","","","","","","","","","","","","","","","","","","","","","","","",""
"","text-replacement","43","460698","0.0-24.0","76623023","wem/bandit_party_2","A2MEJZRCLOSOSF","either","6","5489","","","32","","","","","","","","","","","","","","","","","","","","","","","","","","","","","","","","","","","","","",""
"","text-replacement","44","477406","0.0-25.0","76623023","wem/bandit_party_2","A2MEJZRCLOSOSF","either","6","16705","","","32","","","","","","","","","","","","","","","","","","","","","","","","","","","","","","","","","","","","","",""
"","text-replacement","45","484716","0.0-26.0","76623023","wem/bandit_party_2","A2MEJZRCLOSOSF","either","6","7307","","","32","","","","","","","","","","","","","","","","","","","","","","","","","","","","","","","","","","","","","",""
"","text-replacement","46","496120","0.0-27.0","76623023","wem/bandit_party_2","A2MEJZRCLOSOSF","either","6","11401","","","32","","","","","","","","","","","","","","","","","","","","","","","","","","","","","","","","","","","","","",""
"","text-replacement","47","530156","0.0-28.0","76623023","wem/bandit_party_2","A2MEJZRCLOSOSF","either","6","34033","","","32","","","","","","","","","","","","","","","","","","","","","","","","","","","","","","","","","","","","","",""
"","text-replacement","48","538192","0.0-29.0","76623023","wem/bandit_party_2","A2MEJZRCLOSOSF","either","6","8034","","","32","","","","","","","","","","","","","","","","","","","","","","","","","","","","","","","","","","","","","",""
"","text-replacement","49","542740","0.0-30.0","76623023","wem/bandit_party_2","A2MEJZRCLOSOSF","either","6","4545","","","32","","","","","","","","","","","","","","","","","","","","","","","","","","","","","","","","","","","","","",""
"","text-replacement","50","549125","0.0-31.0","76623023","wem/bandit_party_2","A2MEJZRCLOSOSF","either","6","6382","","","32","","","","","","","","","","","","","","","","","","","","","","","","","","","","","","","","","","","","","",""
"","bandit","51","554332","0.0-32.0-0.0","76623023","wem/bandit_party_2","A2MEJZRCLOSOSF","either","6","3567","","","","","","","1","0","0","0.6","","0.5","0.5","0.5","0.5","","","","","0.8","0.2","0.6","0.2","","","","","","","","","","75","K","2","","true","0","full_practice","",""
"","bandit","52","558419","0.0-32.0-1.0","76623023","wem/bandit_party_2","A2MEJZRCLOSOSF","either","6","2264","","","","","","","0","0","1","","0.8","0.5","0.5","0.5","0.5","0.8","0.2","0.6","0.2","","","","","","","","","","","","","","72","H","0","img/none_selected.jpg","true","0","full_practice","",""
"","bandit","53","563895","0.0-32.0-2.0","76623023","wem/bandit_party_2","A2MEJZRCLOSOSF","either","6","3806","","","","","","","1","0","0","0.2","","0.5","0.5","0.5","0.5","","","","","0.8","0.2","0.6","0.2","","","","","","","","","","76","L","3","","true","0","full_practice","",""
"","bandit","54","568809","0.0-32.0-3.0","76623023","wem/bandit_party_2","A2MEJZRCLOSOSF","either","6","3227","","","","","","","1","0","0","0.2","","0.5","0.5","0.5","0.5","","","","","0.8","0.2","0.6","0.2","","","","","","","","","","74","J","1","","true","0","full_practice","",""
"","bandit","55","571664","0.0-32.0-4.0","76623023","wem/bandit_party_2","A2MEJZRCLOSOSF","either","6","1310","","","","","","","0","0","1","","0.6","0.5","0.5","0.5","0.5","0.8","0.2","0.6","0.2","","","","","","","","","","","","","","75","K","2","","true","0","full_practice","",""
"","bandit","56","575423","0.0-32.0-5.0","76623023","wem/bandit_party_2","A2MEJZRCLOSOSF","either","6","2217","","","","","","","1","0","0","0.8","","0.5","0.5","0.5","0.5","","","","","0.8","0.2","0.6","0.2","","","","","","","","","","72","H","0","img/none_selected.jpg","true","0","full_practice","",""
"","bandit","57","577249","0.0-32.0-6.0","76623023","wem/bandit_party_2","A2MEJZRCLOSOSF","either","6","285","","","","","","","0","0","1","0.2","","0.5","0.5","0.5","0.5","","","","","0.8","0.2","0.6","0.2","","","","","","","","","","76","L","3","","true","0","full_practice","",""
"","bandit","58","579152","0.0-32.0-7.0","76623023","wem/bandit_party_2","A2MEJZRCLOSOSF","either","6","374","","","","","","","0","0","1","0.2","","0.5","0.5","0.5","0.5","","","","","0.8","0.2","0.6","0.2","","","","","","","","","","76","L","3","","true","0","full_practice","",""
"","bandit","59","581398","0.0-32.0-8.0","76623023","wem/bandit_party_2","A2MEJZRCLOSOSF","either","6","712","","","","","","","0","1","0","","0.6","0.5","0.5","0.5","0.5","0.8","0.2","0.6","0.2","","","","","","","","","","","","","","75","K","2","","true","0","full_practice","",""
"","bandit","60","583479","0.0-32.0-9.0","76623023","wem/bandit_party_2","A2MEJZRCLOSOSF","either","6","502","","","","","","","1","0","0","0.6","","0.5","0.5","0.5","0.5","","","","","0.8","0.2","0.6","0.2","","","","","","","","","","75","K","2","","true","0","full_practice","",""
"","bandit","61","585938","0.0-32.0-10.0","76623023","wem/bandit_party_2","A2MEJZRCLOSOSF","either","6","868","","","","","","","0","0","1","0.2","","0.5","0.5","0.5","0.5","","","","","0.8","0.2","0.6","0.2","","","","","","","","","","74","J","1","","true","0","full_practice","",""
"","bandit","62","589011","0.0-32.0-11.0","76623023","wem/bandit_party_2","A2MEJZRCLOSOSF","either","6","1532","","","","","","","0","1","0","","0.8","0.5","0.5","0.5","0.5","0.8","0.2","0.6","0.2","","","","","","","","","","","","","","72","H","0","img/none_selected.jpg","true","0","full_practice","",""
"","bandit","63","591179","0.0-32.0-12.0","76623023","wem/bandit_party_2","A2MEJZRCLOSOSF","either","6","628","","","","","","","0","1","0","","0.8","0.5","0.5","0.5","0.5","0.8","0.2","0.6","0.2","","","","","","","","","","","","","","72","H","0","img/none_selected.jpg","true","0","full_practice","",""
"","bandit","64","593270","0.0-32.0-13.0","76623023","wem/bandit_party_2","A2MEJZRCLOSOSF","either","6","452","","","","","","","1","0","0","0.8","","0.5","0.5","0.5","0.5","","","","","0.8","0.2","0.6","0.2","","","","","","","","","","72","H","0","img/none_selected.jpg","true","0","full_practice","",""
"","bandit","65","595407","0.0-32.0-14.0","76623023","wem/bandit_party_2","A2MEJZRCLOSOSF","either","6","595","","","","","","","1","0","0","0.2","","0.5","0.5","0.5","0.5","","","","","0.8","0.2","0.6","0.2","","","","","","","","","","74","J","1","","true","0","full_practice","",""
"","bandit","66","597934","0.0-32.0-15.0","76623023","wem/bandit_party_2","A2MEJZRCLOSOSF","either","6","815","","","","","","","1","0","0","0.6","","0.5","0.5","0.5","0.5","","","","","0.8","0.2","0.6","0.2","","","","","","","","","","75","K","2","","true","0","full_practice","",""
"","bandit","67","600103","0.0-32.0-16.0","76623023","wem/bandit_party_2","A2MEJZRCLOSOSF","either","6","631","","","","","","","0","1","0","","0.6","0.5","0.5","0.5","0.5","0.8","0.2","0.6","0.2","","","","","","","","","","","","","","75","K","2","","true","0","full_practice","",""
"","bandit","68","602802","0.0-32.0-17.0","76623023","wem/bandit_party_2","A2MEJZRCLOSOSF","either","6","1156","","","","","","","1","0","0","0.2","","0.5","0.5","0.5","0.5","","","","","0.8","0.2","0.6","0.2","","","","","","","","","","76","L","3","","true","0","full_practice","",""
"","bandit","69","604705","0.0-32.0-18.0","76623023","wem/bandit_party_2","A2MEJZRCLOSOSF","either","6","355","","","","","","","0","0","1","","0.2","0.5","0.5","0.5","0.5","0.8","0.2","0.6","0.2","","","","","","","","","","","","","","76","L","3","","true","0","full_practice","",""
"","bandit","70","606280","0.0-32.0-19.0","76623023","wem/bandit_party_2","A2MEJZRCLOSOSF","either","6","33","","","","","","","0","0","1","","0.2","0.5","0.5","0.5","0.5","0.8","0.2","0.6","0.2","","","","","","","","","","","","","","76","L","3","","true","0","full_practice","",""
"","text","71","617124","0.0-33.0","76623023","wem/bandit_party_2","A2MEJZRCLOSOSF","either","6","10837","","","32","","","","","","","","","","","","","","","","","","","","","","","","","","","","","","","","","","","","","",""
"","text-replacement","72","668071","0.0-34.0","76623023","wem/bandit_party_2","A2MEJZRCLOSOSF","either","6","49918","","","32","","","","","","","","","","","","","","","","","","","","","","","","","","","","","","","","","","","","","",""
"","text-replacement","73","690492","0.0-35.0","76623023","wem/bandit_party_2","A2MEJZRCLOSOSF","either","6","22417","","","32","","","","","","","","","","","","","","","","","","","","","","","","","","","","","","","","","","","","","",""
"","text-replacement","74","698824","0.0-36.0","76623023","wem/bandit_party_2","A2MEJZRCLOSOSF","either","6","8330","","","32","","","","","","","","","","","","","","","","","","","","","","","","","","","","","","","","","","","","","",""
"","text-replacement","75","711104","0.0-37.0","76623023","wem/bandit_party_2","A2MEJZRCLOSOSF","either","6","12276","","","32","","","","","","","","","","","","","","","","","","","","","","","","","","","","","","","","","","","","","",""
"","text-replacement","76","723605","0.0-38.0","76623023","wem/bandit_party_2","A2MEJZRCLOSOSF","either","6","12498","","","32","","","","","","","","","","","","","","","","","","","","","","","","","","","","","","","","","","","","","",""
"","survey-multi-choice-replacement","77","736433","0.0-39.0-0.0","76623023","wem/bandit_party_2","A2MEJZRCLOSOSF","either","6","12812","","","","","","","","","","","","","","","","","","","","","","","","Money will be subtracted from the pool for <span style='color:red;'>REPUBLICANS</span>","","","","","","","attn_check","","","","","","","","","1",""
"","instructions","78","740575","0.0-39.0-1.0-0.0","76623023","wem/bandit_party_2","A2MEJZRCLOSOSF","either","6","3129","","","","","","","","","","","","","","","","","","","","","","","","","","","","","","","","","","","","","","","","","[{""page_index"":0,""viewing_time"":3128}]"
"","survey-multi-choice-replacement","79","747929","0.0-39.1-0.1","76623023","wem/bandit_party_2","A2MEJZRCLOSOSF","either","6","6319","","","","","","","","","","","","","","","","","","","","","","","","Equal amounts of money will be added to the pool for <span style='color:blue;'>DEMOCRATS</span> and subtracted from the pool for <span style='color:red;'>REPUBLICANS</span>","","","","","","","attn_check","","","","","","","","","2",""
"","instructions","80","751351","0.0-39.1-1.1-0.1","76623023","wem/bandit_party_2","A2MEJZRCLOSOSF","either","6","2408","","","","","","","","","","","","","","","","","","","","","","","","","","","","","","","","","","","","","","","","","[{""page_index"":0,""viewing_time"":2407}]"
"","survey-multi-choice-replacement","81","754832","0.0-39.2-0.2","76623023","wem/bandit_party_2","A2MEJZRCLOSOSF","either","6","2457","","","","","","","","","","","","","","","","","","","","","","","","No money will be added to either pool","","","","","","","attn_check","","","","","","","","","3",""
"","instructions","82","758311","0.0-39.2-1.2-0.2","76623023","wem/bandit_party_2","A2MEJZRCLOSOSF","either","6","2472","","","","","","","","","","","","","","","","","","","","","","","","","","","","","","","","","","","","","","","","","[{""page_index"":0,""viewing_time"":2471}]"
"","survey-multi-choice-replacement","83","764201","0.0-39.3-0.3","76623023","wem/bandit_party_2","A2MEJZRCLOSOSF","either","6","4871","","","","","","","","","","","","","","","","","","","","","","","","Money will be added to the pool for <span style='color:blue;'>DEMOCRATS</span>","","","","","","","attn_check","","","","","","","","","0",""
"","survey-multi-choice-replacement","84","777744","0.0-40.0-0.0","76623023","wem/bandit_party_2","A2MEJZRCLOSOSF","either","6","12516","","","","","","","","","","","","","","","","","","","","","","","","Money will be added to the pool for <span style='color:blue;'>DEMOCRATS</span>","","","","","","","attn_check","","","","","","","","","0",""
"","instructions","85","780967","0.0-40.0-1.0-0.0","76623023","wem/bandit_party_2","A2MEJZRCLOSOSF","either","6","2196","","","","","","","","","","","","","","","","","","","","","","","","","","","","","","","","","","","","","","","","","[{""page_index"":0,""viewing_time"":2195}]"
"","survey-multi-choice-replacement","86","784824","0.0-40.1-0.1","76623023","wem/bandit_party_2","A2MEJZRCLOSOSF","either","6","2834","","","","","","","","","","","","","","","","","","","","","","","","Money will be subtracted from the pool for <span style='color:red;'>REPUBLICANS</span>","","","","","","","attn_check","","","","","","","","","1",""
"","instructions","87","787711","0.0-40.1-1.1-0.1","76623023","wem/bandit_party_2","A2MEJZRCLOSOSF","either","6","1874","","","","","","","","","","","","","","","","","","","","","","","","","","","","","","","","","","","","","","","","","[{""page_index"":0,""viewing_time"":1873}]"
"","survey-multi-choice-replacement","88","791600","0.0-40.2-0.2","76623023","wem/bandit_party_2","A2MEJZRCLOSOSF","either","6","2863","","","","","","","","","","","","","","","","","","","","","","","","Equal amounts of money will be added to the pool for <span style='color:blue;'>DEMOCRATS</span> and subtracted from the pool for <span style='color:red;'>REPUBLICANS</span>","","","","","","","attn_check","","","","","","","","","2",""
"","survey-multi-choice-replacement","89","798576","0.0-41.0-0.0","76623023","wem/bandit_party_2","A2MEJZRCLOSOSF","either","6","5938","","","","","","","","","","","","","","","","","","","","","","","","No money will be added to either pool","","","","","","","attn_check","","","","","","","","","3",""
"","bandit","90","806803","0.0-42.0-0.0","76623023","wem/bandit_party_2","A2MEJZRCLOSOSF","either","6","5663","","","","","","","0","0","1","0.3049938501","","0.4","0.2","0.6","0.8","","","","","0.1947351938","0.7197236342","0.3049938501","0.2309914537","","","","","","","","","","75","K","2","","","1","main_expt","",""
"","bandit","91","810422","0.0-43.0-0.0","76623023","wem/bandit_party_2","A2MEJZRCLOSOSF","either","6","2091","","","","","","","0","1","0","","0.1865171684","0.4","0.2","0.6","0.8","0.1865171684","0.7453792406","0.3105507028","0.2351366282","","","","","","","","","","","","","","72","H","0","img/none_selected.jpg","","2","main_expt","",""
"","bandit","92","813012","0.0-44.0-0.0","76623023","wem/bandit_party_2","A2MEJZRCLOSOSF","either","6","1058","","","","","","","0","0","1","","0.7422746785","0.4","0.2","0.6","0.8","0.1578482069","0.7422746785","0.347932066","0.3338792953","","","","","","","","","","","","","","74","J","1","","","3","main_expt","",""
"","bandit","93","816865","0.0-45.0-0.0","76623023","wem/bandit_party_2","A2MEJZRCLOSOSF","either","6","2315","","","","","","","0","0","1","0.294099503","","0.4","0.2","0.6","0.8","","","","","0.1733557992","0.8152876082","0.294099503","0.2578124611","","","","","","","","","","75","K","2","","","4","main_expt","",""
"","bandit","94","819657","0.0-46.0-0.0","76623023","wem/bandit_party_2","A2MEJZRCLOSOSF","either","6","1267","","","","","","","0","0","1","0.152782507","","0.4","0.2","0.6","0.8","","","","","0.1275681293","0.8494846052","0.256228135","0.152782507","","","","","","","","","","76","L","3","","","5","main_expt","",""
"","bandit","95","824805","0.0-47.0-0.0","76623023","wem/bandit_party_2","A2MEJZRCLOSOSF","either","6","3538","","","","","","","0","1","0","","0.8036792828","0.4","0.2","0.6","0.8","0.1776351543","0.8036792828","0.3142053347","0.200224935","","","","","","","","","","","","","","74","J","1","","","6","main_expt","",""
"","bandit","96","827364","0.0-48.0-0.0","76623023","wem/bandit_party_2","A2MEJZRCLOSOSF","either","6","1020","","","","","","","1","0","0","0.2382568898","","0.4","0.2","0.6","0.8","","","","","0.1412615145","0.8659664865","0.2382568898","0.2200442108","","","","","","","","","","75","K","2","","","7","main_expt","",""
"","bandit","97","829704","0.0-49.0-0.0","76623023","wem/bandit_party_2","A2MEJZRCLOSOSF","either","6","808","","","","","","","1","0","0","0.8475436228","","0.4","0.2","0.6","0.8","","","","","0.1508054742","0.8475436228","0.220471749","0.1516915951","","","","","","","","","","74","J","1","","","8","main_expt","",""
"","bandit","98","832184","0.0-50.0-0.0","76623023","wem/bandit_party_2","A2MEJZRCLOSOSF","either","6","949","","","","","","","1","0","0","0.1882404854","","0.4","0.2","0.6","0.8","","","","","0.1882404854","0.8034999265","0.2842820234","0.1468829212","","","","","","","","","","72","H","0","img/none_selected.jpg","","9","main_expt","",""
"","bandit","99","836131","0.0-51.0-0.0","76623023","wem/bandit_party_2","A2MEJZRCLOSOSF","either","6","2381","","","","","","","0","0","1","0.1507643719","","0.4","0.2","0.6","0.8","","","","","0.1731305678","0.7148412232","0.3392415315","0.1507643719","","","","","","","","","","76","L","3","","","10","main_expt","",""
"","bandit","100","838924","0.0-52.0-0.0","76623023","wem/bandit_party_2","A2MEJZRCLOSOSF","either","6","1247","","","","","","","0","0","1","0.18301","","0.4","0.2","0.6","0.8","","","","","0.2475279461","0.7213030285","0.4470346709","0.18301","","","","","","","","","","76","L","3","","","11","main_expt","",""
"","bandit","101","841139","0.0-53.0-0.0","76623023","wem/bandit_party_2","A2MEJZRCLOSOSF","either","6","653","","","","","","","1","0","0","0.5143820195","","0.4","0.2","0.6","0.8","","","","","0.2068792089","0.7396148754","0.5143820195","0.209562337","","","","","","","","","","75","K","2","","","12","main_expt","",""
"","bandit","102","843167","0.0-54.0-0.0","76623023","wem/bandit_party_2","A2MEJZRCLOSOSF","either","6","482","","","","","","","0","1","0","","0.6870781676","0.4","0.2","0.6","0.8","0.1594062408","0.6870781676","0.4934308908","0.2133897639","","","","","","","","","","","","","","74","J","1","","","13","main_expt","",""
"","bandit","103","845195","0.0-55.0-0.0","76623023","wem/bandit_party_2","A2MEJZRCLOSOSF","either","6","443","","","","","","","0","0","1","","0.6561171826","0.4","0.2","0.6","0.8","0.1808320347","0.6561171826","0.5884397519","0.1865122749","","","","","","","","","","","","","","74","J","1","","","14","main_expt","",""
"","bandit","104","848252","0.0-56.0-0.0","76623023","wem/bandit_party_2","A2MEJZRCLOSOSF","either","6","1507","","","","","","","0","0","1","0.2401125286","","0.4","0.2","0.6","0.8","","","","","0.2401125286","0.6255101569","0.425765204","0.3169691733","","","","","","","","","","72","H","0","img/none_selected.jpg","","15","main_expt","",""
"","bandit","105","850358","0.0-57.0-0.0","76623023","wem/bandit_party_2","A2MEJZRCLOSOSF","either","6","545","","","","","","","0","1","0","","0.1823220599","0.4","0.2","0.6","0.8","0.1823220599","0.6101220295","0.4458974369","0.3927767979","","","","","","","","","","","","","","72","H","0","img/none_selected.jpg","","16","main_expt","",""
"","bandit","106","853946","0.0-58.0-0.0","76623023","wem/bandit_party_2","A2MEJZRCLOSOSF","either","6","2015","","","","","","","1","0","0","0.4907358526","","0.4","0.2","0.6","0.8","","","","","0.2076179308","0.6233337625","0.4907358526","0.2882183284","","","","","","","","","","75","K","2","","","17","main_expt","",""
"","bandit","107","856365","0.0-59.0-0.0","76623023","wem/bandit_party_2","A2MEJZRCLOSOSF","either","6","869","","","","","","","0","0","1","","0.3212622409","0.4","0.2","0.6","0.8","0.2310064443","0.598865074","0.4895096529","0.3212622409","","","","","","","","","","","","","","76","L","3","","","18","main_expt","",""
"","bandit","108","858954","0.0-60.0-0.0","76623023","wem/bandit_party_2","A2MEJZRCLOSOSF","either","6","1012","","","","","","","0","0","1","","0.6318918302","0.4","0.2","0.6","0.8","0.1919199612","0.6318918302","0.5437378015","0.3678238944","","","","","","","","","","","","","","74","J","1","","","19","main_expt","",""
"","bandit","109","860982","0.0-61.0-0.0","76623023","wem/bandit_party_2","A2MEJZRCLOSOSF","either","6","460","","","","","","","0","0","1","","0.2150176637","0.4","0.2","0.6","0.8","0.2150176637","0.5667690756","0.543071052","0.4357360734","","","","","","","","","","","","","","72","H","0","img/none_selected.jpg","","20","main_expt","",""
"","bandit","110","862714","0.0-62.0-0.0","76623023","wem/bandit_party_2","A2MEJZRCLOSOSF","either","6","164","","","","","","","0","0","1","","0.2980309021","0.4","0.2","0.6","0.8","0.2980309021","0.6364396753","0.5457928974","0.4486518506","","","","","","","","","","","","","","72","H","0","img/none_selected.jpg","","21","main_expt","",""
"","bandit","111","864976","0.0-63.0-0.0","76623023","wem/bandit_party_2","A2MEJZRCLOSOSF","either","6","720","","","","","","","1","0","0","0.4531799458","","0.4","0.2","0.6","0.8","","","","","0.3238742104","0.5563436533","0.4531799458","0.5145372488","","","","","","","","","","75","K","2","","","22","main_expt","",""
"","bandit","112","867066","0.0-64.0-0.0","76623023","wem/bandit_party_2","A2MEJZRCLOSOSF","either","6","534","","","","","","","0","0","1","0.4321579995","","0.4","0.2","0.6","0.8","","","","","0.4158928209","0.4555064456","0.4321579995","0.6324996067","","","","","","","","","","75","K","2","","","23","main_expt","",""
"","bandit","113","869047","0.0-65.0-0.0","76623023","wem/bandit_party_2","A2MEJZRCLOSOSF","either","6","412","","","","","","","1","0","0","0.6665025749","","0.4","0.2","0.6","0.8","","","","","0.2798670784","0.4398961724","0.3892872195","0.6665025749","","","","","","","","","","76","L","3","","","24","main_expt","",""
"","bandit","114","871106","0.0-66.0-0.0","76623023","wem/bandit_party_2","A2MEJZRCLOSOSF","either","6","528","","","","","","","1","0","0","0.5316582614","","0.4","0.2","0.6","0.8","","","","","0.3932164435","0.3810464824","0.4322880781","0.5316582614","","","","","","","","","","76","L","3","","","25","main_expt","",""
"","bandit","115","872854","0.0-67.0-0.0","76623023","wem/bandit_party_2","A2MEJZRCLOSOSF","either","6","186","","","","","","","0","0","1","","0.4560392573","0.4","0.2","0.6","0.8","0.3243459504","0.451695138","0.4560392573","0.4282094451","","","","","","","","","","","","","","75","K","2","","","26","main_expt","",""
"","bandit","116","874819","0.0-68.0-0.0","76623023","wem/bandit_party_2","A2MEJZRCLOSOSF","either","6","382","","","","","","","0","0","1","","0.4423729324","0.4","0.2","0.6","0.8","0.4266302179","0.4423729324","0.5372901799","0.4711380508","","","","","","","","","","","","","","74","J","1","","","27","main_expt","",""
"","bandit","117","876722","0.0-69.0-0.0","76623023","wem/bandit_party_2","A2MEJZRCLOSOSF","either","6","330","","","","","","","0","0","1","","0.4206607535","0.4","0.2","0.6","0.8","0.4206607535","0.4221124674","0.6619872032","0.4539290932","","","","","","","","","","","","","","72","H","0","img/none_selected.jpg","","28","main_expt","",""
"","bandit","118","878485","0.0-70.0-0.0","76623023","wem/bandit_party_2","A2MEJZRCLOSOSF","either","6","205","","","","","","","0","1","0","","0.440099583","0.4","0.2","0.6","0.8","0.440099583","0.489207998","0.5939885142","0.4378511583","","","","","","","","","","","","","","72","H","0","img/none_selected.jpg","","29","main_expt","",""
"","bandit","119","881980","0.0-71.0-0.0","76623023","wem/bandit_party_2","A2MEJZRCLOSOSF","either","6","1937","","","","","","","1","0","0","0.4406356357","","0.4","0.2","0.6","0.8","","","","","0.3982168329","0.4406356357","0.5602145404","0.3425428874","","","","","","","","","","74","J","1","","","30","main_expt","",""
"","bandit","120","884850","0.0-72.0-0.0","76623023","wem/bandit_party_2","A2MEJZRCLOSOSF","either","6","1321","","","","","","","1","0","0","0.5376870091","","0.4","0.2","0.6","0.8","","","","","0.3573437221","0.484130952","0.5376870091","0.2354865125","","","","","","","","","","75","K","2","","","31","main_expt","",""
"","bandit","121","886941","0.0-73.0-0.0","76623023","wem/bandit_party_2","A2MEJZRCLOSOSF","either","6","539","","","","","","","1","0","0","0.2552437171","","0.4","0.2","0.6","0.8","","","","","0.3712986889","0.432294219","0.6346195819","0.2552437171","","","","","","","","","","76","L","3","","","32","main_expt","",""
"","bandit","122","889202","0.0-74.0-0.0","76623023","wem/bandit_party_2","A2MEJZRCLOSOSF","either","6","682","","","","","","","0","0","1","0.7540961955","","0.4","0.2","0.6","0.8","","","","","0.45096985","0.4821309474","0.7540961955","0.2470382599","","","","","","","","","","75","K","2","","","33","main_expt","",""
"","bandit","123","891137","0.0-75.0-0.0","76623023","wem/bandit_party_2","A2MEJZRCLOSOSF","either","6","394","","","","","","","0","1","0","","0.4702474349","0.4","0.2","0.6","0.8","0.5559331637","0.4702474349","0.699797925","0.2951894024","","","","","","","","","","","","","","74","J","1","","","34","main_expt","",""
"","bandit","124","893243","0.0-76.0-0.0","76623023","wem/bandit_party_2","A2MEJZRCLOSOSF","either","6","557","","","","","","","0","1","0","","0.7354386419","0.4","0.2","0.6","0.8","0.7354386419","0.5363697359","0.7410295452","0.2596626779","","","","","","","","","","","","","","72","H","0","img/none_selected.jpg","","35","main_expt","",""
"","bandit","125","895801","0.0-77.0-0.0","76623023","wem/bandit_party_2","A2MEJZRCLOSOSF","either","6","1009","","","","","","","0","1","0","","0.6934166837","0.4","0.2","0.6","0.8","0.6934166837","0.602250539","0.7332281969","0.3164764808","","","","","","","","","","","","","","72","H","0","img/none_selected.jpg","","36","main_expt","",""
"","bandit","126","898063","0.0-78.0-0.0","76623023","wem/bandit_party_2","A2MEJZRCLOSOSF","either","6","681","","","","","","","1","0","0","0.6311869688","","0.4","0.2","0.6","0.8","","","","","0.6311869688","0.5337433964","0.736713329","0.3672962009","","","","","","","","","","72","H","0","img/none_selected.jpg","","37","main_expt","",""
"","bandit","127","900060","0.0-79.0-0.0","76623023","wem/bandit_party_2","A2MEJZRCLOSOSF","either","6","416","","","","","","","0","0","1","","0.5970413872","0.4","0.2","0.6","0.8","0.6583504975","0.5970413872","0.6860808007","0.4056598401","","","","","","","","","","","","","","74","J","1","","","38","main_expt","",""
"","bandit","128","902041","0.0-80.0-0.0","76623023","wem/bandit_party_2","A2MEJZRCLOSOSF","either","6","423","","","","","","","0","1","0","","0.7498761973","0.4","0.2","0.6","0.8","0.5861321806","0.6529448079","0.7498761973","0.4236995386","","","","","","","","","","","","","","75","K","2","","","39","main_expt","",""
"","bandit","129","904303","0.0-81.0-0.0","76623023","wem/bandit_party_2","A2MEJZRCLOSOSF","either","6","518","","","","","","","0","0","1","0.4365163158","","0.4","0.2","0.6","0.8","","","","","0.4892836735","0.6612991154","0.7043283504","0.4365163158","","","","","","","","","","76","L","3","","","40","main_expt","",""
"","bandit","130","906566","0.0-82.0-0.0","76623023","wem/bandit_party_2","A2MEJZRCLOSOSF","either","6","634","","","","","","","0","1","0","","0.6469690382","0.4","0.2","0.6","0.8","0.3479900608","0.7390431107","0.6469690382","0.4854269132","","","","","","","","","","","","","","75","K","2","","","41","main_expt","",""
"","bandit","131","909030","0.0-83.0-0.0","76623023","wem/bandit_party_2","A2MEJZRCLOSOSF","either","6","903","","","","","","","1","0","0","0.4753587859","","0.4","0.2","0.6","0.8","","","","","0.376709287","0.7609423287","0.6388905256","0.4753587859","","","","","","","","","","76","L","3","","","42","main_expt","",""
"","bandit","132","911120","0.0-84.0-0.0","76623023","wem/bandit_party_2","A2MEJZRCLOSOSF","either","6","554","","","","","","","1","0","0","0.6383372244","","0.4","0.2","0.6","0.8","","","","","0.4319300722","0.8039673949","0.6383372244","0.452202747","","","","","","","","","","75","K","2","","","43","main_expt","",""
"","bandit","133","912743","0.0-85.0-0.0","76623023","wem/bandit_party_2","A2MEJZRCLOSOSF","either","6","54","","","","","","","0","1","0","","0.8216753652","0.4","0.2","0.6","0.8","0.4458636389","0.8216753652","0.6247854939","0.5522191005","","","","","","","","","","","","","","74","J","1","","","44","main_expt","",""
"","bandit","134","915176","0.0-86.0-0.0","76623023","wem/bandit_party_2","A2MEJZRCLOSOSF","either","6","836","","","","","","","0","0","1","0.4323480181","","0.4","0.2","0.6","0.8","","","","","0.4323480181","0.7636866317","0.6341880498","0.4878962787","","","","","","","","","","72","H","0","img/none_selected.jpg","","45","main_expt","",""
"","bandit","135","917142","0.0-87.0-0.0","76623023","wem/bandit_party_2","A2MEJZRCLOSOSF","either","6","341","","","","","","","0","1","0","","0.4348202433","0.4","0.2","0.6","0.8","0.4348202433","0.8203755575","0.5081310512","0.487595293","","","","","","","","","","","","","","72","H","0","img/none_selected.jpg","","46","main_expt","",""
"","bandit","136","922540","0.0-88.0-0.0","76623023","wem/bandit_party_2","A2MEJZRCLOSOSF","either","6","3854","","","","","","","0","0","1","","0.444754188","0.4","0.2","0.6","0.8","0.3430847618","0.8706375764","0.4202927251","0.444754188","","","","","","","","","","","","","","76","L","3","","","47","main_expt","",""
"","bandit","137","924880","0.0-89.0-0.0","76623023","wem/bandit_party_2","A2MEJZRCLOSOSF","either","6","806","","","","","","","1","0","0","0.8019506245","","0.4","0.2","0.6","0.8","","","","","0.2601977795","0.8019506245","0.4767868938","0.5044276746","","","","","","","","","","74","J","1","","","48","main_expt","",""
"","bandit","138","926720","0.0-90.0-0.0","76623023","wem/bandit_party_2","A2MEJZRCLOSOSF","either","6","295","","","","","","","0","0","1","0.2368144698","","0.4","0.2","0.6","0.8","","","","","0.2368144698","0.7331224435","0.3749468019","0.3766714482","","","","","","","","","","72","H","0","img/none_selected.jpg","","49","main_expt","",""
"","bandit","139","928343","0.0-91.0-0.0","76623023","wem/bandit_party_2","A2MEJZRCLOSOSF","either","6","37","","","","","","","0","1","0","","0.3532902347","0.4","0.2","0.6","0.8","0.2484527115","0.7908344101","0.3532902347","0.406992786","","","","","","","","","","","","","","75","K","2","","","50","main_expt","",""
"","bandit","140","930324","0.0-92.0-0.0","76623023","wem/bandit_party_2","A2MEJZRCLOSOSF","either","6","452","","","","","","","0","1","0","","0.7922828235","0.4","0.2","0.6","0.8","0.230268934","0.7922828235","0.2413466802","0.3854505747","","","","","","","","","","","","","","74","J","1","","","51","main_expt","",""
"","bandit","141","932274","0.0-93.0-0.0","76623023","wem/bandit_party_2","A2MEJZRCLOSOSF","either","6","422","","","","","","","0","1","0","","0.3429002399","0.4","0.2","0.6","0.8","0.3429002399","0.7485378942","0.2673723166","0.3956915145","","","","","","","","","","","","","","72","H","0","img/none_selected.jpg","","52","main_expt","",""
"","bandit","142","934661","0.0-94.0-0.0","76623023","wem/bandit_party_2","A2MEJZRCLOSOSF","either","6","843","","","","","","","0","0","1","0.3062348001","","0.4","0.2","0.6","0.8","","","","","0.2871029552","0.6603794952","0.2806035608","0.3062348001","","","","","","","","","","76","L","3","","","53","main_expt","",""
"","bandit","143","936720","0.0-95.0-0.0","76623023","wem/bandit_party_2","A2MEJZRCLOSOSF","either","6","529","","","","","","","0","0","1","0.2996500993","","0.4","0.2","0.6","0.8","","","","","0.2594444468","0.6931449795","0.2544312064","0.2996500993","","","","","","","","","","76","L","3","","","54","main_expt","",""
"","bandit","144","938670","0.0-96.0-0.0","76623023","wem/bandit_party_2","A2MEJZRCLOSOSF","either","6","421","","","","","","","0","0","1","0.2518247787","","0.4","0.2","0.6","0.8","","","","","0.3333749245","0.7553272845","0.3362815808","0.2518247787","","","","","","","","","","76","L","3","","","55","main_expt","",""
"","bandit","145","943194","0.0-97.0-0.0","76623023","wem/bandit_party_2","A2MEJZRCLOSOSF","either","6","2980","","","","","","","0","0","1","0.3798256012","","0.4","0.2","0.6","0.8","","","","","0.3049104067","0.7231548626","0.3798256012","0.3014763065","","","","","","","","","","75","K","2","","","56","main_expt","",""
"","bandit","146","944931","0.0-98.0-0.0","76623023","wem/bandit_party_2","A2MEJZRCLOSOSF","either","6","197","","","","","","","0","0","1","","0.7485901337","0.4","0.2","0.6","0.8","0.3623273811","0.7485901337","0.3989549393","0.2730843718","","","","","","","","","","","","","","74","J","1","","","57","main_expt","",""
"","bandit","147","946564","0.0-99.0-0.0","76623023","wem/bandit_party_2","A2MEJZRCLOSOSF","either","6","67","","","","","","","1","0","0","0.3621169042","","0.4","0.2","0.6","0.8","","","","","0.3621169042","0.797082508","0.3373398956","0.367239041","","","","","","","","","","72","H","0","img/none_selected.jpg","","58","main_expt","",""
"","bandit","148","948092","0.0-100.0-0.0","76623023","wem/bandit_party_2","A2MEJZRCLOSOSF","either","6","1","","","","","","","0","0","1","0.3672848169","","0.4","0.2","0.6","0.8","","","","","0.3672848169","0.7466963627","0.3381045731","0.4005220403","","","","","","","","","","72","H","0","img/none_selected.jpg","","59","main_expt","",""
"","bandit","149","949637","0.0-101.0-0.0","76623023","wem/bandit_party_2","A2MEJZRCLOSOSF","either","6","10","","","","","","","1","0","0","0.6359615323","","0.4","0.2","0.6","0.8","","","","","0.5123874715","0.6359615323","0.4838111383","0.4863912708","","","","","","","","","","74","J","1","","","60","main_expt","",""
"","bandit","150","952710","0.0-102.0-0.0","76623023","wem/bandit_party_2","A2MEJZRCLOSOSF","either","6","1546","","","","","","","1","0","0","0.5220595343","","0.4","0.2","0.6","0.8","","","","","0.5218319631","0.7125939799","0.4290776342","0.5220595343","","","","","","","","","","76","L","3","","","61","main_expt","",""
"","bandit","151","955736","0.0-103.0-0.0","76623023","wem/bandit_party_2","A2MEJZRCLOSOSF","either","6","1495","","","","","","","0","0","1","","0.5447889898","0.4","0.2","0.6","0.8","0.6482151027","0.5978650666","0.4387439774","0.5447889898","","","","","","","","","","","","","","76","L","3","","","62","main_expt","",""
"","bandit","152","957780","0.0-104.0-0.0","76623023","wem/bandit_party_2","A2MEJZRCLOSOSF","either","6","500","","","","","","","1","0","0","0.3670418014","","0.4","0.2","0.6","0.8","","","","","0.6966290852","0.5166338879","0.3670418014","0.5517390004","","","","","","","","","","75","K","2","","","63","main_expt","",""
"","bandit","153","959340","0.0-105.0-0.0","76623023","wem/bandit_party_2","A2MEJZRCLOSOSF","either","6","19","","","","","","","0","0","1","0.3470393933","","0.4","0.2","0.6","0.8","","","","","0.6497033777","0.4901650138","0.3470393933","0.6576188384","","","","","","","","","","75","K","2","","","64","main_expt","",""
"","bandit","154","962335","0.0-106.0-0.0","76623023","wem/bandit_party_2","A2MEJZRCLOSOSF","either","6","1447","","","","","","","0","1","0","","0.6925184903","0.4","0.2","0.6","0.8","0.6925184903","0.459365688","0.3361574661","0.5156176703","","","","","","","","","","","","","","72","H","0","img/none_selected.jpg","","65","main_expt","",""
"","bandit","155","965269","0.0-107.0-0.0","76623023","wem/bandit_party_2","A2MEJZRCLOSOSF","either","6","1381","","","","","","","0","0","1","","0.4666104807","0.4","0.2","0.6","0.8","0.8298767513","0.4666104807","0.34308242","0.3851410914","","","","","","","","","","","","","","74","J","1","","","66","main_expt","",""
"","bandit","156","967110","0.0-108.0-0.0","76623023","wem/bandit_party_2","A2MEJZRCLOSOSF","either","6","194","","","","","","","0","0","1","0.5547259005","","0.4","0.2","0.6","0.8","","","","","0.8506596021","0.5547259005","0.3730603492","0.3925250542","","","","","","","","","","74","J","1","","","67","main_expt","",""
"","bandit","157","970213","0.0-109.0-0.0","76623023","wem/bandit_party_2","A2MEJZRCLOSOSF","either","6","1537","","","","","","","0","0","1","0.4089949532","","0.4","0.2","0.6","0.8","","","","","0.8536910832","0.6038719492","0.4089949532","0.3884113518","","","","","","","","","","75","K","2","","","68","main_expt","",""
"","bandit","158","972163","0.0-110.0-0.0","76623023","wem/bandit_party_2","A2MEJZRCLOSOSF","either","6","378","","","","","","","0","0","1","0.3434478979","","0.4","0.2","0.6","0.8","","","","","0.8642538991","0.6148283845","0.3749002533","0.3434478979","","","","","","","","","","76","L","3","","","69","main_expt","",""
"","bandit","159","974082","0.0-111.0-0.0","76623023","wem/bandit_party_2","A2MEJZRCLOSOSF","either","6","355","","","","","","","0","0","1","0.4426642051","","0.4","0.2","0.6","0.8","","","","","0.8073802352","0.6683283761","0.4133869845","0.4426642051","","","","","","","","","","76","L","3","","","70","main_expt","",""
"","bandit","160","975627","0.0-112.0-0.0","76623023","wem/bandit_party_2","A2MEJZRCLOSOSF","either","6","7","","","","","","","0","1","0","","0.3302164541","0.4","0.2","0.6","0.8","0.8059201048","0.738459761","0.3302164541","0.4518046004","","","","","","","","","","","","","","75","K","2","","","71","main_expt","",""
"","bandit","161","977545","0.0-113.0-0.0","76623023","wem/bandit_party_2","A2MEJZRCLOSOSF","either","6","350","","","","","","","0","1","0","","0.8262275011","0.4","0.2","0.6","0.8","0.8262275011","0.6525166508","0.2570952275","0.4903223245","","","","","","","","","","","","","","72","H","0","img/none_selected.jpg","","72","main_expt","",""
"","bandit","162","979963","0.0-114.0-0.0","76623023","wem/bandit_party_2","A2MEJZRCLOSOSF","either","6","844","","","","","","","0","1","0","","0.5715134512","0.4","0.2","0.6","0.8","0.7334390718","0.5715134512","0.2042885023","0.5296083002","","","","","","","","","","","","","","74","J","1","","","73","main_expt","",""
"","bandit","163","982241","0.0-115.0-0.0","76623023","wem/bandit_party_2","A2MEJZRCLOSOSF","either","6","655","","","","","","","0","0","1","0.2152837516","","0.4","0.2","0.6","0.8","","","","","0.7490977197","0.6228045854","0.2152837516","0.4883026933","","","","","","","","","","75","K","2","","","74","main_expt","",""
"","bandit","164","983894","0.0-116.0-0.0","76623023","wem/bandit_party_2","A2MEJZRCLOSOSF","either","6","41","","","","","","","1","0","0","0.4914171484","","0.4","0.2","0.6","0.8","","","","","0.7554087461","0.613630376","0.2044775694","0.4914171484","","","","","","","","","","76","L","3","","","75","main_expt","",""
"","bandit","165","987077","0.0-117.0-0.0","76623023","wem/bandit_party_2","A2MEJZRCLOSOSF","either","6","1578","","","","","","","1","0","0","0.6059218973","","0.4","0.2","0.6","0.8","","","","","0.804443878","0.7047266053","0.2247613499","0.6059218973","","","","","","","","","","76","L","3","","","76","main_expt","",""
"","bandit","166","989105","0.0-118.0-0.0","76623023","wem/bandit_party_2","A2MEJZRCLOSOSF","either","6","403","","","","","","","0","1","0","","0.6910360943","0.4","0.2","0.6","0.8","0.6656620098","0.6910360943","0.2266335256","0.553792366","","","","","","","","","","","","","","74","J","1","","","77","main_expt","",""
"","bandit","167","991320","0.0-119.0-0.0","76623023","wem/bandit_party_2","A2MEJZRCLOSOSF","either","6","634","","","","","","","1","0","0","0.5898140708","","0.4","0.2","0.6","0.8","","","","","0.5898140708","0.5515992215","0.1659731505","0.6884193839","","","","","","","","","","72","H","0","img/none_selected.jpg","","78","main_expt","",""
"","bandit","168","993005","0.0-120.0-0.0","76623023","wem/bandit_party_2","A2MEJZRCLOSOSF","either","6","151","","","","","","","0","0","1","","0.613215191","0.4","0.2","0.6","0.8","0.613215191","0.6448399581","0.2343921172","0.7214277645","","","","","","","","","","","","","","72","H","0","img/none_selected.jpg","","79","main_expt","",""
"","bandit","169","994705","0.0-121.0-0.0","76623023","wem/bandit_party_2","A2MEJZRCLOSOSF","either","6","120","","","","","","","0","0","1","0.4605925783","","0.4","0.2","0.6","0.8","","","","","0.4605925783","0.739479497","0.2164054515","0.7328142644","","","","","","","","","","72","H","0","img/none_selected.jpg","","80","main_expt","",""
"","bandit","170","996265","0.0-122.0-0.0","76623023","wem/bandit_party_2","A2MEJZRCLOSOSF","either","6","13","","","","","","","0","0","1","0.6956071838","","0.4","0.2","0.6","0.8","","","","","0.5390789087","0.6956071838","0.1361232007","0.7101675561","","","","","","","","","","74","J","1","","","81","main_expt","",""
"","bandit","171","998918","0.0-123.0-0.0","76623023","wem/bandit_party_2","A2MEJZRCLOSOSF","either","6","1078","","","","","","","1","0","0","0.6984384541","","0.4","0.2","0.6","0.8","","","","","0.621290364","0.5886517937","0.2275447725","0.6984384541","","","","","","","","","","76","L","3","","","82","main_expt","",""
"","bandit","172","1002006","0.0-124.0-0.0","76623023","wem/bandit_party_2","A2MEJZRCLOSOSF","either","6","1516","","","","","","","1","0","0","0.7447883659","","0.4","0.2","0.6","0.8","","","","","0.6359424421","0.4764182235","0.1900607051","0.7447883659","","","","","","","","","","76","L","3","","","83","main_expt","",""
"","bandit","173","1005937","0.0-125.0-0.0","76623023","wem/bandit_party_2","A2MEJZRCLOSOSF","either","6","2366","","","","","","","0","1","0","","0.5149027494","0.4","0.2","0.6","0.8","0.6133664729","0.5149027494","0.1306868958","0.6900592863","","","","","","","","","","","","","","74","J","1","","","84","main_expt","",""
"","bandit","174","1008090","0.0-126.0-0.0","76623023","wem/bandit_party_2","A2MEJZRCLOSOSF","either","6","531","","","","","","","0","0","1","","0.4908067213","0.4","0.2","0.6","0.8","0.7815463305","0.4908067213","0.1683201849","0.7010597455","","","","","","","","","","","","","","74","J","1","","","85","main_expt","",""
"","bandit","175","1010461","0.0-127.0-0.0","76623023","wem/bandit_party_2","A2MEJZRCLOSOSF","either","6","814","","","","","","","0","0","1","0.7355789231","","0.4","0.2","0.6","0.8","","","","","0.7355789231","0.4139472458","0.1290314955","0.6171062652","","","","","","","","","","72","H","0","img/none_selected.jpg","","86","main_expt","",""
"","bandit","176","1012692","0.0-128.0-0.0","76623023","wem/bandit_party_2","A2MEJZRCLOSOSF","either","6","686","","","","","","","0","1","0","","0.5629375242","0.4","0.2","0.6","0.8","0.7267399876","0.4253818619","0.2297537383","0.5629375242","","","","","","","","","","","","","","76","L","3","","","87","main_expt","",""
"","bandit","177","1015453","0.0-129.0-0.0","76623023","wem/bandit_party_2","A2MEJZRCLOSOSF","either","6","1192","","","","","","","1","0","0","0.6434443074","","0.4","0.2","0.6","0.8","","","","","0.7703195612","0.4448862761","0.1878263516","0.6434443074","","","","","","","","","","76","L","3","","","88","main_expt","",""
"","bandit","178","1018074","0.0-130.0-0.0","76623023","wem/bandit_party_2","A2MEJZRCLOSOSF","either","6","1035","","","","","","","0","1","0","","0.4295642349","0.4","0.2","0.6","0.8","0.81872988","0.4295642349","0.1896964823","0.7296698787","","","","","","","","","","","","","","74","J","1","","","89","main_expt","",""
"","bandit","179","1021272","0.0-131.0-0.0","76623023","wem/bandit_party_2","A2MEJZRCLOSOSF","either","6","1548","","","","","","","0","0","1","0.1614970172","","0.4","0.2","0.6","0.8","","","","","0.8032570632","0.3655203192","0.1614970172","0.7042864347","","","","","","","","","","75","K","2","","","90","main_expt","",""
"","bandit","180","1022910","0.0-132.0-0.0","76623023","wem/bandit_party_2","A2MEJZRCLOSOSF","either","6","75","","","","","","","0","1","0","","0.402428746","0.4","0.2","0.6","0.8","0.8257352781","0.402428746","0.2107705911","0.7606559624","","","","","","","","","","","","","","74","J","1","","","91","main_expt","",""
"","bandit","181","1025687","0.0-133.0-0.0","76623023","wem/bandit_party_2","A2MEJZRCLOSOSF","either","6","1253","","","","","","","0","1","0","","0.7762210657","0.4","0.2","0.6","0.8","0.7762210657","0.452733603","0.1317951273","0.8466818248","","","","","","","","","","","","","","72","H","0","img/none_selected.jpg","","92","main_expt","",""
"","bandit","182","1029727","0.0-134.0-0.0","76623023","wem/bandit_party_2","A2MEJZRCLOSOSF","either","6","2505","","","","","","","0","1","0","","0.8293629201","0.4","0.2","0.6","0.8","0.8293629201","0.5416456901","0.09268613222","0.8181600593","","","","","","","","","","","","","","72","H","0","img/none_selected.jpg","","93","main_expt","",""
"","bandit","183","1032863","0.0-135.0-0.0","76623023","wem/bandit_party_2","A2MEJZRCLOSOSF","either","6","1586","","","","","","","1","0","0","0.7849393417","","0.4","0.2","0.6","0.8","","","","","0.7849393417","0.5246039132","0.06418168538","0.7259749053","","","","","","","","","","72","H","0","img/none_selected.jpg","","94","main_expt","",""
"","bandit","184","1036981","0.0-136.0-0.0","76623023","wem/bandit_party_2","A2MEJZRCLOSOSF","either","6","2560","","","","","","","1","0","0","0.7850226125","","0.4","0.2","0.6","0.8","","","","","0.7850226125","0.606801291","0.100072779","0.6538641892","","","","","","","","","","72","H","0","img/none_selected.jpg","","95","main_expt","",""
"","bandit","185","1038557","0.0-137.0-0.0","76623023","wem/bandit_party_2","A2MEJZRCLOSOSF","either","6","43","","","","","","","0","1","0","","0.7175242067","0.4","0.2","0.6","0.8","0.8013150942","0.7175242067","0.09628221604","0.6384360591","","","","","","","","","","","","","","74","J","1","","","96","main_expt","",""
"","bandit","186","1041100","0.0-138.0-0.0","76623023","wem/bandit_party_2","A2MEJZRCLOSOSF","either","6","951","","","","","","","0","1","0","","0.6836118029","0.4","0.2","0.6","0.8","0.70340399","0.7706560561","0.1335622201","0.6836118029","","","","","","","","","","","","","","76","L","3","","","97","main_expt","",""
"","bandit","187","1043159","0.0-139.0-0.0","76623023","wem/bandit_party_2","A2MEJZRCLOSOSF","either","6","530","","","","","","","1","0","0","0.659457158","","0.4","0.2","0.6","0.8","","","","","0.7562517051","0.7234704616","0.167202632","0.659457158","","","","","","","","","","76","L","3","","","98","main_expt","",""
"","bandit","188","1045265","0.0-140.0-0.0","76623023","wem/bandit_party_2","A2MEJZRCLOSOSF","either","6","560","","","","","","","0","1","0","","0.6582042781","0.4","0.2","0.6","0.8","0.6514659141","0.6582042781","0.1216125457","0.7726162223","","","","","","","","","","","","","","74","J","1","","","99","main_expt","",""
"","bandit","189","1046872","0.0-141.0-0.0","76623023","wem/bandit_party_2","A2MEJZRCLOSOSF","either","6","67","","","","","","","1","0","0","0.7112237606","","0.4","0.2","0.6","0.8","","","","","0.7112237606","0.6530973887","0.1163239148","0.8446518706","","","","","","","","","","72","H","0","img/none_selected.jpg","","100","main_expt","",""
"","bandit","190","1048635","0.0-142.0-0.0","76623023","wem/bandit_party_2","A2MEJZRCLOSOSF","either","6","230","","","","","","","0","1","0","","0.6865981462","0.4","0.2","0.6","0.8","0.6865981462","0.6690961394","0.1037928869","0.8784151442","","","","","","","","","","","","","","72","H","0","img/none_selected.jpg","","101","main_expt","",""
"","bandit","191","1056201","0.0-143.0-0.0","76623023","wem/bandit_party_2","A2MEJZRCLOSOSF","either","6","6033","","","","","","","0","0","1","","0.6663704066","0.4","0.2","0.6","0.8","0.6663704066","0.6268844929","0.0991068806","0.8781202538","","","","","","","","","","","","","","72","H","0","img/none_selected.jpg","","102","main_expt","",""
"","bandit","192","1058322","0.0-144.0-0.0","76623023","wem/bandit_party_2","A2MEJZRCLOSOSF","either","6","578","","","","","","","0","0","1","0.1226752409","","0.4","0.2","0.6","0.8","","","","","0.6006744832","0.6657789595","0.1226752409","0.8123732176","","","","","","","","","","75","K","2","","","103","main_expt","",""
"","bandit","193","1060116","0.0-145.0-0.0","76623023","wem/bandit_party_2","A2MEJZRCLOSOSF","either","6","248","","","","","","","0","1","0","","0.8461937008","0.4","0.2","0.6","0.8","0.518723913","0.6951589836","0.1552466415","0.8461937008","","","","","","","","","","","","","","76","L","3","","","104","main_expt","",""
"","bandit","194","1062550","0.0-146.0-0.0","76623023","wem/bandit_party_2","A2MEJZRCLOSOSF","either","6","904","","","","","","","0","0","1","","0.1702138509","0.4","0.2","0.6","0.8","0.5343999165","0.6382729445","0.1702138509","0.8664825842","","","","","","","","","","","","","","75","K","2","","","105","main_expt","",""
"","bandit","195","1064344","0.0-147.0-0.0","76623023","wem/bandit_party_2","A2MEJZRCLOSOSF","either","6","258","","","","","","","0","0","1","","0.7139624249","0.4","0.2","0.6","0.8","0.4959998489","0.7139624249","0.2021425125","0.8703997655","","","","","","","","","","","","","","74","J","1","","","106","main_expt","",""
"","bandit","196","1068743","0.0-148.0-0.0","76623023","wem/bandit_party_2","A2MEJZRCLOSOSF","either","6","2853","","","","","","","0","0","1","","0.5052663648","0.4","0.2","0.6","0.8","0.5052663648","0.7718136471","0.2196373816","0.8964314806","","","","","","","","","","","","","","72","H","0","img/none_selected.jpg","","107","main_expt","",""
"","bandit","197","1070902","0.0-149.0-0.0","76623023","wem/bandit_party_2","A2MEJZRCLOSOSF","either","6","612","","","","","","","0","1","0","","0.8818715302","0.4","0.2","0.6","0.8","0.4859582203","0.8818715302","0.2393661099","0.9080126319","","","","","","","","","","","","","","74","J","1","","","108","main_expt","",""
"","bandit","198","1072581","0.0-150.0-0.0","76623023","wem/bandit_party_2","A2MEJZRCLOSOSF","either","6","150","","","","","","","1","0","0","0.8880845243","","0.4","0.2","0.6","0.8","","","","","0.523617738","0.8757741924","0.2516352594","0.8880845243","","","","","","","","","","76","L","3","","","109","main_expt","",""
"","bandit","199","1075716","0.0-151.0-0.0","76623023","wem/bandit_party_2","A2MEJZRCLOSOSF","either","6","1590","","","","","","","1","0","0","0.899251136","","0.4","0.2","0.6","0.8","","","","","0.5492010791","0.8657151097","0.2424291788","0.899251136","","","","","","","","","","76","L","3","","","110","main_expt","",""
"","bandit","200","1077463","0.0-152.0-0.0","76623023","wem/bandit_party_2","A2MEJZRCLOSOSF","either","6","137","","","","","","","0","0","1","0.2033086481","","0.4","0.2","0.6","0.8","","","","","0.5467154696","0.8457624762","0.2033086481","0.9019514556","","","","","","","","","","75","K","2","","","111","main_expt","",""
"","bandit","201","1079212","0.0-153.0-0.0","76623023","wem/bandit_party_2","A2MEJZRCLOSOSF","either","6","154","","","","","","","0","1","0","","0.8756116827","0.4","0.2","0.6","0.8","0.5396215981","0.8756116827","0.208613213","0.9315537639","","","","","","","","","","","","","","74","J","1","","","112","main_expt","",""
"","bandit","202","1082159","0.0-154.0-0.0","76623023","wem/bandit_party_2","A2MEJZRCLOSOSF","either","6","1396","","","","","","","0","1","0","","0.5542875214","0.4","0.2","0.6","0.8","0.5542875214","0.8773181328","0.2743958833","0.9254394702","","","","","","","","","","","","","","72","H","0","img/none_selected.jpg","","113","main_expt","",""
"","bandit","203","1084109","0.0-155.0-0.0","76623023","wem/bandit_party_2","A2MEJZRCLOSOSF","either","6","414","","","","","","","1","0","0","0.8842236373","","0.4","0.2","0.6","0.8","","","","","0.6411428718","0.8842236373","0.2657329006","0.9394904604","","","","","","","","","","74","J","1","","","114","main_expt","",""
"","bandit","204","1085794","0.0-156.0-0.0","76623023","wem/bandit_party_2","A2MEJZRCLOSOSF","either","6","147","","","","","","","1","0","0","0.9533355239","","0.4","0.2","0.6","0.8","","","","","0.7261400339","0.8499121835","0.3234316928","0.9533355239","","","","","","","","","","76","L","3","","","115","main_expt","",""
"","bandit","205","1088461","0.0-157.0-0.0","76623023","wem/bandit_party_2","A2MEJZRCLOSOSF","either","6","1137","","","","","","","1","0","0","0.960842596","","0.4","0.2","0.6","0.8","","","","","0.7395407697","0.7890056153","0.3625587123","0.960842596","","","","","","","","","","76","L","3","","","116","main_expt","",""
"","bandit","206","1090474","0.0-158.0-0.0","76623023","wem/bandit_party_2","A2MEJZRCLOSOSF","either","6","467","","","","","","","0","0","1","","0.4946904956","0.4","0.2","0.6","0.8","0.8231731708","0.7709890197","0.4946904956","0.937733065","","","","","","","","","","","","","","75","K","2","","","117","main_expt","",""
"","bandit","207","1092283","0.0-159.0-0.0","76623023","wem/bandit_party_2","A2MEJZRCLOSOSF","either","6","274","","","","","","","0","1","0","","0.7459937787","0.4","0.2","0.6","0.8","0.8278750807","0.7459937787","0.6246330079","0.9561499645","","","","","","","","","","","","","","74","J","1","","","118","main_expt","",""
"","bandit","208","1095669","0.0-160.0-0.0","76623023","wem/bandit_party_2","A2MEJZRCLOSOSF","either","6","1845","","","","","","","0","1","0","","0.8715827524","0.4","0.2","0.6","0.8","0.8715827524","0.716881491","0.5818097722","0.9595118281","","","","","","","","","","","","","","72","H","0","img/none_selected.jpg","","119","main_expt","",""
"","bandit","209","1097244","0.0-161.0-0.0","76623023","wem/bandit_party_2","A2MEJZRCLOSOSF","either","6","42","","","","","","","0","0","1","0.8522670476","","0.4","0.2","0.6","0.8","","","","","0.8522670476","0.6595649419","0.5990025551","0.9548463758","","","","","","","","","","72","H","0","img/none_selected.jpg","","120","main_expt","",""
"","bandit","210","1099881","0.0-162.0-0.0","76623023","wem/bandit_party_2","A2MEJZRCLOSOSF","either","6","1086","","","","","","","0","1","0","","0.6576447048","0.4","0.2","0.6","0.8","0.8266542562","0.6576447048","0.6534424477","0.958085665","","","","","","","","","","","","","","74","J","1","","","121","main_expt","",""
"","bandit","211","1102314","0.0-163.0-0.0","76623023","wem/bandit_party_2","A2MEJZRCLOSOSF","either","6","893","","","","","","","0","0","1","0.6391957719","","0.4","0.2","0.6","0.8","","","","","0.81688531","0.6391957719","0.5952731017","0.9630601427","","","","","","","","","","74","J","1","","","122","main_expt","",""
"","bandit","212","1104108","0.0-164.0-0.0","76623023","wem/bandit_party_2","A2MEJZRCLOSOSF","either","6","252","","","","","","","1","0","0","0.8307363081","","0.4","0.2","0.6","0.8","","","","","0.8307363081","0.5873908865","0.6469086187","0.9790283764","","","","","","","","","","72","H","0","img/none_selected.jpg","","123","main_expt","",""
"","bandit","213","1106433","0.0-165.0-0.0","76623023","wem/bandit_party_2","A2MEJZRCLOSOSF","either","6","782","","","","","","","0","0","1","0.6911454426","","0.4","0.2","0.6","0.8","","","","","0.6943824695","0.6592760984","0.6911454426","0.9718765302","","","","","","","","","","75","K","2","","","124","main_expt","",""
"","bandit","214","1108211","0.0-166.0-0.0","76623023","wem/bandit_party_2","A2MEJZRCLOSOSF","either","6","244","","","","","","","1","0","0","0.9845173964","","0.4","0.2","0.6","0.8","","","","","0.7137568944","0.6012083746","0.750572215","0.9845173964","","","","","","","","","","76","L","3","","","125","main_expt","",""
"","bandit","215","1110208","0.0-167.0-0.0","76623023","wem/bandit_party_2","A2MEJZRCLOSOSF","either","6","464","","","","","","","0","0","1","","0.6043440275","0.4","0.2","0.6","0.8","0.6878742658","0.6043440275","0.8108432581","0.9804670004","","","","","","","","","","","","","","74","J","1","","","126","main_expt","",""
"","bandit","216","1111846","0.0-168.0-0.0","76623023","wem/bandit_party_2","A2MEJZRCLOSOSF","either","6","108","","","","","","","1","0","0","0.8338196277","","0.4","0.2","0.6","0.8","","","","","0.6175454059","0.5043142332","0.8338196277","0.9792667249","","","","","","","","","","75","K","2","","","127","main_expt","",""
"","bandit","217","1114873","0.0-169.0-0.0","76623023","wem/bandit_party_2","A2MEJZRCLOSOSF","either","6","1491","","","","","","","0","1","0","","0.5556505876","0.4","0.2","0.6","0.8","0.5556505876","0.5778209799","0.8624128669","0.9853815399","","","","","","","","","","","","","","72","H","0","img/none_selected.jpg","","128","main_expt","",""
"","bandit","218","1116698","0.0-170.0-0.0","76623023","wem/bandit_party_2","A2MEJZRCLOSOSF","either","6","299","","","","","","","0","0","1","","0.5806273004","0.4","0.2","0.6","0.8","0.5948532478","0.5806273004","0.9026068167","0.9838319732","","","","","","","","","","","","","","74","J","1","","","129","main_expt","",""
"","bandit","219","1118273","0.0-171.0-0.0","76623023","wem/bandit_party_2","A2MEJZRCLOSOSF","either","6","27","","","","","","","1","0","0","0.8983636673","","0.4","0.2","0.6","0.8","","","","","0.6646968067","0.4152233618","0.8983636673","0.9798768453","","","","","","","","","","75","K","2","","","130","main_expt","",""
"","bandit","220","1120832","0.0-172.0-0.0","76623023","wem/bandit_party_2","A2MEJZRCLOSOSF","either","6","1031","","","","","","","1","0","0","0.9628017066","","0.4","0.2","0.6","0.8","","","","","0.6676177377","0.4527057242","0.888478962","0.9628017066","","","","","","","","","","76","L","3","","","131","main_expt","",""
"","bandit","221","1122423","0.0-173.0-0.0","76623023","wem/bandit_party_2","A2MEJZRCLOSOSF","either","6","48","","","","","","","0","1","0","","0.8470567254","0.4","0.2","0.6","0.8","0.7638630926","0.5185753891","0.8470567254","0.9723970119","","","","","","","","","","","","","","75","K","2","","","132","main_expt","",""
"","bandit","222","1124264","0.0-174.0-0.0","76623023","wem/bandit_party_2","A2MEJZRCLOSOSF","either","6","304","","","","","","","0","1","0","","0.4567386081","0.4","0.2","0.6","0.8","0.726350598","0.4567386081","0.8852081265","0.9754432393","","","","","","","","","","","","","","74","J","1","","","133","main_expt","",""
"","bandit","223","1125980","0.0-175.0-0.0","76623023","wem/bandit_party_2","A2MEJZRCLOSOSF","either","6","181","","","","","","","0","1","0","","0.4494056808","0.4","0.2","0.6","0.8","0.7638059904","0.4494056808","0.8317422298","0.9635376407","","","","","","","","","","","","","","74","J","1","","","134","main_expt","",""
"","bandit","224","1129022","0.0-176.0-0.0","76623023","wem/bandit_party_2","A2MEJZRCLOSOSF","either","6","1505","","","","","","","0","1","0","","0.7337835984","0.4","0.2","0.6","0.8","0.7337835984","0.4608562393","0.8121858422","0.9304273523","","","","","","","","","","","","","","72","H","0","img/none_selected.jpg","","135","main_expt","",""
"","bandit","225","1132017","0.0-177.0-0.0","76623023","wem/bandit_party_2","A2MEJZRCLOSOSF","either","6","1459","","","","","","","0","1","0","","0.6684020244","0.4","0.2","0.6","0.8","0.7869055623","0.6684020244","0.8473276522","0.9295592062","","","","","","","","","","","","","","74","J","1","","","136","main_expt","",""
"","bandit","226","1133639","0.0-178.0-0.0","76623023","wem/bandit_party_2","A2MEJZRCLOSOSF","either","6","80","","","","","","","1","0","0","0.8251243182","","0.4","0.2","0.6","0.8","","","","","0.8033651193","0.614137061","0.8251243182","0.9343332129","","","","","","","","","","75","K","2","","","137","main_expt","",""
"","bandit","227","1136525","0.0-179.0-0.0","76623023","wem/bandit_party_2","A2MEJZRCLOSOSF","either","6","1344","","","","","","","0","0","1","","0.7892590299","0.4","0.2","0.6","0.8","0.7620089345","0.711021659","0.7892590299","0.9325781127","","","","","","","","","","","","","","75","K","2","","","138","main_expt","",""
"","bandit","228","1139536","0.0-180.0-0.0","76623023","wem/bandit_party_2","A2MEJZRCLOSOSF","either","6","1472","","","","","","","0","1","0","","0.753698647","0.4","0.2","0.6","0.8","0.8098853196","0.5731932267","0.753698647","0.9687763229","","","","","","","","","","","","","","75","K","2","","","139","main_expt","",""
"","bandit","229","1141829","0.0-181.0-0.0","76623023","wem/bandit_party_2","A2MEJZRCLOSOSF","either","6","758","","","","","","","1","0","0","0.8737133651","","0.4","0.2","0.6","0.8","","","","","0.8737133651","0.6553783698","0.7281837229","0.9520204639","","","","","","","","","","72","H","0","img/none_selected.jpg","","140","main_expt","",""
"","bandit","230","1143561","0.0-182.0-0.0","76623023","wem/bandit_party_2","A2MEJZRCLOSOSF","either","6","189","","","","","","","1","0","0","0.9615613541","","0.4","0.2","0.6","0.8","","","","","0.8464817719","0.5665224918","0.7913145473","0.9615613541","","","","","","","","","","76","L","3","","","141","main_expt","",""
"","bandit","231","1145402","0.0-183.0-0.0","76623023","wem/bandit_party_2","A2MEJZRCLOSOSF","either","6","301","","","","","","","1","0","0","0.7498898283","","0.4","0.2","0.6","0.8","","","","","0.8457688645","0.5230460729","0.7498898283","0.9438722422","","","","","","","","","","75","K","2","","","142","main_expt","",""
"","bandit","232","1147633","0.0-184.0-0.0","76623023","wem/bandit_party_2","A2MEJZRCLOSOSF","either","6","698","","","","","","","1","0","0","0.8801682128","","0.4","0.2","0.6","0.8","","","","","0.8801682128","0.5401897842","0.723110339","0.9419241064","","","","","","","","","","72","H","0","img/none_selected.jpg","","143","main_expt","",""
"","bandit","233","1150035","0.0-185.0-0.0","76623023","wem/bandit_party_2","A2MEJZRCLOSOSF","either","6","865","","","","","","","1","0","0","0.9383966058","","0.4","0.2","0.6","0.8","","","","","0.7806105972","0.5495292383","0.7697142539","0.9383966058","","","","","","","","","","76","L","3","","","144","main_expt","",""
"","bandit","234","1151954","0.0-186.0-0.0","76623023","wem/bandit_party_2","A2MEJZRCLOSOSF","either","6","384","","","","","","","1","0","0","0.8279494337","","0.4","0.2","0.6","0.8","","","","","0.7384744451","0.4718854897","0.8279494337","0.9442204223","","","","","","","","","","75","K","2","","","145","main_expt","",""
"","bandit","235","1153499","0.0-187.0-0.0","76623023","wem/bandit_party_2","A2MEJZRCLOSOSF","either","6","3","","","","","","","0","0","1","","0.3790577705","0.4","0.2","0.6","0.8","0.7078417075","0.3790577705","0.747104877","0.9461270134","","","","","","","","","","","","","","74","J","1","","","146","main_expt","",""
"","bandit","236","1155105","0.0-188.0-0.0","76623023","wem/bandit_party_2","A2MEJZRCLOSOSF","either","6","66","","","","","","","0","1","0","","0.7671729372","0.4","0.2","0.6","0.8","0.7671729372","0.3671333747","0.7635883185","0.9677113618","","","","","","","","","","","","","","72","H","0","img/none_selected.jpg","","147","main_expt","",""
"","bandit","237","1156899","0.0-189.0-0.0","76623023","wem/bandit_party_2","A2MEJZRCLOSOSF","either","6","240","","","","","","","1","0","0","0.7515071201","","0.4","0.2","0.6","0.8","","","","","0.7515071201","0.4462771912","0.6650729927","0.9603287673","","","","","","","","","","72","H","0","img/none_selected.jpg","","148","main_expt","",""
"","bandit","238","1158646","0.0-190.0-0.0","76623023","wem/bandit_party_2","A2MEJZRCLOSOSF","either","6","195","","","","","","","0","0","1","","0.3929125452","0.4","0.2","0.6","0.8","0.7582160768","0.3929125452","0.594527628","0.9256305183","","","","","","","","","","","","","","74","J","1","","","149","main_expt","",""
"","bandit","239","1160939","0.0-191.0-0.0","76623023","wem/bandit_party_2","A2MEJZRCLOSOSF","either","6","695","","","","","","","0","1","0","","0.3825194633","0.4","0.2","0.6","0.8","0.6843302658","0.3825194633","0.5101412162","0.9222609783","","","","","","","","","","","","","","74","J","1","","","150","main_expt","",""
"","bandit","240","1162577","0.0-192.0-0.0","76623023","wem/bandit_party_2","A2MEJZRCLOSOSF","either","6","63","","","","","","","1","0","0","0.5755011036","","0.4","0.2","0.6","0.8","","","","","0.4980827124","0.3889652011","0.5755011036","0.9522131909","","","","","","","","","","75","K","2","","","151","main_expt","",""
"","bandit","241","1164215","0.0-193.0-0.0","76623023","wem/bandit_party_2","A2MEJZRCLOSOSF","either","6","66","","","","","","","1","0","0","0.9351777179","","0.4","0.2","0.6","0.8","","","","","0.5418861514","0.372169082","0.5415628766","0.9351777179","","","","","","","","","","76","L","3","","","152","main_expt","",""
"","bandit","242","1165978","0.0-194.0-0.0","76623023","wem/bandit_party_2","A2MEJZRCLOSOSF","either","6","210","","","","","","","0","0","1","0.9526549669","","0.4","0.2","0.6","0.8","","","","","0.6424708626","0.4275919172","0.6392888902","0.9526549669","","","","","","","","","","76","L","3","","","153","main_expt","",""
"","bandit","243","1167663","0.0-195.0-0.0","76623023","wem/bandit_party_2","A2MEJZRCLOSOSF","either","6","146","","","","","","","0","0","1","","0.6798835142","0.4","0.2","0.6","0.8","0.6200403258","0.3978897223","0.6798835142","0.944677936","","","","","","","","","","","","","","75","K","2","","","154","main_expt","",""
"","bandit","244","1169550","0.0-196.0-0.0","76623023","wem/bandit_party_2","A2MEJZRCLOSOSF","either","6","360","","","","","","","0","0","1","","0.4922143253","0.4","0.2","0.6","0.8","0.5087788092","0.4922143253","0.7376683638","0.9443948233","","","","","","","","","","","","","","74","J","1","","","155","main_expt","",""
"","bandit","245","1171532","0.0-197.0-0.0","76623023","wem/bandit_party_2","A2MEJZRCLOSOSF","either","6","441","","","","","","","0","0","1","","0.4397360723","0.4","0.2","0.6","0.8","0.4397360723","0.5060601407","0.7740838489","0.9312029685","","","","","","","","","","","","","","72","H","0","img/none_selected.jpg","","156","main_expt","",""
"","bandit","246","1173575","0.0-198.0-0.0","76623023","wem/bandit_party_2","A2MEJZRCLOSOSF","either","6","504","","","","","","","0","1","0","","0.56460533","0.4","0.2","0.6","0.8","0.4529934193","0.56460533","0.7526352547","0.9009413449","","","","","","","","","","","","","","74","J","1","","","157","main_expt","",""
"","bandit","247","1175432","0.0-199.0-0.0","76623023","wem/bandit_party_2","A2MEJZRCLOSOSF","either","6","294","","","","","","","1","0","0","0.807066173","","0.4","0.2","0.6","0.8","","","","","0.522014142","0.5551408743","0.807066173","0.8799225656","","","","","","","","","","75","K","2","","","158","main_expt","",""
"","bandit","248","1177319","0.0-200.0-0.0","76623023","wem/bandit_party_2","A2MEJZRCLOSOSF","either","6","342","","","","","","","1","0","0","0.9103166083","","0.4","0.2","0.6","0.8","","","","","0.447178695","0.6362487126","0.8348587906","0.9103166083","","","","","","","","","","76","L","3","","","159","main_expt","",""
"","bandit","249","1179363","0.0-201.0-0.0","76623023","wem/bandit_party_2","A2MEJZRCLOSOSF","either","6","506","","","","","","","0","1","0","","0.8054329593","0.4","0.2","0.6","0.8","0.4293784973","0.5818198138","0.8054329593","0.9575168601","","","","","","","","","","","","","","75","K","2","","","160","main_expt","",""
"","bandit","250","1181453","0.0-202.0-0.0","76623023","wem/bandit_party_2","A2MEJZRCLOSOSF","either","6","537","","","","","","","1","0","0","0.8263011938","","0.4","0.2","0.6","0.8","","","","","0.4263694152","0.5079421761","0.8263011938","0.9323430526","","","","","","","","","","75","K","2","","","161","main_expt","",""
"","bandit","251","1183606","0.0-203.0-0.0","76623023","wem/bandit_party_2","A2MEJZRCLOSOSF","either","6","623","","","","","","","1","0","0","0.8468561623","","0.4","0.2","0.6","0.8","","","","","0.4394756583","0.3944353318","0.8468561623","0.8731035433","","","","","","","","","","75","K","2","","","162","main_expt","",""
"","bandit","252","1185634","0.0-204.0-0.0","76623023","wem/bandit_party_2","A2MEJZRCLOSOSF","either","6","477","","","","","","","1","0","0","0.866861138","","0.4","0.2","0.6","0.8","","","","","0.4632532181","0.4560534757","0.866861138","0.860239847","","","","","","","","","","75","K","2","","","163","main_expt","",""
"","bandit","253","1187459","0.0-205.0-0.0","76623023","wem/bandit_party_2","A2MEJZRCLOSOSF","either","6","289","","","","","","","0","0","1","","0.469091439","0.4","0.2","0.6","0.8","0.469091439","0.4338988853","0.8621839131","0.8327160304","","","","","","","","","","","","","","72","H","0","img/none_selected.jpg","","164","main_expt","",""
"","bandit","254","1189113","0.0-206.0-0.0","76623023","wem/bandit_party_2","A2MEJZRCLOSOSF","either","6","110","","","","","","","0","0","1","","0.4691854483","0.4","0.2","0.6","0.8","0.4691854483","0.3640020004","0.8368369455","0.8780399083","","","","","","","","","","","","","","72","H","0","img/none_selected.jpg","","165","main_expt","",""
"","bandit","255","1192217","0.0-207.0-0.0","76623023","wem/bandit_party_2","A2MEJZRCLOSOSF","either","6","1568","","","","","","","1","0","0","0.4433911144","","0.4","0.2","0.6","0.8","","","","","0.424594696","0.4433911144","0.8543831227","0.8659509199","","","","","","","","","","74","J","1","","","166","main_expt","",""
"","bandit","256","1193949","0.0-208.0-0.0","76623023","wem/bandit_party_2","A2MEJZRCLOSOSF","either","6","187","","","","","","","0","1","0","","0.4852122499","0.4","0.2","0.6","0.8","0.4691217736","0.4852122499","0.8444257961","0.8458676595","","","","","","","","","","","","","","74","J","1","","","167","main_expt","",""
"","bandit","257","1195665","0.0-209.0-0.0","76623023","wem/bandit_party_2","A2MEJZRCLOSOSF","either","6","169","","","","","","","0","0","1","0.8895061166","","0.4","0.2","0.6","0.8","","","","","0.4605946041","0.4829488348","0.8895061166","0.7368025647","","","","","","","","","","75","K","2","","","168","main_expt","",""
"","bandit","258","1197256","0.0-210.0-0.0","76623023","wem/bandit_party_2","A2MEJZRCLOSOSF","either","6","54","","","","","","","0","0","1","","0.4302520818","0.4","0.2","0.6","0.8","0.4302520818","0.467087579","0.8980662015","0.6811301937","","","","","","","","","","","","","","72","H","0","img/none_selected.jpg","","169","main_expt","",""
"","bandit","259","1198863","0.0-211.0-0.0","76623023","wem/bandit_party_2","A2MEJZRCLOSOSF","either","6","79","","","","","","","1","0","0","0.9399190154","","0.4","0.2","0.6","0.8","","","","","0.3846086554","0.3575164989","0.9399190154","0.6781719117","","","","","","","","","","75","K","2","","","170","main_expt","",""
"","bandit","260","1200579","0.0-212.0-0.0","76623023","wem/bandit_party_2","A2MEJZRCLOSOSF","either","6","175","","","","","","","0","0","1","","0.3433755155","0.4","0.2","0.6","0.8","0.4938912128","0.3433755155","0.9199626721","0.5779776893","","","","","","","","","","","","","","74","J","1","","","171","main_expt","",""
"","bandit","261","1202326","0.0-213.0-0.0","76623023","wem/bandit_party_2","A2MEJZRCLOSOSF","either","6","208","","","","","","","1","0","0","0.8885959212","","0.4","0.2","0.6","0.8","","","","","0.5409242696","0.2921203137","0.8885959212","0.5461867433","","","","","","","","","","75","K","2","","","172","main_expt","",""
"","bandit","262","1205727","0.0-214.0-0.0","76623023","wem/bandit_party_2","A2MEJZRCLOSOSF","either","6","1854","","","","","","","0","1","0","","0.5898781272","0.4","0.2","0.6","0.8","0.4899310385","0.3237382503","0.8502068985","0.5898781272","","","","","","","","","","","","","","76","L","3","","","173","main_expt","",""
"","bandit","263","1207646","0.0-215.0-0.0","76623023","wem/bandit_party_2","A2MEJZRCLOSOSF","either","6","377","","","","","","","1","0","0","0.5990225055","","0.4","0.2","0.6","0.8","","","","","0.4464532747","0.2935635685","0.9054067092","0.5990225055","","","","","","","","","","76","L","3","","","174","main_expt","",""
"","bandit","264","1209440","0.0-216.0-0.0","76623023","wem/bandit_party_2","A2MEJZRCLOSOSF","either","6","263","","","","","","","0","0","1","0.6129624105","","0.4","0.2","0.6","0.8","","","","","0.4363040476","0.2797951809","0.9096893241","0.6129624105","","","","","","","","","","76","L","3","","","175","main_expt","",""
"","bandit","265","1211500","0.0-217.0-0.0","76623023","wem/bandit_party_2","A2MEJZRCLOSOSF","either","6","512","","","","","","","0","1","0","","0.9081003197","0.4","0.2","0.6","0.8","0.4198776974","0.2067270565","0.9081003197","0.5434192492","","","","","","","","","","","","","","75","K","2","","","176","main_expt","",""
"","bandit","266","1213558","0.0-218.0-0.0","76623023","wem/bandit_party_2","A2MEJZRCLOSOSF","either","6","506","","","","","","","0","0","1","","0.19266164","0.4","0.2","0.6","0.8","0.4001478854","0.19266164","0.8417535431","0.5893108522","","","","","","","","","","","","","","74","J","1","","","177","main_expt","",""
"","bandit","267","1215510","0.0-219.0-0.0","76623023","wem/bandit_party_2","A2MEJZRCLOSOSF","either","6","399","","","","","","","0","0","1","","0.1393448617","0.4","0.2","0.6","0.8","0.3015477047","0.1393448617","0.8045518304","0.4862463398","","","","","","","","","","","","","","74","J","1","","","178","main_expt","",""
"","bandit","268","1217099","0.0-220.0-0.0","76623023","wem/bandit_party_2","A2MEJZRCLOSOSF","either","6","47","","","","","","","0","0","1","0.2700131006","","0.4","0.2","0.6","0.8","","","","","0.2700131006","0.1149816072","0.8250115846","0.4227787996","","","","","","","","","","72","H","0","img/none_selected.jpg","","179","main_expt","",""
"","bandit","269","1218862","0.0-221.0-0.0","76623023","wem/bandit_party_2","A2MEJZRCLOSOSF","either","6","220","","","","","","","0","0","1","0.3473069","","0.4","0.2","0.6","0.8","","","","","0.3473069","0.1231561222","0.7418096358","0.3583368423","","","","","","","","","","72","H","0","img/none_selected.jpg","","180","main_expt","",""
"","bandit","270","1220531","0.0-222.0-0.0","76623023","wem/bandit_party_2","A2MEJZRCLOSOSF","either","6","137","","","","","","","0","0","1","0.3478804011","","0.4","0.2","0.6","0.8","","","","","0.3478804011","0.1134989143","0.7180260456","0.3820052134","","","","","","","","","","72","H","0","img/none_selected.jpg","","181","main_expt","",""
"","bandit","271","1222185","0.0-223.0-0.0","76623023","wem/bandit_party_2","A2MEJZRCLOSOSF","either","6","109","","","","","","","1","0","0","0.6777378447","","0.4","0.2","0.6","0.8","","","","","0.3304981007","0.07317944644","0.6777378447","0.437769555","","","","","","","","","","75","K","2","","","182","main_expt","",""
"","bandit","272","1225461","0.0-224.0-0.0","76623023","wem/bandit_party_2","A2MEJZRCLOSOSF","either","6","1743","","","","","","","0","0","1","","0.2578466268","0.4","0.2","0.6","0.8","0.2578466268","0.05085611098","0.6331465848","0.3951330089","","","","","","","","","","","","","","72","H","0","img/none_selected.jpg","","183","main_expt","",""
"","bandit","273","1228565","0.0-225.0-0.0","76623023","wem/bandit_party_2","A2MEJZRCLOSOSF","either","6","1555","","","","","","","1","0","0","0.6578519513","","0.4","0.2","0.6","0.8","","","","","0.3550464129","0.07152820202","0.6578519513","0.4062376343","","","","","","","","","","75","K","2","","","184","main_expt","",""
"","bandit","274","1230110","0.0-226.0-0.0","76623023","wem/bandit_party_2","A2MEJZRCLOSOSF","either","6","1","","","","","","","0","0","1","","0.08814522307","0.4","0.2","0.6","0.8","0.2993299556","0.08814522307","0.7160298793","0.4035727276","","","","","","","","","","","","","","74","J","1","","","185","main_expt","",""
"","bandit","275","1231732","0.0-227.0-0.0","76623023","wem/bandit_party_2","A2MEJZRCLOSOSF","either","6","85","","","","","","","1","0","0","0.7081703269","","0.4","0.2","0.6","0.8","","","","","0.3985972224","0.0931487442","0.7081703269","0.4595565904","","","","","","","","","","75","K","2","","","186","main_expt","",""
"","bandit","276","1233682","0.0-228.0-0.0","76623023","wem/bandit_party_2","A2MEJZRCLOSOSF","either","6","410","","","","","","","0","0","1","0.4956959756","","0.4","0.2","0.6","0.8","","","","","0.4563810555","0.05847154344","0.7670757258","0.4956959756","","","","","","","","","","76","L","3","","","187","main_expt","",""
"","bandit","277","1235289","0.0-229.0-0.0","76623023","wem/bandit_party_2","A2MEJZRCLOSOSF","either","6","69","","","","","","","0","0","1","0.4295585103","","0.4","0.2","0.6","0.8","","","","","0.4621092719","0.05005107021","0.7986884496","0.4295585103","","","","","","","","","","76","L","3","","","188","main_expt","",""
"","bandit","278","1237036","0.0-230.0-0.0","76623023","wem/bandit_party_2","A2MEJZRCLOSOSF","either","6","200","","","","","","","0","1","0","","0.8113194514","0.4","0.2","0.6","0.8","0.4214675273","0.05158958255","0.8113194514","0.4121259827","","","","","","","","","","","","","","75","K","2","","","189","main_expt","",""
"","bandit","279","1238815","0.0-231.0-0.0","76623023","wem/bandit_party_2","A2MEJZRCLOSOSF","either","6","240","","","","","","","0","0","1","","0.0530996007","0.4","0.2","0.6","0.8","0.4445162903","0.0530996007","0.8311477635","0.40505342","","","","","","","","","","","","","","74","J","1","","","190","main_expt","",""
"","bandit","280","1240671","0.0-232.0-0.0","76623023","wem/bandit_party_2","A2MEJZRCLOSOSF","either","6","321","","","","","","","0","0","1","","0.4077799102","0.4","0.2","0.6","0.8","0.4077799102","0.05342003941","0.7941336253","0.3671493273","","","","","","","","","","","","","","72","H","0","img/none_selected.jpg","","191","main_expt","",""
"","bandit","281","1242371","0.0-233.0-0.0","76623023","wem/bandit_party_2","A2MEJZRCLOSOSF","either","6","168","","","","","","","0","0","1","0.05264216412","","0.4","0.2","0.6","0.8","","","","","0.413117206","0.05264216412","0.841847859","0.3367263454","","","","","","","","","","74","J","1","","","192","main_expt","",""
"","bandit","282","1243948","0.0-234.0-0.0","76623023","wem/bandit_party_2","A2MEJZRCLOSOSF","either","6","28","","","","","","","1","0","0","0.865127625","","0.4","0.2","0.6","0.8","","","","","0.374663265","0.07418965368","0.865127625","0.2587514209","","","","","","","","","","75","K","2","","","193","main_expt","",""
"","bandit","283","1246927","0.0-235.0-0.0","76623023","wem/bandit_party_2","A2MEJZRCLOSOSF","either","6","1413","","","","","","","0","0","1","0.2123696513","","0.4","0.2","0.6","0.8","","","","","0.2792309937","0.1148515542","0.8369883383","0.2123696513","","","","","","","","","","76","L","3","","","194","main_expt","",""
"","bandit","284","1248549","0.0-236.0-0.0","76623023","wem/bandit_party_2","A2MEJZRCLOSOSF","either","6","70","","","","","","","0","1","0","","0.8226177272","0.4","0.2","0.6","0.8","0.3090424304","0.1102075851","0.8226177272","0.2551117677","","","","","","","","","","","","","","75","K","2","","","195","main_expt","",""
"","bandit","285","1250530","0.0-237.0-0.0","76623023","wem/bandit_party_2","A2MEJZRCLOSOSF","either","6","447","","","","","","","0","0","1","","0.09307195637","0.4","0.2","0.6","0.8","0.2254203465","0.09307195637","0.8759919892","0.2948177706","","","","","","","","","","","","","","74","J","1","","","196","main_expt","",""
"","bandit","286","1252199","0.0-238.0-0.0","76623023","wem/bandit_party_2","A2MEJZRCLOSOSF","either","6","132","","","","","","","0","0","1","0.2104085952","","0.4","0.2","0.6","0.8","","","","","0.2104085952","0.08341332984","0.9413038234","0.2864074111","","","","","","","","","","72","H","0","img/none_selected.jpg","","197","main_expt","",""
"","bandit","287","1254040","0.0-239.0-0.0","76623023","wem/bandit_party_2","A2MEJZRCLOSOSF","either","6","310","","","","","","","0","0","1","","0.06206278739","0.4","0.2","0.6","0.8","0.1686499416","0.06206278739","0.9384937307","0.3044962429","","","","","","","","","","","","","","74","J","1","","","198","main_expt","",""
"","bandit","288","1255632","0.0-240.0-0.0","76623023","wem/bandit_party_2","A2MEJZRCLOSOSF","either","6","51","","","","","","","0","0","1","0.2804127106","","0.4","0.2","0.6","0.8","","","","","0.1696058054","0.1015706687","0.927250614","0.2804127106","","","","","","","","","","76","L","3","","","199","main_expt","",""
"","bandit","289","1257238","0.0-241.0-0.0","76623023","wem/bandit_party_2","A2MEJZRCLOSOSF","either","6","65","","","","","","","0","0","1","0.3151112274","","0.4","0.2","0.6","0.8","","","","","0.1940139532","0.07348353789","0.8840406778","0.3151112274","","","","","","","","","","76","L","3","","","200","main_expt","",""
"","bandit","290","1258783","0.0-242.0-0.0","76623023","wem/bandit_party_2","A2MEJZRCLOSOSF","either","6","4","","","","","","","0","0","1","0.3124471347","","0.4","0.2","0.6","0.8","","","","","0.2384341862","0.09218994405","0.8866639954","0.3124471347","","","","","","","","","","76","L","3","","","201","main_expt","",""
"","bandit","291","1262636","0.0-243.0-0.0","76623023","wem/bandit_party_2","A2MEJZRCLOSOSF","either","6","2302","","","","","","","1","0","0","0.8188103646","","0.4","0.2","0.6","0.8","","","","","0.2069173963","0.1662378481","0.8188103646","0.3418115628","","","","","","","","","","75","K","2","","","202","main_expt","",""
"","bandit","292","1264555","0.0-244.0-0.0","76623023","wem/bandit_party_2","A2MEJZRCLOSOSF","either","6","383","","","","","","","0","1","0","","0.1808123801","0.4","0.2","0.6","0.8","0.2502389624","0.1808123801","0.8026106274","0.2676578736","","","","","","","","","","","","","","74","J","1","","","203","main_expt","",""
"","bandit","293","1266551","0.0-245.0-0.0","76623023","wem/bandit_party_2","A2MEJZRCLOSOSF","either","6","455","","","","","","","0","0","1","","0.2226806","0.4","0.2","0.6","0.8","0.2226806","0.2011980288","0.6613987003","0.2513587973","","","","","","","","","","","","","","72","H","0","img/none_selected.jpg","","204","main_expt","",""
"","bandit","294","1268330","0.0-246.0-0.0","76623023","wem/bandit_party_2","A2MEJZRCLOSOSF","either","6","236","","","","","","","0","0","1","0.2327973494","","0.4","0.2","0.6","0.8","","","","","0.2327973494","0.1877492959","0.7402115251","0.2733703365","","","","","","","","","","72","H","0","img/none_selected.jpg","","205","main_expt","",""
"","bandit","295","1270077","0.0-247.0-0.0","76623023","wem/bandit_party_2","A2MEJZRCLOSOSF","either","6","214","","","","","","","0","1","0","","0.3134624789","0.4","0.2","0.6","0.8","0.3134624789","0.1891298069","0.6792505986","0.3212331514","","","","","","","","","","","","","","72","H","0","img/none_selected.jpg","","206","main_expt","",""
"","bandit","296","1271762","0.0-248.0-0.0","76623023","wem/bandit_party_2","A2MEJZRCLOSOSF","either","6","146","","","","","","","0","1","0","","0.6510378203","0.4","0.2","0.6","0.8","0.3808856429","0.2092890992","0.6510378203","0.3381772831","","","","","","","","","","","","","","75","K","2","","","207","main_expt","",""
"","bandit","297","1275132","0.0-249.0-0.0","76623023","wem/bandit_party_2","A2MEJZRCLOSOSF","either","6","1834","","","","","","","0","0","1","0.2370260631","","0.4","0.2","0.6","0.8","","","","","0.318509643","0.2563161799","0.5971377862","0.2370260631","","","","","","","","","","76","L","3","","","208","main_expt","",""
"","bandit","298","1276723","0.0-250.0-0.0","76623023","wem/bandit_party_2","A2MEJZRCLOSOSF","either","6","49","","","","","","","0","0","1","","0.2157004535","0.4","0.2","0.6","0.8","0.2932847295","0.2643940457","0.6040603887","0.2157004535","","","","","","","","","","","","","","76","L","3","","","209","main_expt","",""
"","bandit","299","1278860","0.0-251.0-0.0","76623023","wem/bandit_party_2","A2MEJZRCLOSOSF","either","6","596","","","","","","","0","1","0","","0.2230023122","0.4","0.2","0.6","0.8","0.2230023122","0.2710870001","0.7794442159","0.2655169153","","","","","","","","","","","","","","72","H","0","img/none_selected.jpg","","210","main_expt","",""
"","bandit","300","1280482","0.0-252.0-0.0","76623023","wem/bandit_party_2","A2MEJZRCLOSOSF","either","6","89","","","","","","","0","0","1","","0.1899351836","0.4","0.2","0.6","0.8","0.1899351836","0.2056380183","0.8397026392","0.2359505063","","","","","","","","","","","","","","72","H","0","img/none_selected.jpg","","211","main_expt","",""
"","bandit","301","1284694","0.0-253.0-0.0","76623023","wem/bandit_party_2","A2MEJZRCLOSOSF","either","6","2675","","","","","","","0","0","1","","0.2593929449","0.4","0.2","0.6","0.8","0.2593929449","0.2487045614","0.7883870126","0.2431981852","","","","","","","","","","","","","","72","H","0","img/none_selected.jpg","","212","main_expt","",""
"","bandit","302","1286519","0.0-254.0-0.0","76623023","wem/bandit_party_2","A2MEJZRCLOSOSF","either","6","295","","","","","","","0","0","1","","0.2304425673","0.4","0.2","0.6","0.8","0.2304425673","0.3520378668","0.7160446845","0.3385658967","","","","","","","","","","","","","","72","H","0","img/none_selected.jpg","","213","main_expt","",""
"","bandit","303","1288220","0.0-255.0-0.0","76623023","wem/bandit_party_2","A2MEJZRCLOSOSF","either","6","162","","","","","","","0","1","0","","0.2849244028","0.4","0.2","0.6","0.8","0.2849244028","0.3455661114","0.7501162241","0.445002088","","","","","","","","","","","","","","72","H","0","img/none_selected.jpg","","214","main_expt","",""
"","bandit","304","1289796","0.0-256.0-0.0","76623023","wem/bandit_party_2","A2MEJZRCLOSOSF","either","6","43","","","","","","","0","1","0","","0.7574589115","0.4","0.2","0.6","0.8","0.3184819088","0.3290646698","0.7574589115","0.4340580748","","","","","","","","","","","","","","75","K","2","","","215","main_expt","",""
"","bandit","305","1293711","0.0-257.0-0.0","76623023","wem/bandit_party_2","A2MEJZRCLOSOSF","either","6","2356","","","","","","","1","0","0","0.7376674805","","0.4","0.2","0.6","0.8","","","","","0.2989728513","0.2737258078","0.7376674805","0.3996931216","","","","","","","","","","75","K","2","","","216","main_expt","",""
"","bandit","306","1296987","0.0-258.0-0.0","76623023","wem/bandit_party_2","A2MEJZRCLOSOSF","either","6","1741","","","","","","","0","1","0","","0.453570069","0.4","0.2","0.6","0.8","0.5538830624","0.2401291484","0.67262171","0.453570069","","","","","","","","","","","","","","76","L","3","","","217","main_expt","",""
"","bandit","307","1298703","0.0-259.0-0.0","76623023","wem/bandit_party_2","A2MEJZRCLOSOSF","either","6","179","","","","","","","0","0","1","","0.3566620654","0.4","0.2","0.6","0.8","0.5331458927","0.2395298113","0.6309662891","0.3566620654","","","","","","","","","","","","","","76","L","3","","","218","main_expt","",""
"","bandit","308","1302354","0.0-260.0-0.0","76623023","wem/bandit_party_2","A2MEJZRCLOSOSF","either","6","2118","","","","","","","0","0","1","0.3114207129","","0.4","0.2","0.6","0.8","","","","","0.409279481","0.2333127667","0.610488243","0.3114207129","","","","","","","","","","76","L","3","","","219","main_expt","",""
"","bandit","309","1305411","0.0-261.0-0.0","76623023","wem/bandit_party_2","A2MEJZRCLOSOSF","either","6","1507","","","","","","","0","1","0","","0.2097963002","0.4","0.2","0.6","0.8","0.3910907299","0.2097963002","0.6741838821","0.348491043","","","","","","","","","","","","","","74","J","1","","","220","main_expt","",""
"","bandit","310","1308578","0.0-262.0-0.0","76623023","wem/bandit_party_2","A2MEJZRCLOSOSF","either","6","1630","","","","","","","0","0","1","","0.37386253","0.4","0.2","0.6","0.8","0.37386253","0.1761429423","0.6938787555","0.325682353","","","","","","","","","","","","","","72","H","0","img/none_selected.jpg","","221","main_expt","",""
"","bandit","311","1310498","0.0-263.0-0.0","76623023","wem/bandit_party_2","A2MEJZRCLOSOSF","either","6","383","","","","","","","0","0","1","0.5460784034","","0.4","0.2","0.6","0.8","","","","","0.5460784034","0.1770547834","0.622086605","0.3582518194","","","","","","","","","","72","H","0","img/none_selected.jpg","","222","main_expt","",""
"","bandit","312","1313960","0.0-264.0-0.0","76623023","wem/bandit_party_2","A2MEJZRCLOSOSF","either","6","1918","","","","","","","0","0","1","0.1494166006","","0.4","0.2","0.6","0.8","","","","","0.5484594206","0.1494166006","0.6190419158","0.3596631187","","","","","","","","","","74","J","1","","","223","main_expt","",""
"","bandit","313","1315738","0.0-265.0-0.0","76623023","wem/bandit_party_2","A2MEJZRCLOSOSF","either","6","235","","","","","","","0","0","1","0.4757784632","","0.4","0.2","0.6","0.8","","","","","0.5156266917","0.1444184755","0.6525227655","0.4757784632","","","","","","","","","","76","L","3","","","224","main_expt","",""
