"consent","trial_type","trial_index","time_elapsed","internal_node_id","subjID","study","MID","cond","drift","rt","responses","button_pressed","key_press","like","value","connected","gems","bombs","no_reward","GemPrChosen","BombPrChosen","GainOverPainPr_0","GainOverPainPr_1","GainOverPainPr_2","GainOverPainPr_3","LosePr_0","LosePr_1","LosePr_2","LosePr_3","WinPr_0","WinPr_1","WinPr_2","WinPr_3","Q0","Q1","Q2","gender","age","ethnicity","label","expt_phase","target","respCharCode","respKey","respChoiceNum","respChoice","practice","trial_counter","trial_label","Q0_index"
"GDM/GDM_behavioral_consent_30min_online.html","consent","0","71162","0.0-0.0","77387453","wem/bandit_party_2","ADTJNZHK3FRDY","either","6","","","","","","","","","","","","","","","","","","","","","","","","","","","","","","","","","","","","","","","","",""
"","survey-text","1","82992","0.0-1.0","77387453","wem/bandit_party_2","ADTJNZHK3FRDY","either","6","10821","{""Q0"":""ADTJNZHK3FRDY""}","","","","","","","","","","","","","","","","","","","","","","","","","","","","","","","","","","","","","","",""
"","button-response","2","86509","0.0-2.0","77387453","wem/bandit_party_2","ADTJNZHK3FRDY","either","6","2509","","1","","","","","","","","","","","","","","","","","","","","","","","","","","","","","","","","","","","","","",""
"","text-replacement","3","100709","0.0-3.0","77387453","wem/bandit_party_2","ADTJNZHK3FRDY","either","6","13195","","","32","","","","","","","","","","","","","","","","","","","","","","","","","","","","","","","","","","","","",""
"","text-replacement","4","119099","0.0-4.0","77387453","wem/bandit_party_2","ADTJNZHK3FRDY","either","6","18387","","","32","","","","","","","","","","","","","","","","","","","","","","","","","","","","","","","","","","","","",""
"","identification","5","130082","0.0-6.0-0.0","77387453","wem/bandit_party_2","ADTJNZHK3FRDY","either","6","10956","","","","4","4","4","","","","","","","","","","","","","","","","","","","","","","","","pre","identification_pre","the Democratic Party","","","","","","","",""
"","identification","6","141341","0.0-6.0-1.0","77387453","wem/bandit_party_2","ADTJNZHK3FRDY","either","6","10236","","","","1","0","0","","","","","","","","","","","","","","","","","","","","","","","","pre","identification_pre","the Republican Party","","","","","","","",""
"","text-replacement","7","160841","0.0-7.0","77387453","wem/bandit_party_2","ADTJNZHK3FRDY","either","6","18496","","","32","","","","","","","","","","","","","","","","","","","","","","","","","","","","","","","","","","","","",""
"","text-replacement","8","167580","0.0-8.0","77387453","wem/bandit_party_2","ADTJNZHK3FRDY","either","6","6734","","","32","","","","","","","","","","","","","","","","","","","","","","","","","","","","","","","","","","","","",""
"","text-replacement","9","177676","0.0-9.0","77387453","wem/bandit_party_2","ADTJNZHK3FRDY","either","6","10093","","","32","","","","","","","","","","","","","","","","","","","","","","","","","","","","","","","","","","","","",""
"","text-replacement","10","181554","0.0-10.0","77387453","wem/bandit_party_2","ADTJNZHK3FRDY","either","6","3875","","","32","","","","","","","","","","","","","","","","","","","","","","","","","","","","","","","","","","","","",""
"","text-replacement","11","186985","0.0-11.0","77387453","wem/bandit_party_2","ADTJNZHK3FRDY","either","6","5429","","","32","","","","","","","","","","","","","","","","","","","","","","","","","","","","","","","","","","","","",""
"","bandit","12","192685","0.0-12.0-0.0","77387453","wem/bandit_party_2","ADTJNZHK3FRDY","either","6","4184","","","","","","","0","0","1","0","0","","","","","0","","","","0","","","","","","","","","","","","","74","J","0","img/none_selected_demo.jpg","true","0","",""
"","bandit","13","195960","0.0-13.0-0.0","77387453","wem/bandit_party_2","ADTJNZHK3FRDY","either","6","1766","","","","","","","0","0","1","0","0","","","","","0","","","","0","","","","","","","","","","","","","75","K","0","img/none_selected_demo.jpg","true","0","",""
"","text-replacement","14","205595","0.0-14.0","77387453","wem/bandit_party_2","ADTJNZHK3FRDY","either","6","9632","","","32","","","","","","","","","","","","","","","","","","","","","","","","","","","","","","","","","","","","",""
"","text-replacement","15","214329","0.0-15.0","77387453","wem/bandit_party_2","ADTJNZHK3FRDY","either","6","8731","","","32","","","","","","","","","","","","","","","","","","","","","","","","","","","","","","","","","","","","",""
"","text-replacement","16","224555","0.0-16.0","77387453","wem/bandit_party_2","ADTJNZHK3FRDY","either","6","10223","","","32","","","","","","","","","","","","","","","","","","","","","","","","","","","","","","","","","","","","",""
"","text-replacement","17","239035","0.0-17.0","77387453","wem/bandit_party_2","ADTJNZHK3FRDY","either","6","14477","","","32","","","","","","","","","","","","","","","","","","","","","","","","","","","","","","","","","","","","",""
"","bandit","18","243218","0.0-18.0-0.0","77387453","wem/bandit_party_2","ADTJNZHK3FRDY","either","6","2674","","","","","","","0","1","0","","0.8","0.5","0.5","","","0.8","0.2","","","","","","","","","","","","","","","","74","J","0","img/none_selected_demo.jpg","true","0","80_20_practice",""
"","bandit","19","246969","0.0-18.0-1.0","77387453","wem/bandit_party_2","ADTJNZHK3FRDY","either","6","2239","","","","","","","0","0","1","","0.2","0.5","0.5","","","0.8","0.2","","","","","","","","","","","","","","","","75","K","1","","true","0","80_20_practice",""
"","bandit","20","255169","0.0-18.0-2.0","77387453","wem/bandit_party_2","ADTJNZHK3FRDY","either","6","6691","","","","","","","1","0","0","0.8","","0.5","0.5","","","","","","","0.8","0.2","","","","","","","","","","","","74","J","0","img/none_selected_demo.jpg","true","0","80_20_practice",""
"","bandit","21","258201","0.0-18.0-3.0","77387453","wem/bandit_party_2","ADTJNZHK3FRDY","either","6","1523","","","","","","","0","0","1","0.2","","0.5","0.5","","","","","","","0.8","0.2","","","","","","","","","","","","75","K","1","","true","0","80_20_practice",""
"","bandit","22","260922","0.0-18.0-4.0","77387453","wem/bandit_party_2","ADTJNZHK3FRDY","either","6","1209","","","","","","","0","1","0","","0.8","0.5","0.5","","","0.8","0.2","","","","","","","","","","","","","","","","74","J","0","img/none_selected_demo.jpg","true","0","80_20_practice",""
"","bandit","23","263785","0.0-18.0-5.0","77387453","wem/bandit_party_2","ADTJNZHK3FRDY","either","6","1354","","","","","","","0","0","1","","0.2","0.5","0.5","","","0.8","0.2","","","","","","","","","","","","","","","","75","K","1","","true","0","80_20_practice",""
"","bandit","24","266786","0.0-18.0-6.0","77387453","wem/bandit_party_2","ADTJNZHK3FRDY","either","6","1492","","","","","","","0","1","0","","0.8","0.5","0.5","","","0.8","0.2","","","","","","","","","","","","","","","","74","J","0","img/none_selected_demo.jpg","true","0","80_20_practice",""
"","bandit","25","268985","0.0-18.0-7.0","77387453","wem/bandit_party_2","ADTJNZHK3FRDY","either","6","690","","","","","","","1","0","0","0.2","","0.5","0.5","","","","","","","0.8","0.2","","","","","","","","","","","","75","K","1","","true","0","80_20_practice",""
"","bandit","26","273428","0.0-18.0-8.0","77387453","wem/bandit_party_2","ADTJNZHK3FRDY","either","6","2934","","","","","","","1","0","0","0.8","","0.5","0.5","","","","","","","0.8","0.2","","","","","","","","","","","","74","J","0","img/none_selected_demo.jpg","true","0","80_20_practice",""
"","bandit","27","276546","0.0-18.0-9.0","77387453","wem/bandit_party_2","ADTJNZHK3FRDY","either","6","1609","","","","","","","0","0","1","0.2","","0.5","0.5","","","","","","","0.8","0.2","","","","","","","","","","","","75","K","1","","true","0","80_20_practice",""
"","bandit","28","280001","0.0-18.0-10.0","77387453","wem/bandit_party_2","ADTJNZHK3FRDY","either","6","1947","","","","","","","0","1","0","","0.8","0.5","0.5","","","0.8","0.2","","","","","","","","","","","","","","","","74","J","0","img/none_selected_demo.jpg","true","0","80_20_practice",""
"","bandit","29","281946","0.0-18.0-11.0","77387453","wem/bandit_party_2","ADTJNZHK3FRDY","either","6","434","","","","","","","0","1","0","","0.8","0.5","0.5","","","0.8","0.2","","","","","","","","","","","","","","","","74","J","0","img/none_selected_demo.jpg","true","0","80_20_practice",""
"","bandit","30","284659","0.0-18.0-12.0","77387453","wem/bandit_party_2","ADTJNZHK3FRDY","either","6","1205","","","","","","","1","0","0","0.8","","0.5","0.5","","","","","","","0.8","0.2","","","","","","","","","","","","74","J","0","img/none_selected_demo.jpg","true","0","80_20_practice",""
"","bandit","31","286682","0.0-18.0-13.0","77387453","wem/bandit_party_2","ADTJNZHK3FRDY","either","6","513","","","","","","","0","1","0","","0.8","0.5","0.5","","","0.8","0.2","","","","","","","","","","","","","","","","74","J","0","img/none_selected_demo.jpg","true","0","80_20_practice",""
"","bandit","32","289259","0.0-18.0-14.0","77387453","wem/bandit_party_2","ADTJNZHK3FRDY","either","6","1067","","","","","","","0","1","0","","0.8","0.5","0.5","","","0.8","0.2","","","","","","","","","","","","","","","","74","J","0","img/none_selected_demo.jpg","true","0","80_20_practice",""
"","bandit","33","291322","0.0-18.0-15.0","77387453","wem/bandit_party_2","ADTJNZHK3FRDY","either","6","554","","","","","","","0","0","1","","0.8","0.5","0.5","","","0.8","0.2","","","","","","","","","","","","","","","","74","J","0","img/none_selected_demo.jpg","true","0","80_20_practice",""
"","bandit","34","294507","0.0-18.0-16.0","77387453","wem/bandit_party_2","ADTJNZHK3FRDY","either","6","1675","","","","","","","0","1","0","","0.8","0.5","0.5","","","0.8","0.2","","","","","","","","","","","","","","","","74","J","0","img/none_selected_demo.jpg","true","0","80_20_practice",""
"","bandit","35","299443","0.0-18.0-17.0","77387453","wem/bandit_party_2","ADTJNZHK3FRDY","either","6","3426","","","","","","","0","0","1","0.2","","0.5","0.5","","","","","","","0.8","0.2","","","","","","","","","","","","75","K","1","","true","0","80_20_practice",""
"","bandit","36","302834","0.0-18.0-18.0","77387453","wem/bandit_party_2","ADTJNZHK3FRDY","either","6","1881","","","","","","","1","0","0","0.2","","0.5","0.5","","","","","","","0.8","0.2","","","","","","","","","","","","75","K","1","","true","0","80_20_practice",""
"","bandit","37","305290","0.0-18.0-19.0","77387453","wem/bandit_party_2","ADTJNZHK3FRDY","either","6","947","","","","","","","0","0","1","","0.2","0.5","0.5","","","0.8","0.2","","","","","","","","","","","","","","","","75","K","1","","true","0","80_20_practice",""
"","text-replacement","38","313426","0.0-19.0","77387453","wem/bandit_party_2","ADTJNZHK3FRDY","either","6","8133","","","32","","","","","","","","","","","","","","","","","","","","","","","","","","","","","","","","","","","","",""
"","bandit","39","317354","0.0-20.0-0.0","77387453","wem/bandit_party_2","ADTJNZHK3FRDY","either","6","2419","","","","","","","1","0","0","1","0","","","","","0","1","","","1","0","","","","","","","","","","","","74","J","0","img/none_selected_demo.jpg","true","0","",""
"","text-replacement","40","324124","0.0-21.0","77387453","wem/bandit_party_2","ADTJNZHK3FRDY","either","6","6764","","","32","","","","","","","","","","","","","","","","","","","","","","","","","","","","","","","","","","","","",""
"","text-replacement","41","330330","0.0-22.0","77387453","wem/bandit_party_2","ADTJNZHK3FRDY","either","6","6203","","","32","","","","","","","","","","","","","","","","","","","","","","","","","","","","","","","","","","","","",""
"","text-replacement","42","333082","0.0-23.0","77387453","wem/bandit_party_2","ADTJNZHK3FRDY","either","6","2748","","","32","","","","","","","","","","","","","","","","","","","","","","","","","","","","","","","","","","","","",""
"","text-replacement","43","337500","0.0-24.0","77387453","wem/bandit_party_2","ADTJNZHK3FRDY","either","6","4414","","","32","","","","","","","","","","","","","","","","","","","","","","","","","","","","","","","","","","","","",""
"","text-replacement","44","345499","0.0-25.0","77387453","wem/bandit_party_2","ADTJNZHK3FRDY","either","6","7995","","","32","","","","","","","","","","","","","","","","","","","","","","","","","","","","","","","","","","","","",""
"","text-replacement","45","348460","0.0-26.0","77387453","wem/bandit_party_2","ADTJNZHK3FRDY","either","6","2958","","","32","","","","","","","","","","","","","","","","","","","","","","","","","","","","","","","","","","","","",""
"","text-replacement","46","352307","0.0-27.0","77387453","wem/bandit_party_2","ADTJNZHK3FRDY","either","6","3843","","","32","","","","","","","","","","","","","","","","","","","","","","","","","","","","","","","","","","","","",""
"","text-replacement","47","356130","0.0-28.0","77387453","wem/bandit_party_2","ADTJNZHK3FRDY","either","6","3820","","","32","","","","","","","","","","","","","","","","","","","","","","","","","","","","","","","","","","","","",""
"","text-replacement","48","360436","0.0-29.0","77387453","wem/bandit_party_2","ADTJNZHK3FRDY","either","6","4302","","","32","","","","","","","","","","","","","","","","","","","","","","","","","","","","","","","","","","","","",""
"","text-replacement","49","363922","0.0-30.0","77387453","wem/bandit_party_2","ADTJNZHK3FRDY","either","6","3482","","","32","","","","","","","","","","","","","","","","","","","","","","","","","","","","","","","","","","","","",""
"","text-replacement","50","369458","0.0-31.0","77387453","wem/bandit_party_2","ADTJNZHK3FRDY","either","6","5533","","","32","","","","","","","","","","","","","","","","","","","","","","","","","","","","","","","","","","","","",""
"","bandit","51","373155","0.0-32.0-0.0","77387453","wem/bandit_party_2","ADTJNZHK3FRDY","either","6","2188","","","","","","","0","0","1","","0.8","0.5","0.5","0.5","0.5","0.8","0.2","0.6","0.2","","","","","","","","","","","","","","72","H","0","img/none_selected.jpg","true","0","full_practice",""
"","bandit","52","375241","0.0-32.0-1.0","77387453","wem/bandit_party_2","ADTJNZHK3FRDY","either","6","575","","","","","","","0","1","0","","0.8","0.5","0.5","0.5","0.5","0.8","0.2","0.6","0.2","","","","","","","","","","","","","","72","H","0","img/none_selected.jpg","true","0","full_practice",""
"","bandit","53","377170","0.0-32.0-2.0","77387453","wem/bandit_party_2","ADTJNZHK3FRDY","either","6","420","","","","","","","0","1","0","","0.8","0.5","0.5","0.5","0.5","0.8","0.2","0.6","0.2","","","","","","","","","","","","","","72","H","0","img/none_selected.jpg","true","0","full_practice",""
"","bandit","54","379650","0.0-32.0-3.0","77387453","wem/bandit_party_2","ADTJNZHK3FRDY","either","6","970","","","","","","","1","0","0","0.8","","0.5","0.5","0.5","0.5","","","","","0.8","0.2","0.6","0.2","","","","","","","","","","72","H","0","img/none_selected.jpg","true","0","full_practice",""
"","bandit","55","382403","0.0-32.0-4.0","77387453","wem/bandit_party_2","ADTJNZHK3FRDY","either","6","1242","","","","","","","0","0","1","","0.2","0.5","0.5","0.5","0.5","0.8","0.2","0.6","0.2","","","","","","","","","","","","","","74","J","1","","true","0","full_practice",""
"","bandit","56","385426","0.0-32.0-5.0","77387453","wem/bandit_party_2","ADTJNZHK3FRDY","either","6","1513","","","","","","","0","0","1","","0.2","0.5","0.5","0.5","0.5","0.8","0.2","0.6","0.2","","","","","","","","","","","","","","74","J","1","","true","0","full_practice",""
"","bandit","57","388225","0.0-32.0-6.0","77387453","wem/bandit_party_2","ADTJNZHK3FRDY","either","6","1288","","","","","","","0","0","1","","0.2","0.5","0.5","0.5","0.5","0.8","0.2","0.6","0.2","","","","","","","","","","","","","","74","J","1","","true","0","full_practice",""
"","bandit","58","390649","0.0-32.0-7.0","77387453","wem/bandit_party_2","ADTJNZHK3FRDY","either","6","915","","","","","","","1","0","0","0.6","","0.5","0.5","0.5","0.5","","","","","0.8","0.2","0.6","0.2","","","","","","","","","","75","K","2","","true","0","full_practice",""
"","bandit","59","393827","0.0-32.0-8.0","77387453","wem/bandit_party_2","ADTJNZHK3FRDY","either","6","1668","","","","","","","1","0","0","0.6","","0.5","0.5","0.5","0.5","","","","","0.8","0.2","0.6","0.2","","","","","","","","","","75","K","2","","true","0","full_practice",""
"","bandit","60","395540","0.0-32.0-9.0","77387453","wem/bandit_party_2","ADTJNZHK3FRDY","either","6","203","","","","","","","0","0","1","0.6","","0.5","0.5","0.5","0.5","","","","","0.8","0.2","0.6","0.2","","","","","","","","","","75","K","2","","true","0","full_practice",""
"","bandit","61","398154","0.0-32.0-10.0","77387453","wem/bandit_party_2","ADTJNZHK3FRDY","either","6","1101","","","","","","","0","0","1","0.2","","0.5","0.5","0.5","0.5","","","","","0.8","0.2","0.6","0.2","","","","","","","","","","76","L","3","","true","0","full_practice",""
"","bandit","62","400850","0.0-32.0-11.0","77387453","wem/bandit_party_2","ADTJNZHK3FRDY","either","6","1186","","","","","","","0","1","0","","0.2","0.5","0.5","0.5","0.5","0.8","0.2","0.6","0.2","","","","","","","","","","","","","","76","L","3","","true","0","full_practice",""
"","bandit","63","403921","0.0-32.0-12.0","77387453","wem/bandit_party_2","ADTJNZHK3FRDY","either","6","1562","","","","","","","0","0","1","","0.2","0.5","0.5","0.5","0.5","0.8","0.2","0.6","0.2","","","","","","","","","","","","","","76","L","3","","true","0","full_practice",""
"","bandit","64","405523","0.0-32.0-13.0","77387453","wem/bandit_party_2","ADTJNZHK3FRDY","either","6","90","","","","","","","0","0","1","0.2","","0.5","0.5","0.5","0.5","","","","","0.8","0.2","0.6","0.2","","","","","","","","","","76","L","3","","true","0","full_practice",""
"","bandit","65","407858","0.0-32.0-14.0","77387453","wem/bandit_party_2","ADTJNZHK3FRDY","either","6","824","","","","","","","0","0","1","0.2","","0.5","0.5","0.5","0.5","","","","","0.8","0.2","0.6","0.2","","","","","","","","","","76","L","3","","true","0","full_practice",""
"","bandit","66","411201","0.0-32.0-15.0","77387453","wem/bandit_party_2","ADTJNZHK3FRDY","either","6","1833","","","","","","","0","1","0","","0.6","0.5","0.5","0.5","0.5","0.8","0.2","0.6","0.2","","","","","","","","","","","","","","75","K","2","","true","0","full_practice",""
"","bandit","67","413290","0.0-32.0-16.0","77387453","wem/bandit_party_2","ADTJNZHK3FRDY","either","6","580","","","","","","","0","1","0","","0.6","0.5","0.5","0.5","0.5","0.8","0.2","0.6","0.2","","","","","","","","","","","","","","75","K","2","","true","0","full_practice",""
"","bandit","68","415258","0.0-32.0-17.0","77387453","wem/bandit_party_2","ADTJNZHK3FRDY","either","6","457","","","","","","","0","0","1","","0.6","0.5","0.5","0.5","0.5","0.8","0.2","0.6","0.2","","","","","","","","","","","","","","75","K","2","","true","0","full_practice",""
"","bandit","69","416860","0.0-32.0-18.0","77387453","wem/bandit_party_2","ADTJNZHK3FRDY","either","6","92","","","","","","","1","0","0","0.6","","0.5","0.5","0.5","0.5","","","","","0.8","0.2","0.6","0.2","","","","","","","","","","75","K","2","","true","0","full_practice",""
"","bandit","70","418506","0.0-32.0-19.0","77387453","wem/bandit_party_2","ADTJNZHK3FRDY","either","6","135","","","","","","","1","0","0","0.6","","0.5","0.5","0.5","0.5","","","","","0.8","0.2","0.6","0.2","","","","","","","","","","75","K","2","","true","0","full_practice",""
"","text","71","425138","0.0-33.0","77387453","wem/bandit_party_2","ADTJNZHK3FRDY","either","6","6613","","","32","","","","","","","","","","","","","","","","","","","","","","","","","","","","","","","","","","","","",""
"","text-replacement","72","443124","0.0-34.0","77387453","wem/bandit_party_2","ADTJNZHK3FRDY","either","6","16980","","","32","","","","","","","","","","","","","","","","","","","","","","","","","","","","","","","","","","","","",""
"","text-replacement","73","454116","0.0-35.0","77387453","wem/bandit_party_2","ADTJNZHK3FRDY","either","6","10988","","","32","","","","","","","","","","","","","","","","","","","","","","","","","","","","","","","","","","","","",""
"","text-replacement","74","461499","0.0-36.0","77387453","wem/bandit_party_2","ADTJNZHK3FRDY","either","6","7377","","","32","","","","","","","","","","","","","","","","","","","","","","","","","","","","","","","","","","","","",""
"","text-replacement","75","468164","0.0-37.0","77387453","wem/bandit_party_2","ADTJNZHK3FRDY","either","6","6661","","","32","","","","","","","","","","","","","","","","","","","","","","","","","","","","","","","","","","","","",""
"","text-replacement","76","475475","0.0-38.0","77387453","wem/bandit_party_2","ADTJNZHK3FRDY","either","6","7307","","","32","","","","","","","","","","","","","","","","","","","","","","","","","","","","","","","","","","","","",""
"","survey-multi-choice-replacement","77","488373","0.0-39.0-0.0","77387453","wem/bandit_party_2","ADTJNZHK3FRDY","either","6","12883","","","","","","","","","","","","","","","","","","","","","","","","Money will be added to the pool for <span style='color:blue;'>DEMOCRATS</span>","","","","","","","attn_check","","","","","","","","","0"
"","survey-multi-choice-replacement","78","500205","0.0-40.0-0.0","77387453","wem/bandit_party_2","ADTJNZHK3FRDY","either","6","10816","","","","","","","","","","","","","","","","","","","","","","","","Equal amounts of money will be added to the pool for <span style='color:blue;'>DEMOCRATS</span> and subtracted from the pool for <span style='color:red;'>REPUBLICANS</span>","","","","","","","attn_check","","","","","","","","","2"
"","survey-multi-choice-replacement","79","506342","0.0-41.0-0.0","77387453","wem/bandit_party_2","ADTJNZHK3FRDY","either","6","5120","","","","","","","","","","","","","","","","","","","","","","","","No money will be added to either pool","","","","","","","attn_check","","","","","","","","","3"
"","bandit","80","512580","0.0-42.0-0.0","77387453","wem/bandit_party_2","ADTJNZHK3FRDY","either","6","3722","","","","","","","0","0","1","0.3049938501","","0.2","0.6","0.8","0.4","","","","","0.3049938501","0.7197236342","0.2309914537","0.1947351938","","","","","","","","","","72","H","0","img/none_selected.jpg","","1","main_expt",""
"","bandit","81","514931","0.0-43.0-0.0","77387453","wem/bandit_party_2","ADTJNZHK3FRDY","either","6","839","","","","","","","0","0","1","","0.3105507028","0.2","0.6","0.8","0.4","0.3105507028","0.7453792406","0.2351366282","0.1865171684","","","","","","","","","","","","","","72","H","0","img/none_selected.jpg","","2","main_expt",""
"","bandit","82","517283","0.0-44.0-0.0","77387453","wem/bandit_party_2","ADTJNZHK3FRDY","either","6","840","","","","","","","1","0","0","0.7422746785","","0.2","0.6","0.8","0.4","","","","","0.347932066","0.7422746785","0.3338792953","0.1578482069","","","","","","","","","","74","J","1","","","3","main_expt",""
"","bandit","83","519282","0.0-45.0-0.0","77387453","wem/bandit_party_2","ADTJNZHK3FRDY","either","6","487","","","","","","","1","0","0","0.8152876082","","0.2","0.6","0.8","0.4","","","","","0.294099503","0.8152876082","0.2578124611","0.1733557992","","","","","","","","","","74","J","1","","","4","main_expt",""
"","bandit","84","523484","0.0-46.0-0.0","77387453","wem/bandit_party_2","ADTJNZHK3FRDY","either","6","2691","","","","","","","1","0","0","0.8494846052","","0.2","0.6","0.8","0.4","","","","","0.256228135","0.8494846052","0.152782507","0.1275681293","","","","","","","","","","74","J","1","","","5","main_expt",""
"","bandit","85","526042","0.0-47.0-0.0","77387453","wem/bandit_party_2","ADTJNZHK3FRDY","either","6","1048","","","","","","","1","0","0","0.8036792828","","0.2","0.6","0.8","0.4","","","","","0.3142053347","0.8036792828","0.200224935","0.1776351543","","","","","","","","","","74","J","1","","","6","main_expt",""
"","bandit","86","528826","0.0-48.0-0.0","77387453","wem/bandit_party_2","ADTJNZHK3FRDY","either","6","1272","","","","","","","1","0","0","0.8659664865","","0.2","0.6","0.8","0.4","","","","","0.2382568898","0.8659664865","0.2200442108","0.1412615145","","","","","","","","","","74","J","1","","","7","main_expt",""
"","bandit","87","531194","0.0-49.0-0.0","77387453","wem/bandit_party_2","ADTJNZHK3FRDY","either","6","857","","","","","","","1","0","0","0.8475436228","","0.2","0.6","0.8","0.4","","","","","0.220471749","0.8475436228","0.1516915951","0.1508054742","","","","","","","","","","74","J","1","","","8","main_expt",""
"","bandit","88","534027","0.0-50.0-0.0","77387453","wem/bandit_party_2","ADTJNZHK3FRDY","either","6","1324","","","","","","","1","0","0","0.8034999265","","0.2","0.6","0.8","0.4","","","","","0.2842820234","0.8034999265","0.1468829212","0.1882404854","","","","","","","","","","74","J","1","","","9","main_expt",""
"","bandit","89","537018","0.0-51.0-0.0","77387453","wem/bandit_party_2","ADTJNZHK3FRDY","either","6","1473","","","","","","","1","0","0","0.7148412232","","0.2","0.6","0.8","0.4","","","","","0.3392415315","0.7148412232","0.1507643719","0.1731305678","","","","","","","","","","74","J","1","","","10","main_expt",""
"","bandit","90","539506","0.0-52.0-0.0","77387453","wem/bandit_party_2","ADTJNZHK3FRDY","either","6","977","","","","","","","1","0","0","0.7213030285","","0.2","0.6","0.8","0.4","","","","","0.4470346709","0.7213030285","0.18301","0.2475279461","","","","","","","","","","74","J","1","","","11","main_expt",""
"","bandit","91","542098","0.0-53.0-0.0","77387453","wem/bandit_party_2","ADTJNZHK3FRDY","either","6","1081","","","","","","","0","1","0","","0.7396148754","0.2","0.6","0.8","0.4","0.5143820195","0.7396148754","0.209562337","0.2068792089","","","","","","","","","","","","","","74","J","1","","","12","main_expt",""
"","bandit","92","544741","0.0-54.0-0.0","77387453","wem/bandit_party_2","ADTJNZHK3FRDY","either","6","1129","","","","","","","0","1","0","","0.6870781676","0.2","0.6","0.8","0.4","0.4934308908","0.6870781676","0.2133897639","0.1594062408","","","","","","","","","","","","","","74","J","1","","","13","main_expt",""
"","bandit","93","547306","0.0-55.0-0.0","77387453","wem/bandit_party_2","ADTJNZHK3FRDY","either","6","1054","","","","","","","1","0","0","0.6561171826","","0.2","0.6","0.8","0.4","","","","","0.5884397519","0.6561171826","0.1865122749","0.1808320347","","","","","","","","","","74","J","1","","","14","main_expt",""
"","bandit","94","549857","0.0-56.0-0.0","77387453","wem/bandit_party_2","ADTJNZHK3FRDY","either","6","1041","","","","","","","0","1","0","","0.6255101569","0.2","0.6","0.8","0.4","0.425765204","0.6255101569","0.3169691733","0.2401125286","","","","","","","","","","","","","","74","J","1","","","15","main_expt",""
"","bandit","95","552066","0.0-57.0-0.0","77387453","wem/bandit_party_2","ADTJNZHK3FRDY","either","6","697","","","","","","","0","0","1","","0.6101220295","0.2","0.6","0.8","0.4","0.4458974369","0.6101220295","0.3927767979","0.1823220599","","","","","","","","","","","","","","74","J","1","","","16","main_expt",""
"","bandit","96","555019","0.0-58.0-0.0","77387453","wem/bandit_party_2","ADTJNZHK3FRDY","either","6","1443","","","","","","","1","0","0","0.6233337625","","0.2","0.6","0.8","0.4","","","","","0.4907358526","0.6233337625","0.2882183284","0.2076179308","","","","","","","","","","74","J","1","","","17","main_expt",""
"","bandit","97","557339","0.0-59.0-0.0","77387453","wem/bandit_party_2","ADTJNZHK3FRDY","either","6","809","","","","","","","1","0","0","0.598865074","","0.2","0.6","0.8","0.4","","","","","0.4895096529","0.598865074","0.3212622409","0.2310064443","","","","","","","","","","74","J","1","","","18","main_expt",""
"","bandit","98","559314","0.0-60.0-0.0","77387453","wem/bandit_party_2","ADTJNZHK3FRDY","either","6","463","","","","","","","1","0","0","0.6318918302","","0.2","0.6","0.8","0.4","","","","","0.5437378015","0.6318918302","0.3678238944","0.1919199612","","","","","","","","","","74","J","1","","","19","main_expt",""
"","bandit","99","561834","0.0-61.0-0.0","77387453","wem/bandit_party_2","ADTJNZHK3FRDY","either","6","1010","","","","","","","0","1","0","","0.5667690756","0.2","0.6","0.8","0.4","0.543071052","0.5667690756","0.4357360734","0.2150176637","","","","","","","","","","","","","","74","J","1","","","20","main_expt",""
"","bandit","100","564242","0.0-62.0-0.0","77387453","wem/bandit_party_2","ADTJNZHK3FRDY","either","6","895","","","","","","","0","0","1","","0.6364396753","0.2","0.6","0.8","0.4","0.5457928974","0.6364396753","0.4486518506","0.2980309021","","","","","","","","","","","","","","74","J","1","","","21","main_expt",""
"","bandit","101","566716","0.0-63.0-0.0","77387453","wem/bandit_party_2","ADTJNZHK3FRDY","either","6","964","","","","","","","0","1","0","","0.5563436533","0.2","0.6","0.8","0.4","0.4531799458","0.5563436533","0.5145372488","0.3238742104","","","","","","","","","","","","","","74","J","1","","","22","main_expt",""
"","bandit","102","569161","0.0-64.0-0.0","77387453","wem/bandit_party_2","ADTJNZHK3FRDY","either","6","935","","","","","","","0","1","0","","0.4555064456","0.2","0.6","0.8","0.4","0.4321579995","0.4555064456","0.6324996067","0.4158928209","","","","","","","","","","","","","","74","J","1","","","23","main_expt",""
"","bandit","103","571346","0.0-65.0-0.0","77387453","wem/bandit_party_2","ADTJNZHK3FRDY","either","6","672","","","","","","","1","0","0","0.4398961724","","0.2","0.6","0.8","0.4","","","","","0.3892872195","0.4398961724","0.6665025749","0.2798670784","","","","","","","","","","74","J","1","","","24","main_expt",""
"","bandit","104","573576","0.0-66.0-0.0","77387453","wem/bandit_party_2","ADTJNZHK3FRDY","either","6","720","","","","","","","0","0","1","","0.3810464824","0.2","0.6","0.8","0.4","0.4322880781","0.3810464824","0.5316582614","0.3932164435","","","","","","","","","","","","","","74","J","1","","","25","main_expt",""
"","bandit","105","575844","0.0-67.0-0.0","77387453","wem/bandit_party_2","ADTJNZHK3FRDY","either","6","755","","","","","","","0","0","1","","0.451695138","0.2","0.6","0.8","0.4","0.4560392573","0.451695138","0.4282094451","0.3243459504","","","","","","","","","","","","","","74","J","1","","","26","main_expt",""
"","bandit","106","579457","0.0-68.0-0.0","77387453","wem/bandit_party_2","ADTJNZHK3FRDY","either","6","2102","","","","","","","0","0","1","0.4711380508","","0.2","0.6","0.8","0.4","","","","","0.5372901799","0.4423729324","0.4711380508","0.4266302179","","","","","","","","","","75","K","2","","","27","main_expt",""
"","bandit","107","581961","0.0-69.0-0.0","77387453","wem/bandit_party_2","ADTJNZHK3FRDY","either","6","993","","","","","","","0","0","1","0.4539290932","","0.2","0.6","0.8","0.4","","","","","0.6619872032","0.4221124674","0.4539290932","0.4206607535","","","","","","","","","","75","K","2","","","28","main_expt",""
"","bandit","108","585008","0.0-70.0-0.0","77387453","wem/bandit_party_2","ADTJNZHK3FRDY","either","6","1540","","","","","","","0","0","1","","0.440099583","0.2","0.6","0.8","0.4","0.5939885142","0.489207998","0.4378511583","0.440099583","","","","","","","","","","","","","","76","L","3","","","29","main_expt",""
"","bandit","109","587649","0.0-71.0-0.0","77387453","wem/bandit_party_2","ADTJNZHK3FRDY","either","6","1129","","","","","","","0","1","0","","0.3982168329","0.2","0.6","0.8","0.4","0.5602145404","0.4406356357","0.3425428874","0.3982168329","","","","","","","","","","","","","","76","L","3","","","30","main_expt",""
"","bandit","110","589763","0.0-72.0-0.0","77387453","wem/bandit_party_2","ADTJNZHK3FRDY","either","6","601","","","","","","","0","0","1","0.3573437221","","0.2","0.6","0.8","0.4","","","","","0.5376870091","0.484130952","0.2354865125","0.3573437221","","","","","","","","","","76","L","3","","","31","main_expt",""
"","bandit","111","593273","0.0-73.0-0.0","77387453","wem/bandit_party_2","ADTJNZHK3FRDY","either","6","1998","","","","","","","0","1","0","","0.6346195819","0.2","0.6","0.8","0.4","0.6346195819","0.432294219","0.2552437171","0.3712986889","","","","","","","","","","","","","","72","H","0","img/none_selected.jpg","","32","main_expt",""
"","bandit","112","595354","0.0-74.0-0.0","77387453","wem/bandit_party_2","ADTJNZHK3FRDY","either","6","567","","","","","","","0","0","1","","0.7540961955","0.2","0.6","0.8","0.4","0.7540961955","0.4821309474","0.2470382599","0.45096985","","","","","","","","","","","","","","72","H","0","img/none_selected.jpg","","33","main_expt",""
"","bandit","113","597561","0.0-75.0-0.0","77387453","wem/bandit_party_2","ADTJNZHK3FRDY","either","6","695","","","","","","","1","0","0","0.699797925","","0.2","0.6","0.8","0.4","","","","","0.699797925","0.4702474349","0.2951894024","0.5559331637","","","","","","","","","","72","H","0","img/none_selected.jpg","","34","main_expt",""
"","bandit","114","599828","0.0-76.0-0.0","77387453","wem/bandit_party_2","ADTJNZHK3FRDY","either","6","747","","","","","","","0","1","0","","0.7410295452","0.2","0.6","0.8","0.4","0.7410295452","0.5363697359","0.2596626779","0.7354386419","","","","","","","","","","","","","","72","H","0","img/none_selected.jpg","","35","main_expt",""
"","bandit","115","601938","0.0-77.0-0.0","77387453","wem/bandit_party_2","ADTJNZHK3FRDY","either","6","596","","","","","","","0","0","1","","0.7332281969","0.2","0.6","0.8","0.4","0.7332281969","0.602250539","0.3164764808","0.6934166837","","","","","","","","","","","","","","72","H","0","img/none_selected.jpg","","36","main_expt",""
"","bandit","116","604001","0.0-78.0-0.0","77387453","wem/bandit_party_2","ADTJNZHK3FRDY","either","6","551","","","","","","","0","1","0","","0.736713329","0.2","0.6","0.8","0.4","0.736713329","0.5337433964","0.3672962009","0.6311869688","","","","","","","","","","","","","","72","H","0","img/none_selected.jpg","","37","main_expt",""
"","bandit","117","606602","0.0-79.0-0.0","77387453","wem/bandit_party_2","ADTJNZHK3FRDY","either","6","1088","","","","","","","1","0","0","0.6860808007","","0.2","0.6","0.8","0.4","","","","","0.6860808007","0.5970413872","0.4056598401","0.6583504975","","","","","","","","","","72","H","0","img/none_selected.jpg","","38","main_expt",""
"","bandit","118","608865","0.0-80.0-0.0","77387453","wem/bandit_party_2","ADTJNZHK3FRDY","either","6","752","","","","","","","0","1","0","","0.7498761973","0.2","0.6","0.8","0.4","0.7498761973","0.6529448079","0.4236995386","0.5861321806","","","","","","","","","","","","","","72","H","0","img/none_selected.jpg","","39","main_expt",""
"","bandit","119","611155","0.0-81.0-0.0","77387453","wem/bandit_party_2","ADTJNZHK3FRDY","either","6","781","","","","","","","0","1","0","","0.7043283504","0.2","0.6","0.8","0.4","0.7043283504","0.6612991154","0.4365163158","0.4892836735","","","","","","","","","","","","","","72","H","0","img/none_selected.jpg","","40","main_expt",""
"","bandit","120","613658","0.0-82.0-0.0","77387453","wem/bandit_party_2","ADTJNZHK3FRDY","either","6","989","","","","","","","0","1","0","","0.6469690382","0.2","0.6","0.8","0.4","0.6469690382","0.7390431107","0.4854269132","0.3479900608","","","","","","","","","","","","","","72","H","0","img/none_selected.jpg","","41","main_expt",""
"","bandit","121","616353","0.0-83.0-0.0","77387453","wem/bandit_party_2","ADTJNZHK3FRDY","either","6","1181","","","","","","","0","1","0","","0.6388905256","0.2","0.6","0.8","0.4","0.6388905256","0.7609423287","0.4753587859","0.376709287","","","","","","","","","","","","","","72","H","0","img/none_selected.jpg","","42","main_expt",""
"","bandit","122","618881","0.0-84.0-0.0","77387453","wem/bandit_party_2","ADTJNZHK3FRDY","either","6","1016","","","","","","","0","1","0","","0.6383372244","0.2","0.6","0.8","0.4","0.6383372244","0.8039673949","0.452202747","0.4319300722","","","","","","","","","","","","","","72","H","0","img/none_selected.jpg","","43","main_expt",""
"","bandit","123","621746","0.0-85.0-0.0","77387453","wem/bandit_party_2","ADTJNZHK3FRDY","either","6","1352","","","","","","","0","0","1","","0.6247854939","0.2","0.6","0.8","0.4","0.6247854939","0.8216753652","0.5522191005","0.4458636389","","","","","","","","","","","","","","72","H","0","img/none_selected.jpg","","44","main_expt",""
"","bandit","124","623874","0.0-86.0-0.0","77387453","wem/bandit_party_2","ADTJNZHK3FRDY","either","6","615","","","","","","","0","0","1","0.6341880498","","0.2","0.6","0.8","0.4","","","","","0.6341880498","0.7636866317","0.4878962787","0.4323480181","","","","","","","","","","72","H","0","img/none_selected.jpg","","45","main_expt",""
"","bandit","125","626433","0.0-87.0-0.0","77387453","wem/bandit_party_2","ADTJNZHK3FRDY","either","6","1046","","","","","","","1","0","0","0.8203755575","","0.2","0.6","0.8","0.4","","","","","0.5081310512","0.8203755575","0.487595293","0.4348202433","","","","","","","","","","74","J","1","","","46","main_expt",""
"","bandit","126","628609","0.0-88.0-0.0","77387453","wem/bandit_party_2","ADTJNZHK3FRDY","either","6","664","","","","","","","0","0","1","","0.8706375764","0.2","0.6","0.8","0.4","0.4202927251","0.8706375764","0.444754188","0.3430847618","","","","","","","","","","","","","","74","J","1","","","47","main_expt",""
"","bandit","127","630875","0.0-89.0-0.0","77387453","wem/bandit_party_2","ADTJNZHK3FRDY","either","6","750","","","","","","","0","0","1","0.8019506245","","0.2","0.6","0.8","0.4","","","","","0.4767868938","0.8019506245","0.5044276746","0.2601977795","","","","","","","","","","74","J","1","","","48","main_expt",""
"","bandit","128","633467","0.0-90.0-0.0","77387453","wem/bandit_party_2","ADTJNZHK3FRDY","either","6","1081","","","","","","","0","1","0","","0.3766714482","0.2","0.6","0.8","0.4","0.3749468019","0.7331224435","0.3766714482","0.2368144698","","","","","","","","","","","","","","75","K","2","","","49","main_expt",""
"","bandit","129","635610","0.0-91.0-0.0","77387453","wem/bandit_party_2","ADTJNZHK3FRDY","either","6","629","","","","","","","0","0","1","0.406992786","","0.2","0.6","0.8","0.4","","","","","0.3532902347","0.7908344101","0.406992786","0.2484527115","","","","","","","","","","75","K","2","","","50","main_expt",""
"","bandit","130","637578","0.0-92.0-0.0","77387453","wem/bandit_party_2","ADTJNZHK3FRDY","either","6","456","","","","","","","0","0","1","0.3854505747","","0.2","0.6","0.8","0.4","","","","","0.2413466802","0.7922828235","0.3854505747","0.230268934","","","","","","","","","","75","K","2","","","51","main_expt",""
"","bandit","131","639890","0.0-93.0-0.0","77387453","wem/bandit_party_2","ADTJNZHK3FRDY","either","6","799","","","","","","","1","0","0","0.3956915145","","0.2","0.6","0.8","0.4","","","","","0.2673723166","0.7485378942","0.3956915145","0.3429002399","","","","","","","","","","75","K","2","","","52","main_expt",""
"","bandit","132","642002","0.0-94.0-0.0","77387453","wem/bandit_party_2","ADTJNZHK3FRDY","either","6","600","","","","","","","0","0","1","0.3062348001","","0.2","0.6","0.8","0.4","","","","","0.2806035608","0.6603794952","0.3062348001","0.2871029552","","","","","","","","","","75","K","2","","","53","main_expt",""
"","bandit","133","644403","0.0-95.0-0.0","77387453","wem/bandit_party_2","ADTJNZHK3FRDY","either","6","888","","","","","","","0","0","1","","0.2594444468","0.2","0.6","0.8","0.4","0.2544312064","0.6931449795","0.2996500993","0.2594444468","","","","","","","","","","","","","","76","L","3","","","54","main_expt",""
"","bandit","134","646474","0.0-96.0-0.0","77387453","wem/bandit_party_2","ADTJNZHK3FRDY","either","6","559","","","","","","","1","0","0","0.3333749245","","0.2","0.6","0.8","0.4","","","","","0.3362815808","0.7553272845","0.2518247787","0.3333749245","","","","","","","","","","76","L","3","","","55","main_expt",""
"","bandit","135","648626","0.0-97.0-0.0","77387453","wem/bandit_party_2","ADTJNZHK3FRDY","either","6","637","","","","","","","1","0","0","0.3049104067","","0.2","0.6","0.8","0.4","","","","","0.3798256012","0.7231548626","0.3014763065","0.3049104067","","","","","","","","","","76","L","3","","","56","main_expt",""
"","bandit","136","650633","0.0-98.0-0.0","77387453","wem/bandit_party_2","ADTJNZHK3FRDY","either","6","495","","","","","","","0","0","1","","0.3623273811","0.2","0.6","0.8","0.4","0.3989549393","0.7485901337","0.2730843718","0.3623273811","","","","","","","","","","","","","","76","L","3","","","57","main_expt",""
"","bandit","137","652843","0.0-99.0-0.0","77387453","wem/bandit_party_2","ADTJNZHK3FRDY","either","6","697","","","","","","","1","0","0","0.3621169042","","0.2","0.6","0.8","0.4","","","","","0.3373398956","0.797082508","0.367239041","0.3621169042","","","","","","","","","","76","L","3","","","58","main_expt",""
"","bandit","138","655148","0.0-100.0-0.0","77387453","wem/bandit_party_2","ADTJNZHK3FRDY","either","6","791","","","","","","","0","0","1","","0.3672848169","0.2","0.6","0.8","0.4","0.3381045731","0.7466963627","0.4005220403","0.3672848169","","","","","","","","","","","","","","76","L","3","","","59","main_expt",""
"","bandit","139","657691","0.0-101.0-0.0","77387453","wem/bandit_party_2","ADTJNZHK3FRDY","either","6","1030","","","","","","","0","1","0","","0.5123874715","0.2","0.6","0.8","0.4","0.4838111383","0.6359615323","0.4863912708","0.5123874715","","","","","","","","","","","","","","76","L","3","","","60","main_expt",""
"","bandit","140","660002","0.0-102.0-0.0","77387453","wem/bandit_party_2","ADTJNZHK3FRDY","either","6","798","","","","","","","0","1","0","","0.5218319631","0.2","0.6","0.8","0.4","0.4290776342","0.7125939799","0.5220595343","0.5218319631","","","","","","","","","","","","","","76","L","3","","","61","main_expt",""
"","bandit","141","662283","0.0-103.0-0.0","77387453","wem/bandit_party_2","ADTJNZHK3FRDY","either","6","768","","","","","","","0","1","0","","0.6482151027","0.2","0.6","0.8","0.4","0.4387439774","0.5978650666","0.5447889898","0.6482151027","","","","","","","","","","","","","","76","L","3","","","62","main_expt",""
"","bandit","142","664658","0.0-104.0-0.0","77387453","wem/bandit_party_2","ADTJNZHK3FRDY","either","6","862","","","","","","","1","0","0","0.6966290852","","0.2","0.6","0.8","0.4","","","","","0.3670418014","0.5166338879","0.5517390004","0.6966290852","","","","","","","","","","76","L","3","","","63","main_expt",""
"","bandit","143","666812","0.0-105.0-0.0","77387453","wem/bandit_party_2","ADTJNZHK3FRDY","either","6","641","","","","","","","0","0","1","","0.6497033777","0.2","0.6","0.8","0.4","0.3470393933","0.4901650138","0.6576188384","0.6497033777","","","","","","","","","","","","","","76","L","3","","","64","main_expt",""
"","bandit","144","668850","0.0-106.0-0.0","77387453","wem/bandit_party_2","ADTJNZHK3FRDY","either","6","523","","","","","","","1","0","0","0.6925184903","","0.2","0.6","0.8","0.4","","","","","0.3361574661","0.459365688","0.5156176703","0.6925184903","","","","","","","","","","76","L","3","","","65","main_expt",""
"","bandit","145","671195","0.0-107.0-0.0","77387453","wem/bandit_party_2","ADTJNZHK3FRDY","either","6","831","","","","","","","0","1","0","","0.8298767513","0.2","0.6","0.8","0.4","0.34308242","0.4666104807","0.3851410914","0.8298767513","","","","","","","","","","","","","","76","L","3","","","66","main_expt",""
"","bandit","146","673778","0.0-108.0-0.0","77387453","wem/bandit_party_2","ADTJNZHK3FRDY","either","6","1068","","","","","","","1","0","0","0.8506596021","","0.2","0.6","0.8","0.4","","","","","0.3730603492","0.5547259005","0.3925250542","0.8506596021","","","","","","","","","","76","L","3","","","67","main_expt",""
"","bandit","147","676082","0.0-109.0-0.0","77387453","wem/bandit_party_2","ADTJNZHK3FRDY","either","6","791","","","","","","","1","0","0","0.8536910832","","0.2","0.6","0.8","0.4","","","","","0.4089949532","0.6038719492","0.3884113518","0.8536910832","","","","","","","","","","76","L","3","","","68","main_expt",""
"","bandit","148","678291","0.0-110.0-0.0","77387453","wem/bandit_party_2","ADTJNZHK3FRDY","either","6","696","","","","","","","0","1","0","","0.8642538991","0.2","0.6","0.8","0.4","0.3749002533","0.6148283845","0.3434478979","0.8642538991","","","","","","","","","","","","","","76","L","3","","","69","main_expt",""
"","bandit","149","681017","0.0-111.0-0.0","77387453","wem/bandit_party_2","ADTJNZHK3FRDY","either","6","1213","","","","","","","0","1","0","","0.8073802352","0.2","0.6","0.8","0.4","0.4133869845","0.6683283761","0.4426642051","0.8073802352","","","","","","","","","","","","","","76","L","3","","","70","main_expt",""
"","bandit","150","683563","0.0-112.0-0.0","77387453","wem/bandit_party_2","ADTJNZHK3FRDY","either","6","1032","","","","","","","0","1","0","","0.8059201048","0.2","0.6","0.8","0.4","0.3302164541","0.738459761","0.4518046004","0.8059201048","","","","","","","","","","","","","","76","L","3","","","71","main_expt",""
"","bandit","151","686107","0.0-113.0-0.0","77387453","wem/bandit_party_2","ADTJNZHK3FRDY","either","6","1030","","","","","","","0","0","1","0.8262275011","","0.2","0.6","0.8","0.4","","","","","0.2570952275","0.6525166508","0.4903223245","0.8262275011","","","","","","","","","","76","L","3","","","72","main_expt",""
"","bandit","152","688483","0.0-114.0-0.0","77387453","wem/bandit_party_2","ADTJNZHK3FRDY","either","6","864","","","","","","","1","0","0","0.5296083002","","0.2","0.6","0.8","0.4","","","","","0.2042885023","0.5715134512","0.5296083002","0.7334390718","","","","","","","","","","75","K","2","","","73","main_expt",""
"","bandit","153","690763","0.0-115.0-0.0","77387453","wem/bandit_party_2","ADTJNZHK3FRDY","either","6","765","","","","","","","1","0","0","0.4883026933","","0.2","0.6","0.8","0.4","","","","","0.2152837516","0.6228045854","0.4883026933","0.7490977197","","","","","","","","","","75","K","2","","","74","main_expt",""
"","bandit","154","692922","0.0-116.0-0.0","77387453","wem/bandit_party_2","ADTJNZHK3FRDY","either","6","647","","","","","","","0","0","1","0.4914171484","","0.2","0.6","0.8","0.4","","","","","0.2044775694","0.613630376","0.4914171484","0.7554087461","","","","","","","","","","75","K","2","","","75","main_expt",""
"","bandit","155","695849","0.0-117.0-0.0","77387453","wem/bandit_party_2","ADTJNZHK3FRDY","either","6","1412","","","","","","","1","0","0","0.7047266053","","0.2","0.6","0.8","0.4","","","","","0.2247613499","0.7047266053","0.6059218973","0.804443878","","","","","","","","","","74","J","1","","","76","main_expt",""
"","bandit","156","698065","0.0-118.0-0.0","77387453","wem/bandit_party_2","ADTJNZHK3FRDY","either","6","704","","","","","","","0","1","0","","0.6910360943","0.2","0.6","0.8","0.4","0.2266335256","0.6910360943","0.553792366","0.6656620098","","","","","","","","","","","","","","74","J","1","","","77","main_expt",""
"","bandit","157","700484","0.0-119.0-0.0","77387453","wem/bandit_party_2","ADTJNZHK3FRDY","either","6","903","","","","","","","0","0","1","0.5515992215","","0.2","0.6","0.8","0.4","","","","","0.1659731505","0.5515992215","0.6884193839","0.5898140708","","","","","","","","","","74","J","1","","","78","main_expt",""
"","bandit","158","703585","0.0-120.0-0.0","77387453","wem/bandit_party_2","ADTJNZHK3FRDY","either","6","1588","","","","","","","0","0","1","0.2343921172","","0.2","0.6","0.8","0.4","","","","","0.2343921172","0.6448399581","0.7214277645","0.613215191","","","","","","","","","","72","H","0","img/none_selected.jpg","","79","main_expt",""
"","bandit","159","706688","0.0-121.0-0.0","77387453","wem/bandit_party_2","ADTJNZHK3FRDY","either","6","1589","","","","","","","0","1","0","","0.739479497","0.2","0.6","0.8","0.4","0.2164054515","0.739479497","0.7328142644","0.4605925783","","","","","","","","","","","","","","74","J","1","","","80","main_expt",""
"","bandit","160","709028","0.0-122.0-0.0","77387453","wem/bandit_party_2","ADTJNZHK3FRDY","either","6","826","","","","","","","1","0","0","0.6956071838","","0.2","0.6","0.8","0.4","","","","","0.1361232007","0.6956071838","0.7101675561","0.5390789087","","","","","","","","","","74","J","1","","","81","main_expt",""
"","bandit","161","711394","0.0-123.0-0.0","77387453","wem/bandit_party_2","ADTJNZHK3FRDY","either","6","854","","","","","","","0","0","1","","0.5886517937","0.2","0.6","0.8","0.4","0.2275447725","0.5886517937","0.6984384541","0.621290364","","","","","","","","","","","","","","74","J","1","","","82","main_expt",""
"","bandit","162","713425","0.0-124.0-0.0","77387453","wem/bandit_party_2","ADTJNZHK3FRDY","either","6","515","","","","","","","0","0","1","0.4764182235","","0.2","0.6","0.8","0.4","","","","","0.1900607051","0.4764182235","0.7447883659","0.6359424421","","","","","","","","","","74","J","1","","","83","main_expt",""
"","bandit","163","716505","0.0-125.0-0.0","77387453","wem/bandit_party_2","ADTJNZHK3FRDY","either","6","1566","","","","","","","1","0","0","0.6900592863","","0.2","0.6","0.8","0.4","","","","","0.1306868958","0.5149027494","0.6900592863","0.6133664729","","","","","","","","","","75","K","2","","","84","main_expt",""
"","bandit","164","718737","0.0-126.0-0.0","77387453","wem/bandit_party_2","ADTJNZHK3FRDY","either","6","718","","","","","","","1","0","0","0.7010597455","","0.2","0.6","0.8","0.4","","","","","0.1683201849","0.4908067213","0.7010597455","0.7815463305","","","","","","","","","","75","K","2","","","85","main_expt",""
"","bandit","165","720889","0.0-127.0-0.0","77387453","wem/bandit_party_2","ADTJNZHK3FRDY","either","6","637","","","","","","","1","0","0","0.6171062652","","0.2","0.6","0.8","0.4","","","","","0.1290314955","0.4139472458","0.6171062652","0.7355789231","","","","","","","","","","75","K","2","","","86","main_expt",""
"","bandit","166","723107","0.0-128.0-0.0","77387453","wem/bandit_party_2","ADTJNZHK3FRDY","either","6","704","","","","","","","1","0","0","0.5629375242","","0.2","0.6","0.8","0.4","","","","","0.2297537383","0.4253818619","0.5629375242","0.7267399876","","","","","","","","","","75","K","2","","","87","main_expt",""
"","bandit","167","725473","0.0-129.0-0.0","77387453","wem/bandit_party_2","ADTJNZHK3FRDY","either","6","853","","","","","","","1","0","0","0.6434443074","","0.2","0.6","0.8","0.4","","","","","0.1878263516","0.4448862761","0.6434443074","0.7703195612","","","","","","","","","","75","K","2","","","88","main_expt",""
"","bandit","168","727841","0.0-130.0-0.0","77387453","wem/bandit_party_2","ADTJNZHK3FRDY","either","6","853","","","","","","","0","0","1","0.7296698787","","0.2","0.6","0.8","0.4","","","","","0.1896964823","0.4295642349","0.7296698787","0.81872988","","","","","","","","","","75","K","2","","","89","main_expt",""
"","bandit","169","730033","0.0-131.0-0.0","77387453","wem/bandit_party_2","ADTJNZHK3FRDY","either","6","679","","","","","","","0","0","1","0.7042864347","","0.2","0.6","0.8","0.4","","","","","0.1614970172","0.3655203192","0.7042864347","0.8032570632","","","","","","","","","","75","K","2","","","90","main_expt",""
"","bandit","170","731960","0.0-132.0-0.0","77387453","wem/bandit_party_2","ADTJNZHK3FRDY","either","6","413","","","","","","","1","0","0","0.8257352781","","0.2","0.6","0.8","0.4","","","","","0.2107705911","0.402428746","0.7606559624","0.8257352781","","","","","","","","","","76","L","3","","","91","main_expt",""
"","bandit","171","734402","0.0-133.0-0.0","77387453","wem/bandit_party_2","ADTJNZHK3FRDY","either","6","928","","","","","","","1","0","0","0.7762210657","","0.2","0.6","0.8","0.4","","","","","0.1317951273","0.452733603","0.8466818248","0.7762210657","","","","","","","","","","76","L","3","","","92","main_expt",""
"","bandit","172","736994","0.0-134.0-0.0","77387453","wem/bandit_party_2","ADTJNZHK3FRDY","either","6","1078","","","","","","","0","0","1","","0.8293629201","0.2","0.6","0.8","0.4","0.09268613222","0.5416456901","0.8181600593","0.8293629201","","","","","","","","","","","","","","76","L","3","","","93","main_expt",""
"","bandit","173","739449","0.0-135.0-0.0","77387453","wem/bandit_party_2","ADTJNZHK3FRDY","either","6","937","","","","","","","0","0","1","","0.06418168538","0.2","0.6","0.8","0.4","0.06418168538","0.5246039132","0.7259749053","0.7849393417","","","","","","","","","","","","","","72","H","0","img/none_selected.jpg","","94","main_expt",""
"","bandit","174","741505","0.0-136.0-0.0","77387453","wem/bandit_party_2","ADTJNZHK3FRDY","either","6","541","","","","","","","0","1","0","","0.606801291","0.2","0.6","0.8","0.4","0.100072779","0.606801291","0.6538641892","0.7850226125","","","","","","","","","","","","","","74","J","1","","","95","main_expt",""
"","bandit","175","744057","0.0-137.0-0.0","77387453","wem/bandit_party_2","ADTJNZHK3FRDY","either","6","1037","","","","","","","1","0","0","0.7175242067","","0.2","0.6","0.8","0.4","","","","","0.09628221604","0.7175242067","0.6384360591","0.8013150942","","","","","","","","","","74","J","1","","","96","main_expt",""
"","bandit","176","746186","0.0-138.0-0.0","77387453","wem/bandit_party_2","ADTJNZHK3FRDY","either","6","613","","","","","","","0","1","0","","0.7706560561","0.2","0.6","0.8","0.4","0.1335622201","0.7706560561","0.6836118029","0.70340399","","","","","","","","","","","","","","74","J","1","","","97","main_expt",""
"","bandit","177","748426","0.0-139.0-0.0","77387453","wem/bandit_party_2","ADTJNZHK3FRDY","either","6","725","","","","","","","0","1","0","","0.7234704616","0.2","0.6","0.8","0.4","0.167202632","0.7234704616","0.659457158","0.7562517051","","","","","","","","","","","","","","74","J","1","","","98","main_expt",""
"","bandit","178","750721","0.0-140.0-0.0","77387453","wem/bandit_party_2","ADTJNZHK3FRDY","either","6","781","","","","","","","0","0","1","","0.6582042781","0.2","0.6","0.8","0.4","0.1216125457","0.6582042781","0.7726162223","0.6514659141","","","","","","","","","","","","","","74","J","1","","","99","main_expt",""
"","bandit","179","752682","0.0-141.0-0.0","77387453","wem/bandit_party_2","ADTJNZHK3FRDY","either","6","444","","","","","","","0","0","1","0.1163239148","","0.2","0.6","0.8","0.4","","","","","0.1163239148","0.6530973887","0.8446518706","0.7112237606","","","","","","","","","","72","H","0","img/none_selected.jpg","","100","main_expt",""
"","bandit","180","754577","0.0-142.0-0.0","77387453","wem/bandit_party_2","ADTJNZHK3FRDY","either","6","380","","","","","","","0","0","1","","0.6865981462","0.2","0.6","0.8","0.4","0.1037928869","0.6690961394","0.8784151442","0.6865981462","","","","","","","","","","","","","","76","L","3","","","101","main_expt",""
"","bandit","181","756643","0.0-143.0-0.0","77387453","wem/bandit_party_2","ADTJNZHK3FRDY","either","6","551","","","","","","","1","0","0","0.8781202538","","0.2","0.6","0.8","0.4","","","","","0.0991068806","0.6268844929","0.8781202538","0.6663704066","","","","","","","","","","75","K","2","","","102","main_expt",""
"","bandit","182","758761","0.0-144.0-0.0","77387453","wem/bandit_party_2","ADTJNZHK3FRDY","either","6","603","","","","","","","1","0","0","0.8123732176","","0.2","0.6","0.8","0.4","","","","","0.1226752409","0.6657789595","0.8123732176","0.6006744832","","","","","","","","","","75","K","2","","","103","main_expt",""
"","bandit","183","761010","0.0-145.0-0.0","77387453","wem/bandit_party_2","ADTJNZHK3FRDY","either","6","733","","","","","","","0","0","1","0.8461937008","","0.2","0.6","0.8","0.4","","","","","0.1552466415","0.6951589836","0.8461937008","0.518723913","","","","","","","","","","75","K","2","","","104","main_expt",""
"","bandit","184","763081","0.0-146.0-0.0","77387453","wem/bandit_party_2","ADTJNZHK3FRDY","either","6","556","","","","","","","0","0","1","","0.6382729445","0.2","0.6","0.8","0.4","0.1702138509","0.6382729445","0.8664825842","0.5343999165","","","","","","","","","","","","","","74","J","1","","","105","main_expt",""
"","bandit","185","765049","0.0-147.0-0.0","77387453","wem/bandit_party_2","ADTJNZHK3FRDY","either","6","451","","","","","","","0","0","1","","0.2021425125","0.2","0.6","0.8","0.4","0.2021425125","0.7139624249","0.8703997655","0.4959998489","","","","","","","","","","","","","","72","H","0","img/none_selected.jpg","","106","main_expt",""
"","bandit","186","767138","0.0-148.0-0.0","77387453","wem/bandit_party_2","ADTJNZHK3FRDY","either","6","576","","","","","","","0","0","1","0.5052663648","","0.2","0.6","0.8","0.4","","","","","0.2196373816","0.7718136471","0.8964314806","0.5052663648","","","","","","","","","","76","L","3","","","107","main_expt",""
"","bandit","187","769561","0.0-149.0-0.0","77387453","wem/bandit_party_2","ADTJNZHK3FRDY","either","6","908","","","","","","","1","0","0","0.9080126319","","0.2","0.6","0.8","0.4","","","","","0.2393661099","0.8818715302","0.9080126319","0.4859582203","","","","","","","","","","75","K","2","","","108","main_expt",""
"","bandit","188","771713","0.0-150.0-0.0","77387453","wem/bandit_party_2","ADTJNZHK3FRDY","either","6","637","","","","","","","0","1","0","","0.8880845243","0.2","0.6","0.8","0.4","0.2516352594","0.8757741924","0.8880845243","0.523617738","","","","","","","","","","","","","","75","K","2","","","109","main_expt",""
"","bandit","189","773690","0.0-151.0-0.0","77387453","wem/bandit_party_2","ADTJNZHK3FRDY","either","6","463","","","","","","","1","0","0","0.899251136","","0.2","0.6","0.8","0.4","","","","","0.2424291788","0.8657151097","0.899251136","0.5492010791","","","","","","","","","","75","K","2","","","110","main_expt",""
"","bandit","190","775809","0.0-152.0-0.0","77387453","wem/bandit_party_2","ADTJNZHK3FRDY","either","6","606","","","","","","","1","0","0","0.9019514556","","0.2","0.6","0.8","0.4","","","","","0.2033086481","0.8457624762","0.9019514556","0.5467154696","","","","","","","","","","75","K","2","","","111","main_expt",""
"","bandit","191","778211","0.0-153.0-0.0","77387453","wem/bandit_party_2","ADTJNZHK3FRDY","either","6","886","","","","","","","0","0","1","0.9315537639","","0.2","0.6","0.8","0.4","","","","","0.208613213","0.8756116827","0.9315537639","0.5396215981","","","","","","","","","","75","K","2","","","112","main_expt",""
"","bandit","192","780881","0.0-154.0-0.0","77387453","wem/bandit_party_2","ADTJNZHK3FRDY","either","6","1157","","","","","","","0","1","0","","0.8773181328","0.2","0.6","0.8","0.4","0.2743958833","0.8773181328","0.9254394702","0.5542875214","","","","","","","","","","","","","","74","J","1","","","113","main_expt",""
"","bandit","193","782930","0.0-155.0-0.0","77387453","wem/bandit_party_2","ADTJNZHK3FRDY","either","6","533","","","","","","","1","0","0","0.8842236373","","0.2","0.6","0.8","0.4","","","","","0.2657329006","0.8842236373","0.9394904604","0.6411428718","","","","","","","","","","74","J","1","","","114","main_expt",""
"","bandit","194","785104","0.0-156.0-0.0","77387453","wem/bandit_party_2","ADTJNZHK3FRDY","either","6","661","","","","","","","1","0","0","0.8499121835","","0.2","0.6","0.8","0.4","","","","","0.3234316928","0.8499121835","0.9533355239","0.7261400339","","","","","","","","","","74","J","1","","","115","main_expt",""
"","bandit","195","787272","0.0-157.0-0.0","77387453","wem/bandit_party_2","ADTJNZHK3FRDY","either","6","653","","","","","","","0","1","0","","0.7890056153","0.2","0.6","0.8","0.4","0.3625587123","0.7890056153","0.960842596","0.7395407697","","","","","","","","","","","","","","74","J","1","","","116","main_expt",""
"","bandit","196","789306","0.0-158.0-0.0","77387453","wem/bandit_party_2","ADTJNZHK3FRDY","either","6","520","","","","","","","1","0","0","0.7709890197","","0.2","0.6","0.8","0.4","","","","","0.4946904956","0.7709890197","0.937733065","0.8231731708","","","","","","","","","","74","J","1","","","117","main_expt",""
"","bandit","197","791433","0.0-159.0-0.0","77387453","wem/bandit_party_2","ADTJNZHK3FRDY","either","6","611","","","","","","","1","0","0","0.7459937787","","0.2","0.6","0.8","0.4","","","","","0.6246330079","0.7459937787","0.9561499645","0.8278750807","","","","","","","","","","74","J","1","","","118","main_expt",""
"","bandit","198","793617","0.0-160.0-0.0","77387453","wem/bandit_party_2","ADTJNZHK3FRDY","either","6","671","","","","","","","1","0","0","0.716881491","","0.2","0.6","0.8","0.4","","","","","0.5818097722","0.716881491","0.9595118281","0.8715827524","","","","","","","","","","74","J","1","","","119","main_expt",""
"","bandit","199","795802","0.0-161.0-0.0","77387453","wem/bandit_party_2","ADTJNZHK3FRDY","either","6","667","","","","","","","0","1","0","","0.6595649419","0.2","0.6","0.8","0.4","0.5990025551","0.6595649419","0.9548463758","0.8522670476","","","","","","","","","","","","","","74","J","1","","","120","main_expt",""
"","bandit","200","797962","0.0-162.0-0.0","77387453","wem/bandit_party_2","ADTJNZHK3FRDY","either","6","645","","","","","","","1","0","0","0.6576447048","","0.2","0.6","0.8","0.4","","","","","0.6534424477","0.6576447048","0.958085665","0.8266542562","","","","","","","","","","74","J","1","","","121","main_expt",""
"","bandit","201","800066","0.0-163.0-0.0","77387453","wem/bandit_party_2","ADTJNZHK3FRDY","either","6","589","","","","","","","1","0","0","0.6391957719","","0.2","0.6","0.8","0.4","","","","","0.5952731017","0.6391957719","0.9630601427","0.81688531","","","","","","","","","","74","J","1","","","122","main_expt",""
"","bandit","202","802249","0.0-164.0-0.0","77387453","wem/bandit_party_2","ADTJNZHK3FRDY","either","6","668","","","","","","","0","1","0","","0.5873908865","0.2","0.6","0.8","0.4","0.6469086187","0.5873908865","0.9790283764","0.8307363081","","","","","","","","","","","","","","74","J","1","","","123","main_expt",""
"","bandit","203","804466","0.0-165.0-0.0","77387453","wem/bandit_party_2","ADTJNZHK3FRDY","either","6","700","","","","","","","0","1","0","","0.6592760984","0.2","0.6","0.8","0.4","0.6911454426","0.6592760984","0.9718765302","0.6943824695","","","","","","","","","","","","","","74","J","1","","","124","main_expt",""
"","bandit","204","806657","0.0-166.0-0.0","77387453","wem/bandit_party_2","ADTJNZHK3FRDY","either","6","677","","","","","","","1","0","0","0.6012083746","","0.2","0.6","0.8","0.4","","","","","0.750572215","0.6012083746","0.9845173964","0.7137568944","","","","","","","","","","74","J","1","","","125","main_expt",""
"","bandit","205","808738","0.0-167.0-0.0","77387453","wem/bandit_party_2","ADTJNZHK3FRDY","either","6","564","","","","","","","1","0","0","0.6043440275","","0.2","0.6","0.8","0.4","","","","","0.8108432581","0.6043440275","0.9804670004","0.6878742658","","","","","","","","","","74","J","1","","","126","main_expt",""
"","bandit","206","810907","0.0-168.0-0.0","77387453","wem/bandit_party_2","ADTJNZHK3FRDY","either","6","654","","","","","","","1","0","0","0.5043142332","","0.2","0.6","0.8","0.4","","","","","0.8338196277","0.5043142332","0.9792667249","0.6175454059","","","","","","","","","","74","J","1","","","127","main_expt",""
"","bandit","207","812969","0.0-169.0-0.0","77387453","wem/bandit_party_2","ADTJNZHK3FRDY","either","6","547","","","","","","","0","0","1","","0.5778209799","0.2","0.6","0.8","0.4","0.8624128669","0.5778209799","0.9853815399","0.5556505876","","","","","","","","","","","","","","74","J","1","","","128","main_expt",""
"","bandit","208","814960","0.0-170.0-0.0","77387453","wem/bandit_party_2","ADTJNZHK3FRDY","either","6","476","","","","","","","0","1","0","","0.9026068167","0.2","0.6","0.8","0.4","0.9026068167","0.5806273004","0.9838319732","0.5948532478","","","","","","","","","","","","","","72","H","0","img/none_selected.jpg","","129","main_expt",""
"","bandit","209","816993","0.0-171.0-0.0","77387453","wem/bandit_party_2","ADTJNZHK3FRDY","either","6","516","","","","","","","0","1","0","","0.8983636673","0.2","0.6","0.8","0.4","0.8983636673","0.4152233618","0.9798768453","0.6646968067","","","","","","","","","","","","","","72","H","0","img/none_selected.jpg","","130","main_expt",""
"","bandit","210","822965","0.0-172.0-0.0","77387453","wem/bandit_party_2","ADTJNZHK3FRDY","either","6","4455","","","","","","","0","1","0","","0.6676177377","0.2","0.6","0.8","0.4","0.888478962","0.4527057242","0.9628017066","0.6676177377","","","","","","","","","","","","","","76","L","3","","","131","main_expt",""
"","bandit","211","825058","0.0-173.0-0.0","77387453","wem/bandit_party_2","ADTJNZHK3FRDY","either","6","576","","","","","","","1","0","0","0.7638630926","","0.2","0.6","0.8","0.4","","","","","0.8470567254","0.5185753891","0.9723970119","0.7638630926","","","","","","","","","","76","L","3","","","132","main_expt",""
"","bandit","212","826978","0.0-174.0-0.0","77387453","wem/bandit_party_2","ADTJNZHK3FRDY","either","6","404","","","","","","","0","0","1","0.726350598","","0.2","0.6","0.8","0.4","","","","","0.8852081265","0.4567386081","0.9754432393","0.726350598","","","","","","","","","","76","L","3","","","133","main_expt",""
"","bandit","213","828985","0.0-175.0-0.0","77387453","wem/bandit_party_2","ADTJNZHK3FRDY","either","6","490","","","","","","","1","0","0","0.9635376407","","0.2","0.6","0.8","0.4","","","","","0.8317422298","0.4494056808","0.9635376407","0.7638059904","","","","","","","","","","75","K","2","","","134","main_expt",""
"","bandit","214","830898","0.0-176.0-0.0","77387453","wem/bandit_party_2","ADTJNZHK3FRDY","either","6","397","","","","","","","1","0","0","0.9304273523","","0.2","0.6","0.8","0.4","","","","","0.8121858422","0.4608562393","0.9304273523","0.7337835984","","","","","","","","","","75","K","2","","","135","main_expt",""
"","bandit","215","832857","0.0-177.0-0.0","77387453","wem/bandit_party_2","ADTJNZHK3FRDY","either","6","442","","","","","","","1","0","0","0.9295592062","","0.2","0.6","0.8","0.4","","","","","0.8473276522","0.6684020244","0.9295592062","0.7869055623","","","","","","","","","","75","K","2","","","136","main_expt",""
"","bandit","216","834819","0.0-178.0-0.0","77387453","wem/bandit_party_2","ADTJNZHK3FRDY","either","6","447","","","","","","","1","0","0","0.9343332129","","0.2","0.6","0.8","0.4","","","","","0.8251243182","0.614137061","0.9343332129","0.8033651193","","","","","","","","","","75","K","2","","","137","main_expt",""
"","bandit","217","836761","0.0-179.0-0.0","77387453","wem/bandit_party_2","ADTJNZHK3FRDY","either","6","425","","","","","","","1","0","0","0.9325781127","","0.2","0.6","0.8","0.4","","","","","0.7892590299","0.711021659","0.9325781127","0.7620089345","","","","","","","","","","75","K","2","","","138","main_expt",""
"","bandit","218","838594","0.0-180.0-0.0","77387453","wem/bandit_party_2","ADTJNZHK3FRDY","either","6","317","","","","","","","1","0","0","0.9687763229","","0.2","0.6","0.8","0.4","","","","","0.753698647","0.5731932267","0.9687763229","0.8098853196","","","","","","","","","","75","K","2","","","139","main_expt",""
"","bandit","219","840680","0.0-181.0-0.0","77387453","wem/bandit_party_2","ADTJNZHK3FRDY","either","6","571","","","","","","","1","0","0","0.9520204639","","0.2","0.6","0.8","0.4","","","","","0.7281837229","0.6553783698","0.9520204639","0.8737133651","","","","","","","","","","75","K","2","","","140","main_expt",""
"","bandit","220","842689","0.0-182.0-0.0","77387453","wem/bandit_party_2","ADTJNZHK3FRDY","either","6","493","","","","","","","1","0","0","0.9615613541","","0.2","0.6","0.8","0.4","","","","","0.7913145473","0.5665224918","0.9615613541","0.8464817719","","","","","","","","","","75","K","2","","","141","main_expt",""
"","bandit","221","844835","0.0-183.0-0.0","77387453","wem/bandit_party_2","ADTJNZHK3FRDY","either","6","629","","","","","","","1","0","0","0.9438722422","","0.2","0.6","0.8","0.4","","","","","0.7498898283","0.5230460729","0.9438722422","0.8457688645","","","","","","","","","","75","K","2","","","142","main_expt",""
"","bandit","222","846937","0.0-184.0-0.0","77387453","wem/bandit_party_2","ADTJNZHK3FRDY","either","6","587","","","","","","","1","0","0","0.9419241064","","0.2","0.6","0.8","0.4","","","","","0.723110339","0.5401897842","0.9419241064","0.8801682128","","","","","","","","","","75","K","2","","","143","main_expt",""
"","bandit","223","849018","0.0-185.0-0.0","77387453","wem/bandit_party_2","ADTJNZHK3FRDY","either","6","564","","","","","","","1","0","0","0.9383966058","","0.2","0.6","0.8","0.4","","","","","0.7697142539","0.5495292383","0.9383966058","0.7806105972","","","","","","","","","","75","K","2","","","144","main_expt",""
"","bandit","224","851178","0.0-186.0-0.0","77387453","wem/bandit_party_2","ADTJNZHK3FRDY","either","6","644","","","","","","","0","1","0","","0.9442204223","0.2","0.6","0.8","0.4","0.8279494337","0.4718854897","0.9442204223","0.7384744451","","","","","","","","","","","","","","75","K","2","","","145","main_expt",""
"","bandit","225","853273","0.0-187.0-0.0","77387453","wem/bandit_party_2","ADTJNZHK3FRDY","either","6","577","","","","","","","0","1","0","","0.747104877","0.2","0.6","0.8","0.4","0.747104877","0.3790577705","0.9461270134","0.7078417075","","","","","","","","","","","","","","72","H","0","img/none_selected.jpg","","146","main_expt",""
"","bandit","226","855291","0.0-188.0-0.0","77387453","wem/bandit_party_2","ADTJNZHK3FRDY","either","6","502","","","","","","","0","0","1","0.3671333747","","0.2","0.6","0.8","0.4","","","","","0.7635883185","0.3671333747","0.9677113618","0.7671729372","","","","","","","","","","74","J","1","","","147","main_expt",""
"","bandit","227","857273","0.0-189.0-0.0","77387453","wem/bandit_party_2","ADTJNZHK3FRDY","either","6","464","","","","","","","1","0","0","0.9603287673","","0.2","0.6","0.8","0.4","","","","","0.6650729927","0.4462771912","0.9603287673","0.7515071201","","","","","","","","","","75","K","2","","","148","main_expt",""
"","bandit","228","859376","0.0-190.0-0.0","77387453","wem/bandit_party_2","ADTJNZHK3FRDY","either","6","588","","","","","","","1","0","0","0.9256305183","","0.2","0.6","0.8","0.4","","","","","0.594527628","0.3929125452","0.9256305183","0.7582160768","","","","","","","","","","75","K","2","","","149","main_expt",""
"","bandit","229","861409","0.0-191.0-0.0","77387453","wem/bandit_party_2","ADTJNZHK3FRDY","either","6","516","","","","","","","1","0","0","0.9222609783","","0.2","0.6","0.8","0.4","","","","","0.5101412162","0.3825194633","0.9222609783","0.6843302658","","","","","","","","","","75","K","2","","","150","main_expt",""
"","bandit","230","863457","0.0-192.0-0.0","77387453","wem/bandit_party_2","ADTJNZHK3FRDY","either","6","532","","","","","","","1","0","0","0.9522131909","","0.2","0.6","0.8","0.4","","","","","0.5755011036","0.3889652011","0.9522131909","0.4980827124","","","","","","","","","","75","K","2","","","151","main_expt",""
"","bandit","231","865420","0.0-193.0-0.0","77387453","wem/bandit_party_2","ADTJNZHK3FRDY","either","6","446","","","","","","","1","0","0","0.9351777179","","0.2","0.6","0.8","0.4","","","","","0.5415628766","0.372169082","0.9351777179","0.5418861514","","","","","","","","","","75","K","2","","","152","main_expt",""
"","bandit","232","867441","0.0-194.0-0.0","77387453","wem/bandit_party_2","ADTJNZHK3FRDY","either","6","505","","","","","","","1","0","0","0.9526549669","","0.2","0.6","0.8","0.4","","","","","0.6392888902","0.4275919172","0.9526549669","0.6424708626","","","","","","","","","","75","K","2","","","153","main_expt",""
"","bandit","233","869465","0.0-195.0-0.0","77387453","wem/bandit_party_2","ADTJNZHK3FRDY","either","6","508","","","","","","","1","0","0","0.944677936","","0.2","0.6","0.8","0.4","","","","","0.6798835142","0.3978897223","0.944677936","0.6200403258","","","","","","","","","","75","K","2","","","154","main_expt",""
"","bandit","234","871417","0.0-196.0-0.0","77387453","wem/bandit_party_2","ADTJNZHK3FRDY","either","6","436","","","","","","","1","0","0","0.9443948233","","0.2","0.6","0.8","0.4","","","","","0.7376683638","0.4922143253","0.9443948233","0.5087788092","","","","","","","","","","75","K","2","","","155","main_expt",""
"","bandit","235","873474","0.0-197.0-0.0","77387453","wem/bandit_party_2","ADTJNZHK3FRDY","either","6","539","","","","","","","0","0","1","0.9312029685","","0.2","0.6","0.8","0.4","","","","","0.7740838489","0.5060601407","0.9312029685","0.4397360723","","","","","","","","","","75","K","2","","","156","main_expt",""
"","bandit","236","876901","0.0-198.0-0.0","77387453","wem/bandit_party_2","ADTJNZHK3FRDY","either","6","1910","","","","","","","1","0","0","0.9009413449","","0.2","0.6","0.8","0.4","","","","","0.7526352547","0.56460533","0.9009413449","0.4529934193","","","","","","","","","","75","K","2","","","157","main_expt",""
"","bandit","237","879092","0.0-199.0-0.0","77387453","wem/bandit_party_2","ADTJNZHK3FRDY","either","6","672","","","","","","","1","0","0","0.8799225656","","0.2","0.6","0.8","0.4","","","","","0.807066173","0.5551408743","0.8799225656","0.522014142","","","","","","","","","","75","K","2","","","158","main_expt",""
"","bandit","238","881226","0.0-200.0-0.0","77387453","wem/bandit_party_2","ADTJNZHK3FRDY","either","6","619","","","","","","","1","0","0","0.9103166083","","0.2","0.6","0.8","0.4","","","","","0.8348587906","0.6362487126","0.9103166083","0.447178695","","","","","","","","","","75","K","2","","","159","main_expt",""
"","bandit","239","883315","0.0-201.0-0.0","77387453","wem/bandit_party_2","ADTJNZHK3FRDY","either","6","570","","","","","","","1","0","0","0.9575168601","","0.2","0.6","0.8","0.4","","","","","0.8054329593","0.5818198138","0.9575168601","0.4293784973","","","","","","","","","","75","K","2","","","160","main_expt",""
"","bandit","240","885475","0.0-202.0-0.0","77387453","wem/bandit_party_2","ADTJNZHK3FRDY","either","6","644","","","","","","","1","0","0","0.9323430526","","0.2","0.6","0.8","0.4","","","","","0.8263011938","0.5079421761","0.9323430526","0.4263694152","","","","","","","","","","75","K","2","","","161","main_expt",""
"","bandit","241","887637","0.0-203.0-0.0","77387453","wem/bandit_party_2","ADTJNZHK3FRDY","either","6","643","","","","","","","1","0","0","0.8731035433","","0.2","0.6","0.8","0.4","","","","","0.8468561623","0.3944353318","0.8731035433","0.4394756583","","","","","","","","","","75","K","2","","","162","main_expt",""
"","bandit","242","889739","0.0-204.0-0.0","77387453","wem/bandit_party_2","ADTJNZHK3FRDY","either","6","585","","","","","","","0","1","0","","0.860239847","0.2","0.6","0.8","0.4","0.866861138","0.4560534757","0.860239847","0.4632532181","","","","","","","","","","","","","","75","K","2","","","163","main_expt",""
"","bandit","243","891906","0.0-205.0-0.0","77387453","wem/bandit_party_2","ADTJNZHK3FRDY","either","6","649","","","","","","","1","0","0","0.8327160304","","0.2","0.6","0.8","0.4","","","","","0.8621839131","0.4338988853","0.8327160304","0.469091439","","","","","","","","","","75","K","2","","","164","main_expt",""
"","bandit","244","893980","0.0-206.0-0.0","77387453","wem/bandit_party_2","ADTJNZHK3FRDY","either","6","556","","","","","","","1","0","0","0.8780399083","","0.2","0.6","0.8","0.4","","","","","0.8368369455","0.3640020004","0.8780399083","0.4691854483","","","","","","","","","","75","K","2","","","165","main_expt",""
"","bandit","245","896058","0.0-207.0-0.0","77387453","wem/bandit_party_2","ADTJNZHK3FRDY","either","6","555","","","","","","","1","0","0","0.8659509199","","0.2","0.6","0.8","0.4","","","","","0.8543831227","0.4433911144","0.8659509199","0.424594696","","","","","","","","","","75","K","2","","","166","main_expt",""
"","bandit","246","898300","0.0-208.0-0.0","77387453","wem/bandit_party_2","ADTJNZHK3FRDY","either","6","725","","","","","","","1","0","0","0.8458676595","","0.2","0.6","0.8","0.4","","","","","0.8444257961","0.4852122499","0.8458676595","0.4691217736","","","","","","","","","","75","K","2","","","167","main_expt",""
"","bandit","247","900226","0.0-209.0-0.0","77387453","wem/bandit_party_2","ADTJNZHK3FRDY","either","6","410","","","","","","","1","0","0","0.7368025647","","0.2","0.6","0.8","0.4","","","","","0.8895061166","0.4829488348","0.7368025647","0.4605946041","","","","","","","","","","75","K","2","","","168","main_expt",""
"","bandit","248","902339","0.0-210.0-0.0","77387453","wem/bandit_party_2","ADTJNZHK3FRDY","either","6","596","","","","","","","1","0","0","0.6811301937","","0.2","0.6","0.8","0.4","","","","","0.8980662015","0.467087579","0.6811301937","0.4302520818","","","","","","","","","","75","K","2","","","169","main_expt",""
"","bandit","249","904435","0.0-211.0-0.0","77387453","wem/bandit_party_2","ADTJNZHK3FRDY","either","6","579","","","","","","","0","0","1","0.6781719117","","0.2","0.6","0.8","0.4","","","","","0.9399190154","0.3575164989","0.6781719117","0.3846086554","","","","","","","","","","75","K","2","","","170","main_expt",""
"","bandit","250","906491","0.0-212.0-0.0","77387453","wem/bandit_party_2","ADTJNZHK3FRDY","either","6","539","","","","","","","0","0","1","","0.5779776893","0.2","0.6","0.8","0.4","0.9199626721","0.3433755155","0.5779776893","0.4938912128","","","","","","","","","","","","","","75","K","2","","","171","main_expt",""
"","bandit","251","908436","0.0-213.0-0.0","77387453","wem/bandit_party_2","ADTJNZHK3FRDY","either","6","429","","","","","","","1","0","0","0.5461867433","","0.2","0.6","0.8","0.4","","","","","0.8885959212","0.2921203137","0.5461867433","0.5409242696","","","","","","","","","","75","K","2","","","172","main_expt",""
"","bandit","252","910700","0.0-214.0-0.0","77387453","wem/bandit_party_2","ADTJNZHK3FRDY","either","6","749","","","","","","","0","1","0","","0.5898781272","0.2","0.6","0.8","0.4","0.8502068985","0.3237382503","0.5898781272","0.4899310385","","","","","","","","","","","","","","75","K","2","","","173","main_expt",""
"","bandit","253","912819","0.0-215.0-0.0","77387453","wem/bandit_party_2","ADTJNZHK3FRDY","either","6","600","","","","","","","0","1","0","","0.5990225055","0.2","0.6","0.8","0.4","0.9054067092","0.2935635685","0.5990225055","0.4464532747","","","","","","","","","","","","","","75","K","2","","","174","main_expt",""
"","bandit","254","914874","0.0-216.0-0.0","77387453","wem/bandit_party_2","ADTJNZHK3FRDY","either","6","537","","","","","","","1","0","0","0.6129624105","","0.2","0.6","0.8","0.4","","","","","0.9096893241","0.2797951809","0.6129624105","0.4363040476","","","","","","","","","","75","K","2","","","175","main_expt",""
"","bandit","255","916891","0.0-217.0-0.0","77387453","wem/bandit_party_2","ADTJNZHK3FRDY","either","6","497","","","","","","","0","0","1","0.5434192492","","0.2","0.6","0.8","0.4","","","","","0.9081003197","0.2067270565","0.5434192492","0.4198776974","","","","","","","","","","75","K","2","","","176","main_expt",""
"","bandit","256","918856","0.0-218.0-0.0","77387453","wem/bandit_party_2","ADTJNZHK3FRDY","either","6","444","","","","","","","0","0","1","0.5893108522","","0.2","0.6","0.8","0.4","","","","","0.8417535431","0.19266164","0.5893108522","0.4001478854","","","","","","","","","","75","K","2","","","177","main_expt",""
"","bandit","257","920835","0.0-219.0-0.0","77387453","wem/bandit_party_2","ADTJNZHK3FRDY","either","6","461","","","","","","","0","0","1","0.4862463398","","0.2","0.6","0.8","0.4","","","","","0.8045518304","0.1393448617","0.4862463398","0.3015477047","","","","","","","","","","75","K","2","","","178","main_expt",""
"","bandit","258","922834","0.0-220.0-0.0","77387453","wem/bandit_party_2","ADTJNZHK3FRDY","either","6","480","","","","","","","1","0","0","0.4227787996","","0.2","0.6","0.8","0.4","","","","","0.8250115846","0.1149816072","0.4227787996","0.2700131006","","","","","","","","","","75","K","2","","","179","main_expt",""
"","bandit","259","925026","0.0-221.0-0.0","77387453","wem/bandit_party_2","ADTJNZHK3FRDY","either","6","673","","","","","","","1","0","0","0.3583368423","","0.2","0.6","0.8","0.4","","","","","0.7418096358","0.1231561222","0.3583368423","0.3473069","","","","","","","","","","75","K","2","","","180","main_expt",""
"","bandit","260","927177","0.0-222.0-0.0","77387453","wem/bandit_party_2","ADTJNZHK3FRDY","either","6","634","","","","","","","0","0","1","0.3820052134","","0.2","0.6","0.8","0.4","","","","","0.7180260456","0.1134989143","0.3820052134","0.3478804011","","","","","","","","","","75","K","2","","","181","main_expt",""
"","bandit","261","929319","0.0-223.0-0.0","77387453","wem/bandit_party_2","ADTJNZHK3FRDY","either","6","622","","","","","","","1","0","0","0.437769555","","0.2","0.6","0.8","0.4","","","","","0.6777378447","0.07317944644","0.437769555","0.3304981007","","","","","","","","","","75","K","2","","","182","main_expt",""
"","bandit","262","931466","0.0-224.0-0.0","77387453","wem/bandit_party_2","ADTJNZHK3FRDY","either","6","629","","","","","","","0","0","1","","0.3951330089","0.2","0.6","0.8","0.4","0.6331465848","0.05085611098","0.3951330089","0.2578466268","","","","","","","","","","","","","","75","K","2","","","183","main_expt",""
"","bandit","263","933602","0.0-225.0-0.0","77387453","wem/bandit_party_2","ADTJNZHK3FRDY","either","6","618","","","","","","","0","1","0","","0.4062376343","0.2","0.6","0.8","0.4","0.6578519513","0.07152820202","0.4062376343","0.3550464129","","","","","","","","","","","","","","75","K","2","","","184","main_expt",""
"","bandit","264","935747","0.0-226.0-0.0","77387453","wem/bandit_party_2","ADTJNZHK3FRDY","either","6","625","","","","","","","0","0","1","","0.4035727276","0.2","0.6","0.8","0.4","0.7160298793","0.08814522307","0.4035727276","0.2993299556","","","","","","","","","","","","","","75","K","2","","","185","main_expt",""
"","bandit","265","937771","0.0-227.0-0.0","77387453","wem/bandit_party_2","ADTJNZHK3FRDY","either","6","505","","","","","","","0","0","1","0.4595565904","","0.2","0.6","0.8","0.4","","","","","0.7081703269","0.0931487442","0.4595565904","0.3985972224","","","","","","","","","","75","K","2","","","186","main_expt",""
"","bandit","266","939779","0.0-228.0-0.0","77387453","wem/bandit_party_2","ADTJNZHK3FRDY","either","6","490","","","","","","","1","0","0","0.4956959756","","0.2","0.6","0.8","0.4","","","","","0.7670757258","0.05847154344","0.4956959756","0.4563810555","","","","","","","","","","75","K","2","","","187","main_expt",""
"","bandit","267","941843","0.0-229.0-0.0","77387453","wem/bandit_party_2","ADTJNZHK3FRDY","either","6","545","","","","","","","0","0","1","0.4295585103","","0.2","0.6","0.8","0.4","","","","","0.7986884496","0.05005107021","0.4295585103","0.4621092719","","","","","","","","","","75","K","2","","","188","main_expt",""
"","bandit","268","944139","0.0-230.0-0.0","77387453","wem/bandit_party_2","ADTJNZHK3FRDY","either","6","777","","","","","","","1","0","0","0.4121259827","","0.2","0.6","0.8","0.4","","","","","0.8113194514","0.05158958255","0.4121259827","0.4214675273","","","","","","","","","","75","K","2","","","189","main_expt",""
"","bandit","269","946243","0.0-231.0-0.0","77387453","wem/bandit_party_2","ADTJNZHK3FRDY","either","6","585","","","","","","","0","0","1","0.40505342","","0.2","0.6","0.8","0.4","","","","","0.8311477635","0.0530996007","0.40505342","0.4445162903","","","","","","","","","","75","K","2","","","190","main_expt",""
"","bandit","270","948211","0.0-232.0-0.0","77387453","wem/bandit_party_2","ADTJNZHK3FRDY","either","6","448","","","","","","","1","0","0","0.3671493273","","0.2","0.6","0.8","0.4","","","","","0.7941336253","0.05342003941","0.3671493273","0.4077799102","","","","","","","","","","75","K","2","","","191","main_expt",""
"","bandit","271","950261","0.0-233.0-0.0","77387453","wem/bandit_party_2","ADTJNZHK3FRDY","either","6","531","","","","","","","1","0","0","0.3367263454","","0.2","0.6","0.8","0.4","","","","","0.841847859","0.05264216412","0.3367263454","0.413117206","","","","","","","","","","75","K","2","","","192","main_expt",""
"","bandit","272","952458","0.0-234.0-0.0","77387453","wem/bandit_party_2","ADTJNZHK3FRDY","either","6","679","","","","","","","0","0","1","0.2587514209","","0.2","0.6","0.8","0.4","","","","","0.865127625","0.07418965368","0.2587514209","0.374663265","","","","","","","","","","75","K","2","","","193","main_expt",""
"","bandit","273","954410","0.0-235.0-0.0","77387453","wem/bandit_party_2","ADTJNZHK3FRDY","either","6","432","","","","","","","0","0","1","0.2123696513","","0.2","0.6","0.8","0.4","","","","","0.8369883383","0.1148515542","0.2123696513","0.2792309937","","","","","","","","","","75","K","2","","","194","main_expt",""
"","bandit","274","956410","0.0-236.0-0.0","77387453","wem/bandit_party_2","ADTJNZHK3FRDY","either","6","481","","","","","","","0","0","1","0.2551117677","","0.2","0.6","0.8","0.4","","","","","0.8226177272","0.1102075851","0.2551117677","0.3090424304","","","","","","","","","","75","K","2","","","195","main_expt",""
"","bandit","275","958338","0.0-237.0-0.0","77387453","wem/bandit_party_2","ADTJNZHK3FRDY","either","6","410","","","","","","","0","0","1","0.2948177706","","0.2","0.6","0.8","0.4","","","","","0.8759919892","0.09307195637","0.2948177706","0.2254203465","","","","","","","","","","75","K","2","","","196","main_expt",""
"","bandit","276","960202","0.0-238.0-0.0","77387453","wem/bandit_party_2","ADTJNZHK3FRDY","either","6","344","","","","","","","0","0","1","0.2864074111","","0.2","0.6","0.8","0.4","","","","","0.9413038234","0.08341332984","0.2864074111","0.2104085952","","","","","","","","","","75","K","2","","","197","main_expt",""
"","bandit","277","962180","0.0-239.0-0.0","77387453","wem/bandit_party_2","ADTJNZHK3FRDY","either","6","458","","","","","","","0","0","1","","0.1686499416","0.2","0.6","0.8","0.4","0.9384937307","0.06206278739","0.3044962429","0.1686499416","","","","","","","","","","","","","","76","L","3","","","198","main_expt",""
"","bandit","278","964250","0.0-240.0-0.0","77387453","wem/bandit_party_2","ADTJNZHK3FRDY","either","6","549","","","","","","","0","0","1","","0.927250614","0.2","0.6","0.8","0.4","0.927250614","0.1015706687","0.2804127106","0.1696058054","","","","","","","","","","","","","","72","H","0","img/none_selected.jpg","","199","main_expt",""
"","bandit","279","966242","0.0-241.0-0.0","77387453","wem/bandit_party_2","ADTJNZHK3FRDY","either","6","473","","","","","","","0","0","1","0.07348353789","","0.2","0.6","0.8","0.4","","","","","0.8840406778","0.07348353789","0.3151112274","0.1940139532","","","","","","","","","","74","J","1","","","200","main_expt",""
"","bandit","280","968492","0.0-242.0-0.0","77387453","wem/bandit_party_2","ADTJNZHK3FRDY","either","6","728","","","","","","","0","0","1","0.3124471347","","0.2","0.6","0.8","0.4","","","","","0.8866639954","0.09218994405","0.3124471347","0.2384341862","","","","","","","","","","75","K","2","","","201","main_expt",""
"","bandit","281","970395","0.0-243.0-0.0","77387453","wem/bandit_party_2","ADTJNZHK3FRDY","either","6","382","","","","","","","1","0","0","0.3418115628","","0.2","0.6","0.8","0.4","","","","","0.8188103646","0.1662378481","0.3418115628","0.2069173963","","","","","","","","","","75","K","2","","","202","main_expt",""
"","bandit","282","972468","0.0-244.0-0.0","77387453","wem/bandit_party_2","ADTJNZHK3FRDY","either","6","552","","","","","","","1","0","0","0.2676578736","","0.2","0.6","0.8","0.4","","","","","0.8026106274","0.1808123801","0.2676578736","0.2502389624","","","","","","","","","","75","K","2","","","203","main_expt",""
"","bandit","283","974546","0.0-245.0-0.0","77387453","wem/bandit_party_2","ADTJNZHK3FRDY","either","6","558","","","","","","","0","0","1","","0.2513587973","0.2","0.6","0.8","0.4","0.6613987003","0.2011980288","0.2513587973","0.2226806","","","","","","","","","","","","","","75","K","2","","","204","main_expt",""
"","bandit","284","976482","0.0-246.0-0.0","77387453","wem/bandit_party_2","ADTJNZHK3FRDY","either","6","418","","","","","","","0","0","1","0.2733703365","","0.2","0.6","0.8","0.4","","","","","0.7402115251","0.1877492959","0.2733703365","0.2327973494","","","","","","","","","","75","K","2","","","205","main_expt",""
"","bandit","285","978443","0.0-247.0-0.0","77387453","wem/bandit_party_2","ADTJNZHK3FRDY","either","6","440","","","","","","","0","0","1","0.3212331514","","0.2","0.6","0.8","0.4","","","","","0.6792505986","0.1891298069","0.3212331514","0.3134624789","","","","","","","","","","75","K","2","","","206","main_expt",""
"","bandit","286","980354","0.0-248.0-0.0","77387453","wem/bandit_party_2","ADTJNZHK3FRDY","either","6","391","","","","","","","0","0","1","0.3381772831","","0.2","0.6","0.8","0.4","","","","","0.6510378203","0.2092890992","0.3381772831","0.3808856429","","","","","","","","","","75","K","2","","","207","main_expt",""
"","bandit","287","983076","0.0-249.0-0.0","77387453","wem/bandit_party_2","ADTJNZHK3FRDY","either","6","1203","","","","","","","0","1","0","","0.5971377862","0.2","0.6","0.8","0.4","0.5971377862","0.2563161799","0.2370260631","0.318509643","","","","","","","","","","","","","","72","H","0","img/none_selected.jpg","","208","main_expt",""
"","bandit","288","985050","0.0-250.0-0.0","77387453","wem/bandit_party_2","ADTJNZHK3FRDY","either","6","454","","","","","","","0","1","0","","0.6040603887","0.2","0.6","0.8","0.4","0.6040603887","0.2643940457","0.2157004535","0.2932847295","","","","","","","","","","","","","","72","H","0","img/none_selected.jpg","","209","main_expt",""
"","bandit","289","986954","0.0-251.0-0.0","77387453","wem/bandit_party_2","ADTJNZHK3FRDY","either","6","384","","","","","","","1","0","0","0.7794442159","","0.2","0.6","0.8","0.4","","","","","0.7794442159","0.2710870001","0.2655169153","0.2230023122","","","","","","","","","","72","H","0","img/none_selected.jpg","","210","main_expt",""
"","bandit","290","988810","0.0-252.0-0.0","77387453","wem/bandit_party_2","ADTJNZHK3FRDY","either","6","336","","","","","","","1","0","0","0.8397026392","","0.2","0.6","0.8","0.4","","","","","0.8397026392","0.2056380183","0.2359505063","0.1899351836","","","","","","","","","","72","H","0","img/none_selected.jpg","","211","main_expt",""
"","bandit","291","990698","0.0-253.0-0.0","77387453","wem/bandit_party_2","ADTJNZHK3FRDY","either","6","369","","","","","","","0","1","0","","0.7883870126","0.2","0.6","0.8","0.4","0.7883870126","0.2487045614","0.2431981852","0.2593929449","","","","","","","","","","","","","","72","H","0","img/none_selected.jpg","","212","main_expt",""
"","bandit","292","992579","0.0-254.0-0.0","77387453","wem/bandit_party_2","ADTJNZHK3FRDY","either","6","361","","","","","","","0","1","0","","0.7160446845","0.2","0.6","0.8","0.4","0.7160446845","0.3520378668","0.3385658967","0.2304425673","","","","","","","","","","","","","","72","H","0","img/none_selected.jpg","","213","main_expt",""
"","bandit","293","994628","0.0-255.0-0.0","77387453","wem/bandit_party_2","ADTJNZHK3FRDY","either","6","529","","","","","","","0","1","0","","0.7501162241","0.2","0.6","0.8","0.4","0.7501162241","0.3455661114","0.445002088","0.2849244028","","","","","","","","","","","","","","72","H","0","img/none_selected.jpg","","214","main_expt",""
"","bandit","294","996490","0.0-256.0-0.0","77387453","wem/bandit_party_2","ADTJNZHK3FRDY","either","6","341","","","","","","","0","1","0","","0.7574589115","0.2","0.6","0.8","0.4","0.7574589115","0.3290646698","0.4340580748","0.3184819088","","","","","","","","","","","","","","72","H","0","img/none_selected.jpg","","215","main_expt",""
"","bandit","295","998274","0.0-257.0-0.0","77387453","wem/bandit_party_2","ADTJNZHK3FRDY","either","6","264","","","","","","","0","1","0","","0.7376674805","0.2","0.6","0.8","0.4","0.7376674805","0.2737258078","0.3996931216","0.2989728513","","","","","","","","","","","","","","72","H","0","img/none_selected.jpg","","216","main_expt",""
"","bandit","296","1001682","0.0-258.0-0.0","77387453","wem/bandit_party_2","ADTJNZHK3FRDY","either","6","1889","","","","","","","1","0","0","0.2401291484","","0.2","0.6","0.8","0.4","","","","","0.67262171","0.2401291484","0.453570069","0.5538830624","","","","","","","","","","74","J","1","","","217","main_expt",""
"","bandit","297","1003602","0.0-259.0-0.0","77387453","wem/bandit_party_2","ADTJNZHK3FRDY","either","6","400","","","","","","","0","0","1","0.2395298113","","0.2","0.6","0.8","0.4","","","","","0.6309662891","0.2395298113","0.3566620654","0.5331458927","","","","","","","","","","74","J","1","","","218","main_expt",""
"","bandit","298","1005492","0.0-260.0-0.0","77387453","wem/bandit_party_2","ADTJNZHK3FRDY","either","6","370","","","","","","","0","0","1","","0.2333127667","0.2","0.6","0.8","0.4","0.610488243","0.2333127667","0.3114207129","0.409279481","","","","","","","","","","","","","","74","J","1","","","219","main_expt",""
"","bandit","299","1007218","0.0-261.0-0.0","77387453","wem/bandit_party_2","ADTJNZHK3FRDY","either","6","206","","","","","","","0","0","1","0.2097963002","","0.2","0.6","0.8","0.4","","","","","0.6741838821","0.2097963002","0.348491043","0.3910907299","","","","","","","","","","74","J","1","","","220","main_expt",""
"","bandit","300","1008938","0.0-262.0-0.0","77387453","wem/bandit_party_2","ADTJNZHK3FRDY","either","6","201","","","","","","","0","1","0","","0.1761429423","0.2","0.6","0.8","0.4","0.6938787555","0.1761429423","0.325682353","0.37386253","","","","","","","","","","","","","","74","J","1","","","221","main_expt",""
"","bandit","301","1010874","0.0-263.0-0.0","77387453","wem/bandit_party_2","ADTJNZHK3FRDY","either","6","416","","","","","","","0","0","1","","0.1770547834","0.2","0.6","0.8","0.4","0.622086605","0.1770547834","0.3582518194","0.5460784034","","","","","","","","","","","","","","74","J","1","","","222","main_expt",""
"","bandit","302","1013971","0.0-264.0-0.0","77387453","wem/bandit_party_2","ADTJNZHK3FRDY","either","6","1575","","","","","","","0","0","1","0.3596631187","","0.2","0.6","0.8","0.4","","","","","0.6190419158","0.1494166006","0.3596631187","0.5484594206","","","","","","","","","","75","K","2","","","223","main_expt",""
"","bandit","303","1015891","0.0-265.0-0.0","77387453","wem/bandit_party_2","ADTJNZHK3FRDY","either","6","401","","","","","","","1","0","0","0.5156266917","","0.2","0.6","0.8","0.4","","","","","0.6525227655","0.1444184755","0.4757784632","0.5156266917","","","","","","","","","","76","L","3","","","224","main_expt",""
"","bandit","304","1017826","0.0-266.0-0.0","77387453","wem/bandit_party_2","ADTJNZHK3FRDY","either","6","415","","","","","","","0","0","1","0.5120039273","","0.2","0.6","0.8","0.4","","","","","0.5739960468","0.2381889698","0.5384710229","0.5120039273","","","","","","","","","","76","L","3","","","225","main_expt",""
"","bandit","305","1019402","0.0-267.0-0.0","77387453","wem/bandit_party_2","ADTJNZHK3FRDY","either","6","54","","","","","","","0","0","1","0.5568413113","","0.2","0.6","0.8","0.4","","","","","0.6038380469","0.1429230379","0.5308581489","0.5568413113","","","","","","","","","","76","L","3","","","226","main_expt",""
"","bandit","306","1021002","0.0-268.0-0.0","77387453","wem/bandit_party_2","ADTJNZHK3FRDY","either","6","79","","","","","","","0","1","0","","0.5277183188","0.2","0.6","0.8","0.4","0.5203417309","0.124100867","0.488482713","0.5277183188","","","","","","","","","","","","","","76","L","3","","","227","main_expt",""
"","bandit","307","1022938","0.0-269.0-0.0","77387453","wem/bandit_party_2","ADTJNZHK3FRDY","either","6","415","","","","","","","1","0","0","0.5041270258","","0.2","0.6","0.8","0.4","","","","","0.4263922038","0.1762219884","0.4406219513","0.5041270258","","","","","","","","","","76","L","3","","","228","main_expt",""
"","bandit","308","1024802","0.0-270.0-0.0","77387453","wem/bandit_party_2","ADTJNZHK3FRDY","either","6","343","","","","","","","1","0","0","0.4541369304","","0.2","0.6","0.8","0.4","","","","","0.3475105047","0.1910325121","0.4892119921","0.4541369304","","","","","","","","","","76","L","3","","","229","main_expt",""
"","bandit","309","1026652","0.0-271.0-0.0","77387453","wem/bandit_party_2","ADTJNZHK3FRDY","either","6","329","","","","","","","0","0","1","0.4504381994","","0.2","0.6","0.8","0.4","","","","","0.3353007417","0.2571549068","0.5129573662","0.4504381994","","","","","","","","","","76","L","3","","","230","main_expt",""
"","bandit","310","1028379","0.0-272.0-0.0","77387453","wem/bandit_party_2","ADTJNZHK3FRDY","either","6","207","","","","","","","0","0","1","","0.4698668598","0.2","0.6","0.8","0.4","0.2870546929","0.1781345747","0.4382888871","0.4698668598","","","","","","","","","","","","","","76","L","3","","","231","main_expt",""
"","bandit","311","1030298","0.0-273.0-0.0","77387453","wem/bandit_party_2","ADTJNZHK3FRDY","either","6","398","","","","","","","0","1","0","","0.5460008395","0.2","0.6","0.8","0.4","0.3092655517","0.1748933913","0.42174841","0.5460008395","","","","","","","","","","","","","","76","L","3","","","232","main_expt",""
"","bandit","312","1032010","0.0-274.0-0.0","77387453","wem/bandit_party_2","ADTJNZHK3FRDY","either","6","192","","","","","","","0","0","1","0.5345299581","","0.2","0.6","0.8","0.4","","","","","0.4231157335","0.2196371411","0.4297142637","0.5345299581","","","","","","","","","","76","L","3","","","233","main_expt",""
"","bandit","313","1034018","0.0-275.0-0.0","77387453","wem/bandit_party_2","ADTJNZHK3FRDY","either","6","487","","","","","","","0","1","0","","0.508060833","0.2","0.6","0.8","0.4","0.5525929145","0.2052749597","0.3016140143","0.508060833","","","","","","","","","","","","","","76","L","3","","","234","main_expt",""
"","bandit","314","1035922","0.0-276.0-0.0","77387453","wem/bandit_party_2","ADTJNZHK3FRDY","either","6","384","","","","","","","0","0","1","","0.4956589368","0.2","0.6","0.8","0.4","0.7239072418","0.3158924645","0.2735586703","0.4956589368","","","","","","","","","","","","","","76","L","3","","","235","main_expt",""
"","bandit","315","1037804","0.0-277.0-0.0","77387453","wem/bandit_party_2","ADTJNZHK3FRDY","either","6","361","","","","","","","0","0","1","","0.5514737959","0.2","0.6","0.8","0.4","0.8076920848","0.3668106878","0.2536827631","0.5514737959","","","","","","","","","","","","","","76","L","3","","","236","main_expt",""
"","bandit","316","1039579","0.0-278.0-0.0","77387453","wem/bandit_party_2","ADTJNZHK3FRDY","either","6","252","","","","","","","0","1","0","","0.5183580196","0.2","0.6","0.8","0.4","0.7703095863","0.3866395083","0.2478783488","0.5183580196","","","","","","","","","","","","","","76","L","3","","","237","main_expt",""
"","bandit","317","1042002","0.0-279.0-0.0","77387453","wem/bandit_party_2","ADTJNZHK3FRDY","either","6","902","","","","","","","0","0","1","0.5320509842","","0.2","0.6","0.8","0.4","","","","","0.6485929649","0.4108821033","0.1688186905","0.5320509842","","","","","","","","","","76","L","3","","","238","main_expt",""
"","bandit","318","1043986","0.0-280.0-0.0","77387453","wem/bandit_party_2","ADTJNZHK3FRDY","either","6","462","","","","","","","0","0","1","0.46832295","","0.2","0.6","0.8","0.4","","","","","0.7028133827","0.4384900471","0.1232648298","0.46832295","","","","","","","","","","76","L","3","","","239","main_expt",""
"","bandit","319","1046155","0.0-281.0-0.0","77387453","wem/bandit_party_2","ADTJNZHK3FRDY","either","6","647","","","","","","","0","0","1","0.5024711131","","0.2","0.6","0.8","0.4","","","","","0.6620055833","0.4246438665","0.1720424997","0.5024711131","","","","","","","","","","76","L","3","","","240","main_expt",""
