"consent","trial_type","trial_index","time_elapsed","internal_node_id","subjID","study","MID","cond","drift","rt","responses","button_pressed","key_press","like","value","connected","gems","bombs","no_reward","GemPrChosen","BombPrChosen","GainOverPainPr_0","GainOverPainPr_1","GainOverPainPr_2","GainOverPainPr_3","LosePr_0","LosePr_1","LosePr_2","LosePr_3","WinPr_0","WinPr_1","WinPr_2","WinPr_3","Q0","Q1","Q2","gender","age","ethnicity","label","expt_phase","target","respCharCode","respKey","respChoiceNum","respChoice","practice","trial_counter","trial_label","Q0_index"
"GDM/GDM_behavioral_consent_30min_online.html","consent","0","5737","0.0-0.0","77766881","wem/bandit_party_2","AO2A12R6EG0KB","either","7","","","","","","","","","","","","","","","","","","","","","","","","","","","","","","","","","","","","","","","","",""
"","survey-text","1","10958","0.0-1.0","77766881","wem/bandit_party_2","AO2A12R6EG0KB","either","7","4199","{""Q0"":""AO2A12R6EG0KB""}","","","","","","","","","","","","","","","","","","","","","","","","","","","","","","","","","","","","","","",""
"","button-response","2","13215","0.0-2.0","77766881","wem/bandit_party_2","AO2A12R6EG0KB","either","7","1233","","0","","","","","","","","","","","","","","","","","","","","","","","","","","","","","","","","","","","","","",""
"","text-replacement","3","18820","0.0-3.0","77766881","wem/bandit_party_2","AO2A12R6EG0KB","either","7","4594","","","32","","","","","","","","","","","","","","","","","","","","","","","","","","","","","","","","","","","","",""
"","text-replacement","4","23548","0.0-4.0","77766881","wem/bandit_party_2","AO2A12R6EG0KB","either","7","4719","","","32","","","","","","","","","","","","","","","","","","","","","","","","","","","","","","","","","","","","",""
"","identification","5","28615","0.0-6.0-0.0","77766881","wem/bandit_party_2","AO2A12R6EG0KB","either","7","5001","","","","4","4","4","","","","","","","","","","","","","","","","","","","","","","","","pre","identification_pre","the Republican Party","","","","","","","",""
"","identification","6","33064","0.0-6.0-1.0","77766881","wem/bandit_party_2","AO2A12R6EG0KB","either","7","3408","","","","2","2","0","","","","","","","","","","","","","","","","","","","","","","","","pre","identification_pre","the Democratic Party","","","","","","","",""
"","text-replacement","7","36718","0.0-7.0","77766881","wem/bandit_party_2","AO2A12R6EG0KB","either","7","2615","","","32","","","","","","","","","","","","","","","","","","","","","","","","","","","","","","","","","","","","",""
"","text-replacement","8","39976","0.0-8.0","77766881","wem/bandit_party_2","AO2A12R6EG0KB","either","7","3247","","","32","","","","","","","","","","","","","","","","","","","","","","","","","","","","","","","","","","","","",""
"","text-replacement","9","44000","0.0-9.0","77766881","wem/bandit_party_2","AO2A12R6EG0KB","either","7","4017","","","32","","","","","","","","","","","","","","","","","","","","","","","","","","","","","","","","","","","","",""
"","text-replacement","10","45374","0.0-10.0","77766881","wem/bandit_party_2","AO2A12R6EG0KB","either","7","1366","","","32","","","","","","","","","","","","","","","","","","","","","","","","","","","","","","","","","","","","",""
"","text-replacement","11","46588","0.0-11.0","77766881","wem/bandit_party_2","AO2A12R6EG0KB","either","7","1211","","","32","","","","","","","","","","","","","","","","","","","","","","","","","","","","","","","","","","","","",""
"","bandit","12","50249","0.0-12.0-0.0","77766881","wem/bandit_party_2","AO2A12R6EG0KB","either","7","2132","","","","","","","0","0","1","0","0","","","","","0","","","","0","","","","","","","","","","","","","74","J","0","img/none_selected_demo.jpg","true","0","",""
"","bandit","13","52395","0.0-13.0-0.0","77766881","wem/bandit_party_2","AO2A12R6EG0KB","either","7","610","","","","","","","0","0","1","0","0","","","","","0","","","","0","","","","","","","","","","","","","75","K","0","img/none_selected_demo.jpg","true","0","",""
"","text-replacement","14","54847","0.0-14.0","77766881","wem/bandit_party_2","AO2A12R6EG0KB","either","7","2450","","","32","","","","","","","","","","","","","","","","","","","","","","","","","","","","","","","","","","","","",""
"","text-replacement","15","58628","0.0-15.0","77766881","wem/bandit_party_2","AO2A12R6EG0KB","either","7","3779","","","32","","","","","","","","","","","","","","","","","","","","","","","","","","","","","","","","","","","","",""
"","text-replacement","16","60986","0.0-16.0","77766881","wem/bandit_party_2","AO2A12R6EG0KB","either","7","2355","","","32","","","","","","","","","","","","","","","","","","","","","","","","","","","","","","","","","","","","",""
"","text-replacement","17","62659","0.0-17.0","77766881","wem/bandit_party_2","AO2A12R6EG0KB","either","7","1670","","","32","","","","","","","","","","","","","","","","","","","","","","","","","","","","","","","","","","","","",""
"","bandit","18","65630","0.0-18.0-0.0","77766881","wem/bandit_party_2","AO2A12R6EG0KB","either","7","1458","","","","","","","0","1","0","","0.8","0.5","0.5","","","0.8","0.2","","","","","","","","","","","","","","","","74","J","0","img/none_selected_demo.jpg","true","0","80_20_practice",""
"","bandit","19","68089","0.0-18.0-1.0","77766881","wem/bandit_party_2","AO2A12R6EG0KB","either","7","945","","","","","","","0","0","1","0.8","","0.5","0.5","","","","","","","0.8","0.2","","","","","","","","","","","","74","J","0","img/none_selected_demo.jpg","true","0","80_20_practice",""
"","bandit","20","70041","0.0-18.0-2.0","77766881","wem/bandit_party_2","AO2A12R6EG0KB","either","7","419","","","","","","","0","1","0","","0.8","0.5","0.5","","","0.8","0.2","","","","","","","","","","","","","","","","74","J","0","img/none_selected_demo.jpg","true","0","80_20_practice",""
"","bandit","21","72328","0.0-18.0-3.0","77766881","wem/bandit_party_2","AO2A12R6EG0KB","either","7","416","","","","","","","0","0","1","","0.2","0.5","0.5","","","0.8","0.2","","","","","","","","","","","","","","","","75","K","1","","true","0","80_20_practice",""
"","bandit","22","74446","0.0-18.0-4.0","77766881","wem/bandit_party_2","AO2A12R6EG0KB","either","7","352","","","","","","","0","0","1","","0.2","0.5","0.5","","","0.8","0.2","","","","","","","","","","","","","","","","75","K","1","","true","0","80_20_practice",""
"","bandit","23","76359","0.0-18.0-5.0","77766881","wem/bandit_party_2","AO2A12R6EG0KB","either","7","371","","","","","","","0","0","1","","0.2","0.5","0.5","","","0.8","0.2","","","","","","","","","","","","","","","","75","K","1","","true","0","80_20_practice",""
"","bandit","24","81458","0.0-18.0-6.0","77766881","wem/bandit_party_2","AO2A12R6EG0KB","either","7","2881","","","","","","","1","0","0","0.8","","0.5","0.5","","","","","","","0.8","0.2","","","","","","","","","","","","74","J","0","img/none_selected_demo.jpg","true","0","80_20_practice",""
"","bandit","25","83640","0.0-18.0-7.0","77766881","wem/bandit_party_2","AO2A12R6EG0KB","either","7","520","","","","","","","0","0","1","0.8","","0.5","0.5","","","","","","","0.8","0.2","","","","","","","","","","","","74","J","0","img/none_selected_demo.jpg","true","0","80_20_practice",""
"","bandit","26","85970","0.0-18.0-8.0","77766881","wem/bandit_party_2","AO2A12R6EG0KB","either","7","660","","","","","","","1","0","0","0.8","","0.5","0.5","","","","","","","0.8","0.2","","","","","","","","","","","","74","J","0","img/none_selected_demo.jpg","true","0","80_20_practice",""
"","bandit","27","88041","0.0-18.0-9.0","77766881","wem/bandit_party_2","AO2A12R6EG0KB","either","7","544","","","","","","","0","1","0","","0.8","0.5","0.5","","","0.8","0.2","","","","","","","","","","","","","","","","74","J","0","img/none_selected_demo.jpg","true","0","80_20_practice",""
"","bandit","28","90282","0.0-18.0-10.0","77766881","wem/bandit_party_2","AO2A12R6EG0KB","either","7","569","","","","","","","1","0","0","0.8","","0.5","0.5","","","","","","","0.8","0.2","","","","","","","","","","","","74","J","0","img/none_selected_demo.jpg","true","0","80_20_practice",""
"","bandit","29","93793","0.0-18.0-11.0","77766881","wem/bandit_party_2","AO2A12R6EG0KB","either","7","1986","","","","","","","0","0","1","","0.2","0.5","0.5","","","0.8","0.2","","","","","","","","","","","","","","","","75","K","1","","true","0","80_20_practice",""
"","bandit","30","95766","0.0-18.0-12.0","77766881","wem/bandit_party_2","AO2A12R6EG0KB","either","7","450","","","","","","","1","0","0","0.2","","0.5","0.5","","","","","","","0.8","0.2","","","","","","","","","","","","75","K","1","","true","0","80_20_practice",""
"","bandit","31","97778","0.0-18.0-13.0","77766881","wem/bandit_party_2","AO2A12R6EG0KB","either","7","476","","","","","","","0","0","1","","0.2","0.5","0.5","","","0.8","0.2","","","","","","","","","","","","","","","","75","K","1","","true","0","80_20_practice",""
"","bandit","32","100085","0.0-18.0-14.0","77766881","wem/bandit_party_2","AO2A12R6EG0KB","either","7","742","","","","","","","0","0","1","0.2","","0.5","0.5","","","","","","","0.8","0.2","","","","","","","","","","","","75","K","1","","true","0","80_20_practice",""
"","bandit","33","102148","0.0-18.0-15.0","77766881","wem/bandit_party_2","AO2A12R6EG0KB","either","7","532","","","","","","","0","0","1","0.2","","0.5","0.5","","","","","","","0.8","0.2","","","","","","","","","","","","75","K","1","","true","0","80_20_practice",""
"","bandit","34","104584","0.0-18.0-16.0","77766881","wem/bandit_party_2","AO2A12R6EG0KB","either","7","918","","","","","","","0","0","1","","0.2","0.5","0.5","","","0.8","0.2","","","","","","","","","","","","","","","","75","K","1","","true","0","80_20_practice",""
"","bandit","35","106333","0.0-18.0-17.0","77766881","wem/bandit_party_2","AO2A12R6EG0KB","either","7","213","","","","","","","1","0","0","0.8","","0.5","0.5","","","","","","","0.8","0.2","","","","","","","","","","","","74","J","0","img/none_selected_demo.jpg","true","0","80_20_practice",""
"","bandit","36","120451","0.0-18.0-18.0","77766881","wem/bandit_party_2","AO2A12R6EG0KB","either","7","12342","","","","","","","1","0","0","0.8","","0.5","0.5","","","","","","","0.8","0.2","","","","","","","","","","","","74","J","0","img/none_selected_demo.jpg","true","0","80_20_practice",""
"","bandit","37","122549","0.0-18.0-19.0","77766881","wem/bandit_party_2","AO2A12R6EG0KB","either","7","500","","","","","","","1","0","0","0.8","","0.5","0.5","","","","","","","0.8","0.2","","","","","","","","","","","","74","J","0","img/none_selected_demo.jpg","true","0","80_20_practice",""
"","text-replacement","38","138974","0.0-19.0","77766881","wem/bandit_party_2","AO2A12R6EG0KB","either","7","16417","","","32","","","","","","","","","","","","","","","","","","","","","","","","","","","","","","","","","","","","",""
"","bandit","39","141395","0.0-20.0-0.0","77766881","wem/bandit_party_2","AO2A12R6EG0KB","either","7","855","","","","","","","1","0","0","1","0","","","","","0","1","","","1","0","","","","","","","","","","","","74","J","0","img/none_selected_demo.jpg","true","0","",""
"","text-replacement","40","143088","0.0-21.0","77766881","wem/bandit_party_2","AO2A12R6EG0KB","either","7","1686","","","32","","","","","","","","","","","","","","","","","","","","","","","","","","","","","","","","","","","","",""
"","text-replacement","41","144283","0.0-22.0","77766881","wem/bandit_party_2","AO2A12R6EG0KB","either","7","1188","","","32","","","","","","","","","","","","","","","","","","","","","","","","","","","","","","","","","","","","",""
"","text-replacement","42","145165","0.0-23.0","77766881","wem/bandit_party_2","AO2A12R6EG0KB","either","7","875","","","32","","","","","","","","","","","","","","","","","","","","","","","","","","","","","","","","","","","","",""
"","text-replacement","43","146064","0.0-24.0","77766881","wem/bandit_party_2","AO2A12R6EG0KB","either","7","895","","","32","","","","","","","","","","","","","","","","","","","","","","","","","","","","","","","","","","","","",""
"","text-replacement","44","147609","0.0-25.0","77766881","wem/bandit_party_2","AO2A12R6EG0KB","either","7","1542","","","32","","","","","","","","","","","","","","","","","","","","","","","","","","","","","","","","","","","","",""
"","text-replacement","45","148186","0.0-26.0","77766881","wem/bandit_party_2","AO2A12R6EG0KB","either","7","572","","","32","","","","","","","","","","","","","","","","","","","","","","","","","","","","","","","","","","","","",""
"","text-replacement","46","148713","0.0-27.0","77766881","wem/bandit_party_2","AO2A12R6EG0KB","either","7","524","","","32","","","","","","","","","","","","","","","","","","","","","","","","","","","","","","","","","","","","",""
"","text-replacement","47","149363","0.0-28.0","77766881","wem/bandit_party_2","AO2A12R6EG0KB","either","7","647","","","32","","","","","","","","","","","","","","","","","","","","","","","","","","","","","","","","","","","","",""
"","text-replacement","48","150370","0.0-29.0","77766881","wem/bandit_party_2","AO2A12R6EG0KB","either","7","1003","","","32","","","","","","","","","","","","","","","","","","","","","","","","","","","","","","","","","","","","",""
"","text-replacement","49","151170","0.0-30.0","77766881","wem/bandit_party_2","AO2A12R6EG0KB","either","7","794","","","32","","","","","","","","","","","","","","","","","","","","","","","","","","","","","","","","","","","","",""
"","text-replacement","50","152084","0.0-31.0","77766881","wem/bandit_party_2","AO2A12R6EG0KB","either","7","911","","","32","","","","","","","","","","","","","","","","","","","","","","","","","","","","","","","","","","","","",""
"","bandit","51","154926","0.0-32.0-0.0","77766881","wem/bandit_party_2","AO2A12R6EG0KB","either","7","1322","","","","","","","0","1","0","","0.8","0.5","0.5","0.5","0.5","0.8","0.2","0.6","0.2","","","","","","","","","","","","","","72","H","0","img/none_selected.jpg","true","0","full_practice",""
"","bandit","52","156769","0.0-32.0-1.0","77766881","wem/bandit_party_2","AO2A12R6EG0KB","either","7","330","","","","","","","0","0","1","0.2","","0.5","0.5","0.5","0.5","","","","","0.8","0.2","0.6","0.2","","","","","","","","","","74","J","1","","true","0","full_practice",""
"","bandit","53","158438","0.0-32.0-2.0","77766881","wem/bandit_party_2","AO2A12R6EG0KB","either","7","155","","","","","","","0","0","1","","0.2","0.5","0.5","0.5","0.5","0.8","0.2","0.6","0.2","","","","","","","","","","","","","","74","J","1","","true","0","full_practice",""
"","bandit","54","160232","0.0-32.0-3.0","77766881","wem/bandit_party_2","AO2A12R6EG0KB","either","7","281","","","","","","","0","0","1","0.2","","0.5","0.5","0.5","0.5","","","","","0.8","0.2","0.6","0.2","","","","","","","","","","74","J","1","","true","0","full_practice",""
"","bandit","55","162157","0.0-32.0-4.0","77766881","wem/bandit_party_2","AO2A12R6EG0KB","either","7","306","","","","","","","1","0","0","0.2","","0.5","0.5","0.5","0.5","","","","","0.8","0.2","0.6","0.2","","","","","","","","","","74","J","1","","true","0","full_practice",""
"","bandit","56","164500","0.0-32.0-5.0","77766881","wem/bandit_party_2","AO2A12R6EG0KB","either","7","322","","","","","","","0","0","1","0.2","","0.5","0.5","0.5","0.5","","","","","0.8","0.2","0.6","0.2","","","","","","","","","","74","J","1","","true","0","full_practice",""
"","bandit","57","166446","0.0-32.0-6.0","77766881","wem/bandit_party_2","AO2A12R6EG0KB","either","7","427","","","","","","","1","0","0","0.2","","0.5","0.5","0.5","0.5","","","","","0.8","0.2","0.6","0.2","","","","","","","","","","74","J","1","","true","0","full_practice",""
"","bandit","58","168550","0.0-32.0-7.0","77766881","wem/bandit_party_2","AO2A12R6EG0KB","either","7","299","","","","","","","0","0","1","","0.2","0.5","0.5","0.5","0.5","0.8","0.2","0.6","0.2","","","","","","","","","","","","","","74","J","1","","true","0","full_practice",""
"","bandit","59","170451","0.0-32.0-8.0","77766881","wem/bandit_party_2","AO2A12R6EG0KB","either","7","327","","","","","","","0","0","1","0.2","","0.5","0.5","0.5","0.5","","","","","0.8","0.2","0.6","0.2","","","","","","","","","","74","J","1","","true","0","full_practice",""
"","bandit","60","173569","0.0-32.0-9.0","77766881","wem/bandit_party_2","AO2A12R6EG0KB","either","7","388","","","","","","","0","0","1","","0.2","0.5","0.5","0.5","0.5","0.8","0.2","0.6","0.2","","","","","","","","","","","","","","74","J","1","","true","0","full_practice",""
"","bandit","61","175757","0.0-32.0-10.0","77766881","wem/bandit_party_2","AO2A12R6EG0KB","either","7","532","","","","","","","0","1","0","","0.2","0.5","0.5","0.5","0.5","0.8","0.2","0.6","0.2","","","","","","","","","","","","","","74","J","1","","true","0","full_practice",""
"","bandit","62","178445","0.0-32.0-11.0","77766881","wem/bandit_party_2","AO2A12R6EG0KB","either","7","426","","","","","","","1","0","0","0.8","","0.5","0.5","0.5","0.5","","","","","0.8","0.2","0.6","0.2","","","","","","","","","","72","H","0","img/none_selected.jpg","true","0","full_practice",""
"","bandit","63","181606","0.0-32.0-12.0","77766881","wem/bandit_party_2","AO2A12R6EG0KB","either","7","371","","","","","","","0","1","0","","0.8","0.5","0.5","0.5","0.5","0.8","0.2","0.6","0.2","","","","","","","","","","","","","","72","H","0","img/none_selected.jpg","true","0","full_practice",""
"","bandit","64","184120","0.0-32.0-13.0","77766881","wem/bandit_party_2","AO2A12R6EG0KB","either","7","390","","","","","","","1","0","0","0.8","","0.5","0.5","0.5","0.5","","","","","0.8","0.2","0.6","0.2","","","","","","","","","","72","H","0","img/none_selected.jpg","true","0","full_practice",""
"","bandit","65","187344","0.0-32.0-14.0","77766881","wem/bandit_party_2","AO2A12R6EG0KB","either","7","1620","","","","","","","0","0","1","","0.8","0.5","0.5","0.5","0.5","0.8","0.2","0.6","0.2","","","","","","","","","","","","","","72","H","0","img/none_selected.jpg","true","0","full_practice",""
"","bandit","66","189530","0.0-32.0-15.0","77766881","wem/bandit_party_2","AO2A12R6EG0KB","either","7","653","","","","","","","0","1","0","","0.8","0.5","0.5","0.5","0.5","0.8","0.2","0.6","0.2","","","","","","","","","","","","","","72","H","0","img/none_selected.jpg","true","0","full_practice",""
"","bandit","67","191858","0.0-32.0-16.0","77766881","wem/bandit_party_2","AO2A12R6EG0KB","either","7","770","","","","","","","1","0","0","0.8","","0.5","0.5","0.5","0.5","","","","","0.8","0.2","0.6","0.2","","","","","","","","","","72","H","0","img/none_selected.jpg","true","0","full_practice",""
"","bandit","68","194068","0.0-32.0-17.0","77766881","wem/bandit_party_2","AO2A12R6EG0KB","either","7","652","","","","","","","0","0","1","","0.8","0.5","0.5","0.5","0.5","0.8","0.2","0.6","0.2","","","","","","","","","","","","","","72","H","0","img/none_selected.jpg","true","0","full_practice",""
"","bandit","69","197183","0.0-32.0-18.0","77766881","wem/bandit_party_2","AO2A12R6EG0KB","either","7","1587","","","","","","","1","0","0","0.8","","0.5","0.5","0.5","0.5","","","","","0.8","0.2","0.6","0.2","","","","","","","","","","72","H","0","img/none_selected.jpg","true","0","full_practice",""
"","bandit","70","199224","0.0-32.0-19.0","77766881","wem/bandit_party_2","AO2A12R6EG0KB","either","7","503","","","","","","","0","0","1","0.8","","0.5","0.5","0.5","0.5","","","","","0.8","0.2","0.6","0.2","","","","","","","","","","72","H","0","img/none_selected.jpg","true","0","full_practice",""
"","text","71","201365","0.0-33.0","77766881","wem/bandit_party_2","AO2A12R6EG0KB","either","7","2120","","","32","","","","","","","","","","","","","","","","","","","","","","","","","","","","","","","","","","","","",""
"","text-replacement","72","206745","0.0-34.0","77766881","wem/bandit_party_2","AO2A12R6EG0KB","either","7","4373","","","32","","","","","","","","","","","","","","","","","","","","","","","","","","","","","","","","","","","","",""
"","text-replacement","73","211864","0.0-35.0","77766881","wem/bandit_party_2","AO2A12R6EG0KB","either","7","5108","","","32","","","","","","","","","","","","","","","","","","","","","","","","","","","","","","","","","","","","",""
"","text-replacement","74","213691","0.0-36.0","77766881","wem/bandit_party_2","AO2A12R6EG0KB","either","7","1821","","","32","","","","","","","","","","","","","","","","","","","","","","","","","","","","","","","","","","","","",""
"","text-replacement","75","214571","0.0-37.0","77766881","wem/bandit_party_2","AO2A12R6EG0KB","either","7","877","","","32","","","","","","","","","","","","","","","","","","","","","","","","","","","","","","","","","","","","",""
"","text-replacement","76","216396","0.0-38.0","77766881","wem/bandit_party_2","AO2A12R6EG0KB","either","7","1820","","","32","","","","","","","","","","","","","","","","","","","","","","","","","","","","","","","","","","","","",""
"","survey-multi-choice-replacement","77","221359","0.0-39.0-0.0","77766881","wem/bandit_party_2","AO2A12R6EG0KB","either","7","4933","","","","","","","","","","","","","","","","","","","","","","","","Money will be added to the pool for <span style='color:red;'>REPUBLICANS</span>","","","","","","","attn_check","","","","","","","","","0"
"","survey-multi-choice-replacement","78","224841","0.0-40.0-0.0","77766881","wem/bandit_party_2","AO2A12R6EG0KB","either","7","2416","","","","","","","","","","","","","","","","","","","","","","","","Equal amounts of money will be added to the pool for <span style='color:red;'>REPUBLICANS</span> and subtracted from the pool for <span style='color:blue;'>DEMOCRATS</span>","","","","","","","attn_check","","","","","","","","","2"
"","survey-multi-choice-replacement","79","228455","0.0-41.0-0.0","77766881","wem/bandit_party_2","AO2A12R6EG0KB","either","7","1886","","","","","","","","","","","","","","","","","","","","","","","","No money will be added to either pool","","","","","","","attn_check","","","","","","","","","3"
"","bandit","80","243868","0.0-42.0-0.0","77766881","wem/bandit_party_2","AO2A12R6EG0KB","either","7","12785","","","","","","","0","1","0","","0.7088318221","0.2","0.4","0.6","0.8","0.7088318221","0.2888626749","0.1731741302","0.5514722813","","","","","","","","","","","","","","72","H","0","img/none_selected.jpg","","1","main_expt",""
"","bandit","81","246747","0.0-43.0-0.0","77766881","wem/bandit_party_2","AO2A12R6EG0KB","either","7","637","","","","","","","0","1","0","","0.6292935488","0.2","0.4","0.6","0.8","0.6292935488","0.3999538902","0.2874485847","0.5039303977","","","","","","","","","","","","","","72","H","0","img/none_selected.jpg","","2","main_expt",""
"","bandit","82","249828","0.0-44.0-0.0","77766881","wem/bandit_party_2","AO2A12R6EG0KB","either","7","649","","","","","","","0","1","0","","0.5285482983","0.2","0.4","0.6","0.8","0.5285482983","0.4126831114","0.2683250969","0.5527877924","","","","","","","","","","","","","","72","H","0","img/none_selected.jpg","","3","main_expt",""
"","bandit","83","252188","0.0-45.0-0.0","77766881","wem/bandit_party_2","AO2A12R6EG0KB","either","7","835","","","","","","","0","0","1","0.6744491701","","0.2","0.4","0.6","0.8","","","","","0.6744491701","0.3923803367","0.3988631097","0.6336700584","","","","","","","","","","72","H","0","img/none_selected.jpg","","4","main_expt",""
"","bandit","84","254408","0.0-46.0-0.0","77766881","wem/bandit_party_2","AO2A12R6EG0KB","either","7","660","","","","","","","0","0","1","","0.3803283439","0.2","0.4","0.6","0.8","0.7922285807","0.3803283439","0.3568799457","0.6340088104","","","","","","","","","","","","","","74","J","1","","","5","main_expt",""
"","bandit","85","256709","0.0-47.0-0.0","77766881","wem/bandit_party_2","AO2A12R6EG0KB","either","7","737","","","","","","","0","0","1","0.3188731731","","0.2","0.4","0.6","0.8","","","","","0.7459441126","0.4214296899","0.3188731731","0.5784181907","","","","","","","","","","75","K","2","","","6","main_expt",""
"","bandit","86","258732","0.0-48.0-0.0","77766881","wem/bandit_party_2","AO2A12R6EG0KB","either","7","498","","","","","","","0","0","1","","0.6727083857","0.2","0.4","0.6","0.8","0.7681481668","0.4755968838","0.4574196012","0.6727083857","","","","","","","","","","","","","","76","L","3","","","7","main_expt",""
"","bandit","87","261056","0.0-49.0-0.0","77766881","wem/bandit_party_2","AO2A12R6EG0KB","either","7","786","","","","","","","1","0","0","0.5353568537","","0.2","0.4","0.6","0.8","","","","","0.7251609313","0.5353568537","0.5037884951","0.7574508858","","","","","","","","","","74","J","1","","","8","main_expt",""
"","bandit","88","263120","0.0-50.0-0.0","77766881","wem/bandit_party_2","AO2A12R6EG0KB","either","7","476","","","","","","","0","0","1","","0.6246831942","0.2","0.4","0.6","0.8","0.7403055102","0.6246831942","0.5750013994","0.8280759311","","","","","","","","","","","","","","74","J","1","","","9","main_expt",""
"","bandit","89","265453","0.0-51.0-0.0","77766881","wem/bandit_party_2","AO2A12R6EG0KB","either","7","388","","","","","","","0","0","1","0.5399040382","","0.2","0.4","0.6","0.8","","","","","0.722944265","0.4475954046","0.5399040382","0.859726102","","","","","","","","","","75","K","2","","","10","main_expt",""
"","bandit","90","267867","0.0-52.0-0.0","77766881","wem/bandit_party_2","AO2A12R6EG0KB","either","7","842","","","","","","","1","0","0","0.877956501","","0.2","0.4","0.6","0.8","","","","","0.6833847698","0.4514702697","0.5181098662","0.877956501","","","","","","","","","","76","L","3","","","11","main_expt",""
"","bandit","91","269887","0.0-53.0-0.0","77766881","wem/bandit_party_2","AO2A12R6EG0KB","either","7","486","","","","","","","1","0","0","0.8883669707","","0.2","0.4","0.6","0.8","","","","","0.689227163","0.4873058782","0.5489165229","0.8883669707","","","","","","","","","","76","L","3","","","12","main_expt",""
"","bandit","92","271912","0.0-54.0-0.0","77766881","wem/bandit_party_2","AO2A12R6EG0KB","either","7","479","","","","","","","1","0","0","0.817149195","","0.2","0.4","0.6","0.8","","","","","0.5178623456","0.4862469224","0.6186986429","0.817149195","","","","","","","","","","76","L","3","","","13","main_expt",""
"","bandit","93","274118","0.0-55.0-0.0","77766881","wem/bandit_party_2","AO2A12R6EG0KB","either","7","663","","","","","","","1","0","0","0.8589139609","","0.2","0.4","0.6","0.8","","","","","0.4768489018","0.360908092","0.4944095791","0.8589139609","","","","","","","","","","76","L","3","","","14","main_expt",""
"","bandit","94","276178","0.0-56.0-0.0","77766881","wem/bandit_party_2","AO2A12R6EG0KB","either","7","535","","","","","","","0","1","0","","0.7955781648","0.2","0.4","0.6","0.8","0.5201849276","0.4126647893","0.4820951366","0.7955781648","","","","","","","","","","","","","","76","L","3","","","15","main_expt",""
"","bandit","95","278147","0.0-57.0-0.0","77766881","wem/bandit_party_2","AO2A12R6EG0KB","either","7","443","","","","","","","1","0","0","0.8864445785","","0.2","0.4","0.6","0.8","","","","","0.6862231469","0.4930686601","0.4888848296","0.8864445785","","","","","","","","","","76","L","3","","","16","main_expt",""
"","bandit","96","280182","0.0-58.0-0.0","77766881","wem/bandit_party_2","AO2A12R6EG0KB","either","7","473","","","","","","","1","0","0","0.8746062981","","0.2","0.4","0.6","0.8","","","","","0.7297328357","0.5162343008","0.381306026","0.8746062981","","","","","","","","","","76","L","3","","","17","main_expt",""
"","bandit","97","282265","0.0-59.0-0.0","77766881","wem/bandit_party_2","AO2A12R6EG0KB","either","7","543","","","","","","","1","0","0","0.8910236512","","0.2","0.4","0.6","0.8","","","","","0.6686287009","0.5627456494","0.3537135189","0.8910236512","","","","","","","","","","76","L","3","","","18","main_expt",""
"","bandit","98","284265","0.0-60.0-0.0","77766881","wem/bandit_party_2","AO2A12R6EG0KB","either","7","462","","","","","","","1","0","0","0.8932054573","","0.2","0.4","0.6","0.8","","","","","0.7885428456","0.4478227807","0.4891458502","0.8932054573","","","","","","","","","","76","L","3","","","19","main_expt",""
"","bandit","99","286221","0.0-61.0-0.0","77766881","wem/bandit_party_2","AO2A12R6EG0KB","either","7","391","","","","","","","0","1","0","","0.8900063933","0.2","0.4","0.6","0.8","0.7442236049","0.5306796692","0.5440957398","0.8900063933","","","","","","","","","","","","","","76","L","3","","","20","main_expt",""
"","bandit","100","288278","0.0-62.0-0.0","77766881","wem/bandit_party_2","AO2A12R6EG0KB","either","7","535","","","","","","","1","0","0","0.8748704397","","0.2","0.4","0.6","0.8","","","","","0.7908218503","0.5423611418","0.5621313733","0.8748704397","","","","","","","","","","76","L","3","","","21","main_expt",""
"","bandit","101","290450","0.0-63.0-0.0","77766881","wem/bandit_party_2","AO2A12R6EG0KB","either","7","639","","","","","","","1","0","0","0.8498769136","","0.2","0.4","0.6","0.8","","","","","0.7163236006","0.4190568807","0.5296345876","0.8498769136","","","","","","","","","","76","L","3","","","22","main_expt",""
"","bandit","102","292501","0.0-64.0-0.0","77766881","wem/bandit_party_2","AO2A12R6EG0KB","either","7","537","","","","","","","1","0","0","0.8357449374","","0.2","0.4","0.6","0.8","","","","","0.7061190667","0.4329937009","0.5187107172","0.8357449374","","","","","","","","","","76","L","3","","","23","main_expt",""
"","bandit","103","294558","0.0-65.0-0.0","77766881","wem/bandit_party_2","AO2A12R6EG0KB","either","7","538","","","","","","","1","0","0","0.8431908073","","0.2","0.4","0.6","0.8","","","","","0.7470556917","0.4298879426","0.6000521927","0.8431908073","","","","","","","","","","76","L","3","","","24","main_expt",""
"","bandit","104","296643","0.0-66.0-0.0","77766881","wem/bandit_party_2","AO2A12R6EG0KB","either","7","564","","","","","","","0","0","1","0.8741885854","","0.2","0.4","0.6","0.8","","","","","0.8154180688","0.2992323157","0.5443047256","0.8741885854","","","","","","","","","","76","L","3","","","25","main_expt",""
"","bandit","105","298638","0.0-67.0-0.0","77766881","wem/bandit_party_2","AO2A12R6EG0KB","either","7","475","","","","","","","0","0","1","","0.8395379789","0.2","0.4","0.6","0.8","0.8395379789","0.3857263224","0.592493964","0.8940719671","","","","","","","","","","","","","","72","H","0","img/none_selected.jpg","","26","main_expt",""
"","bandit","106","300571","0.0-68.0-0.0","77766881","wem/bandit_party_2","AO2A12R6EG0KB","either","7","409","","","","","","","0","1","0","","0.3715251318","0.2","0.4","0.6","0.8","0.8023078409","0.3715251318","0.5779569403","0.8733378856","","","","","","","","","","","","","","74","J","1","","","27","main_expt",""
"","bandit","107","302487","0.0-69.0-0.0","77766881","wem/bandit_party_2","AO2A12R6EG0KB","either","7","397","","","","","","","0","1","0","","0.3387808014","0.2","0.4","0.6","0.8","0.8248968235","0.3387808014","0.7077223562","0.8695586723","","","","","","","","","","","","","","74","J","1","","","28","main_expt",""
"","bandit","108","304510","0.0-70.0-0.0","77766881","wem/bandit_party_2","AO2A12R6EG0KB","either","7","475","","","","","","","0","0","1","","0.3737397218","0.2","0.4","0.6","0.8","0.8621011303","0.3737397218","0.7070353494","0.7908290088","","","","","","","","","","","","","","74","J","1","","","29","main_expt",""
"","bandit","109","306550","0.0-71.0-0.0","77766881","wem/bandit_party_2","AO2A12R6EG0KB","either","7","503","","","","","","","1","0","0","0.6585428656","","0.2","0.4","0.6","0.8","","","","","0.8873668535","0.3232047389","0.6585428656","0.8518997755","","","","","","","","","","75","K","2","","","30","main_expt",""
"","bandit","110","308594","0.0-72.0-0.0","77766881","wem/bandit_party_2","AO2A12R6EG0KB","either","7","518","","","","","","","1","0","0","0.6724088618","","0.2","0.4","0.6","0.8","","","","","0.9318975106","0.4130267239","0.6724088618","0.8509842625","","","","","","","","","","75","K","2","","","31","main_expt",""
"","bandit","111","310641","0.0-73.0-0.0","77766881","wem/bandit_party_2","AO2A12R6EG0KB","either","7","518","","","","","","","0","1","0","","0.6416581209","0.2","0.4","0.6","0.8","0.9013609786","0.4167758813","0.6416581209","0.872996121","","","","","","","","","","","","","","75","K","2","","","32","main_expt",""
"","bandit","112","312613","0.0-74.0-0.0","77766881","wem/bandit_party_2","AO2A12R6EG0KB","either","7","460","","","","","","","0","1","0","","0.7055802426","0.2","0.4","0.6","0.8","0.9041531295","0.4546052232","0.7055802426","0.8571046391","","","","","","","","","","","","","","75","K","2","","","33","main_expt",""
"","bandit","113","314676","0.0-75.0-0.0","77766881","wem/bandit_party_2","AO2A12R6EG0KB","either","7","550","","","","","","","0","0","1","0.7554114371","","0.2","0.4","0.6","0.8","","","","","0.9386104272","0.5231803088","0.7554114371","0.9175819521","","","","","","","","","","75","K","2","","","34","main_expt",""
"","bandit","114","316564","0.0-76.0-0.0","77766881","wem/bandit_party_2","AO2A12R6EG0KB","either","7","370","","","","","","","0","1","0","","0.9503165686","0.2","0.4","0.6","0.8","0.9180645683","0.4661188593","0.8008095759","0.9503165686","","","","","","","","","","","","","","76","L","3","","","35","main_expt",""
"","bandit","115","318564","0.0-77.0-0.0","77766881","wem/bandit_party_2","AO2A12R6EG0KB","either","7","479","","","","","","","1","0","0","0.9327615424","","0.2","0.4","0.6","0.8","","","","","0.9095107155","0.4106027186","0.6925109639","0.9327615424","","","","","","","","","","76","L","3","","","36","main_expt",""
"","bandit","116","321122","0.0-78.0-0.0","77766881","wem/bandit_party_2","AO2A12R6EG0KB","either","7","507","","","","","","","1","0","0","0.9196494001","","0.2","0.4","0.6","0.8","","","","","0.9405648028","0.5021263718","0.7764255689","0.9196494001","","","","","","","","","","76","L","3","","","37","main_expt",""
"","bandit","117","323913","0.0-79.0-0.0","77766881","wem/bandit_party_2","AO2A12R6EG0KB","either","7","746","","","","","","","0","1","0","","0.928530414","0.2","0.4","0.6","0.8","0.9058459248","0.5065313343","0.8392953971","0.928530414","","","","","","","","","","","","","","76","L","3","","","38","main_expt",""
"","bandit","118","326135","0.0-80.0-0.0","77766881","wem/bandit_party_2","AO2A12R6EG0KB","either","7","653","","","","","","","1","0","0","0.9001545702","","0.2","0.4","0.6","0.8","","","","","0.8784462517","0.6098243774","0.7614495855","0.9001545702","","","","","","","","","","76","L","3","","","39","main_expt",""
"","bandit","119","328576","0.0-81.0-0.0","77766881","wem/bandit_party_2","AO2A12R6EG0KB","either","7","394","","","","","","","0","1","0","","0.8432481254","0.2","0.4","0.6","0.8","0.8408568766","0.679699592","0.8060705796","0.8432481254","","","","","","","","","","","","","","76","L","3","","","40","main_expt",""
"","bandit","120","330587","0.0-82.0-0.0","77766881","wem/bandit_party_2","AO2A12R6EG0KB","either","7","454","","","","","","","0","1","0","","0.8326479564","0.2","0.4","0.6","0.8","0.811342849","0.616488607","0.7539991053","0.8326479564","","","","","","","","","","","","","","76","L","3","","","41","main_expt",""
"","bandit","121","332701","0.0-83.0-0.0","77766881","wem/bandit_party_2","AO2A12R6EG0KB","either","7","581","","","","","","","1","0","0","0.8602810298","","0.2","0.4","0.6","0.8","","","","","0.8058808774","0.6307104111","0.7717369324","0.8602810298","","","","","","","","","","76","L","3","","","42","main_expt",""
"","bandit","122","334930","0.0-84.0-0.0","77766881","wem/bandit_party_2","AO2A12R6EG0KB","either","7","678","","","","","","","0","1","0","","0.894365654","0.2","0.4","0.6","0.8","0.7899844578","0.554567591","0.7625968551","0.894365654","","","","","","","","","","","","","","76","L","3","","","43","main_expt",""
"","bandit","123","337203","0.0-85.0-0.0","77766881","wem/bandit_party_2","AO2A12R6EG0KB","either","7","580","","","","","","","1","0","0","0.9033664713","","0.2","0.4","0.6","0.8","","","","","0.7654486741","0.5281861223","0.8488621298","0.9033664713","","","","","","","","","","76","L","3","","","44","main_expt",""
"","bandit","124","339228","0.0-86.0-0.0","77766881","wem/bandit_party_2","AO2A12R6EG0KB","either","7","444","","","","","","","1","0","0","0.8829964613","","0.2","0.4","0.6","0.8","","","","","0.7674111825","0.5043334007","0.8522077325","0.8829964613","","","","","","","","","","76","L","3","","","45","main_expt",""
"","bandit","125","341277","0.0-87.0-0.0","77766881","wem/bandit_party_2","AO2A12R6EG0KB","either","7","531","","","","","","","1","0","0","0.8674694879","","0.2","0.4","0.6","0.8","","","","","0.6301273516","0.5426256613","0.8618589195","0.8674694879","","","","","","","","","","76","L","3","","","46","main_expt",""
"","bandit","126","343505","0.0-88.0-0.0","77766881","wem/bandit_party_2","AO2A12R6EG0KB","either","7","550","","","","","","","0","1","0","","0.8886720039","0.2","0.4","0.6","0.8","0.7885969413","0.5024796093","0.905897833","0.8886720039","","","","","","","","","","","","","","76","L","3","","","47","main_expt",""
"","bandit","127","345748","0.0-89.0-0.0","77766881","wem/bandit_party_2","AO2A12R6EG0KB","either","7","721","","","","","","","1","0","0","0.9229902905","","0.2","0.4","0.6","0.8","","","","","0.7983786211","0.4689138593","0.8929468812","0.9229902905","","","","","","","","","","76","L","3","","","48","main_expt",""
"","bandit","128","347995","0.0-90.0-0.0","77766881","wem/bandit_party_2","AO2A12R6EG0KB","either","7","670","","","","","","","1","0","0","0.9141434128","","0.2","0.4","0.6","0.8","","","","","0.8249867574","0.4439560463","0.854905512","0.9141434128","","","","","","","","","","76","L","3","","","49","main_expt",""
"","bandit","129","350454","0.0-91.0-0.0","77766881","wem/bandit_party_2","AO2A12R6EG0KB","either","7","947","","","","","","","1","0","0","0.9181160336","","0.2","0.4","0.6","0.8","","","","","0.7532301684","0.4079842927","0.8363103738","0.9181160336","","","","","","","","","","76","L","3","","","50","main_expt",""
"","bandit","130","353030","0.0-92.0-0.0","77766881","wem/bandit_party_2","AO2A12R6EG0KB","either","7","1055","","","","","","","1","0","0","0.9266489825","","0.2","0.4","0.6","0.8","","","","","0.6750909554","0.4675199832","0.7168506975","0.9266489825","","","","","","","","","","76","L","3","","","51","main_expt",""
"","bandit","131","355847","0.0-93.0-0.0","77766881","wem/bandit_party_2","AO2A12R6EG0KB","either","7","1303","","","","","","","1","0","0","0.9285581488","","0.2","0.4","0.6","0.8","","","","","0.6762079337","0.4368052975","0.6507986152","0.9285581488","","","","","","","","","","76","L","3","","","52","main_expt",""
"","bandit","132","357552","0.0-94.0-0.0","77766881","wem/bandit_party_2","AO2A12R6EG0KB","either","7","191","","","","","","","1","0","0","0.9171724481","","0.2","0.4","0.6","0.8","","","","","0.7882030045","0.4967902672","0.6531867096","0.9171724481","","","","","","","","","","76","L","3","","","53","main_expt",""
"","bandit","133","359788","0.0-95.0-0.0","77766881","wem/bandit_party_2","AO2A12R6EG0KB","either","7","417","","","","","","","1","0","0","0.8709862684","","0.2","0.4","0.6","0.8","","","","","0.8759533557","0.5321533453","0.6178049746","0.8709862684","","","","","","","","","","76","L","3","","","54","main_expt",""
"","bandit","134","361748","0.0-96.0-0.0","77766881","wem/bandit_party_2","AO2A12R6EG0KB","either","7","279","","","","","","","1","0","0","0.9016108676","","0.2","0.4","0.6","0.8","","","","","0.9307112091","0.593251847","0.5501477499","0.9016108676","","","","","","","","","","76","L","3","","","55","main_expt",""
"","bandit","135","364151","0.0-97.0-0.0","77766881","wem/bandit_party_2","AO2A12R6EG0KB","either","7","827","","","","","","","0","1","0","","0.9123335035","0.2","0.4","0.6","0.8","0.9486344027","0.602347159","0.5181914202","0.9123335035","","","","","","","","","","","","","","76","L","3","","","56","main_expt",""
"","bandit","136","366653","0.0-98.0-0.0","77766881","wem/bandit_party_2","AO2A12R6EG0KB","either","7","791","","","","","","","1","0","0","0.9338523698","","0.2","0.4","0.6","0.8","","","","","0.9450559811","0.736851976","0.5052283364","0.9338523698","","","","","","","","","","76","L","3","","","57","main_expt",""
"","bandit","137","368796","0.0-99.0-0.0","77766881","wem/bandit_party_2","AO2A12R6EG0KB","either","7","236","","","","","","","1","0","0","0.9023069914","","0.2","0.4","0.6","0.8","","","","","0.960587128","0.7112026436","0.4494585665","0.9023069914","","","","","","","","","","76","L","3","","","58","main_expt",""
"","bandit","138","370615","0.0-100.0-0.0","77766881","wem/bandit_party_2","AO2A12R6EG0KB","either","7","291","","","","","","","0","1","0","","0.903153386","0.2","0.4","0.6","0.8","0.9272570312","0.7605469626","0.4431029696","0.903153386","","","","","","","","","","","","","","76","L","3","","","59","main_expt",""
"","bandit","139","372759","0.0-101.0-0.0","77766881","wem/bandit_party_2","AO2A12R6EG0KB","either","7","467","","","","","","","0","1","0","","0.8975643475","0.2","0.4","0.6","0.8","0.9075075979","0.6504737249","0.4213069188","0.8975643475","","","","","","","","","","","","","","76","L","3","","","60","main_expt",""
"","bandit","140","375266","0.0-102.0-0.0","77766881","wem/bandit_party_2","AO2A12R6EG0KB","either","7","750","","","","","","","1","0","0","0.8455107238","","0.2","0.4","0.6","0.8","","","","","0.9011961695","0.7417300409","0.4735464544","0.8455107238","","","","","","","","","","76","L","3","","","61","main_expt",""
"","bandit","141","377532","0.0-103.0-0.0","77766881","wem/bandit_party_2","AO2A12R6EG0KB","either","7","667","","","","","","","0","1","0","","0.8423106617","0.2","0.4","0.6","0.8","0.9025442902","0.6889655243","0.4260239588","0.8423106617","","","","","","","","","","","","","","76","L","3","","","62","main_expt",""
"","bandit","142","380908","0.0-104.0-0.0","77766881","wem/bandit_party_2","AO2A12R6EG0KB","either","7","536","","","","","","","1","0","0","0.6997676278","","0.2","0.4","0.6","0.8","","","","","0.900711875","0.7532165261","0.4048641732","0.6997676278","","","","","","","","","","76","L","3","","","63","main_expt",""
"","bandit","143","383454","0.0-105.0-0.0","77766881","wem/bandit_party_2","AO2A12R6EG0KB","either","7","540","","","","","","","1","0","0","0.8033841581","","0.2","0.4","0.6","0.8","","","","","0.8445511995","0.7614619666","0.261135461","0.8033841581","","","","","","","","","","76","L","3","","","64","main_expt",""
"","bandit","144","385533","0.0-106.0-0.0","77766881","wem/bandit_party_2","AO2A12R6EG0KB","either","7","543","","","","","","","1","0","0","0.8458775523","","0.2","0.4","0.6","0.8","","","","","0.7838665633","0.7474824059","0.4398785507","0.8458775523","","","","","","","","","","76","L","3","","","65","main_expt",""
"","bandit","145","387650","0.0-107.0-0.0","77766881","wem/bandit_party_2","AO2A12R6EG0KB","either","7","588","","","","","","","1","0","0","0.8612648572","","0.2","0.4","0.6","0.8","","","","","0.8399866527","0.7083026918","0.4549930047","0.8612648572","","","","","","","","","","76","L","3","","","66","main_expt",""
"","bandit","146","389998","0.0-108.0-0.0","77766881","wem/bandit_party_2","AO2A12R6EG0KB","either","7","693","","","","","","","1","0","0","0.8686018104","","0.2","0.4","0.6","0.8","","","","","0.9109535201","0.6535093674","0.5565794079","0.8686018104","","","","","","","","","","76","L","3","","","67","main_expt",""
"","bandit","147","392198","0.0-109.0-0.0","77766881","wem/bandit_party_2","AO2A12R6EG0KB","either","7","534","","","","","","","0","0","1","","0.8693437115","0.2","0.4","0.6","0.8","0.9064065477","0.4923739087","0.4211802827","0.8693437115","","","","","","","","","","","","","","76","L","3","","","68","main_expt",""
"","bandit","148","395264","0.0-110.0-0.0","77766881","wem/bandit_party_2","AO2A12R6EG0KB","either","7","595","","","","","","","1","0","0","0.9168970181","","0.2","0.4","0.6","0.8","","","","","0.9315833469","0.4898097669","0.3687693293","0.9168970181","","","","","","","","","","76","L","3","","","69","main_expt",""
"","bandit","149","399385","0.0-111.0-0.0","77766881","wem/bandit_party_2","AO2A12R6EG0KB","either","7","1735","","","","","","","1","0","0","0.9293527272","","0.2","0.4","0.6","0.8","","","","","0.9393923483","0.4369614599","0.3460903474","0.9293527272","","","","","","","","","","76","L","3","","","70","main_expt",""
"","bandit","150","401779","0.0-112.0-0.0","77766881","wem/bandit_party_2","AO2A12R6EG0KB","either","7","784","","","","","","","1","0","0","0.949087413","","0.2","0.4","0.6","0.8","","","","","0.9568343035","0.5031037484","0.3278112836","0.949087413","","","","","","","","","","76","L","3","","","71","main_expt",""
"","bandit","151","404216","0.0-113.0-0.0","77766881","wem/bandit_party_2","AO2A12R6EG0KB","either","7","898","","","","","","","1","0","0","0.906373323","","0.2","0.4","0.6","0.8","","","","","0.947758434","0.5397903688","0.2720469766","0.906373323","","","","","","","","","","76","L","3","","","72","main_expt",""
"","bandit","152","406754","0.0-114.0-0.0","77766881","wem/bandit_party_2","AO2A12R6EG0KB","either","7","1001","","","","","","","0","1","0","","0.93965919","0.2","0.4","0.6","0.8","0.9052010222","0.5540652028","0.2451019773","0.93965919","","","","","","","","","","","","","","76","L","3","","","73","main_expt",""
"","bandit","153","409258","0.0-115.0-0.0","77766881","wem/bandit_party_2","AO2A12R6EG0KB","either","7","955","","","","","","","1","0","0","0.9416319858","","0.2","0.4","0.6","0.8","","","","","0.927704936","0.61733434","0.2645862521","0.9416319858","","","","","","","","","","76","L","3","","","74","main_expt",""
"","bandit","154","411317","0.0-116.0-0.0","77766881","wem/bandit_party_2","AO2A12R6EG0KB","either","7","530","","","","","","","0","0","1","","0.9535384208","0.2","0.4","0.6","0.8","0.8769567517","0.6341908543","0.2298582","0.9535384208","","","","","","","","","","","","","","76","L","3","","","75","main_expt",""
"","bandit","155","413818","0.0-117.0-0.0","77766881","wem/bandit_party_2","AO2A12R6EG0KB","either","7","978","","","","","","","1","0","0","0.9585479729","","0.2","0.4","0.6","0.8","","","","","0.8456064169","0.6355577018","0.3460043445","0.9585479729","","","","","","","","","","76","L","3","","","76","main_expt",""
"","bandit","156","416706","0.0-118.0-0.0","77766881","wem/bandit_party_2","AO2A12R6EG0KB","either","7","872","","","","","","","0","1","0","","0.9610253773","0.2","0.4","0.6","0.8","0.8325595713","0.7055426269","0.2526488818","0.9610253773","","","","","","","","","","","","","","76","L","3","","","77","main_expt",""
"","bandit","157","419026","0.0-119.0-0.0","77766881","wem/bandit_party_2","AO2A12R6EG0KB","either","7","781","","","","","","","1","0","0","0.9580320452","","0.2","0.4","0.6","0.8","","","","","0.9128982172","0.6137882531","0.2625396382","0.9580320452","","","","","","","","","","76","L","3","","","78","main_expt",""
"","bandit","158","424077","0.0-120.0-0.0","77766881","wem/bandit_party_2","AO2A12R6EG0KB","either","7","3533","","","","","","","0","1","0","","0.9403834825","0.2","0.4","0.6","0.8","0.9213349282","0.668392527","0.2957535945","0.9403834825","","","","","","","","","","","","","","76","L","3","","","79","main_expt",""
"","bandit","159","426199","0.0-121.0-0.0","77766881","wem/bandit_party_2","AO2A12R6EG0KB","either","7","565","","","","","","","1","0","0","0.946171157","","0.2","0.4","0.6","0.8","","","","","0.8935563746","0.7457361895","0.1831261498","0.946171157","","","","","","","","","","76","L","3","","","80","main_expt",""
"","bandit","160","428271","0.0-122.0-0.0","77766881","wem/bandit_party_2","AO2A12R6EG0KB","either","7","530","","","","","","","1","0","0","0.9800092583","","0.2","0.4","0.6","0.8","","","","","0.932831263","0.8028050151","0.1450659425","0.9800092583","","","","","","","","","","76","L","3","","","81","main_expt",""
"","bandit","161","431585","0.0-123.0-0.0","77766881","wem/bandit_party_2","AO2A12R6EG0KB","either","7","921","","","","","","","1","0","0","0.9666397243","","0.2","0.4","0.6","0.8","","","","","0.9403650082","0.8727424511","0.1486641529","0.9666397243","","","","","","","","","","76","L","3","","","82","main_expt",""
"","bandit","162","434233","0.0-124.0-0.0","77766881","wem/bandit_party_2","AO2A12R6EG0KB","either","7","707","","","","","","","1","0","0","0.9637330664","","0.2","0.4","0.6","0.8","","","","","0.9066396881","0.8283068274","0.1567811066","0.9637330664","","","","","","","","","","76","L","3","","","83","main_expt",""
"","bandit","163","436494","0.0-125.0-0.0","77766881","wem/bandit_party_2","AO2A12R6EG0KB","either","7","531","","","","","","","1","0","0","0.9617949183","","0.2","0.4","0.6","0.8","","","","","0.8962006295","0.8030064341","0.196091916","0.9617949183","","","","","","","","","","76","L","3","","","84","main_expt",""
"","bandit","164","438695","0.0-126.0-0.0","77766881","wem/bandit_party_2","AO2A12R6EG0KB","either","7","447","","","","","","","1","0","0","0.9561985801","","0.2","0.4","0.6","0.8","","","","","0.9093999993","0.8622567251","0.1512390112","0.9561985801","","","","","","","","","","76","L","3","","","85","main_expt",""
"","bandit","165","440671","0.0-127.0-0.0","77766881","wem/bandit_party_2","AO2A12R6EG0KB","either","7","458","","","","","","","1","0","0","0.9422505668","","0.2","0.4","0.6","0.8","","","","","0.9326862648","0.896584634","0.1486491559","0.9422505668","","","","","","","","","","76","L","3","","","86","main_expt",""
"","bandit","166","442764","0.0-128.0-0.0","77766881","wem/bandit_party_2","AO2A12R6EG0KB","either","7","538","","","","","","","1","0","0","0.926711091","","0.2","0.4","0.6","0.8","","","","","0.9039434857","0.9208758521","0.1047878604","0.926711091","","","","","","","","","","76","L","3","","","87","main_expt",""
"","bandit","167","444832","0.0-129.0-0.0","77766881","wem/bandit_party_2","AO2A12R6EG0KB","either","7","531","","","","","","","1","0","0","0.9092576496","","0.2","0.4","0.6","0.8","","","","","0.9195127861","0.9266301883","0.07038149384","0.9092576496","","","","","","","","","","76","L","3","","","88","main_expt",""
"","bandit","168","446857","0.0-130.0-0.0","77766881","wem/bandit_party_2","AO2A12R6EG0KB","either","7","498","","","","","","","1","0","0","0.8948591238","","0.2","0.4","0.6","0.8","","","","","0.9225053559","0.9259215542","0.1311535074","0.8948591238","","","","","","","","","","76","L","3","","","89","main_expt",""
"","bandit","169","448903","0.0-131.0-0.0","77766881","wem/bandit_party_2","AO2A12R6EG0KB","either","7","527","","","","","","","1","0","0","0.8716727139","","0.2","0.4","0.6","0.8","","","","","0.9014563988","0.9400480964","0.1241310956","0.8716727139","","","","","","","","","","76","L","3","","","90","main_expt",""
"","bandit","170","450976","0.0-132.0-0.0","77766881","wem/bandit_party_2","AO2A12R6EG0KB","either","7","557","","","","","","","0","0","1","0.8969144331","","0.2","0.4","0.6","0.8","","","","","0.9162570652","0.8961855863","0.09664170694","0.8969144331","","","","","","","","","","76","L","3","","","91","main_expt",""
"","bandit","171","453137","0.0-133.0-0.0","77766881","wem/bandit_party_2","AO2A12R6EG0KB","either","7","617","","","","","","","1","0","0","0.9171553871","","0.2","0.4","0.6","0.8","","","","","0.9171553871","0.9211437923","0.09586364307","0.9171199264","","","","","","","","","","72","H","0","img/none_selected.jpg","","92","main_expt",""
"","bandit","172","455181","0.0-134.0-0.0","77766881","wem/bandit_party_2","AO2A12R6EG0KB","either","7","508","","","","","","","0","1","0","","0.9463284029","0.2","0.4","0.6","0.8","0.9463284029","0.8947860396","0.08304118766","0.9593171332","","","","","","","","","","","","","","72","H","0","img/none_selected.jpg","","93","main_expt",""
"","bandit","173","457420","0.0-135.0-0.0","77766881","wem/bandit_party_2","AO2A12R6EG0KB","either","7","713","","","","","","","0","1","0","","0.9477079066","0.2","0.4","0.6","0.8","0.9477079066","0.822540961","0.1222865453","0.959226596","","","","","","","","","","","","","","72","H","0","img/none_selected.jpg","","94","main_expt",""
"","bandit","174","459529","0.0-136.0-0.0","77766881","wem/bandit_party_2","AO2A12R6EG0KB","either","7","521","","","","","","","0","1","0","","0.9474919074","0.2","0.4","0.6","0.8","0.9474919074","0.8288041746","0.211460517","0.947105423","","","","","","","","","","","","","","72","H","0","img/none_selected.jpg","","95","main_expt",""
"","bandit","175","461724","0.0-137.0-0.0","77766881","wem/bandit_party_2","AO2A12R6EG0KB","either","7","680","","","","","","","0","0","1","","0.9722490369","0.2","0.4","0.6","0.8","0.9722490369","0.8217366877","0.2757920232","0.937205139","","","","","","","","","","","","","","72","H","0","img/none_selected.jpg","","96","main_expt",""
"","bandit","176","463926","0.0-138.0-0.0","77766881","wem/bandit_party_2","AO2A12R6EG0KB","either","7","637","","","","","","","1","0","0","0.725285089","","0.2","0.4","0.6","0.8","","","","","0.980822097","0.725285089","0.2646876298","0.9472767204","","","","","","","","","","74","J","1","","","97","main_expt",""
"","bandit","177","466151","0.0-139.0-0.0","77766881","wem/bandit_party_2","AO2A12R6EG0KB","either","7","706","","","","","","","0","1","0","","0.7958966199","0.2","0.4","0.6","0.8","0.9761591307","0.7958966199","0.3278454636","0.962959595","","","","","","","","","","","","","","74","J","1","","","98","main_expt",""
"","bandit","178","468435","0.0-140.0-0.0","77766881","wem/bandit_party_2","AO2A12R6EG0KB","either","7","768","","","","","","","0","0","1","","0.7741840332","0.2","0.4","0.6","0.8","0.9597391097","0.7741840332","0.4641870332","0.9720903607","","","","","","","","","","","","","","74","J","1","","","99","main_expt",""
"","bandit","179","470404","0.0-141.0-0.0","77766881","wem/bandit_party_2","AO2A12R6EG0KB","either","7","451","","","","","","","0","1","0","","0.3972344865","0.2","0.4","0.6","0.8","0.9557148533","0.7934767162","0.3972344865","0.9737169538","","","","","","","","","","","","","","75","K","2","","","100","main_expt",""
"","bandit","180","472292","0.0-142.0-0.0","77766881","wem/bandit_party_2","AO2A12R6EG0KB","either","7","361","","","","","","","0","0","1","","0.4395304924","0.2","0.4","0.6","0.8","0.9687934467","0.8307638242","0.4395304924","0.986468331","","","","","","","","","","","","","","75","K","2","","","101","main_expt",""
"","bandit","181","474050","0.0-143.0-0.0","77766881","wem/bandit_party_2","AO2A12R6EG0KB","either","7","215","","","","","","","1","0","0","0.9859557102","","0.2","0.4","0.6","0.8","","","","","0.9713318577","0.7737236933","0.5248298482","0.9859557102","","","","","","","","","","76","L","3","","","102","main_expt",""
"","bandit","182","475985","0.0-144.0-0.0","77766881","wem/bandit_party_2","AO2A12R6EG0KB","either","7","417","","","","","","","1","0","0","0.9828698412","","0.2","0.4","0.6","0.8","","","","","0.9768128314","0.8168427084","0.6218364577","0.9828698412","","","","","","","","","","76","L","3","","","103","main_expt",""
"","bandit","183","478538","0.0-145.0-0.0","77766881","wem/bandit_party_2","AO2A12R6EG0KB","either","7","886","","","","","","","1","0","0","0.9655029871","","0.2","0.4","0.6","0.8","","","","","0.9566706727","0.7020104164","0.5528563194","0.9655029871","","","","","","","","","","76","L","3","","","104","main_expt",""
"","bandit","184","480538","0.0-146.0-0.0","77766881","wem/bandit_party_2","AO2A12R6EG0KB","either","7","174","","","","","","","1","0","0","0.9587067199","","0.2","0.4","0.6","0.8","","","","","0.9352711559","0.6750414237","0.515821512","0.9587067199","","","","","","","","","","76","L","3","","","105","main_expt",""
"","bandit","185","482738","0.0-147.0-0.0","77766881","wem/bandit_party_2","AO2A12R6EG0KB","either","7","675","","","","","","","1","0","0","0.9358961366","","0.2","0.4","0.6","0.8","","","","","0.8980036198","0.5886413089","0.5380341879","0.9358961366","","","","","","","","","","76","L","3","","","106","main_expt",""
"","bandit","186","484990","0.0-148.0-0.0","77766881","wem/bandit_party_2","AO2A12R6EG0KB","either","7","627","","","","","","","1","0","0","0.8829949032","","0.2","0.4","0.6","0.8","","","","","0.9175797088","0.5507707533","0.3291998873","0.8829949032","","","","","","","","","","76","L","3","","","107","main_expt",""
"","bandit","187","487449","0.0-149.0-0.0","77766881","wem/bandit_party_2","AO2A12R6EG0KB","either","7","823","","","","","","","0","1","0","","0.7668100276","0.2","0.4","0.6","0.8","0.8966825343","0.4325904974","0.3608627265","0.7668100276","","","","","","","","","","","","","","76","L","3","","","108","main_expt",""
"","bandit","188","489559","0.0-150.0-0.0","77766881","wem/bandit_party_2","AO2A12R6EG0KB","either","7","549","","","","","","","0","0","1","0.7652463225","","0.2","0.4","0.6","0.8","","","","","0.8883819791","0.3735159861","0.3837942066","0.7652463225","","","","","","","","","","76","L","3","","","109","main_expt",""
"","bandit","189","491428","0.0-151.0-0.0","77766881","wem/bandit_party_2","AO2A12R6EG0KB","either","7","332","","","","","","","0","1","0","","0.9087011364","0.2","0.4","0.6","0.8","0.9087011364","0.3704440872","0.3019365294","0.7974745759","","","","","","","","","","","","","","72","H","0","img/none_selected.jpg","","110","main_expt",""
"","bandit","190","493526","0.0-152.0-0.0","77766881","wem/bandit_party_2","AO2A12R6EG0KB","either","7","483","","","","","","","0","1","0","","0.9337026812","0.2","0.4","0.6","0.8","0.9337026812","0.2749067499","0.3483008865","0.812352323","","","","","","","","","","","","","","72","H","0","img/none_selected.jpg","","111","main_expt",""
"","bandit","191","495763","0.0-153.0-0.0","77766881","wem/bandit_party_2","AO2A12R6EG0KB","either","7","694","","","","","","","0","0","1","","0.9113388615","0.2","0.4","0.6","0.8","0.9113388615","0.2734667401","0.4342302697","0.7428975936","","","","","","","","","","","","","","72","H","0","img/none_selected.jpg","","112","main_expt",""
"","bandit","192","497825","0.0-154.0-0.0","77766881","wem/bandit_party_2","AO2A12R6EG0KB","either","7","475","","","","","","","0","0","1","","0.2291946885","0.2","0.4","0.6","0.8","0.8980528729","0.2291946885","0.5187246657","0.7139653514","","","","","","","","","","","","","","74","J","1","","","113","main_expt",""
"","bandit","193","500425","0.0-155.0-0.0","77766881","wem/bandit_party_2","AO2A12R6EG0KB","either","7","567","","","","","","","0","0","1","","0.5381742134","0.2","0.4","0.6","0.8","0.8036326458","0.2413339081","0.5381742134","0.7945657698","","","","","","","","","","","","","","75","K","2","","","114","main_expt",""
"","bandit","194","502059","0.0-156.0-0.0","77766881","wem/bandit_party_2","AO2A12R6EG0KB","either","7","79","","","","","","","0","1","0","","0.8405588069","0.2","0.4","0.6","0.8","0.8700945717","0.3092826039","0.4785029821","0.8405588069","","","","","","","","","","","","","","76","L","3","","","115","main_expt",""
"","bandit","195","504073","0.0-157.0-0.0","77766881","wem/bandit_party_2","AO2A12R6EG0KB","either","7","485","","","","","","","0","0","1","0.8641798474","","0.2","0.4","0.6","0.8","","","","","0.8895114993","0.2361366225","0.4654757386","0.8641798474","","","","","","","","","","76","L","3","","","116","main_expt",""
"","bandit","196","506056","0.0-158.0-0.0","77766881","wem/bandit_party_2","AO2A12R6EG0KB","either","7","441","","","","","","","0","1","0","","0.8936856952","0.2","0.4","0.6","0.8","0.8936856952","0.218402711","0.4578633225","0.8756768431","","","","","","","","","","","","","","72","H","0","img/none_selected.jpg","","117","main_expt",""
"","bandit","197","508082","0.0-159.0-0.0","77766881","wem/bandit_party_2","AO2A12R6EG0KB","either","7","495","","","","","","","0","1","0","","0.8077127093","0.2","0.4","0.6","0.8","0.8077127093","0.2003641109","0.4773941538","0.9015269718","","","","","","","","","","","","","","72","H","0","img/none_selected.jpg","","118","main_expt",""
"","bandit","198","510329","0.0-160.0-0.0","77766881","wem/bandit_party_2","AO2A12R6EG0KB","either","7","705","","","","","","","0","0","1","0.8901108642","","0.2","0.4","0.6","0.8","","","","","0.8901108642","0.1375137305","0.508374463","0.8709738884","","","","","","","","","","72","H","0","img/none_selected.jpg","","119","main_expt",""
"","bandit","199","512480","0.0-161.0-0.0","77766881","wem/bandit_party_2","AO2A12R6EG0KB","either","7","468","","","","","","","0","0","1","","0.08656631556","0.2","0.4","0.6","0.8","0.8731124259","0.08656631556","0.4294310012","0.8268338002","","","","","","","","","","","","","","74","J","1","","","120","main_expt",""
"","bandit","200","514445","0.0-162.0-0.0","77766881","wem/bandit_party_2","AO2A12R6EG0KB","either","7","412","","","","","","","0","1","0","","0.3933985885","0.2","0.4","0.6","0.8","0.8509174952","0.07812634859","0.3933985885","0.8432616236","","","","","","","","","","","","","","75","K","2","","","121","main_expt",""
"","bandit","201","516423","0.0-163.0-0.0","77766881","wem/bandit_party_2","AO2A12R6EG0KB","either","7","462","","","","","","","0","1","0","","0.2641409089","0.2","0.4","0.6","0.8","0.8707856005","0.09046411854","0.2641409089","0.8128728295","","","","","","","","","","","","","","75","K","2","","","122","main_expt",""
"","bandit","202","518399","0.0-164.0-0.0","77766881","wem/bandit_party_2","AO2A12R6EG0KB","either","7","460","","","","","","","0","0","1","","0.2491349268","0.2","0.4","0.6","0.8","0.7592524618","0.1132512529","0.2491349268","0.752198112","","","","","","","","","","","","","","75","K","2","","","123","main_expt",""
"","bandit","203","520351","0.0-165.0-0.0","77766881","wem/bandit_party_2","AO2A12R6EG0KB","either","7","428","","","","","","","0","0","1","","0.7117781612","0.2","0.4","0.6","0.8","0.7330206325","0.09419269712","0.2587226179","0.7117781612","","","","","","","","","","","","","","76","L","3","","","124","main_expt",""
"","bandit","204","522319","0.0-166.0-0.0","77766881","wem/bandit_party_2","AO2A12R6EG0KB","either","7","443","","","","","","","1","0","0","0.6903693331","","0.2","0.4","0.6","0.8","","","","","0.6903693331","0.110513045","0.2925679814","0.7177409252","","","","","","","","","","72","H","0","img/none_selected.jpg","","125","main_expt",""
"","bandit","205","524314","0.0-167.0-0.0","77766881","wem/bandit_party_2","AO2A12R6EG0KB","either","7","475","","","","","","","0","1","0","","0.6370641568","0.2","0.4","0.6","0.8","0.6370641568","0.07088043536","0.3997536411","0.7240917845","","","","","","","","","","","","","","72","H","0","img/none_selected.jpg","","126","main_expt",""
"","bandit","206","526324","0.0-168.0-0.0","77766881","wem/bandit_party_2","AO2A12R6EG0KB","either","7","489","","","","","","","0","1","0","","0.6192694325","0.2","0.4","0.6","0.8","0.6192694325","0.1041728595","0.4120812041","0.6788578752","","","","","","","","","","","","","","72","H","0","img/none_selected.jpg","","127","main_expt",""
"","bandit","207","528755","0.0-169.0-0.0","77766881","wem/bandit_party_2","AO2A12R6EG0KB","either","7","464","","","","","","","1","0","0","0.559348281","","0.2","0.4","0.6","0.8","","","","","0.559348281","0.1006708935","0.3731276689","0.6257789885","","","","","","","","","","72","H","0","img/none_selected.jpg","","128","main_expt",""
"","bandit","208","531153","0.0-170.0-0.0","77766881","wem/bandit_party_2","AO2A12R6EG0KB","either","7","484","","","","","","","0","0","1","","0.610360397","0.2","0.4","0.6","0.8","0.610360397","0.1336488566","0.3263017501","0.4761868647","","","","","","","","","","","","","","72","H","0","img/none_selected.jpg","","129","main_expt",""
"","bandit","209","533053","0.0-171.0-0.0","77766881","wem/bandit_party_2","AO2A12R6EG0KB","either","7","361","","","","","","","0","0","1","0.1271550391","","0.2","0.4","0.6","0.8","","","","","0.5737783772","0.1271550391","0.3226142564","0.4745188583","","","","","","","","","","74","J","1","","","130","main_expt",""
"","bandit","210","535050","0.0-172.0-0.0","77766881","wem/bandit_party_2","AO2A12R6EG0KB","either","7","445","","","","","","","1","0","0","0.3907136596","","0.2","0.4","0.6","0.8","","","","","0.6252154127","0.1594360192","0.3907136596","0.4674409752","","","","","","","","","","75","K","2","","","131","main_expt",""
"","bandit","211","537528","0.0-173.0-0.0","77766881","wem/bandit_party_2","AO2A12R6EG0KB","either","7","467","","","","","","","1","0","0","0.4983036492","","0.2","0.4","0.6","0.8","","","","","0.6473056352","0.1027658661","0.4983036492","0.368649462","","","","","","","","","","75","K","2","","","132","main_expt",""
"","bandit","212","540371","0.0-174.0-0.0","77766881","wem/bandit_party_2","AO2A12R6EG0KB","either","7","516","","","","","","","0","0","1","0.6347393695","","0.2","0.4","0.6","0.8","","","","","0.4595123468","0.1223548883","0.6347393695","0.4313577514","","","","","","","","","","75","K","2","","","133","main_expt",""
"","bandit","213","543804","0.0-175.0-0.0","77766881","wem/bandit_party_2","AO2A12R6EG0KB","either","7","431","","","","","","","0","1","0","","0.3692150919","0.2","0.4","0.6","0.8","0.3043385566","0.1063029331","0.6037412299","0.3692150919","","","","","","","","","","","","","","76","L","3","","","134","main_expt",""
"","bandit","214","547050","0.0-176.0-0.0","77766881","wem/bandit_party_2","AO2A12R6EG0KB","either","7","613","","","","","","","1","0","0","0.3077662431","","0.2","0.4","0.6","0.8","","","","","0.340857567","0.080644856","0.5511090861","0.3077662431","","","","","","","","","","76","L","3","","","135","main_expt",""
"","bandit","215","549077","0.0-177.0-0.0","77766881","wem/bandit_party_2","AO2A12R6EG0KB","either","7","426","","","","","","","0","0","1","","0.314969588","0.2","0.4","0.6","0.8","0.2655810755","0.1359867045","0.585911414","0.314969588","","","","","","","","","","","","","","76","L","3","","","136","main_expt",""
"","bandit","216","551141","0.0-178.0-0.0","77766881","wem/bandit_party_2","AO2A12R6EG0KB","either","7","422","","","","","","","0","0","1","","0.3025530854","0.2","0.4","0.6","0.8","0.3025530854","0.168344283","0.5805905743","0.3590847215","","","","","","","","","","","","","","72","H","0","img/none_selected.jpg","","137","main_expt",""
"","bandit","217","553331","0.0-179.0-0.0","77766881","wem/bandit_party_2","AO2A12R6EG0KB","either","7","637","","","","","","","0","0","1","","0.1867455324","0.2","0.4","0.6","0.8","0.2888348812","0.1867455324","0.6357737786","0.3588584756","","","","","","","","","","","","","","74","J","1","","","138","main_expt",""
"","bandit","218","555477","0.0-180.0-0.0","77766881","wem/bandit_party_2","AO2A12R6EG0KB","either","7","617","","","","","","","0","1","0","","0.66639317","0.2","0.4","0.6","0.8","0.2463208975","0.2277874407","0.66639317","0.4289761638","","","","","","","","","","","","","","75","K","2","","","139","main_expt",""
"","bandit","219","557568","0.0-181.0-0.0","77766881","wem/bandit_party_2","AO2A12R6EG0KB","either","7","536","","","","","","","0","0","1","","0.6365789307","0.2","0.4","0.6","0.8","0.273109751","0.2577820179","0.6365789307","0.3801639999","","","","","","","","","","","","","","75","K","2","","","140","main_expt",""
"","bandit","220","559559","0.0-182.0-0.0","77766881","wem/bandit_party_2","AO2A12R6EG0KB","either","7","469","","","","","","","0","0","1","0.2445936549","","0.2","0.4","0.6","0.8","","","","","0.3355442787","0.3674069736","0.6045632144","0.2445936549","","","","","","","","","","76","L","3","","","141","main_expt",""
"","bandit","221","561775","0.0-183.0-0.0","77766881","wem/bandit_party_2","AO2A12R6EG0KB","either","7","686","","","","","","","0","1","0","","0.2781999234","0.2","0.4","0.6","0.8","0.2781999234","0.4345417514","0.5148607161","0.3394066497","","","","","","","","","","","","","","72","H","0","img/none_selected.jpg","","142","main_expt",""
"","bandit","222","564183","0.0-184.0-0.0","77766881","wem/bandit_party_2","AO2A12R6EG0KB","either","7","692","","","","","","","0","1","0","","0.2599467226","0.2","0.4","0.6","0.8","0.2599467226","0.3811672827","0.4754154836","0.2899754881","","","","","","","","","","","","","","72","H","0","img/none_selected.jpg","","143","main_expt",""
"","bandit","223","566644","0.0-185.0-0.0","77766881","wem/bandit_party_2","AO2A12R6EG0KB","either","7","902","","","","","","","0","0","1","0.2353144144","","0.2","0.4","0.6","0.8","","","","","0.2353144144","0.2754059391","0.516029258","0.3701332444","","","","","","","","","","72","H","0","img/none_selected.jpg","","144","main_expt",""
"","bandit","224","568908","0.0-186.0-0.0","77766881","wem/bandit_party_2","AO2A12R6EG0KB","either","7","728","","","","","","","0","0","1","0.2773400324","","0.2","0.4","0.6","0.8","","","","","0.2120114759","0.2773400324","0.6646605279","0.3322753171","","","","","","","","","","74","J","1","","","145","main_expt",""
"","bandit","225","571021","0.0-187.0-0.0","77766881","wem/bandit_party_2","AO2A12R6EG0KB","either","7","569","","","","","","","0","0","1","0.6331546467","","0.2","0.4","0.6","0.8","","","","","0.176067728","0.2780426824","0.6331546467","0.3203507811","","","","","","","","","","75","K","2","","","146","main_expt",""
"","bandit","226","573501","0.0-188.0-0.0","77766881","wem/bandit_party_2","AO2A12R6EG0KB","either","7","734","","","","","","","0","1","0","","0.6356747602","0.2","0.4","0.6","0.8","0.1329453439","0.3373608721","0.6356747602","0.304761248","","","","","","","","","","","","","","75","K","2","","","147","main_expt",""
"","bandit","227","575110","0.0-189.0-0.0","77766881","wem/bandit_party_2","AO2A12R6EG0KB","either","7","70","","","","","","","0","0","1","","0.6301772709","0.2","0.4","0.6","0.8","0.1465103875","0.3529594122","0.6301772709","0.3809280674","","","","","","","","","","","","","","75","K","2","","","148","main_expt",""
"","bandit","228","576960","0.0-190.0-0.0","77766881","wem/bandit_party_2","AO2A12R6EG0KB","either","7","317","","","","","","","1","0","0","0.3997986218","","0.2","0.4","0.6","0.8","","","","","0.1190451538","0.3878328211","0.6640591829","0.3997986218","","","","","","","","","","76","L","3","","","149","main_expt",""
"","bandit","229","579011","0.0-191.0-0.0","77766881","wem/bandit_party_2","AO2A12R6EG0KB","either","7","520","","","","","","","1","0","0","0.3159341416","","0.2","0.4","0.6","0.8","","","","","0.1195570164","0.42943501","0.6592717552","0.3159341416","","","","","","","","","","76","L","3","","","150","main_expt",""
"","bandit","230","581302","0.0-192.0-0.0","77766881","wem/bandit_party_2","AO2A12R6EG0KB","either","7","564","","","","","","","0","0","1","0.3052853957","","0.2","0.4","0.6","0.8","","","","","0.100492686","0.5142681232","0.5928743102","0.3052853957","","","","","","","","","","76","L","3","","","151","main_expt",""
"","bandit","231","583053","0.0-193.0-0.0","77766881","wem/bandit_party_2","AO2A12R6EG0KB","either","7","85","","","","","","","0","0","1","","0.1030367897","0.2","0.4","0.6","0.8","0.1030367897","0.6321073962","0.6822187145","0.1896018403","","","","","","","","","","","","","","72","H","0","img/none_selected.jpg","","152","main_expt",""
"","bandit","232","585739","0.0-194.0-0.0","77766881","wem/bandit_party_2","AO2A12R6EG0KB","either","7","303","","","","","","","0","1","0","","0.6965670792","0.2","0.4","0.6","0.8","0.2059045691","0.6965670792","0.6832005509","0.2439656658","","","","","","","","","","","","","","74","J","1","","","153","main_expt",""
"","bandit","233","588000","0.0-195.0-0.0","77766881","wem/bandit_party_2","AO2A12R6EG0KB","either","7","563","","","","","","","0","1","0","","0.6516005735","0.2","0.4","0.6","0.8","0.2921647579","0.6516005735","0.7109729062","0.3068434149","","","","","","","","","","","","","","74","J","1","","","154","main_expt",""
"","bandit","234","590035","0.0-196.0-0.0","77766881","wem/bandit_party_2","AO2A12R6EG0KB","either","7","410","","","","","","","0","1","0","","0.7291318088","0.2","0.4","0.6","0.8","0.1789694193","0.7291318088","0.6975465092","0.2314644909","","","","","","","","","","","","","","74","J","1","","","155","main_expt",""
"","bandit","235","592038","0.0-197.0-0.0","77766881","wem/bandit_party_2","AO2A12R6EG0KB","either","7","426","","","","","","","0","0","1","","0.6273572288","0.2","0.4","0.6","0.8","0.2187195075","0.6273572288","0.6580608271","0.2154001061","","","","","","","","","","","","","","74","J","1","","","156","main_expt",""
"","bandit","236","594159","0.0-198.0-0.0","77766881","wem/bandit_party_2","AO2A12R6EG0KB","either","7","459","","","","","","","1","0","0","0.5695802138","","0.2","0.4","0.6","0.8","","","","","0.2669834713","0.566197257","0.5695802138","0.1648135251","","","","","","","","","","75","K","2","","","157","main_expt",""
"","bandit","237","596144","0.0-199.0-0.0","77766881","wem/bandit_party_2","AO2A12R6EG0KB","either","7","394","","","","","","","1","0","0","0.4733954301","","0.2","0.4","0.6","0.8","","","","","0.4240307821","0.4523642269","0.4733954301","0.2215973425","","","","","","","","","","75","K","2","","","158","main_expt",""
"","bandit","238","598166","0.0-200.0-0.0","77766881","wem/bandit_party_2","AO2A12R6EG0KB","either","7","480","","","","","","","0","1","0","","0.5619817243","0.2","0.4","0.6","0.8","0.3840951437","0.3991212054","0.5619817243","0.2243274726","","","","","","","","","","","","","","75","K","2","","","159","main_expt",""
"","bandit","239","600082","0.0-201.0-0.0","77766881","wem/bandit_party_2","AO2A12R6EG0KB","either","7","371","","","","","","","0","0","1","0.4701658979","","0.2","0.4","0.6","0.8","","","","","0.4098147986","0.3566558104","0.4701658979","0.2061161075","","","","","","","","","","75","K","2","","","160","main_expt",""
"","bandit","240","602163","0.0-202.0-0.0","77766881","wem/bandit_party_2","AO2A12R6EG0KB","either","7","504","","","","","","","0","0","1","0.209200141","","0.2","0.4","0.6","0.8","","","","","0.4027252302","0.4430908041","0.5673671472","0.209200141","","","","","","","","","","76","L","3","","","161","main_expt",""
"","bandit","241","603832","0.0-203.0-0.0","77766881","wem/bandit_party_2","AO2A12R6EG0KB","either","7","137","","","","","","","0","0","1","","0.3824170733","0.2","0.4","0.6","0.8","0.3824170733","0.3966098285","0.4921809208","0.1477343718","","","","","","","","","","","","","","72","H","0","img/none_selected.jpg","","162","main_expt",""
"","bandit","242","605772","0.0-204.0-0.0","77766881","wem/bandit_party_2","AO2A12R6EG0KB","either","7","352","","","","","","","0","0","1","0.3455868331","","0.2","0.4","0.6","0.8","","","","","0.3352280924","0.3455868331","0.4204505308","0.1525050104","","","","","","","","","","74","J","1","","","163","main_expt",""
"","bandit","243","607748","0.0-205.0-0.0","77766881","wem/bandit_party_2","AO2A12R6EG0KB","either","7","432","","","","","","","1","0","0","0.534748173","","0.2","0.4","0.6","0.8","","","","","0.3379187571","0.3368969945","0.534748173","0.08831047354","","","","","","","","","","75","K","2","","","164","main_expt",""
"","bandit","244","610009","0.0-206.0-0.0","77766881","wem/bandit_party_2","AO2A12R6EG0KB","either","7","726","","","","","","","0","1","0","","0.4724966102","0.2","0.4","0.6","0.8","0.3160546663","0.3767562303","0.4724966102","0.1035482763","","","","","","","","","","","","","","75","K","2","","","165","main_expt",""
"","bandit","245","612012","0.0-207.0-0.0","77766881","wem/bandit_party_2","AO2A12R6EG0KB","either","7","466","","","","","","","0","0","1","0.5280505203","","0.2","0.4","0.6","0.8","","","","","0.3058359067","0.4727650462","0.5280505203","0.06888190676","","","","","","","","","","75","K","2","","","166","main_expt",""
"","bandit","246","613914","0.0-208.0-0.0","77766881","wem/bandit_party_2","AO2A12R6EG0KB","either","7","346","","","","","","","0","0","1","0.06051452263","","0.2","0.4","0.6","0.8","","","","","0.2561334246","0.6140635231","0.589670135","0.06051452263","","","","","","","","","","76","L","3","","","167","main_expt",""
"","bandit","247","615845","0.0-209.0-0.0","77766881","wem/bandit_party_2","AO2A12R6EG0KB","either","7","406","","","","","","","0","0","1","","0.2459084815","0.2","0.4","0.6","0.8","0.2459084815","0.5629225295","0.5058201204","0.07905307949","","","","","","","","","","","","","","72","H","0","img/none_selected.jpg","","168","main_expt",""
"","bandit","248","617811","0.0-210.0-0.0","77766881","wem/bandit_party_2","AO2A12R6EG0KB","either","7","385","","","","","","","0","0","1","0.6456076899","","0.2","0.4","0.6","0.8","","","","","0.2138460752","0.6456076899","0.4102709571","0.07051596905","","","","","","","","","","74","J","1","","","169","main_expt",""
"","bandit","249","619664","0.0-211.0-0.0","77766881","wem/bandit_party_2","AO2A12R6EG0KB","either","7","330","","","","","","","0","1","0","","0.5061826445","0.2","0.4","0.6","0.8","0.1642406351","0.719827795","0.5061826445","0.1056762318","","","","","","","","","","","","","","75","K","2","","","170","main_expt",""
"","bandit","250","621505","0.0-212.0-0.0","77766881","wem/bandit_party_2","AO2A12R6EG0KB","either","7","318","","","","","","","0","0","1","0.6092158501","","0.2","0.4","0.6","0.8","","","","","0.2337150112","0.6716280274","0.6092158501","0.1513980822","","","","","","","","","","75","K","2","","","171","main_expt",""
"","bandit","251","623578","0.0-213.0-0.0","77766881","wem/bandit_party_2","AO2A12R6EG0KB","either","7","528","","","","","","","0","0","1","0.1552293495","","0.2","0.4","0.6","0.8","","","","","0.3128682212","0.5683226388","0.691496366","0.1552293495","","","","","","","","","","76","L","3","","","172","main_expt",""
"","bandit","252","635522","0.0-214.0-0.0","77766881","wem/bandit_party_2","AO2A12R6EG0KB","either","7","10212","","","","","","","0","1","0","","0.2775517843","0.2","0.4","0.6","0.8","0.2775517843","0.4581357746","0.7402253768","0.1325975083","","","","","","","","","","","","","","72","H","0","img/none_selected.jpg","","173","main_expt",""
"","bandit","253","637689","0.0-215.0-0.0","77766881","wem/bandit_party_2","AO2A12R6EG0KB","either","7","545","","","","","","","0","0","1","","0.4159305855","0.2","0.4","0.6","0.8","0.4159305855","0.5903479164","0.6601004511","0.09024892351","","","","","","","","","","","","","","72","H","0","img/none_selected.jpg","","174","main_expt",""
"","bandit","254","639879","0.0-216.0-0.0","77766881","wem/bandit_party_2","AO2A12R6EG0KB","either","7","564","","","","","","","0","1","0","","0.5658285383","0.2","0.4","0.6","0.8","0.4471770837","0.5658285383","0.6781732273","0.06963745108","","","","","","","","","","","","","","74","J","1","","","175","main_expt",""
"","bandit","255","642026","0.0-217.0-0.0","77766881","wem/bandit_party_2","AO2A12R6EG0KB","either","7","567","","","","","","","0","0","1","0.5313506173","","0.2","0.4","0.6","0.8","","","","","0.5162211083","0.5313506173","0.6932650799","0.07897043431","","","","","","","","","","74","J","1","","","176","main_expt",""
"","bandit","256","644664","0.0-218.0-0.0","77766881","wem/bandit_party_2","AO2A12R6EG0KB","either","7","1089","","","","","","","1","0","0","0.6803850572","","0.2","0.4","0.6","0.8","","","","","0.6372676231","0.4231289234","0.6803850572","0.09469685393","","","","","","","","","","75","K","2","","","177","main_expt",""
"","bandit","257","647108","0.0-219.0-0.0","77766881","wem/bandit_party_2","AO2A12R6EG0KB","either","7","566","","","","","","","0","0","1","0.5407017663","","0.2","0.4","0.6","0.8","","","","","0.6295749113","0.580807006","0.5407017663","0.1486386852","","","","","","","","","","75","K","2","","","178","main_expt",""
"","bandit","258","649546","0.0-220.0-0.0","77766881","wem/bandit_party_2","AO2A12R6EG0KB","either","7","490","","","","","","","0","1","0","","0.5931576708","0.2","0.4","0.6","0.8","0.4126066341","0.5499948007","0.5931576708","0.1965095934","","","","","","","","","","","","","","75","K","2","","","179","main_expt",""
"","bandit","259","651515","0.0-221.0-0.0","77766881","wem/bandit_party_2","AO2A12R6EG0KB","either","7","417","","","","","","","1","0","0","0.5390819372","","0.2","0.4","0.6","0.8","","","","","0.516991344","0.4918200669","0.5390819372","0.1749048096","","","","","","","","","","75","K","2","","","180","main_expt",""
"","bandit","260","653946","0.0-222.0-0.0","77766881","wem/bandit_party_2","AO2A12R6EG0KB","either","7","820","","","","","","","1","0","0","0.4929910299","","0.2","0.4","0.6","0.8","","","","","0.4239603033","0.5428702931","0.4929910299","0.232896561","","","","","","","","","","75","K","2","","","181","main_expt",""
"","bandit","261","655921","0.0-223.0-0.0","77766881","wem/bandit_party_2","AO2A12R6EG0KB","either","7","433","","","","","","","0","0","1","0.458433212","","0.2","0.4","0.6","0.8","","","","","0.3961891141","0.5870547156","0.458433212","0.2561822725","","","","","","","","","","75","K","2","","","182","main_expt",""
"","bandit","262","658136","0.0-224.0-0.0","77766881","wem/bandit_party_2","AO2A12R6EG0KB","either","7","637","","","","","","","0","0","1","0.5725449786","","0.2","0.4","0.6","0.8","","","","","0.4364601233","0.5031908535","0.5725449786","0.2713883962","","","","","","","","","","75","K","2","","","183","main_expt",""
"","bandit","263","660898","0.0-225.0-0.0","77766881","wem/bandit_party_2","AO2A12R6EG0KB","either","7","1225","","","","","","","1","0","0","0.3543557679","","0.2","0.4","0.6","0.8","","","","","0.4826964198","0.4239978994","0.4878383732","0.3543557679","","","","","","","","","","76","L","3","","","184","main_expt",""
"","bandit","264","662985","0.0-226.0-0.0","77766881","wem/bandit_party_2","AO2A12R6EG0KB","either","7","549","","","","","","","1","0","0","0.2974533566","","0.2","0.4","0.6","0.8","","","","","0.4448789548","0.3425545299","0.5189350158","0.2974533566","","","","","","","","","","76","L","3","","","185","main_expt",""
"","bandit","265","666257","0.0-227.0-0.0","77766881","wem/bandit_party_2","AO2A12R6EG0KB","either","7","1732","","","","","","","0","0","1","","0.3295130888","0.2","0.4","0.6","0.8","0.4585835861","0.2594221554","0.4310300585","0.3295130888","","","","","","","","","","","","","","76","L","3","","","186","main_expt",""
"","bandit","266","668912","0.0-228.0-0.0","77766881","wem/bandit_party_2","AO2A12R6EG0KB","either","7","1104","","","","","","","1","0","0","0.3440574025","","0.2","0.4","0.6","0.8","","","","","0.5470412386","0.350747246","0.4005994516","0.3440574025","","","","","","","","","","76","L","3","","","187","main_expt",""
"","bandit","267","671347","0.0-229.0-0.0","77766881","wem/bandit_party_2","AO2A12R6EG0KB","either","7","914","","","","","","","0","0","1","0.3176863717","","0.2","0.4","0.6","0.8","","","","","0.5485419855","0.3667816541","0.5684333967","0.3176863717","","","","","","","","","","76","L","3","","","188","main_expt",""
"","bandit","268","674543","0.0-230.0-0.0","77766881","wem/bandit_party_2","AO2A12R6EG0KB","either","7","1674","","","","","","","0","0","1","0.3194332301","","0.2","0.4","0.6","0.8","","","","","0.6161015427","0.3129240978","0.5768443477","0.3194332301","","","","","","","","","","76","L","3","","","189","main_expt",""
"","bandit","269","678570","0.0-231.0-0.0","77766881","wem/bandit_party_2","AO2A12R6EG0KB","either","7","2502","","","","","","","0","0","1","","0.3585260795","0.2","0.4","0.6","0.8","0.5145576236","0.3681084497","0.6091254975","0.3585260795","","","","","","","","","","","","","","76","L","3","","","190","main_expt",""
"","bandit","270","680798","0.0-232.0-0.0","77766881","wem/bandit_party_2","AO2A12R6EG0KB","either","7","705","","","","","","","0","0","1","","0.4447609651","0.2","0.4","0.6","0.8","0.4447609651","0.3284994938","0.6355225437","0.4438822556","","","","","","","","","","","","","","72","H","0","img/none_selected.jpg","","191","main_expt",""
"","bandit","271","683824","0.0-233.0-0.0","77766881","wem/bandit_party_2","AO2A12R6EG0KB","either","7","1507","","","","","","","0","0","1","","0.4273979598","0.2","0.4","0.6","0.8","0.4273979598","0.2913335268","0.7449996868","0.6336907385","","","","","","","","","","","","","","72","H","0","img/none_selected.jpg","","192","main_expt",""
"","bandit","272","686199","0.0-234.0-0.0","77766881","wem/bandit_party_2","AO2A12R6EG0KB","either","7","775","","","","","","","0","0","1","","0.3614904019","0.2","0.4","0.6","0.8","0.4382354048","0.3614904019","0.7645281636","0.5871300795","","","","","","","","","","","","","","74","J","1","","","193","main_expt",""
"","bandit","273","688861","0.0-235.0-0.0","77766881","wem/bandit_party_2","AO2A12R6EG0KB","either","7","964","","","","","","","1","0","0","0.4180963095","","0.2","0.4","0.6","0.8","","","","","0.4367950698","0.4180963095","0.7417458559","0.5919999684","","","","","","","","","","74","J","1","","","194","main_expt",""
"","bandit","274","692819","0.0-236.0-0.0","77766881","wem/bandit_party_2","AO2A12R6EG0KB","either","7","2090","","","","","","","0","1","0","","0.7102393491","0.2","0.4","0.6","0.8","0.4306922929","0.4129416526","0.7102393491","0.5599221581","","","","","","","","","","","","","","75","K","2","","","195","main_expt",""
"","bandit","275","694897","0.0-237.0-0.0","77766881","wem/bandit_party_2","AO2A12R6EG0KB","either","7","445","","","","","","","0","1","0","","0.6846894693","0.2","0.4","0.6","0.8","0.4436260943","0.6027995291","0.6846894693","0.4552797342","","","","","","","","","","","","","","75","K","2","","","196","main_expt",""
"","bandit","276","696738","0.0-238.0-0.0","77766881","wem/bandit_party_2","AO2A12R6EG0KB","either","7","117","","","","","","","1","0","0","0.6573901597","","0.2","0.4","0.6","0.8","","","","","0.4547077395","0.6174547511","0.6573901597","0.3045440077","","","","","","","","","","75","K","2","","","197","main_expt",""
"","bandit","277","698385","0.0-239.0-0.0","77766881","wem/bandit_party_2","AO2A12R6EG0KB","either","7","1","","","","","","","1","0","0","0.4061180554","","0.2","0.4","0.6","0.8","","","","","0.545148617","0.5727893511","0.7020762336","0.4061180554","","","","","","","","","","76","L","3","","","198","main_expt",""
"","bandit","278","700040","0.0-240.0-0.0","77766881","wem/bandit_party_2","AO2A12R6EG0KB","either","7","115","","","","","","","1","0","0","0.7749867965","","0.2","0.4","0.6","0.8","","","","","0.5838562778","0.5803616598","0.7749867965","0.3406873398","","","","","","","","","","75","K","2","","","199","main_expt",""
"","bandit","279","701683","0.0-241.0-0.0","77766881","wem/bandit_party_2","AO2A12R6EG0KB","either","7","76","","","","","","","1","0","0","0.5109940584","","0.2","0.4","0.6","0.8","","","","","0.6569131065","0.5109940584","0.7971262248","0.2810551981","","","","","","","","","","74","J","1","","","200","main_expt",""
"","bandit","280","703807","0.0-242.0-0.0","77766881","wem/bandit_party_2","AO2A12R6EG0KB","either","7","157","","","","","","","0","0","1","","0.6559739125","0.2","0.4","0.6","0.8","0.6559739125","0.444158281","0.6431063495","0.2295892347","","","","","","","","","","","","","","72","H","0","img/none_selected.jpg","","201","main_expt",""
"","bandit","281","705798","0.0-243.0-0.0","77766881","wem/bandit_party_2","AO2A12R6EG0KB","either","7","94","","","","","","","0","0","1","","0.6153479028","0.2","0.4","0.6","0.8","0.5940698896","0.3774362348","0.6153479028","0.2134833186","","","","","","","","","","","","","","75","K","2","","","202","main_expt",""
"","bandit","282","709335","0.0-244.0-0.0","77766881","wem/bandit_party_2","AO2A12R6EG0KB","either","7","118","","","","","","","0","0","1","","0.6288005559","0.2","0.4","0.6","0.8","0.6288005559","0.2852638898","0.6107921693","0.1538434825","","","","","","","","","","","","","","72","H","0","img/none_selected.jpg","","203","main_expt",""
"","bandit","283","710933","0.0-245.0-0.0","77766881","wem/bandit_party_2","AO2A12R6EG0KB","either","7","1","","","","","","","0","0","1","","0.6364312764","0.2","0.4","0.6","0.8","0.7483345684","0.3900316507","0.6364312764","0.08629221539","","","","","","","","","","","","","","75","K","2","","","204","main_expt",""
"","bandit","284","712611","0.0-246.0-0.0","77766881","wem/bandit_party_2","AO2A12R6EG0KB","either","7","148","","","","","","","0","0","1","0.3334674042","","0.2","0.4","0.6","0.8","","","","","0.7823609999","0.3334674042","0.7098325313","0.1303029892","","","","","","","","","","74","J","1","","","205","main_expt",""
"","bandit","285","714358","0.0-247.0-0.0","77766881","wem/bandit_party_2","AO2A12R6EG0KB","either","7","60","","","","","","","0","0","1","","0.7053347691","0.2","0.4","0.6","0.8","0.7053347691","0.3997779834","0.6423198407","0.1290793888","","","","","","","","","","","","","","72","H","0","img/none_selected.jpg","","206","main_expt",""
"","bandit","286","715929","0.0-248.0-0.0","77766881","wem/bandit_party_2","AO2A12R6EG0KB","either","7","38","","","","","","","0","0","1","0.2791746034","","0.2","0.4","0.6","0.8","","","","","0.692958529","0.2791746034","0.7196337679","0.1471003053","","","","","","","","","","74","J","1","","","207","main_expt",""
"","bandit","287","717525","0.0-249.0-0.0","77766881","wem/bandit_party_2","AO2A12R6EG0KB","either","7","70","","","","","","","0","0","1","0.3447420344","","0.2","0.4","0.6","0.8","","","","","0.5726600787","0.3447420344","0.7273253538","0.1204476287","","","","","","","","","","74","J","1","","","208","main_expt",""
"","bandit","288","719066","0.0-250.0-0.0","77766881","wem/bandit_party_2","AO2A12R6EG0KB","either","7","0","","","","","","","1","0","0","0.2106944101","","0.2","0.4","0.6","0.8","","","","","0.7193759884","0.2106944101","0.7701678217","0.1752658923","","","","","","","","","","74","J","1","","","209","main_expt",""
"","bandit","289","720682","0.0-251.0-0.0","77766881","wem/bandit_party_2","AO2A12R6EG0KB","either","7","50","","","","","","","0","1","0","","0.7673062315","0.2","0.4","0.6","0.8","0.5469619257","0.2609791638","0.7673062315","0.2071456167","","","","","","","","","","","","","","75","K","2","","","210","main_expt",""
"","bandit","290","722420","0.0-252.0-0.0","77766881","wem/bandit_party_2","AO2A12R6EG0KB","either","7","95","","","","","","","0","0","1","0.7733207599","","0.2","0.4","0.6","0.8","","","","","0.5432746348","0.3702243554","0.7733207599","0.1982577311","","","","","","","","","","75","K","2","","","211","main_expt",""
"","bandit","291","724715","0.0-253.0-0.0","77766881","wem/bandit_party_2","AO2A12R6EG0KB","either","7","133","","","","","","","0","0","1","","0.4857525371","0.2","0.4","0.6","0.8","0.4857525371","0.4070014152","0.7176010575","0.2837026457","","","","","","","","","","","","","","72","H","0","img/none_selected.jpg","","212","main_expt",""
"","bandit","292","726300","0.0-254.0-0.0","77766881","wem/bandit_party_2","AO2A12R6EG0KB","either","7","29","","","","","","","0","0","1","0.7241732444","","0.2","0.4","0.6","0.8","","","","","0.4416723402","0.5001351259","0.7241732444","0.2192955177","","","","","","","","","","75","K","2","","","213","main_expt",""
"","bandit","293","727943","0.0-255.0-0.0","77766881","wem/bandit_party_2","AO2A12R6EG0KB","either","7","109","","","","","","","0","0","1","0.2885853396","","0.2","0.4","0.6","0.8","","","","","0.4231083207","0.5667049056","0.6696022014","0.2885853396","","","","","","","","","","76","L","3","","","214","main_expt",""
"","bandit","294","729710","0.0-256.0-0.0","77766881","wem/bandit_party_2","AO2A12R6EG0KB","either","7","35","","","","","","","0","0","1","","0.329019478","0.2","0.4","0.6","0.8","0.329019478","0.5259574602","0.6255990046","0.2451296471","","","","","","","","","","","","","","72","H","0","img/none_selected.jpg","","215","main_expt",""
"","bandit","295","731302","0.0-257.0-0.0","77766881","wem/bandit_party_2","AO2A12R6EG0KB","either","7","51","","","","","","","0","1","0","","0.3469743373","0.2","0.4","0.6","0.8","0.3469743373","0.5468860011","0.6771362935","0.1946790852","","","","","","","","","","","","","","72","H","0","img/none_selected.jpg","","216","main_expt",""
"","bandit","296","732967","0.0-258.0-0.0","77766881","wem/bandit_party_2","AO2A12R6EG0KB","either","7","79","","","","","","","0","0","1","","0.3618740044","0.2","0.4","0.6","0.8","0.3618740044","0.6182745027","0.6918953154","0.2497229096","","","","","","","","","","","","","","72","H","0","img/none_selected.jpg","","217","main_expt",""
"","bandit","297","735087","0.0-259.0-0.0","77766881","wem/bandit_party_2","AO2A12R6EG0KB","either","7","169","","","","","","","0","1","0","","0.3574217595","0.2","0.4","0.6","0.8","0.3574217595","0.5979125128","0.5726390237","0.3076421025","","","","","","","","","","","","","","72","H","0","img/none_selected.jpg","","218","main_expt",""
"","bandit","298","736747","0.0-260.0-0.0","77766881","wem/bandit_party_2","AO2A12R6EG0KB","either","7","101","","","","","","","0","1","0","","0.3862686792","0.2","0.4","0.6","0.8","0.3862686792","0.5321687475","0.5179196303","0.3488941347","","","","","","","","","","","","","","72","H","0","img/none_selected.jpg","","219","main_expt",""
"","bandit","299","738726","0.0-261.0-0.0","77766881","wem/bandit_party_2","AO2A12R6EG0KB","either","7","263","","","","","","","0","1","0","","0.4432846828","0.2","0.4","0.6","0.8","0.4432846828","0.6053830099","0.5578222379","0.306784001","","","","","","","","","","","","","","72","H","0","img/none_selected.jpg","","220","main_expt",""
"","bandit","300","740373","0.0-262.0-0.0","77766881","wem/bandit_party_2","AO2A12R6EG0KB","either","7","102","","","","","","","0","0","1","","0.432499938","0.2","0.4","0.6","0.8","0.432499938","0.69383498","0.6640911266","0.3786925452","","","","","","","","","","","","","","72","H","0","img/none_selected.jpg","","221","main_expt",""
"","bandit","301","742139","0.0-263.0-0.0","77766881","wem/bandit_party_2","AO2A12R6EG0KB","either","7","210","","","","","","","1","0","0","0.4050903391","","0.2","0.4","0.6","0.8","","","","","0.4050903391","0.783375317","0.7340686256","0.5014801557","","","","","","","","","","72","H","0","img/none_selected.jpg","","222","main_expt",""
"","bandit","302","744447","0.0-264.0-0.0","77766881","wem/bandit_party_2","AO2A12R6EG0KB","either","7","1","","","","","","","0","0","1","","0.3282593462","0.2","0.4","0.6","0.8","0.3282593462","0.8374489269","0.852862777","0.4081704387","","","","","","","","","","","","","","72","H","0","img/none_selected.jpg","","223","main_expt",""
"","bandit","303","746790","0.0-265.0-0.0","77766881","wem/bandit_party_2","AO2A12R6EG0KB","either","7","389","","","","","","","0","0","1","","0.2465370002","0.2","0.4","0.6","0.8","0.2465370002","0.7801262993","0.7830506485","0.422296693","","","","","","","","","","","","","","72","H","0","img/none_selected.jpg","","224","main_expt",""
"","bandit","304","748610","0.0-266.0-0.0","77766881","wem/bandit_party_2","AO2A12R6EG0KB","either","7","1","","","","","","","0","0","1","","0.2260872052","0.2","0.4","0.6","0.8","0.2260872052","0.7438235551","0.7447555501","0.3998144739","","","","","","","","","","","","","","72","H","0","img/none_selected.jpg","","225","main_expt",""
"","bandit","305","750214","0.0-267.0-0.0","77766881","wem/bandit_party_2","AO2A12R6EG0KB","either","7","63","","","","","","","0","1","0","","0.7561714458","0.2","0.4","0.6","0.8","0.2573895518","0.7561714458","0.7331719472","0.2692780115","","","","","","","","","","","","","","74","J","1","","","226","main_expt",""
"","bandit","306","752060","0.0-268.0-0.0","77766881","wem/bandit_party_2","AO2A12R6EG0KB","either","7","17","","","","","","","0","0","1","0.7527106072","","0.2","0.4","0.6","0.8","","","","","0.2134597582","0.7527106072","0.6417259928","0.268728261","","","","","","","","","","74","J","1","","","227","main_expt",""
"","bandit","307","753979","0.0-269.0-0.0","77766881","wem/bandit_party_2","AO2A12R6EG0KB","either","7","68","","","","","","","0","0","1","","0.6050549784","0.2","0.4","0.6","0.8","0.348479141","0.6315627418","0.6050549784","0.2211951924","","","","","","","","","","","","","","75","K","2","","","228","main_expt",""
"","bandit","308","755530","0.0-270.0-0.0","77766881","wem/bandit_party_2","AO2A12R6EG0KB","either","7","2","","","","","","","1","0","0","0.219241791","","0.2","0.4","0.6","0.8","","","","","0.3250735223","0.5564086662","0.5962230341","0.219241791","","","","","","","","","","76","L","3","","","229","main_expt",""
"","bandit","309","757264","0.0-271.0-0.0","77766881","wem/bandit_party_2","AO2A12R6EG0KB","either","7","192","","","","","","","1","0","0","0.291585141","","0.2","0.4","0.6","0.8","","","","","0.3395219718","0.5895813861","0.5594933722","0.291585141","","","","","","","","","","76","L","3","","","230","main_expt",""
"","bandit","310","759113","0.0-272.0-0.0","77766881","wem/bandit_party_2","AO2A12R6EG0KB","either","7","151","","","","","","","1","0","0","0.2754541949","","0.2","0.4","0.6","0.8","","","","","0.3315483329","0.6148213975","0.6411036761","0.2754541949","","","","","","","","","","76","L","3","","","231","main_expt",""
"","bandit","311","761008","0.0-273.0-0.0","77766881","wem/bandit_party_2","AO2A12R6EG0KB","either","7","2","","","","","","","0","0","1","0.3055336503","","0.2","0.4","0.6","0.8","","","","","0.3876030756","0.5176988489","0.6653930637","0.3055336503","","","","","","","","","","76","L","3","","","232","main_expt",""
"","bandit","312","762627","0.0-274.0-0.0","77766881","wem/bandit_party_2","AO2A12R6EG0KB","either","7","63","","","","","","","0","0","1","","0.3696248546","0.2","0.4","0.6","0.8","0.3696248546","0.4505666118","0.5426719569","0.3390100853","","","","","","","","","","","","","","72","H","0","img/none_selected.jpg","","233","main_expt",""
"","bandit","313","764279","0.0-275.0-0.0","77766881","wem/bandit_party_2","AO2A12R6EG0KB","either","7","104","","","","","","","0","1","0","","0.3927474605","0.2","0.4","0.6","0.8","0.3927474605","0.4393496879","0.5581360181","0.3165323161","","","","","","","","","","","","","","72","H","0","img/none_selected.jpg","","234","main_expt",""
"","bandit","314","765988","0.0-276.0-0.0","77766881","wem/bandit_party_2","AO2A12R6EG0KB","either","7","183","","","","","","","1","0","0","0.3542725407","","0.2","0.4","0.6","0.8","","","","","0.4734072524","0.3542725407","0.5299247183","0.2944333127","","","","","","","","","","74","J","1","","","235","main_expt",""
"","bandit","315","767718","0.0-277.0-0.0","77766881","wem/bandit_party_2","AO2A12R6EG0KB","either","7","182","","","","","","","0","0","1","","0.452511288","0.2","0.4","0.6","0.8","0.5857320117","0.452511288","0.4709954077","0.4127469632","","","","","","","","","","","","","","74","J","1","","","236","main_expt",""
"","bandit","316","769426","0.0-278.0-0.0","77766881","wem/bandit_party_2","AO2A12R6EG0KB","either","7","133","","","","","","","1","0","0","0.4171051322","","0.2","0.4","0.6","0.8","","","","","0.5208556897","0.4743784035","0.4171051322","0.4353664578","","","","","","","","","","75","K","2","","","237","main_expt",""
"","bandit","317","770991","0.0-279.0-0.0","77766881","wem/bandit_party_2","AO2A12R6EG0KB","either","7","2","","","","","","","0","0","1","","0.40722148","0.2","0.4","0.6","0.8","0.4551370454","0.4666998134","0.40722148","0.3871798792","","","","","","","","","","","","","","75","K","2","","","238","main_expt",""
"","bandit","318","772659","0.0-280.0-0.0","77766881","wem/bandit_party_2","AO2A12R6EG0KB","either","7","122","","","","","","","0","1","0","","0.3244704863","0.2","0.4","0.6","0.8","0.2979137516","0.4916456171","0.3113271407","0.3244704863","","","","","","","","","","","","","","76","L","3","","","239","main_expt",""
