"consent","trial_type","trial_index","time_elapsed","internal_node_id","subjID","study","MID","cond","drift","rt","responses","button_pressed","key_press","like","value","connected","gems","bombs","no_reward","GemPrChosen","BombPrChosen","GainOverPainPr_0","GainOverPainPr_1","GainOverPainPr_2","GainOverPainPr_3","LosePr_0","LosePr_1","LosePr_2","LosePr_3","WinPr_0","WinPr_1","WinPr_2","WinPr_3","Q0","Q1","Q2","gender","age","ethnicity","label","expt_phase","target","respCharCode","respKey","respChoiceNum","respChoice","practice","trial_counter","trial_label","Q0_index"
"GDM/GDM_behavioral_consent_30min_online.html","consent","0","17134","0.0-0.0","82256801","wem/bandit_party_2","A1A2XH9JVSN8Z0","either","4","","","","","","","","","","","","","","","","","","","","","","","","","","","","","","","","","","","","","","","","",""
"","survey-text","1","25328","0.0-1.0","82256801","wem/bandit_party_2","A1A2XH9JVSN8Z0","either","4","7172","{""Q0"":""A1A2XH9JVSN8Z0""}","","","","","","","","","","","","","","","","","","","","","","","","","","","","","","","","","","","","","","",""
"","button-response","2","28388","0.0-2.0","82256801","wem/bandit_party_2","A1A2XH9JVSN8Z0","either","4","2045","","1","","","","","","","","","","","","","","","","","","","","","","","","","","","","","","","","","","","","","",""
"","text-replacement","3","37406","0.0-3.0","82256801","wem/bandit_party_2","A1A2XH9JVSN8Z0","either","4","8011","","","32","","","","","","","","","","","","","","","","","","","","","","","","","","","","","","","","","","","","",""
"","text-replacement","4","73207","0.0-4.0","82256801","wem/bandit_party_2","A1A2XH9JVSN8Z0","either","4","35793","","","32","","","","","","","","","","","","","","","","","","","","","","","","","","","","","","","","","","","","",""
"","identification","5","82668","0.0-6.0-0.0","82256801","wem/bandit_party_2","A1A2XH9JVSN8Z0","either","4","9399","","","","0","0","0","","","","","","","","","","","","","","","","","","","","","","","","pre","identification_pre","the Republican Party","","","","","","","",""
"","identification","6","90776","0.0-6.0-1.0","82256801","wem/bandit_party_2","A1A2XH9JVSN8Z0","either","4","7054","","","","6","6","6","","","","","","","","","","","","","","","","","","","","","","","","pre","identification_pre","the Democratic Party","","","","","","","",""
"","text-replacement","7","109444","0.0-7.0","82256801","wem/bandit_party_2","A1A2XH9JVSN8Z0","either","4","17657","","","32","","","","","","","","","","","","","","","","","","","","","","","","","","","","","","","","","","","","",""
"","text-replacement","8","114781","0.0-8.0","82256801","wem/bandit_party_2","A1A2XH9JVSN8Z0","either","4","5324","","","32","","","","","","","","","","","","","","","","","","","","","","","","","","","","","","","","","","","","",""
"","text-replacement","9","123074","0.0-9.0","82256801","wem/bandit_party_2","A1A2XH9JVSN8Z0","either","4","8284","","","32","","","","","","","","","","","","","","","","","","","","","","","","","","","","","","","","","","","","",""
"","text-replacement","10","127304","0.0-10.0","82256801","wem/bandit_party_2","A1A2XH9JVSN8Z0","either","4","4223","","","32","","","","","","","","","","","","","","","","","","","","","","","","","","","","","","","","","","","","",""
"","text-replacement","11","131512","0.0-11.0","82256801","wem/bandit_party_2","A1A2XH9JVSN8Z0","either","4","4203","","","32","","","","","","","","","","","","","","","","","","","","","","","","","","","","","","","","","","","","",""
"","bandit","12","140520","0.0-12.0-0.0","82256801","wem/bandit_party_2","A1A2XH9JVSN8Z0","either","4","7481","","","","","","","0","0","1","0","0","","","","","0","","","","0","","","","","","","","","","","","","74","J","0","img/none_selected_demo.jpg","true","0","",""
"","bandit","13","146395","0.0-13.0-0.0","82256801","wem/bandit_party_2","A1A2XH9JVSN8Z0","either","4","4357","","","","","","","0","0","1","0","0","","","","","0","","","","0","","","","","","","","","","","","","75","K","0","img/none_selected_demo.jpg","true","0","",""
"","text-replacement","14","154103","0.0-14.0","82256801","wem/bandit_party_2","A1A2XH9JVSN8Z0","either","4","7702","","","32","","","","","","","","","","","","","","","","","","","","","","","","","","","","","","","","","","","","",""
"","text-replacement","15","165264","0.0-15.0","82256801","wem/bandit_party_2","A1A2XH9JVSN8Z0","either","4","11153","","","32","","","","","","","","","","","","","","","","","","","","","","","","","","","","","","","","","","","","",""
"","text-replacement","16","172799","0.0-16.0","82256801","wem/bandit_party_2","A1A2XH9JVSN8Z0","either","4","7529","","","32","","","","","","","","","","","","","","","","","","","","","","","","","","","","","","","","","","","","",""
"","text-replacement","17","189805","0.0-17.0","82256801","wem/bandit_party_2","A1A2XH9JVSN8Z0","either","4","17003","","","32","","","","","","","","","","","","","","","","","","","","","","","","","","","","","","","","","","","","",""
"","bandit","18","193556","0.0-18.0-0.0","82256801","wem/bandit_party_2","A1A2XH9JVSN8Z0","either","4","2232","","","","","","","0","1","0","","0.8","0.5","0.5","","","0.8","0.2","","","","","","","","","","","","","","","","74","J","0","img/none_selected_demo.jpg","true","0","80_20_practice",""
"","bandit","19","196154","0.0-18.0-1.0","82256801","wem/bandit_party_2","A1A2XH9JVSN8Z0","either","4","1083","","","","","","","0","1","0","","0.2","0.5","0.5","","","0.8","0.2","","","","","","","","","","","","","","","","75","K","1","","true","0","80_20_practice",""
"","bandit","20","207324","0.0-18.0-2.0","82256801","wem/bandit_party_2","A1A2XH9JVSN8Z0","either","4","9651","","","","","","","0","0","1","","0.8","0.5","0.5","","","0.8","0.2","","","","","","","","","","","","","","","","74","J","0","img/none_selected_demo.jpg","true","0","80_20_practice",""
"","bandit","21","210859","0.0-18.0-3.0","82256801","wem/bandit_party_2","A1A2XH9JVSN8Z0","either","4","2014","","","","","","","0","0","1","","0.2","0.5","0.5","","","0.8","0.2","","","","","","","","","","","","","","","","75","K","1","","true","0","80_20_practice",""
"","bandit","22","213123","0.0-18.0-4.0","82256801","wem/bandit_party_2","A1A2XH9JVSN8Z0","either","4","743","","","","","","","0","0","1","0.8","","0.5","0.5","","","","","","","0.8","0.2","","","","","","","","","","","","74","J","0","img/none_selected_demo.jpg","true","0","80_20_practice",""
"","bandit","23","215113","0.0-18.0-5.0","82256801","wem/bandit_party_2","A1A2XH9JVSN8Z0","either","4","470","","","","","","","1","0","0","0.2","","0.5","0.5","","","","","","","0.8","0.2","","","","","","","","","","","","75","K","1","","true","0","80_20_practice",""
"","bandit","24","218218","0.0-18.0-6.0","82256801","wem/bandit_party_2","A1A2XH9JVSN8Z0","either","4","1587","","","","","","","0","0","1","0.8","","0.5","0.5","","","","","","","0.8","0.2","","","","","","","","","","","","74","J","0","img/none_selected_demo.jpg","true","0","80_20_practice",""
"","bandit","25","220169","0.0-18.0-7.0","82256801","wem/bandit_party_2","A1A2XH9JVSN8Z0","either","4","431","","","","","","","0","0","1","0.2","","0.5","0.5","","","","","","","0.8","0.2","","","","","","","","","","","","75","K","1","","true","0","80_20_practice",""
"","bandit","26","222330","0.0-18.0-8.0","82256801","wem/bandit_party_2","A1A2XH9JVSN8Z0","either","4","643","","","","","","","1","0","0","0.8","","0.5","0.5","","","","","","","0.8","0.2","","","","","","","","","","","","74","J","0","img/none_selected_demo.jpg","true","0","80_20_practice",""
"","bandit","27","224247","0.0-18.0-9.0","82256801","wem/bandit_party_2","A1A2XH9JVSN8Z0","either","4","401","","","","","","","0","1","0","","0.2","0.5","0.5","","","0.8","0.2","","","","","","","","","","","","","","","","75","K","1","","true","0","80_20_practice",""
"","bandit","28","226879","0.0-18.0-10.0","82256801","wem/bandit_party_2","A1A2XH9JVSN8Z0","either","4","1110","","","","","","","0","0","1","0.2","","0.5","0.5","","","","","","","0.8","0.2","","","","","","","","","","","","75","K","1","","true","0","80_20_practice",""
"","bandit","29","228957","0.0-18.0-11.0","82256801","wem/bandit_party_2","A1A2XH9JVSN8Z0","either","4","564","","","","","","","0","0","1","","0.2","0.5","0.5","","","0.8","0.2","","","","","","","","","","","","","","","","75","K","1","","true","0","80_20_practice",""
"","bandit","30","230934","0.0-18.0-12.0","82256801","wem/bandit_party_2","A1A2XH9JVSN8Z0","either","4","462","","","","","","","0","1","0","","0.8","0.5","0.5","","","0.8","0.2","","","","","","","","","","","","","","","","74","J","0","img/none_selected_demo.jpg","true","0","80_20_practice",""
"","bandit","31","232942","0.0-18.0-13.0","82256801","wem/bandit_party_2","A1A2XH9JVSN8Z0","either","4","482","","","","","","","0","1","0","","0.8","0.5","0.5","","","0.8","0.2","","","","","","","","","","","","","","","","74","J","0","img/none_selected_demo.jpg","true","0","80_20_practice",""
"","bandit","32","235047","0.0-18.0-14.0","82256801","wem/bandit_party_2","A1A2XH9JVSN8Z0","either","4","587","","","","","","","0","1","0","","0.8","0.5","0.5","","","0.8","0.2","","","","","","","","","","","","","","","","74","J","0","img/none_selected_demo.jpg","true","0","80_20_practice",""
"","bandit","33","237551","0.0-18.0-15.0","82256801","wem/bandit_party_2","A1A2XH9JVSN8Z0","either","4","987","","","","","","","0","1","0","","0.8","0.5","0.5","","","0.8","0.2","","","","","","","","","","","","","","","","74","J","0","img/none_selected_demo.jpg","true","0","80_20_practice",""
"","bandit","34","249100","0.0-18.0-16.0","82256801","wem/bandit_party_2","A1A2XH9JVSN8Z0","either","4","10030","","","","","","","0","1","0","","0.8","0.5","0.5","","","0.8","0.2","","","","","","","","","","","","","","","","74","J","0","img/none_selected_demo.jpg","true","0","80_20_practice",""
"","bandit","35","255933","0.0-18.0-17.0","82256801","wem/bandit_party_2","A1A2XH9JVSN8Z0","either","4","5315","","","","","","","0","0","1","","0.8","0.5","0.5","","","0.8","0.2","","","","","","","","","","","","","","","","74","J","0","img/none_selected_demo.jpg","true","0","80_20_practice",""
"","bandit","36","258001","0.0-18.0-18.0","82256801","wem/bandit_party_2","A1A2XH9JVSN8Z0","either","4","549","","","","","","","0","1","0","","0.8","0.5","0.5","","","0.8","0.2","","","","","","","","","","","","","","","","74","J","0","img/none_selected_demo.jpg","true","0","80_20_practice",""
"","bandit","37","260084","0.0-18.0-19.0","82256801","wem/bandit_party_2","A1A2XH9JVSN8Z0","either","4","569","","","","","","","0","1","0","","0.8","0.5","0.5","","","0.8","0.2","","","","","","","","","","","","","","","","74","J","0","img/none_selected_demo.jpg","true","0","80_20_practice",""
"","text-replacement","38","264092","0.0-19.0","82256801","wem/bandit_party_2","A1A2XH9JVSN8Z0","either","4","4001","","","32","","","","","","","","","","","","","","","","","","","","","","","","","","","","","","","","","","","","",""
"","bandit","39","266866","0.0-20.0-0.0","82256801","wem/bandit_party_2","A1A2XH9JVSN8Z0","either","4","1251","","","","","","","1","0","0","1","0","","","","","0","1","","","1","0","","","","","","","","","","","","74","J","0","img/none_selected_demo.jpg","true","0","",""
"","text-replacement","40","271498","0.0-21.0","82256801","wem/bandit_party_2","A1A2XH9JVSN8Z0","either","4","4622","","","32","","","","","","","","","","","","","","","","","","","","","","","","","","","","","","","","","","","","",""
"","text-replacement","41","275370","0.0-22.0","82256801","wem/bandit_party_2","A1A2XH9JVSN8Z0","either","4","3861","","","32","","","","","","","","","","","","","","","","","","","","","","","","","","","","","","","","","","","","",""
"","text-replacement","42","276258","0.0-23.0","82256801","wem/bandit_party_2","A1A2XH9JVSN8Z0","either","4","882","","","32","","","","","","","","","","","","","","","","","","","","","","","","","","","","","","","","","","","","",""
"","text-replacement","43","281117","0.0-24.0","82256801","wem/bandit_party_2","A1A2XH9JVSN8Z0","either","4","4851","","","32","","","","","","","","","","","","","","","","","","","","","","","","","","","","","","","","","","","","",""
"","text-replacement","44","286500","0.0-25.0","82256801","wem/bandit_party_2","A1A2XH9JVSN8Z0","either","4","5369","","","32","","","","","","","","","","","","","","","","","","","","","","","","","","","","","","","","","","","","",""
"","text-replacement","45","290586","0.0-26.0","82256801","wem/bandit_party_2","A1A2XH9JVSN8Z0","either","4","4075","","","32","","","","","","","","","","","","","","","","","","","","","","","","","","","","","","","","","","","","",""
"","text-replacement","46","295497","0.0-27.0","82256801","wem/bandit_party_2","A1A2XH9JVSN8Z0","either","4","4903","","","32","","","","","","","","","","","","","","","","","","","","","","","","","","","","","","","","","","","","",""
"","text-replacement","47","299485","0.0-28.0","82256801","wem/bandit_party_2","A1A2XH9JVSN8Z0","either","4","3978","","","32","","","","","","","","","","","","","","","","","","","","","","","","","","","","","","","","","","","","",""
"","text-replacement","48","305211","0.0-29.0","82256801","wem/bandit_party_2","A1A2XH9JVSN8Z0","either","4","5714","","","32","","","","","","","","","","","","","","","","","","","","","","","","","","","","","","","","","","","","",""
"","text-replacement","49","308786","0.0-30.0","82256801","wem/bandit_party_2","A1A2XH9JVSN8Z0","either","4","3562","","","32","","","","","","","","","","","","","","","","","","","","","","","","","","","","","","","","","","","","",""
"","text-replacement","50","321400","0.0-31.0","82256801","wem/bandit_party_2","A1A2XH9JVSN8Z0","either","4","12607","","","32","","","","","","","","","","","","","","","","","","","","","","","","","","","","","","","","","","","","",""
"","bandit","51","326212","0.0-32.0-0.0","82256801","wem/bandit_party_2","A1A2XH9JVSN8Z0","either","4","3282","","","","","","","0","0","1","0.2","","0.5","0.5","0.5","0.5","","","","","0.8","0.2","0.6","0.2","","","","","","","","","","74","J","1","","true","0","full_practice",""
"","bandit","52","329106","0.0-32.0-1.0","82256801","wem/bandit_party_2","A1A2XH9JVSN8Z0","either","4","1366","","","","","","","0","1","0","","0.8","0.5","0.5","0.5","0.5","0.8","0.2","0.6","0.2","","","","","","","","","","","","","","72","H","0","img/none_selected.jpg","true","0","full_practice",""
"","bandit","53","331567","0.0-32.0-2.0","82256801","wem/bandit_party_2","A1A2XH9JVSN8Z0","either","4","931","","","","","","","1","0","0","0.6","","0.5","0.5","0.5","0.5","","","","","0.8","0.2","0.6","0.2","","","","","","","","","","75","K","2","","true","0","full_practice",""
"","bandit","54","334190","0.0-32.0-3.0","82256801","wem/bandit_party_2","A1A2XH9JVSN8Z0","either","4","1100","","","","","","","0","0","1","0.2","","0.5","0.5","0.5","0.5","","","","","0.8","0.2","0.6","0.2","","","","","","","","","","76","L","3","","true","0","full_practice",""
"","bandit","55","337771","0.0-32.0-4.0","82256801","wem/bandit_party_2","A1A2XH9JVSN8Z0","either","4","2063","","","","","","","0","0","1","","0.8","0.5","0.5","0.5","0.5","0.8","0.2","0.6","0.2","","","","","","","","","","","","","","72","H","0","img/none_selected.jpg","true","0","full_practice",""
"","bandit","56","340738","0.0-32.0-5.0","82256801","wem/bandit_party_2","A1A2XH9JVSN8Z0","either","4","1450","","","","","","","0","0","1","","0.2","0.5","0.5","0.5","0.5","0.8","0.2","0.6","0.2","","","","","","","","","","","","","","74","J","1","","true","0","full_practice",""
"","bandit","57","342346","0.0-32.0-6.0","82256801","wem/bandit_party_2","A1A2XH9JVSN8Z0","either","4","75","","","","","","","0","1","0","","0.6","0.5","0.5","0.5","0.5","0.8","0.2","0.6","0.2","","","","","","","","","","","","","","75","K","2","","true","0","full_practice",""
"","bandit","58","345397","0.0-32.0-7.0","82256801","wem/bandit_party_2","A1A2XH9JVSN8Z0","either","4","1523","","","","","","","1","0","0","0.8","","0.5","0.5","0.5","0.5","","","","","0.8","0.2","0.6","0.2","","","","","","","","","","72","H","0","img/none_selected.jpg","true","0","full_practice",""
"","bandit","59","348226","0.0-32.0-8.0","82256801","wem/bandit_party_2","A1A2XH9JVSN8Z0","either","4","1310","","","","","","","0","0","1","","0.6","0.5","0.5","0.5","0.5","0.8","0.2","0.6","0.2","","","","","","","","","","","","","","75","K","2","","true","0","full_practice",""
"","bandit","60","350240","0.0-32.0-9.0","82256801","wem/bandit_party_2","A1A2XH9JVSN8Z0","either","4","495","","","","","","","0","0","1","0.2","","0.5","0.5","0.5","0.5","","","","","0.8","0.2","0.6","0.2","","","","","","","","","","76","L","3","","true","0","full_practice",""
"","bandit","61","354993","0.0-32.0-10.0","82256801","wem/bandit_party_2","A1A2XH9JVSN8Z0","either","4","3224","","","","","","","0","1","0","","0.8","0.5","0.5","0.5","0.5","0.8","0.2","0.6","0.2","","","","","","","","","","","","","","72","H","0","img/none_selected.jpg","true","0","full_practice",""
"","bandit","62","358923","0.0-32.0-11.0","82256801","wem/bandit_party_2","A1A2XH9JVSN8Z0","either","4","2407","","","","","","","1","0","0","0.8","","0.5","0.5","0.5","0.5","","","","","0.8","0.2","0.6","0.2","","","","","","","","","","72","H","0","img/none_selected.jpg","true","0","full_practice",""
"","bandit","63","360857","0.0-32.0-12.0","82256801","wem/bandit_party_2","A1A2XH9JVSN8Z0","either","4","412","","","","","","","1","0","0","0.2","","0.5","0.5","0.5","0.5","","","","","0.8","0.2","0.6","0.2","","","","","","","","","","74","J","1","","true","0","full_practice",""
"","bandit","64","362864","0.0-32.0-13.0","82256801","wem/bandit_party_2","A1A2XH9JVSN8Z0","either","4","487","","","","","","","1","0","0","0.6","","0.5","0.5","0.5","0.5","","","","","0.8","0.2","0.6","0.2","","","","","","","","","","75","K","2","","true","0","full_practice",""
"","bandit","65","364585","0.0-32.0-14.0","82256801","wem/bandit_party_2","A1A2XH9JVSN8Z0","either","4","191","","","","","","","0","1","0","","0.2","0.5","0.5","0.5","0.5","0.8","0.2","0.6","0.2","","","","","","","","","","","","","","76","L","3","","true","0","full_practice",""
"","bandit","66","367266","0.0-32.0-15.0","82256801","wem/bandit_party_2","A1A2XH9JVSN8Z0","either","4","1162","","","","","","","0","1","0","","0.8","0.5","0.5","0.5","0.5","0.8","0.2","0.6","0.2","","","","","","","","","","","","","","72","H","0","img/none_selected.jpg","true","0","full_practice",""
"","bandit","67","369276","0.0-32.0-16.0","82256801","wem/bandit_party_2","A1A2XH9JVSN8Z0","either","4","485","","","","","","","0","0","1","0.2","","0.5","0.5","0.5","0.5","","","","","0.8","0.2","0.6","0.2","","","","","","","","","","76","L","3","","true","0","full_practice",""
"","bandit","68","371465","0.0-32.0-17.0","82256801","wem/bandit_party_2","A1A2XH9JVSN8Z0","either","4","668","","","","","","","0","1","0","","0.8","0.5","0.5","0.5","0.5","0.8","0.2","0.6","0.2","","","","","","","","","","","","","","72","H","0","img/none_selected.jpg","true","0","full_practice",""
"","bandit","69","374384","0.0-32.0-18.0","82256801","wem/bandit_party_2","A1A2XH9JVSN8Z0","either","4","1402","","","","","","","0","1","0","","0.8","0.5","0.5","0.5","0.5","0.8","0.2","0.6","0.2","","","","","","","","","","","","","","72","H","0","img/none_selected.jpg","true","0","full_practice",""
"","bandit","70","376929","0.0-32.0-19.0","82256801","wem/bandit_party_2","A1A2XH9JVSN8Z0","either","4","1027","","","","","","","1","0","0","0.8","","0.5","0.5","0.5","0.5","","","","","0.8","0.2","0.6","0.2","","","","","","","","","","72","H","0","img/none_selected.jpg","true","0","full_practice",""
"","text","71","382791","0.0-33.0","82256801","wem/bandit_party_2","A1A2XH9JVSN8Z0","either","4","5841","","","32","","","","","","","","","","","","","","","","","","","","","","","","","","","","","","","","","","","","",""
"","text-replacement","72","407193","0.0-34.0","82256801","wem/bandit_party_2","A1A2XH9JVSN8Z0","either","4","23390","","","32","","","","","","","","","","","","","","","","","","","","","","","","","","","","","","","","","","","","",""
"","text-replacement","73","424144","0.0-35.0","82256801","wem/bandit_party_2","A1A2XH9JVSN8Z0","either","4","16934","","","32","","","","","","","","","","","","","","","","","","","","","","","","","","","","","","","","","","","","",""
"","text-replacement","74","429655","0.0-36.0","82256801","wem/bandit_party_2","A1A2XH9JVSN8Z0","either","4","5492","","","32","","","","","","","","","","","","","","","","","","","","","","","","","","","","","","","","","","","","",""
"","text-replacement","75","437549","0.0-37.0","82256801","wem/bandit_party_2","A1A2XH9JVSN8Z0","either","4","7879","","","32","","","","","","","","","","","","","","","","","","","","","","","","","","","","","","","","","","","","",""
"","text-replacement","76","441565","0.0-38.0","82256801","wem/bandit_party_2","A1A2XH9JVSN8Z0","either","4","4004","","","32","","","","","","","","","","","","","","","","","","","","","","","","","","","","","","","","","","","","",""
"","survey-multi-choice-replacement","77","450169","0.0-39.0-0.0","82256801","wem/bandit_party_2","A1A2XH9JVSN8Z0","either","4","8566","","","","","","","","","","","","","","","","","","","","","","","","Money will be added to the pool for <span style='color:blue;'>DEMOCRATS</span>","","","","","","","attn_check","","","","","","","","","0"
"","survey-multi-choice-replacement","78","465742","0.0-40.0-0.0","82256801","wem/bandit_party_2","A1A2XH9JVSN8Z0","either","4","14535","","","","","","","","","","","","","","","","","","","","","","","","Equal amounts of money will be added to the pool for <span style='color:blue;'>DEMOCRATS</span> and subtracted from the pool for <span style='color:red;'>REPUBLICANS</span>","","","","","","","attn_check","","","","","","","","","2"
"","survey-multi-choice-replacement","79","473413","0.0-41.0-0.0","82256801","wem/bandit_party_2","A1A2XH9JVSN8Z0","either","4","6636","","","","","","","","","","","","","","","","","","","","","","","","No money will be added to either pool","","","","","","","attn_check","","","","","","","","","3"
"","bandit","80","479174","0.0-42.0-0.0","82256801","wem/bandit_party_2","A1A2XH9JVSN8Z0","either","4","3209","","","","","","","1","0","0","0.7267404998","","0.6","0.4","0.2","0.8","","","","","0.7267404998","0.8209843215","0.9858900825","0.2887693562","","","","","","","","","","72","H","0","img/none_selected.jpg","","1","main_expt",""
"","bandit","81","481748","0.0-43.0-0.0","82256801","wem/bandit_party_2","A1A2XH9JVSN8Z0","either","4","1043","","","","","","","0","0","1","0.8179122382","","0.6","0.4","0.2","0.8","","","","","0.7034907646","0.8179122382","0.9854924354","0.2986217167","","","","","","","","","","74","J","1","","","2","main_expt",""
"","bandit","82","483881","0.0-44.0-0.0","82256801","wem/bandit_party_2","A1A2XH9JVSN8Z0","either","4","607","","","","","","","0","1","0","","0.9789624529","0.6","0.4","0.2","0.8","0.6574847675","0.8301291561","0.9789624529","0.261346942","","","","","","","","","","","","","","75","K","2","","","3","main_expt",""
"","bandit","83","485995","0.0-45.0-0.0","82256801","wem/bandit_party_2","A1A2XH9JVSN8Z0","either","4","577","","","","","","","1","0","0","0.2757740293","","0.6","0.4","0.2","0.8","","","","","0.5092805277","0.8219157537","0.9565345184","0.2757740293","","","","","","","","","","76","L","3","","","4","main_expt",""
"","bandit","84","489212","0.0-46.0-0.0","82256801","wem/bandit_party_2","A1A2XH9JVSN8Z0","either","4","1697","","","","","","","0","0","1","","0.7759220463","0.6","0.4","0.2","0.8","0.5952926025","0.7759220463","0.941194936","0.3329857669","","","","","","","","","","","","","","74","J","1","","","5","main_expt",""
"","bandit","85","491871","0.0-47.0-0.0","82256801","wem/bandit_party_2","A1A2XH9JVSN8Z0","either","4","1125","","","","","","","1","0","0","0.6160758637","","0.6","0.4","0.2","0.8","","","","","0.6160758637","0.7495930044","0.9305219143","0.331878758","","","","","","","","","","72","H","0","img/none_selected.jpg","","6","main_expt",""
"","bandit","86","493862","0.0-48.0-0.0","82256801","wem/bandit_party_2","A1A2XH9JVSN8Z0","either","4","470","","","","","","","1","0","0","0.6381806331","","0.6","0.4","0.2","0.8","","","","","0.6381806331","0.7078030286","0.937738562","0.3863389794","","","","","","","","","","72","H","0","img/none_selected.jpg","","7","main_expt",""
"","bandit","87","495928","0.0-49.0-0.0","82256801","wem/bandit_party_2","A1A2XH9JVSN8Z0","either","4","544","","","","","","","0","0","1","0.7047831713","","0.6","0.4","0.2","0.8","","","","","0.7047831713","0.689407674","0.8269671957","0.4242016385","","","","","","","","","","72","H","0","img/none_selected.jpg","","8","main_expt",""
"","bandit","88","498037","0.0-50.0-0.0","82256801","wem/bandit_party_2","A1A2XH9JVSN8Z0","either","4","586","","","","","","","0","1","0","","0.7696709776","0.6","0.4","0.2","0.8","0.6222923336","0.7848236408","0.7696709776","0.379169242","","","","","","","","","","","","","","75","K","2","","","9","main_expt",""
"","bandit","89","499909","0.0-51.0-0.0","82256801","wem/bandit_party_2","A1A2XH9JVSN8Z0","either","4","350","","","","","","","0","0","1","","0.7313552403","0.6","0.4","0.2","0.8","0.5629201009","0.791363481","0.7313552403","0.40569916","","","","","","","","","","","","","","75","K","2","","","10","main_expt",""
"","bandit","90","501554","0.0-52.0-0.0","82256801","wem/bandit_party_2","A1A2XH9JVSN8Z0","either","4","115","","","","","","","0","1","0","","0.8129169819","0.6","0.4","0.2","0.8","0.644159789","0.7800632456","0.8129169819","0.4188021694","","","","","","","","","","","","","","75","K","2","","","11","main_expt",""
"","bandit","91","503533","0.0-53.0-0.0","82256801","wem/bandit_party_2","A1A2XH9JVSN8Z0","either","4","455","","","","","","","1","0","0","0.7611571711","","0.6","0.4","0.2","0.8","","","","","0.6840372722","0.7559884596","0.7611571711","0.3689559917","","","","","","","","","","75","K","2","","","12","main_expt",""
"","bandit","92","505459","0.0-54.0-0.0","82256801","wem/bandit_party_2","A1A2XH9JVSN8Z0","either","4","396","","","","","","","0","0","1","","0.4584943612","0.6","0.4","0.2","0.8","0.6236151953","0.7695577991","0.7628417147","0.4584943612","","","","","","","","","","","","","","76","L","3","","","13","main_expt",""
"","bandit","93","508056","0.0-55.0-0.0","82256801","wem/bandit_party_2","A1A2XH9JVSN8Z0","either","4","1065","","","","","","","0","0","1","0.455083938","","0.6","0.4","0.2","0.8","","","","","0.5388331182","0.8509931145","0.7436451733","0.455083938","","","","","","","","","","76","L","3","","","14","main_expt",""
"","bandit","94","510085","0.0-56.0-0.0","82256801","wem/bandit_party_2","A1A2XH9JVSN8Z0","either","4","497","","","","","","","1","0","0","0.5360112786","","0.6","0.4","0.2","0.8","","","","","0.4802769188","0.7745856811","0.8256008488","0.5360112786","","","","","","","","","","76","L","3","","","15","main_expt",""
"","bandit","95","512012","0.0-57.0-0.0","82256801","wem/bandit_party_2","A1A2XH9JVSN8Z0","either","4","410","","","","","","","1","0","0","0.4791571541","","0.6","0.4","0.2","0.8","","","","","0.4688000192","0.7576521113","0.7683027423","0.4791571541","","","","","","","","","","76","L","3","","","16","main_expt",""
"","bandit","96","514018","0.0-58.0-0.0","82256801","wem/bandit_party_2","A1A2XH9JVSN8Z0","either","4","475","","","","","","","1","0","0","0.5263630166","","0.6","0.4","0.2","0.8","","","","","0.6000602573","0.8099558365","0.7857675768","0.5263630166","","","","","","","","","","76","L","3","","","17","main_expt",""
"","bandit","97","516012","0.0-59.0-0.0","82256801","wem/bandit_party_2","A1A2XH9JVSN8Z0","either","4","469","","","","","","","0","0","1","0.543945959","","0.6","0.4","0.2","0.8","","","","","0.6046592687","0.7535280451","0.7303419725","0.543945959","","","","","","","","","","76","L","3","","","18","main_expt",""
"","bandit","98","518189","0.0-60.0-0.0","82256801","wem/bandit_party_2","A1A2XH9JVSN8Z0","either","4","652","","","","","","","0","0","1","0.4579801682","","0.6","0.4","0.2","0.8","","","","","0.6177236116","0.7206444799","0.7243255268","0.4579801682","","","","","","","","","","76","L","3","","","19","main_expt",""
"","bandit","99","521445","0.0-61.0-0.0","82256801","wem/bandit_party_2","A1A2XH9JVSN8Z0","either","4","1726","","","","","","","0","0","1","0.5484637992","","0.6","0.4","0.2","0.8","","","","","0.5484637992","0.6388551968","0.7691283854","0.5439896582","","","","","","","","","","72","H","0","img/none_selected.jpg","","20","main_expt",""
"","bandit","100","523454","0.0-62.0-0.0","82256801","wem/bandit_party_2","A1A2XH9JVSN8Z0","either","4","481","","","","","","","0","1","0","","0.6646151354","0.6","0.4","0.2","0.8","0.6646151354","0.4956822649","0.7068464658","0.5796019833","","","","","","","","","","","","","","72","H","0","img/none_selected.jpg","","21","main_expt",""
"","bandit","101","525443","0.0-63.0-0.0","82256801","wem/bandit_party_2","A1A2XH9JVSN8Z0","either","4","468","","","","","","","0","1","0","","0.7223938077","0.6","0.4","0.2","0.8","0.7223938077","0.4316307404","0.7407239748","0.5885929095","","","","","","","","","","","","","","72","H","0","img/none_selected.jpg","","22","main_expt",""
"","bandit","102","527652","0.0-64.0-0.0","82256801","wem/bandit_party_2","A1A2XH9JVSN8Z0","either","4","686","","","","","","","0","1","0","","0.7548690184","0.6","0.4","0.2","0.8","0.7548690184","0.4158022912","0.7300920021","0.4899642796","","","","","","","","","","","","","","72","H","0","img/none_selected.jpg","","23","main_expt",""
"","bandit","103","529867","0.0-65.0-0.0","82256801","wem/bandit_party_2","A1A2XH9JVSN8Z0","either","4","685","","","","","","","1","0","0","0.7794954679","","0.6","0.4","0.2","0.8","","","","","0.7794954679","0.4099928258","0.7074307303","0.4984159311","","","","","","","","","","72","H","0","img/none_selected.jpg","","24","main_expt",""
"","bandit","104","532109","0.0-66.0-0.0","82256801","wem/bandit_party_2","A1A2XH9JVSN8Z0","either","4","704","","","","","","","0","0","1","","0.4303724308","0.6","0.4","0.2","0.8","0.8029664172","0.4303724308","0.6228099684","0.5885503773","","","","","","","","","","","","","","74","J","1","","","25","main_expt",""
"","bandit","105","534138","0.0-67.0-0.0","82256801","wem/bandit_party_2","A1A2XH9JVSN8Z0","either","4","488","","","","","","","0","0","1","0.3291624114","","0.6","0.4","0.2","0.8","","","","","0.6980766755","0.3291624114","0.5588879168","0.6978100054","","","","","","","","","","74","J","1","","","26","main_expt",""
"","bandit","106","536236","0.0-68.0-0.0","82256801","wem/bandit_party_2","A1A2XH9JVSN8Z0","either","4","564","","","","","","","0","1","0","","0.5033257713","0.6","0.4","0.2","0.8","0.7021498626","0.3795789415","0.5033257713","0.6442468271","","","","","","","","","","","","","","75","K","2","","","27","main_expt",""
"","bandit","107","538308","0.0-69.0-0.0","82256801","wem/bandit_party_2","A1A2XH9JVSN8Z0","either","4","550","","","","","","","0","0","1","","0.4915102133","0.6","0.4","0.2","0.8","0.7802436781","0.3208573938","0.4915102133","0.7399213538","","","","","","","","","","","","","","75","K","2","","","28","main_expt",""
"","bandit","108","543003","0.0-70.0-0.0","82256801","wem/bandit_party_2","A1A2XH9JVSN8Z0","either","4","3171","","","","","","","0","0","1","","0.6907923131","0.6","0.4","0.2","0.8","0.6907923131","0.3352919619","0.4291187576","0.7520253205","","","","","","","","","","","","","","72","H","0","img/none_selected.jpg","","29","main_expt",""
"","bandit","109","545602","0.0-71.0-0.0","82256801","wem/bandit_party_2","A1A2XH9JVSN8Z0","either","4","1079","","","","","","","0","0","1","0.6771306444","","0.6","0.4","0.2","0.8","","","","","0.6771306444","0.3452717309","0.5379907803","0.7528469829","","","","","","","","","","72","H","0","img/none_selected.jpg","","30","main_expt",""
"","bandit","110","547555","0.0-72.0-0.0","82256801","wem/bandit_party_2","A1A2XH9JVSN8Z0","either","4","430","","","","","","","0","1","0","","0.7130915948","0.6","0.4","0.2","0.8","0.7130915948","0.2967094522","0.646046857","0.7571908429","","","","","","","","","","","","","","72","H","0","img/none_selected.jpg","","31","main_expt",""
"","bandit","111","549619","0.0-73.0-0.0","82256801","wem/bandit_party_2","A1A2XH9JVSN8Z0","either","4","530","","","","","","","0","0","1","0.6849190202","","0.6","0.4","0.2","0.8","","","","","0.6849190202","0.255781972","0.5608885347","0.7530934884","","","","","","","","","","72","H","0","img/none_selected.jpg","","32","main_expt",""
"","bandit","112","551655","0.0-74.0-0.0","82256801","wem/bandit_party_2","A1A2XH9JVSN8Z0","either","4","501","","","","","","","1","0","0","0.7392612035","","0.6","0.4","0.2","0.8","","","","","0.7392612035","0.2703771925","0.5952322697","0.7163673585","","","","","","","","","","72","H","0","img/none_selected.jpg","","33","main_expt",""
"","bandit","113","553768","0.0-75.0-0.0","82256801","wem/bandit_party_2","A1A2XH9JVSN8Z0","either","4","576","","","","","","","0","0","1","0.7026009082","","0.6","0.4","0.2","0.8","","","","","0.7026009082","0.3572673824","0.6206609301","0.6817248107","","","","","","","","","","72","H","0","img/none_selected.jpg","","34","main_expt",""
"","bandit","114","555782","0.0-76.0-0.0","82256801","wem/bandit_party_2","A1A2XH9JVSN8Z0","either","4","485","","","","","","","1","0","0","0.632003728","","0.6","0.4","0.2","0.8","","","","","0.632003728","0.3237575066","0.6223058769","0.6903641832","","","","","","","","","","72","H","0","img/none_selected.jpg","","35","main_expt",""
"","bandit","115","557717","0.0-77.0-0.0","82256801","wem/bandit_party_2","A1A2XH9JVSN8Z0","either","4","410","","","","","","","0","0","1","0.7266912659","","0.6","0.4","0.2","0.8","","","","","0.7266912659","0.3724209237","0.7304722347","0.6953747248","","","","","","","","","","72","H","0","img/none_selected.jpg","","36","main_expt",""
"","bandit","116","559649","0.0-78.0-0.0","82256801","wem/bandit_party_2","A1A2XH9JVSN8Z0","either","4","410","","","","","","","1","0","0","0.5512211225","","0.6","0.4","0.2","0.8","","","","","0.5512211225","0.3848591071","0.6789706255","0.7552078918","","","","","","","","","","72","H","0","img/none_selected.jpg","","37","main_expt",""
"","bandit","117","561691","0.0-79.0-0.0","82256801","wem/bandit_party_2","A1A2XH9JVSN8Z0","either","4","518","","","","","","","0","1","0","","0.5888446875","0.6","0.4","0.2","0.8","0.5888446875","0.4026628424","0.6758320082","0.7095976639","","","","","","","","","","","","","","72","H","0","img/none_selected.jpg","","38","main_expt",""
"","bandit","118","563978","0.0-80.0-0.0","82256801","wem/bandit_party_2","A1A2XH9JVSN8Z0","either","4","751","","","","","","","1","0","0","0.7349010221","","0.6","0.4","0.2","0.8","","","","","0.7349010221","0.460229008","0.753286291","0.7813817897","","","","","","","","","","72","H","0","img/none_selected.jpg","","39","main_expt",""
"","bandit","119","566082","0.0-81.0-0.0","82256801","wem/bandit_party_2","A1A2XH9JVSN8Z0","either","4","578","","","","","","","1","0","0","0.6715391024","","0.6","0.4","0.2","0.8","","","","","0.6715391024","0.3392787789","0.7527041006","0.7604460558","","","","","","","","","","72","H","0","img/none_selected.jpg","","40","main_expt",""
"","bandit","120","568090","0.0-82.0-0.0","82256801","wem/bandit_party_2","A1A2XH9JVSN8Z0","either","4","485","","","","","","","0","0","1","0.688235262","","0.6","0.4","0.2","0.8","","","","","0.688235262","0.2983701942","0.7900808451","0.7588214983","","","","","","","","","","72","H","0","img/none_selected.jpg","","41","main_expt",""
"","bandit","121","570154","0.0-83.0-0.0","82256801","wem/bandit_party_2","A1A2XH9JVSN8Z0","either","4","541","","","","","","","0","1","0","","0.750516412","0.6","0.4","0.2","0.8","0.750516412","0.2390858253","0.7261157662","0.8204813903","","","","","","","","","","","","","","72","H","0","img/none_selected.jpg","","42","main_expt",""
"","bandit","122","572141","0.0-84.0-0.0","82256801","wem/bandit_party_2","A1A2XH9JVSN8Z0","either","4","435","","","","","","","0","0","1","0.775378891","","0.6","0.4","0.2","0.8","","","","","0.775378891","0.1877526289","0.772887471","0.8310219988","","","","","","","","","","72","H","0","img/none_selected.jpg","","43","main_expt",""
"","bandit","123","573988","0.0-85.0-0.0","82256801","wem/bandit_party_2","A1A2XH9JVSN8Z0","either","4","313","","","","","","","0","1","0","","0.5983035632","0.6","0.4","0.2","0.8","0.5983035632","0.2713877418","0.7359848823","0.8165903167","","","","","","","","","","","","","","72","H","0","img/none_selected.jpg","","44","main_expt",""
"","bandit","124","575961","0.0-86.0-0.0","82256801","wem/bandit_party_2","A1A2XH9JVSN8Z0","either","4","447","","","","","","","1","0","0","0.6453890447","","0.6","0.4","0.2","0.8","","","","","0.6453890447","0.2600408605","0.6223954065","0.6765015189","","","","","","","","","","72","H","0","img/none_selected.jpg","","45","main_expt",""
"","bandit","125","577946","0.0-87.0-0.0","82256801","wem/bandit_party_2","A1A2XH9JVSN8Z0","either","4","467","","","","","","","0","1","0","","0.4979639723","0.6","0.4","0.2","0.8","0.4979639723","0.2435580982","0.5963379238","0.6613510417","","","","","","","","","","","","","","72","H","0","img/none_selected.jpg","","46","main_expt",""
"","bandit","126","579702","0.0-88.0-0.0","82256801","wem/bandit_party_2","A1A2XH9JVSN8Z0","either","4","227","","","","","","","0","0","1","","0.4475739324","0.6","0.4","0.2","0.8","0.4475739324","0.3258971046","0.6161308884","0.7373034573","","","","","","","","","","","","","","72","H","0","img/none_selected.jpg","","47","main_expt",""
"","bandit","127","581684","0.0-89.0-0.0","82256801","wem/bandit_party_2","A1A2XH9JVSN8Z0","either","4","450","","","","","","","0","1","0","","0.570942939","0.6","0.4","0.2","0.8","0.570942939","0.2934977076","0.6354722558","0.6580913366","","","","","","","","","","","","","","72","H","0","img/none_selected.jpg","","48","main_expt",""
"","bandit","128","583780","0.0-90.0-0.0","82256801","wem/bandit_party_2","A1A2XH9JVSN8Z0","either","4","566","","","","","","","1","0","0","0.5943858444","","0.6","0.4","0.2","0.8","","","","","0.5943858444","0.3381222087","0.5941747261","0.6518545324","","","","","","","","","","72","H","0","img/none_selected.jpg","","49","main_expt",""
"","bandit","129","585719","0.0-91.0-0.0","82256801","wem/bandit_party_2","A1A2XH9JVSN8Z0","either","4","416","","","","","","","0","1","0","","0.72156704","0.6","0.4","0.2","0.8","0.72156704","0.4149653651","0.5510631732","0.6362385309","","","","","","","","","","","","","","72","H","0","img/none_selected.jpg","","50","main_expt",""
"","bandit","130","587697","0.0-92.0-0.0","82256801","wem/bandit_party_2","A1A2XH9JVSN8Z0","either","4","454","","","","","","","0","0","1","0.6453884322","","0.6","0.4","0.2","0.8","","","","","0.6453884322","0.315936401","0.5580995271","0.6673370403","","","","","","","","","","72","H","0","img/none_selected.jpg","","51","main_expt",""
"","bandit","131","589793","0.0-93.0-0.0","82256801","wem/bandit_party_2","A1A2XH9JVSN8Z0","either","4","572","","","","","","","0","0","1","","0.635653338","0.6","0.4","0.2","0.8","0.635653338","0.34776451","0.4492126091","0.6614759556","","","","","","","","","","","","","","72","H","0","img/none_selected.jpg","","52","main_expt",""
"","bandit","132","592201","0.0-94.0-0.0","82256801","wem/bandit_party_2","A1A2XH9JVSN8Z0","either","4","890","","","","","","","1","0","0","0.5700640027","","0.6","0.4","0.2","0.8","","","","","0.5700640027","0.2946288454","0.4600129001","0.5099009019","","","","","","","","","","72","H","0","img/none_selected.jpg","","53","main_expt",""
"","bandit","133","594729","0.0-95.0-0.0","82256801","wem/bandit_party_2","A1A2XH9JVSN8Z0","either","4","1003","","","","","","","0","0","1","","0.4535518587","0.6","0.4","0.2","0.8","0.4535518587","0.3757560715","0.4005354829","0.5323874036","","","","","","","","","","","","","","72","H","0","img/none_selected.jpg","","54","main_expt",""
"","bandit","134","597352","0.0-96.0-0.0","82256801","wem/bandit_party_2","A1A2XH9JVSN8Z0","either","4","1100","","","","","","","1","0","0","0.4271895083","","0.6","0.4","0.2","0.8","","","","","0.4271895083","0.3258455482","0.3305694417","0.5410243768","","","","","","","","","","72","H","0","img/none_selected.jpg","","55","main_expt",""
"","bandit","135","600834","0.0-97.0-0.0","82256801","wem/bandit_party_2","A1A2XH9JVSN8Z0","either","4","1952","","","","","","","0","1","0","","0.3506641683","0.6","0.4","0.2","0.8","0.3506641683","0.4350401219","0.3443449075","0.5594159285","","","","","","","","","","","","","","72","H","0","img/none_selected.jpg","","56","main_expt",""
"","bandit","136","603122","0.0-98.0-0.0","82256801","wem/bandit_party_2","A1A2XH9JVSN8Z0","either","4","752","","","","","","","0","0","1","","0.3266461122","0.6","0.4","0.2","0.8","0.3266461122","0.3707313189","0.3719720486","0.5057935102","","","","","","","","","","","","","","72","H","0","img/none_selected.jpg","","57","main_expt",""
"","bandit","137","605088","0.0-99.0-0.0","82256801","wem/bandit_party_2","A1A2XH9JVSN8Z0","either","4","442","","","","","","","0","0","1","0.3024401834","","0.6","0.4","0.2","0.8","","","","","0.3024401834","0.5588799977","0.2230753252","0.4921421838","","","","","","","","","","72","H","0","img/none_selected.jpg","","58","main_expt",""
"","bandit","138","607553","0.0-100.0-0.0","82256801","wem/bandit_party_2","A1A2XH9JVSN8Z0","either","4","936","","","","","","","0","0","1","0.4306619987","","0.6","0.4","0.2","0.8","","","","","0.4306619987","0.6863198467","0.2255195526","0.4740341295","","","","","","","","","","72","H","0","img/none_selected.jpg","","59","main_expt",""
"","bandit","139","610433","0.0-101.0-0.0","82256801","wem/bandit_party_2","A1A2XH9JVSN8Z0","either","4","1354","","","","","","","0","0","1","","0.4710521126","0.6","0.4","0.2","0.8","0.4710521126","0.6998437478","0.2150487889","0.4853159436","","","","","","","","","","","","","","72","H","0","img/none_selected.jpg","","60","main_expt",""
"","bandit","140","613245","0.0-102.0-0.0","82256801","wem/bandit_party_2","A1A2XH9JVSN8Z0","either","4","1266","","","","","","","0","0","1","","0.2670703017","0.6","0.4","0.2","0.8","0.4797168847","0.7027468204","0.2670703017","0.4843563089","","","","","","","","","","","","","","75","K","2","","","61","main_expt",""
"","bandit","141","615709","0.0-103.0-0.0","82256801","wem/bandit_party_2","A1A2XH9JVSN8Z0","either","4","932","","","","","","","0","0","1","","0.1622034337","0.6","0.4","0.2","0.8","0.441351191","0.7461433662","0.1622034337","0.4970562682","","","","","","","","","","","","","","75","K","2","","","62","main_expt",""
"","bandit","142","617903","0.0-104.0-0.0","82256801","wem/bandit_party_2","A1A2XH9JVSN8Z0","either","4","669","","","","","","","0","0","1","0.1872430185","","0.6","0.4","0.2","0.8","","","","","0.6405696824","0.7956877632","0.1872430185","0.4870743105","","","","","","","","","","75","K","2","","","63","main_expt",""
"","bandit","143","620294","0.0-105.0-0.0","82256801","wem/bandit_party_2","A1A2XH9JVSN8Z0","either","4","864","","","","","","","1","0","0","0.5297884171","","0.6","0.4","0.2","0.8","","","","","0.5093225209","0.7533911137","0.1921602407","0.5297884171","","","","","","","","","","76","L","3","","","64","main_expt",""
"","bandit","144","622152","0.0-106.0-0.0","82256801","wem/bandit_party_2","A1A2XH9JVSN8Z0","either","4","334","","","","","","","1","0","0","0.5510281753","","0.6","0.4","0.2","0.8","","","","","0.5190422554","0.8407665504","0.1747679693","0.5510281753","","","","","","","","","","76","L","3","","","65","main_expt",""
"","bandit","145","624008","0.0-107.0-0.0","82256801","wem/bandit_party_2","A1A2XH9JVSN8Z0","either","4","331","","","","","","","1","0","0","0.6548378986","","0.6","0.4","0.2","0.8","","","","","0.4367989657","0.8392190168","0.149475979","0.6548378986","","","","","","","","","","76","L","3","","","66","main_expt",""
"","bandit","146","625865","0.0-108.0-0.0","82256801","wem/bandit_party_2","A1A2XH9JVSN8Z0","either","4","326","","","","","","","0","1","0","","0.7873643744","0.6","0.4","0.2","0.8","0.4515976155","0.7998105719","0.1340316754","0.7873643744","","","","","","","","","","","","","","76","L","3","","","67","main_expt",""
"","bandit","147","627817","0.0-109.0-0.0","82256801","wem/bandit_party_2","A1A2XH9JVSN8Z0","either","4","423","","","","","","","1","0","0","0.8374830125","","0.6","0.4","0.2","0.8","","","","","0.4605235732","0.8055175736","0.1635100664","0.8374830125","","","","","","","","","","76","L","3","","","68","main_expt",""
"","bandit","148","629768","0.0-110.0-0.0","82256801","wem/bandit_party_2","A1A2XH9JVSN8Z0","either","4","423","","","","","","","0","0","1","0.7948054761","","0.6","0.4","0.2","0.8","","","","","0.3799115548","0.9157616325","0.1227365859","0.7948054761","","","","","","","","","","76","L","3","","","69","main_expt",""
"","bandit","149","631880","0.0-111.0-0.0","82256801","wem/bandit_party_2","A1A2XH9JVSN8Z0","either","4","586","","","","","","","0","0","1","0.8257183208","","0.6","0.4","0.2","0.8","","","","","0.4215965018","0.9575411193","0.1248437045","0.8257183208","","","","","","","","","","76","L","3","","","70","main_expt",""
"","bandit","150","633761","0.0-112.0-0.0","82256801","wem/bandit_party_2","A1A2XH9JVSN8Z0","either","4","338","","","","","","","0","0","1","0.7378076352","","0.6","0.4","0.2","0.8","","","","","0.4069040491","0.9604429572","0.1153860856","0.7378076352","","","","","","","","","","76","L","3","","","71","main_expt",""
"","bandit","151","635986","0.0-113.0-0.0","82256801","wem/bandit_party_2","A1A2XH9JVSN8Z0","either","4","690","","","","","","","0","1","0","","0.9598545795","0.6","0.4","0.2","0.8","0.4396577013","0.9598545795","0.1355011504","0.7402058239","","","","","","","","","","","","","","74","J","1","","","72","main_expt",""
"","bandit","152","637921","0.0-114.0-0.0","82256801","wem/bandit_party_2","A1A2XH9JVSN8Z0","either","4","407","","","","","","","0","1","0","","0.944667289","0.6","0.4","0.2","0.8","0.6562772762","0.944667289","0.05996807606","0.6976791507","","","","","","","","","","","","","","74","J","1","","","73","main_expt",""
"","bandit","153","639863","0.0-115.0-0.0","82256801","wem/bandit_party_2","A1A2XH9JVSN8Z0","either","4","415","","","","","","","0","1","0","","0.9226304804","0.6","0.4","0.2","0.8","0.6973429816","0.9226304804","0.05405538329","0.7918365236","","","","","","","","","","","","","","74","J","1","","","74","main_expt",""
"","bandit","154","641824","0.0-116.0-0.0","82256801","wem/bandit_party_2","A1A2XH9JVSN8Z0","either","4","429","","","","","","","0","1","0","","0.9398646798","0.6","0.4","0.2","0.8","0.7736122178","0.9398646798","0.02989929625","0.7822783488","","","","","","","","","","","","","","74","J","1","","","75","main_expt",""
"","bandit","155","643895","0.0-117.0-0.0","82256801","wem/bandit_party_2","A1A2XH9JVSN8Z0","either","4","543","","","","","","","0","1","0","","0.9344412274","0.6","0.4","0.2","0.8","0.8130420724","0.9344412274","0.0563551135","0.7290889389","","","","","","","","","","","","","","74","J","1","","","76","main_expt",""
"","bandit","156","646143","0.0-118.0-0.0","82256801","wem/bandit_party_2","A1A2XH9JVSN8Z0","either","4","722","","","","","","","1","0","0","0.9512527415","","0.6","0.4","0.2","0.8","","","","","0.8182773084","0.9512527415","0.0510075381","0.7903383215","","","","","","","","","","74","J","1","","","77","main_expt",""
"","bandit","157","648071","0.0-119.0-0.0","82256801","wem/bandit_party_2","A1A2XH9JVSN8Z0","either","4","402","","","","","","","0","1","0","","0.945324638","0.6","0.4","0.2","0.8","0.910984946","0.945324638","0.07280641377","0.8093770606","","","","","","","","","","","","","","74","J","1","","","78","main_expt",""
"","bandit","158","649999","0.0-120.0-0.0","82256801","wem/bandit_party_2","A1A2XH9JVSN8Z0","either","4","398","","","","","","","1","0","0","0.9313693401","","0.6","0.4","0.2","0.8","","","","","0.9303795674","0.9313693401","0.06591604593","0.7310189459","","","","","","","","","","74","J","1","","","79","main_expt",""
"","bandit","159","651910","0.0-121.0-0.0","82256801","wem/bandit_party_2","A1A2XH9JVSN8Z0","either","4","387","","","","","","","0","1","0","","0.9272018461","0.6","0.4","0.2","0.8","0.9581515868","0.9272018461","0.02790121052","0.7915113188","","","","","","","","","","","","","","74","J","1","","","80","main_expt",""
"","bandit","160","653803","0.0-122.0-0.0","82256801","wem/bandit_party_2","A1A2XH9JVSN8Z0","either","4","369","","","","","","","0","1","0","","0.9340165544","0.6","0.4","0.2","0.8","0.9107397581","0.9340165544","0.03997429631","0.8463201033","","","","","","","","","","","","","","74","J","1","","","81","main_expt",""
"","bandit","161","655744","0.0-123.0-0.0","82256801","wem/bandit_party_2","A1A2XH9JVSN8Z0","either","4","412","","","","","","","0","1","0","","0.9778602254","0.6","0.4","0.2","0.8","0.9531247327","0.9778602254","0.03692483048","0.9043915002","","","","","","","","","","","","","","74","J","1","","","82","main_expt",""
"","bandit","162","657896","0.0-124.0-0.0","82256801","wem/bandit_party_2","A1A2XH9JVSN8Z0","either","4","623","","","","","","","0","1","0","","0.9593015187","0.6","0.4","0.2","0.8","0.91574064","0.9593015187","0.04167024954","0.922294541","","","","","","","","","","","","","","74","J","1","","","83","main_expt",""
"","bandit","163","659833","0.0-125.0-0.0","82256801","wem/bandit_party_2","A1A2XH9JVSN8Z0","either","4","407","","","","","","","0","1","0","","0.9398758864","0.6","0.4","0.2","0.8","0.9287460716","0.9398758864","0.03449326924","0.9079954767","","","","","","","","","","","","","","74","J","1","","","84","main_expt",""
"","bandit","164","661798","0.0-126.0-0.0","82256801","wem/bandit_party_2","A1A2XH9JVSN8Z0","either","4","434","","","","","","","0","1","0","","0.9256746213","0.6","0.4","0.2","0.8","0.9817994773","0.9256746213","0.07382848834","0.92293493","","","","","","","","","","","","","","74","J","1","","","85","main_expt",""
"","bandit","165","663793","0.0-127.0-0.0","82256801","wem/bandit_party_2","A1A2XH9JVSN8Z0","either","4","470","","","","","","","0","1","0","","0.8910640916","0.6","0.4","0.2","0.8","0.9651028603","0.8910640916","0.08839198485","0.8831043051","","","","","","","","","","","","","","74","J","1","","","86","main_expt",""
"","bandit","166","665718","0.0-128.0-0.0","82256801","wem/bandit_party_2","A1A2XH9JVSN8Z0","either","4","405","","","","","","","0","1","0","","0.8729480744","0.6","0.4","0.2","0.8","0.9364705545","0.8729480744","0.08767612821","0.876749115","","","","","","","","","","","","","","74","J","1","","","87","main_expt",""
"","bandit","167","668052","0.0-129.0-0.0","82256801","wem/bandit_party_2","A1A2XH9JVSN8Z0","either","4","816","","","","","","","1","0","0","0.8780151739","","0.6","0.4","0.2","0.8","","","","","0.9235767634","0.8780151739","0.1606359608","0.9189432589","","","","","","","","","","74","J","1","","","88","main_expt",""
"","bandit","168","670022","0.0-130.0-0.0","82256801","wem/bandit_party_2","A1A2XH9JVSN8Z0","either","4","440","","","","","","","1","0","0","0.8856980863","","0.6","0.4","0.2","0.8","","","","","0.9375107972","0.8856980863","0.2051996915","0.8770582065","","","","","","","","","","74","J","1","","","89","main_expt",""
"","bandit","169","672006","0.0-131.0-0.0","82256801","wem/bandit_party_2","A1A2XH9JVSN8Z0","either","4","455","","","","","","","0","1","0","","0.8828292745","0.6","0.4","0.2","0.8","0.9201099193","0.8828292745","0.1757431166","0.9303780437","","","","","","","","","","","","","","74","J","1","","","90","main_expt",""
"","bandit","170","673966","0.0-132.0-0.0","82256801","wem/bandit_party_2","A1A2XH9JVSN8Z0","either","4","441","","","","","","","0","0","1","","0.9016480115","0.6","0.4","0.2","0.8","0.9416722714","0.9016480115","0.3470073597","0.8870296602","","","","","","","","","","","","","","74","J","1","","","91","main_expt",""
"","bandit","171","675908","0.0-133.0-0.0","82256801","wem/bandit_party_2","A1A2XH9JVSN8Z0","either","4","423","","","","","","","0","1","0","","0.9077272713","0.6","0.4","0.2","0.8","0.943817784","0.9077272713","0.4969118024","0.8466670433","","","","","","","","","","","","","","74","J","1","","","92","main_expt",""
"","bandit","172","677869","0.0-134.0-0.0","82256801","wem/bandit_party_2","A1A2XH9JVSN8Z0","either","4","434","","","","","","","1","0","0","0.875936713","","0.6","0.4","0.2","0.8","","","","","0.9078517942","0.875936713","0.5773598144","0.850017275","","","","","","","","","","74","J","1","","","93","main_expt",""
"","bandit","173","679717","0.0-135.0-0.0","82256801","wem/bandit_party_2","A1A2XH9JVSN8Z0","either","4","329","","","","","","","1","0","0","0.8089346838","","0.6","0.4","0.2","0.8","","","","","0.8983200186","0.8089346838","0.5513550223","0.6893652978","","","","","","","","","","74","J","1","","","94","main_expt",""
"","bandit","174","681683","0.0-136.0-0.0","82256801","wem/bandit_party_2","A1A2XH9JVSN8Z0","either","4","448","","","","","","","0","1","0","","0.7472177953","0.6","0.4","0.2","0.8","0.8744309931","0.7472177953","0.5461825447","0.6025630118","","","","","","","","","","","","","","74","J","1","","","95","main_expt",""
"","bandit","175","683588","0.0-137.0-0.0","82256801","wem/bandit_party_2","A1A2XH9JVSN8Z0","either","4","380","","","","","","","0","1","0","","0.631257407","0.6","0.4","0.2","0.8","0.8894212924","0.631257407","0.5564841108","0.5565182624","","","","","","","","","","","","","","74","J","1","","","96","main_expt",""
"","bandit","176","685485","0.0-138.0-0.0","82256801","wem/bandit_party_2","A1A2XH9JVSN8Z0","either","4","375","","","","","","","0","1","0","","0.7474787878","0.6","0.4","0.2","0.8","0.891162681","0.7474787878","0.6513715187","0.4820287155","","","","","","","","","","","","","","74","J","1","","","97","main_expt",""
"","bandit","177","687493","0.0-139.0-0.0","82256801","wem/bandit_party_2","A1A2XH9JVSN8Z0","either","4","481","","","","","","","0","0","1","","0.7753317291","0.6","0.4","0.2","0.8","0.8495400438","0.7753317291","0.7004254565","0.4599621431","","","","","","","","","","","","","","74","J","1","","","98","main_expt",""
"","bandit","178","689907","0.0-140.0-0.0","82256801","wem/bandit_party_2","A1A2XH9JVSN8Z0","either","4","863","","","","","","","0","1","0","","0.7088399779","0.6","0.4","0.2","0.8","0.8671572546","0.7088399779","0.6473310623","0.4109144258","","","","","","","","","","","","","","74","J","1","","","99","main_expt",""
"","bandit","179","691846","0.0-141.0-0.0","82256801","wem/bandit_party_2","A1A2XH9JVSN8Z0","either","4","417","","","","","","","1","0","0","0.7328055719","","0.6","0.4","0.2","0.8","","","","","0.8312294914","0.7328055719","0.6160818326","0.3466085394","","","","","","","","","","74","J","1","","","100","main_expt",""
"","bandit","180","693759","0.0-142.0-0.0","82256801","wem/bandit_party_2","A1A2XH9JVSN8Z0","either","4","376","","","","","","","1","0","0","0.8183789849","","0.6","0.4","0.2","0.8","","","","","0.8135240708","0.8183789849","0.6963675268","0.3712289037","","","","","","","","","","74","J","1","","","101","main_expt",""
"","bandit","181","695640","0.0-143.0-0.0","82256801","wem/bandit_party_2","A1A2XH9JVSN8Z0","either","4","354","","","","","","","1","0","0","0.7854635714","","0.6","0.4","0.2","0.8","","","","","0.8556055773","0.7854635714","0.6339579424","0.3626324234","","","","","","","","","","74","J","1","","","102","main_expt",""
"","bandit","182","697553","0.0-144.0-0.0","82256801","wem/bandit_party_2","A1A2XH9JVSN8Z0","either","4","383","","","","","","","0","1","0","","0.8481411385","0.6","0.4","0.2","0.8","0.7632006143","0.8481411385","0.6908430899","0.2748825764","","","","","","","","","","","","","","74","J","1","","","103","main_expt",""
"","bandit","183","699421","0.0-145.0-0.0","82256801","wem/bandit_party_2","A1A2XH9JVSN8Z0","either","4","338","","","","","","","1","0","0","0.8129446485","","0.6","0.4","0.2","0.8","","","","","0.8273213265","0.8129446485","0.6866318891","0.2381725209","","","","","","","","","","74","J","1","","","104","main_expt",""
"","bandit","184","701343","0.0-146.0-0.0","82256801","wem/bandit_party_2","A1A2XH9JVSN8Z0","either","4","341","","","","","","","0","1","0","","0.7898688037","0.6","0.4","0.2","0.8","0.7930501456","0.7898688037","0.6749941214","0.1939551764","","","","","","","","","","","","","","74","J","1","","","105","main_expt",""
"","bandit","185","703233","0.0-147.0-0.0","82256801","wem/bandit_party_2","A1A2XH9JVSN8Z0","either","4","362","","","","","","","1","0","0","0.7810744832","","0.6","0.4","0.2","0.8","","","","","0.7186603115","0.7810744832","0.7300347885","0.1884153881","","","","","","","","","","74","J","1","","","106","main_expt",""
"","bandit","186","704836","0.0-148.0-0.0","82256801","wem/bandit_party_2","A1A2XH9JVSN8Z0","either","4","73","","","","","","","1","0","0","0.7837395221","","0.6","0.4","0.2","0.8","","","","","0.7155595947","0.7837395221","0.8133516847","0.1011451677","","","","","","","","","","74","J","1","","","107","main_expt",""
"","bandit","187","706677","0.0-149.0-0.0","82256801","wem/bandit_party_2","A1A2XH9JVSN8Z0","either","4","312","","","","","","","0","0","1","0.787971135","","0.6","0.4","0.2","0.8","","","","","0.7654707556","0.787971135","0.8009432675","0.1500242655","","","","","","","","","","74","J","1","","","108","main_expt",""
"","bandit","188","708662","0.0-150.0-0.0","82256801","wem/bandit_party_2","A1A2XH9JVSN8Z0","either","4","455","","","","","","","0","0","1","0.6866525704","","0.6","0.4","0.2","0.8","","","","","0.6288612937","0.6866525704","0.7379370491","0.1285750889","","","","","","","","","","74","J","1","","","109","main_expt",""
"","bandit","189","710600","0.0-151.0-0.0","82256801","wem/bandit_party_2","A1A2XH9JVSN8Z0","either","4","406","","","","","","","0","0","1","","0.7379992527","0.6","0.4","0.2","0.8","0.6309058105","0.5824748378","0.7379992527","0.06279291231","","","","","","","","","","","","","","75","K","2","","","110","main_expt",""
"","bandit","190","712542","0.0-152.0-0.0","82256801","wem/bandit_party_2","A1A2XH9JVSN8Z0","either","4","411","","","","","","","0","1","0","","0.7464430213","0.6","0.4","0.2","0.8","0.6218965746","0.659702805","0.7464430213","0.07144278273","","","","","","","","","","","","","","75","K","2","","","111","main_expt",""
"","bandit","191","714109","0.0-153.0-0.0","82256801","wem/bandit_party_2","A1A2XH9JVSN8Z0","either","4","36","","","","","","","0","1","0","","0.7736339118","0.6","0.4","0.2","0.8","0.6741482942","0.5111205641","0.7736339118","0.06013221683","","","","","","","","","","","","","","75","K","2","","","112","main_expt",""
"","bandit","192","716117","0.0-154.0-0.0","82256801","wem/bandit_party_2","A1A2XH9JVSN8Z0","either","4","480","","","","","","","0","1","0","","0.8480767854","0.6","0.4","0.2","0.8","0.7405202534","0.4852392648","0.8480767854","0.1442356489","","","","","","","","","","","","","","75","K","2","","","113","main_expt",""
"","bandit","193","718101","0.0-155.0-0.0","82256801","wem/bandit_party_2","A1A2XH9JVSN8Z0","either","4","451","","","","","","","0","1","0","","0.8016933152","0.6","0.4","0.2","0.8","0.743157628","0.3531287621","0.8016933152","0.1733870882","","","","","","","","","","","","","","75","K","2","","","114","main_expt",""
"","bandit","194","720192","0.0-156.0-0.0","82256801","wem/bandit_party_2","A1A2XH9JVSN8Z0","either","4","557","","","","","","","0","1","0","","0.8200260584","0.6","0.4","0.2","0.8","0.7732583829","0.4090792957","0.8200260584","0.2198725907","","","","","","","","","","","","","","75","K","2","","","115","main_expt",""
"","bandit","195","722293","0.0-157.0-0.0","82256801","wem/bandit_party_2","A1A2XH9JVSN8Z0","either","4","553","","","","","","","0","1","0","","0.7761954976","0.6","0.4","0.2","0.8","0.6224016225","0.4927933112","0.7761954976","0.2116870815","","","","","","","","","","","","","","75","K","2","","","116","main_expt",""
"","bandit","196","724245","0.0-158.0-0.0","82256801","wem/bandit_party_2","A1A2XH9JVSN8Z0","either","4","414","","","","","","","0","1","0","","0.7722233998","0.6","0.4","0.2","0.8","0.6784399158","0.4255499736","0.7722233998","0.1293815938","","","","","","","","","","","","","","75","K","2","","","117","main_expt",""
"","bandit","197","726203","0.0-159.0-0.0","82256801","wem/bandit_party_2","A1A2XH9JVSN8Z0","either","4","393","","","","","","","0","0","1","","0.8049831996","0.6","0.4","0.2","0.8","0.7499631032","0.4073726931","0.8049831996","0.1442073762","","","","","","","","","","","","","","75","K","2","","","118","main_expt",""
"","bandit","198","728128","0.0-160.0-0.0","82256801","wem/bandit_party_2","A1A2XH9JVSN8Z0","either","4","398","","","","","","","0","1","0","","0.8469405197","0.6","0.4","0.2","0.8","0.6258432538","0.5447318884","0.8469405197","0.2098334931","","","","","","","","","","","","","","75","K","2","","","119","main_expt",""
"","bandit","199","730048","0.0-161.0-0.0","82256801","wem/bandit_party_2","A1A2XH9JVSN8Z0","either","4","383","","","","","","","1","0","0","0.783925966","","0.6","0.4","0.2","0.8","","","","","0.5602994123","0.5336717705","0.783925966","0.243218138","","","","","","","","","","75","K","2","","","120","main_expt",""
"","bandit","200","732085","0.0-162.0-0.0","82256801","wem/bandit_party_2","A1A2XH9JVSN8Z0","either","4","506","","","","","","","0","1","0","","0.8031476983","0.6","0.4","0.2","0.8","0.5850644561","0.5621279662","0.8031476983","0.1595445902","","","","","","","","","","","","","","75","K","2","","","121","main_expt",""
"","bandit","201","734189","0.0-163.0-0.0","82256801","wem/bandit_party_2","A1A2XH9JVSN8Z0","either","4","570","","","","","","","0","1","0","","0.776878313","0.6","0.4","0.2","0.8","0.6205732407","0.5664238538","0.776878313","0.1939767007","","","","","","","","","","","","","","75","K","2","","","122","main_expt",""
"","bandit","202","736053","0.0-164.0-0.0","82256801","wem/bandit_party_2","A1A2XH9JVSN8Z0","either","4","340","","","","","","","0","0","1","","0.7695343448","0.6","0.4","0.2","0.8","0.7954206102","0.6501842916","0.7695343448","0.2265728871","","","","","","","","","","","","","","75","K","2","","","123","main_expt",""
"","bandit","203","738388","0.0-165.0-0.0","82256801","wem/bandit_party_2","A1A2XH9JVSN8Z0","either","4","803","","","","","","","0","1","0","","0.6154230174","0.6","0.4","0.2","0.8","0.881213352","0.5413703051","0.6154230174","0.2027469411","","","","","","","","","","","","","","75","K","2","","","124","main_expt",""
"","bandit","204","740253","0.0-166.0-0.0","82256801","wem/bandit_party_2","A1A2XH9JVSN8Z0","either","4","341","","","","","","","0","0","1","","0.4710930195","0.6","0.4","0.2","0.8","0.8598562332","0.5191338098","0.4710930195","0.1506135949","","","","","","","","","","","","","","75","K","2","","","125","main_expt",""
"","bandit","205","742448","0.0-167.0-0.0","82256801","wem/bandit_party_2","A1A2XH9JVSN8Z0","either","4","660","","","","","","","0","0","1","0.5258886302","","0.6","0.4","0.2","0.8","","","","","0.867144728","0.6232591378","0.5258886302","0.1875851228","","","","","","","","","","75","K","2","","","126","main_expt",""
"","bandit","206","747089","0.0-168.0-0.0","82256801","wem/bandit_party_2","A1A2XH9JVSN8Z0","either","4","3096","","","","","","","0","0","1","0.2106184636","","0.6","0.4","0.2","0.8","","","","","0.8677917819","0.601333273","0.3996486754","0.2106184636","","","","","","","","","","76","L","3","","","127","main_expt",""
"","bandit","207","748964","0.0-169.0-0.0","82256801","wem/bandit_party_2","A1A2XH9JVSN8Z0","either","4","341","","","","","","","0","0","1","0.1276240755","","0.6","0.4","0.2","0.8","","","","","0.8194058857","0.6312294041","0.3557241191","0.1276240755","","","","","","","","","","76","L","3","","","128","main_expt",""
"","bandit","208","750948","0.0-170.0-0.0","82256801","wem/bandit_party_2","A1A2XH9JVSN8Z0","either","4","450","","","","","","","0","0","1","0.2163335705","","0.6","0.4","0.2","0.8","","","","","0.813940224","0.6655034733","0.2432070908","0.2163335705","","","","","","","","","","76","L","3","","","129","main_expt",""
"","bandit","209","753969","0.0-171.0-0.0","82256801","wem/bandit_party_2","A1A2XH9JVSN8Z0","either","4","1484","","","","","","","1","0","0","0.6882303755","","0.6","0.4","0.2","0.8","","","","","0.7296764962","0.6882303755","0.1722843937","0.2448863899","","","","","","","","","","74","J","1","","","130","main_expt",""
"","bandit","210","756060","0.0-172.0-0.0","82256801","wem/bandit_party_2","A1A2XH9JVSN8Z0","either","4","559","","","","","","","0","1","0","","0.6772884453","0.6","0.4","0.2","0.8","0.614258276","0.6772884453","0.1336027919","0.3447645787","","","","","","","","","","","","","","74","J","1","","","131","main_expt",""
"","bandit","211","758063","0.0-173.0-0.0","82256801","wem/bandit_party_2","A1A2XH9JVSN8Z0","either","4","463","","","","","","","0","0","1","","0.6773684555","0.6","0.4","0.2","0.8","0.5349540706","0.6773684555","0.1351629047","0.3622527956","","","","","","","","","","","","","","74","J","1","","","132","main_expt",""
"","bandit","212","760107","0.0-174.0-0.0","82256801","wem/bandit_party_2","A1A2XH9JVSN8Z0","either","4","511","","","","","","","0","0","1","","0.7437755928","0.6","0.4","0.2","0.8","0.5449090787","0.7437755928","0.2495029","0.2961885878","","","","","","","","","","","","","","74","J","1","","","133","main_expt",""
"","bandit","213","762021","0.0-175.0-0.0","82256801","wem/bandit_party_2","A1A2XH9JVSN8Z0","either","4","380","","","","","","","0","1","0","","0.7423545867","0.6","0.4","0.2","0.8","0.5037108559","0.7423545867","0.2118512663","0.2932126781","","","","","","","","","","","","","","74","J","1","","","134","main_expt",""
"","bandit","214","764118","0.0-176.0-0.0","82256801","wem/bandit_party_2","A1A2XH9JVSN8Z0","either","4","565","","","","","","","0","0","1","0.7462440124","","0.6","0.4","0.2","0.8","","","","","0.5131336393","0.7462440124","0.2474577379","0.2836439675","","","","","","","","","","74","J","1","","","135","main_expt",""
"","bandit","215","767245","0.0-177.0-0.0","82256801","wem/bandit_party_2","A1A2XH9JVSN8Z0","either","4","1590","","","","","","","0","0","1","0.6372772774","","0.6","0.4","0.2","0.8","","","","","0.5847952324","0.6372772774","0.1496333288","0.1985775905","","","","","","","","","","74","J","1","","","136","main_expt",""
"","bandit","216","770089","0.0-178.0-0.0","82256801","wem/bandit_party_2","A1A2XH9JVSN8Z0","either","4","1305","","","","","","","0","0","1","","0.164835495","0.6","0.4","0.2","0.8","0.5191620222","0.6587707878","0.164835495","0.2655975","","","","","","","","","","","","","","75","K","2","","","137","main_expt",""
"","bandit","217","771749","0.0-179.0-0.0","82256801","wem/bandit_party_2","A1A2XH9JVSN8Z0","either","4","131","","","","","","","0","0","1","","0.1629561883","0.6","0.4","0.2","0.8","0.3830682141","0.6545472314","0.1629561883","0.4066298912","","","","","","","","","","","","","","75","K","2","","","138","main_expt",""
"","bandit","218","773603","0.0-180.0-0.0","82256801","wem/bandit_party_2","A1A2XH9JVSN8Z0","either","4","322","","","","","","","0","0","1","","0.1162724323","0.6","0.4","0.2","0.8","0.3036015776","0.5773899651","0.1162724323","0.4537429859","","","","","","","","","","","","","","75","K","2","","","139","main_expt",""
"","bandit","219","775554","0.0-181.0-0.0","82256801","wem/bandit_party_2","A1A2XH9JVSN8Z0","either","4","429","","","","","","","0","0","1","","0.1262651596","0.6","0.4","0.2","0.8","0.2541790234","0.5786924042","0.1262651596","0.410026376","","","","","","","","","","","","","","75","K","2","","","140","main_expt",""
"","bandit","220","779583","0.0-182.0-0.0","82256801","wem/bandit_party_2","A1A2XH9JVSN8Z0","either","4","2488","","","","","","","0","0","1","0.1899663758","","0.6","0.4","0.2","0.8","","","","","0.1899663758","0.4589731036","0.1258799353","0.3978668086","","","","","","","","","","72","H","0","img/none_selected.jpg","","141","main_expt",""
"","bandit","221","781498","0.0-183.0-0.0","82256801","wem/bandit_party_2","A1A2XH9JVSN8Z0","either","4","386","","","","","","","0","0","1","0.214868544","","0.6","0.4","0.2","0.8","","","","","0.214868544","0.3667804619","0.1220135665","0.4096738096","","","","","","","","","","72","H","0","img/none_selected.jpg","","142","main_expt",""
"","bandit","222","783163","0.0-184.0-0.0","82256801","wem/bandit_party_2","A1A2XH9JVSN8Z0","either","4","133","","","","","","","0","0","1","0.1549416237","","0.6","0.4","0.2","0.8","","","","","0.1549416237","0.3563831379","0.1600355681","0.5422751762","","","","","","","","","","72","H","0","img/none_selected.jpg","","143","main_expt",""
"","bandit","223","785066","0.0-185.0-0.0","82256801","wem/bandit_party_2","A1A2XH9JVSN8Z0","either","4","371","","","","","","","0","0","1","","0.2142728447","0.6","0.4","0.2","0.8","0.2142728447","0.3675361202","0.103653669","0.6045197677","","","","","","","","","","","","","","72","H","0","img/none_selected.jpg","","144","main_expt",""
"","bandit","224","788240","0.0-186.0-0.0","82256801","wem/bandit_party_2","A1A2XH9JVSN8Z0","either","4","1644","","","","","","","1","0","0","0.6140727406","","0.6","0.4","0.2","0.8","","","","","0.2166472609","0.3266856562","0.1417267119","0.6140727406","","","","","","","","","","76","L","3","","","145","main_expt",""
"","bandit","225","790250","0.0-187.0-0.0","82256801","wem/bandit_party_2","A1A2XH9JVSN8Z0","either","4","477","","","","","","","1","0","0","0.5553742365","","0.6","0.4","0.2","0.8","","","","","0.2446047688","0.2815179259","0.1508894681","0.5553742365","","","","","","","","","","76","L","3","","","146","main_expt",""
"","bandit","226","792170","0.0-188.0-0.0","82256801","wem/bandit_party_2","A1A2XH9JVSN8Z0","either","4","387","","","","","","","0","1","0","","0.52787167","0.6","0.4","0.2","0.8","0.3011136322","0.3560244833","0.1207147728","0.52787167","","","","","","","","","","","","","","76","L","3","","","147","main_expt",""
"","bandit","227","794684","0.0-189.0-0.0","82256801","wem/bandit_party_2","A1A2XH9JVSN8Z0","either","4","974","","","","","","","1","0","0","0.5053851794","","0.6","0.4","0.2","0.8","","","","","0.2519777133","0.3585854149","0.1362234148","0.5053851794","","","","","","","","","","76","L","3","","","148","main_expt",""
"","bandit","228","796688","0.0-190.0-0.0","82256801","wem/bandit_party_2","A1A2XH9JVSN8Z0","either","4","467","","","","","","","1","0","0","0.5431256022","","0.6","0.4","0.2","0.8","","","","","0.2996109941","0.284478414","0.1244444975","0.5431256022","","","","","","","","","","76","L","3","","","149","main_expt",""
"","bandit","229","798333","0.0-191.0-0.0","82256801","wem/bandit_party_2","A1A2XH9JVSN8Z0","either","4","105","","","","","","","0","0","1","0.422574086","","0.6","0.4","0.2","0.8","","","","","0.2963563975","0.2617238314","0.1109305632","0.422574086","","","","","","","","","","76","L","3","","","150","main_expt",""
"","bandit","230","799961","0.0-192.0-0.0","82256801","wem/bandit_party_2","A1A2XH9JVSN8Z0","either","4","99","","","","","","","1","0","0","0.3907227364","","0.6","0.4","0.2","0.8","","","","","0.4327396174","0.2709462114","0.11412436","0.3907227364","","","","","","","","","","76","L","3","","","151","main_expt",""
"","bandit","231","801907","0.0-193.0-0.0","82256801","wem/bandit_party_2","A1A2XH9JVSN8Z0","either","4","381","","","","","","","0","1","0","","0.5580814469","0.6","0.4","0.2","0.8","0.4303068123","0.2993716907","0.1469045903","0.5580814469","","","","","","","","","","","","","","76","L","3","","","152","main_expt",""
"","bandit","232","803845","0.0-194.0-0.0","82256801","wem/bandit_party_2","A1A2XH9JVSN8Z0","either","4","408","","","","","","","1","0","0","0.51223936","","0.6","0.4","0.2","0.8","","","","","0.455197397","0.2733354782","0.1633028487","0.51223936","","","","","","","","","","76","L","3","","","153","main_expt",""
"","bandit","233","806046","0.0-195.0-0.0","82256801","wem/bandit_party_2","A1A2XH9JVSN8Z0","either","4","662","","","","","","","1","0","0","0.4811601507","","0.6","0.4","0.2","0.8","","","","","0.6184454144","0.3264007987","0.1340882311","0.4811601507","","","","","","","","","","76","L","3","","","154","main_expt",""
"","bandit","234","808099","0.0-196.0-0.0","82256801","wem/bandit_party_2","A1A2XH9JVSN8Z0","either","4","523","","","","","","","0","0","1","0.575425417","","0.6","0.4","0.2","0.8","","","","","0.5833601464","0.204433578","0.1041462846","0.575425417","","","","","","","","","","76","L","3","","","155","main_expt",""
"","bandit","235","810210","0.0-197.0-0.0","82256801","wem/bandit_party_2","A1A2XH9JVSN8Z0","either","4","575","","","","","","","0","0","1","0.6109018817","","0.6","0.4","0.2","0.8","","","","","0.646897734","0.07451572188","0.08564190031","0.6109018817","","","","","","","","","","76","L","3","","","156","main_expt",""
"","bandit","236","812062","0.0-198.0-0.0","82256801","wem/bandit_party_2","A1A2XH9JVSN8Z0","either","4","276","","","","","","","1","0","0","0.6812883852","","0.6","0.4","0.2","0.8","","","","","0.6912470103","0.1251686374","0.06977116317","0.6812883852","","","","","","","","","","76","L","3","","","157","main_expt",""
"","bandit","237","814532","0.0-199.0-0.0","82256801","wem/bandit_party_2","A1A2XH9JVSN8Z0","either","4","942","","","","","","","0","0","1","0.73777041","","0.6","0.4","0.2","0.8","","","","","0.7865398282","0.1292052795","0.1504927074","0.73777041","","","","","","","","","","76","L","3","","","158","main_expt",""
"","bandit","238","816526","0.0-200.0-0.0","82256801","wem/bandit_party_2","A1A2XH9JVSN8Z0","either","4","422","","","","","","","1","0","0","0.8388849062","","0.6","0.4","0.2","0.8","","","","","0.7220910122","0.1200050714","0.1429264201","0.8388849062","","","","","","","","","","76","L","3","","","159","main_expt",""
"","bandit","239","818601","0.0-201.0-0.0","82256801","wem/bandit_party_2","A1A2XH9JVSN8Z0","either","4","545","","","","","","","0","0","1","0.8006667519","","0.6","0.4","0.2","0.8","","","","","0.710563805","0.1156014834","0.1832893837","0.8006667519","","","","","","","","","","76","L","3","","","160","main_expt",""
"","bandit","240","820157","0.0-202.0-0.0","82256801","wem/bandit_party_2","A1A2XH9JVSN8Z0","either","4","17","","","","","","","1","0","0","0.7406956812","","0.6","0.4","0.2","0.8","","","","","0.6205281072","0.1425751263","0.2337310763","0.7406956812","","","","","","","","","","76","L","3","","","161","main_expt",""
"","bandit","241","822114","0.0-203.0-0.0","82256801","wem/bandit_party_2","A1A2XH9JVSN8Z0","either","4","423","","","","","","","0","0","1","","0.775259894","0.6","0.4","0.2","0.8","0.5246840185","0.2108345254","0.2326198937","0.775259894","","","","","","","","","","","","","","76","L","3","","","162","main_expt",""
"","bandit","242","824114","0.0-204.0-0.0","82256801","wem/bandit_party_2","A1A2XH9JVSN8Z0","either","4","464","","","","","","","1","0","0","0.6539471222","","0.6","0.4","0.2","0.8","","","","","0.569340372","0.1664621688","0.1584290897","0.6539471222","","","","","","","","","","76","L","3","","","163","main_expt",""
"","bandit","243","826434","0.0-205.0-0.0","82256801","wem/bandit_party_2","A1A2XH9JVSN8Z0","either","4","775","","","","","","","1","0","0","0.7914062868","","0.6","0.4","0.2","0.8","","","","","0.5688323765","0.1741279052","0.1417900361","0.7914062868","","","","","","","","","","76","L","3","","","164","main_expt",""
"","bandit","244","828645","0.0-206.0-0.0","82256801","wem/bandit_party_2","A1A2XH9JVSN8Z0","either","4","669","","","","","","","1","0","0","0.8415061218","","0.6","0.4","0.2","0.8","","","","","0.5195648955","0.1891196979","0.08849486786","0.8415061218","","","","","","","","","","76","L","3","","","165","main_expt",""
"","bandit","245","830888","0.0-207.0-0.0","82256801","wem/bandit_party_2","A1A2XH9JVSN8Z0","either","4","708","","","","","","","1","0","0","0.9084068317","","0.6","0.4","0.2","0.8","","","","","0.536500984","0.3016440744","0.1010416226","0.9084068317","","","","","","","","","","76","L","3","","","166","main_expt",""
"","bandit","246","833023","0.0-208.0-0.0","82256801","wem/bandit_party_2","A1A2XH9JVSN8Z0","either","4","602","","","","","","","1","0","0","0.8857506799","","0.6","0.4","0.2","0.8","","","","","0.4243381616","0.3427468607","0.1506776516","0.8857506799","","","","","","","","","","76","L","3","","","167","main_expt",""
"","bandit","247","834969","0.0-209.0-0.0","82256801","wem/bandit_party_2","A1A2XH9JVSN8Z0","either","4","412","","","","","","","1","0","0","0.9247721234","","0.6","0.4","0.2","0.8","","","","","0.4877327119","0.3759001064","0.2532220847","0.9247721234","","","","","","","","","","76","L","3","","","168","main_expt",""
"","bandit","248","836936","0.0-210.0-0.0","82256801","wem/bandit_party_2","A1A2XH9JVSN8Z0","either","4","403","","","","","","","0","0","1","0.8870410368","","0.6","0.4","0.2","0.8","","","","","0.5096331713","0.3824832387","0.2223654062","0.8870410368","","","","","","","","","","76","L","3","","","169","main_expt",""
"","bandit","249","838976","0.0-211.0-0.0","82256801","wem/bandit_party_2","A1A2XH9JVSN8Z0","either","4","503","","","","","","","0","1","0","","0.2161840498","0.6","0.4","0.2","0.8","0.6111595203","0.3257043992","0.2161840498","0.8782412079","","","","","","","","","","","","","","75","K","2","","","170","main_expt",""
"","bandit","250","841250","0.0-212.0-0.0","82256801","wem/bandit_party_2","A1A2XH9JVSN8Z0","either","4","736","","","","","","","0","0","1","","0.1996440145","0.6","0.4","0.2","0.8","0.5888321224","0.2943589708","0.1996440145","0.7978982074","","","","","","","","","","","","","","75","K","2","","","171","main_expt",""
"","bandit","251","843504","0.0-213.0-0.0","82256801","wem/bandit_party_2","A1A2XH9JVSN8Z0","either","4","729","","","","","","","0","0","1","","0.275753823","0.6","0.4","0.2","0.8","0.6295404033","0.4298537702","0.275753823","0.7896885826","","","","","","","","","","","","","","75","K","2","","","172","main_expt",""
"","bandit","252","845625","0.0-214.0-0.0","82256801","wem/bandit_party_2","A1A2XH9JVSN8Z0","either","4","585","","","","","","","0","0","1","","0.2850946521","0.6","0.4","0.2","0.8","0.5976712981","0.4196262671","0.2850946521","0.7771385218","","","","","","","","","","","","","","75","K","2","","","173","main_expt",""
"","bandit","253","847813","0.0-215.0-0.0","82256801","wem/bandit_party_2","A1A2XH9JVSN8Z0","either","4","649","","","","","","","0","0","1","","0.4056978145","0.6","0.4","0.2","0.8","0.5936331925","0.4056978145","0.2836726952","0.8412209493","","","","","","","","","","","","","","74","J","1","","","174","main_expt",""
"","bandit","254","849879","0.0-216.0-0.0","82256801","wem/bandit_party_2","A1A2XH9JVSN8Z0","either","4","542","","","","","","","0","0","1","0.3323311207","","0.6","0.4","0.2","0.8","","","","","0.544145328","0.3323311207","0.27413619","0.8433491626","","","","","","","","","","74","J","1","","","175","main_expt",""
"","bandit","255","852330","0.0-217.0-0.0","82256801","wem/bandit_party_2","A1A2XH9JVSN8Z0","either","4","923","","","","","","","0","0","1","0.3584947592","","0.6","0.4","0.2","0.8","","","","","0.3584947592","0.3087900888","0.2369491767","0.778586436","","","","","","","","","","72","H","0","img/none_selected.jpg","","176","main_expt",""
"","bandit","256","854344","0.0-218.0-0.0","82256801","wem/bandit_party_2","A1A2XH9JVSN8Z0","either","4","483","","","","","","","0","1","0","","0.436171931","0.6","0.4","0.2","0.8","0.436171931","0.3898613412","0.3440943848","0.7488794252","","","","","","","","","","","","","","72","H","0","img/none_selected.jpg","","177","main_expt",""
"","bandit","257","856266","0.0-219.0-0.0","82256801","wem/bandit_party_2","A1A2XH9JVSN8Z0","either","4","388","","","","","","","1","0","0","0.5193680035","","0.6","0.4","0.2","0.8","","","","","0.5193680035","0.5236321052","0.3529135521","0.7738581751","","","","","","","","","","72","H","0","img/none_selected.jpg","","178","main_expt",""
"","bandit","258","858398","0.0-220.0-0.0","82256801","wem/bandit_party_2","A1A2XH9JVSN8Z0","either","4","585","","","","","","","0","0","1","","0.3957798075","0.6","0.4","0.2","0.8","0.3957798075","0.2955080601","0.3787243664","0.7527820287","","","","","","","","","","","","","","72","H","0","img/none_selected.jpg","","179","main_expt",""
"","bandit","259","860698","0.0-221.0-0.0","82256801","wem/bandit_party_2","A1A2XH9JVSN8Z0","either","4","759","","","","","","","0","0","1","0.4249873197","","0.6","0.4","0.2","0.8","","","","","0.4249873197","0.3174151272","0.3092677326","0.8022950929","","","","","","","","","","72","H","0","img/none_selected.jpg","","180","main_expt",""
"","bandit","260","862480","0.0-222.0-0.0","82256801","wem/bandit_party_2","A1A2XH9JVSN8Z0","either","4","246","","","","","","","1","0","0","0.4260342439","","0.6","0.4","0.2","0.8","","","","","0.4260342439","0.3560995969","0.3701559146","0.7505347306","","","","","","","","","","72","H","0","img/none_selected.jpg","","181","main_expt",""
"","bandit","261","864692","0.0-223.0-0.0","82256801","wem/bandit_party_2","A1A2XH9JVSN8Z0","either","4","679","","","","","","","0","0","1","0.4305619521","","0.6","0.4","0.2","0.8","","","","","0.4305619521","0.4649908644","0.2672844749","0.603349844","","","","","","","","","","72","H","0","img/none_selected.jpg","","182","main_expt",""
"","bandit","262","866683","0.0-224.0-0.0","82256801","wem/bandit_party_2","A1A2XH9JVSN8Z0","either","4","453","","","","","","","0","1","0","","0.4588174784","0.6","0.4","0.2","0.8","0.4638513582","0.4588174784","0.3046315644","0.6464544124","","","","","","","","","","","","","","74","J","1","","","183","main_expt",""
"","bandit","263","868655","0.0-225.0-0.0","82256801","wem/bandit_party_2","A1A2XH9JVSN8Z0","either","4","436","","","","","","","1","0","0","0.509799977","","0.6","0.4","0.2","0.8","","","","","0.5084330557","0.509799977","0.3507685813","0.6606024443","","","","","","","","","","74","J","1","","","184","main_expt",""
"","bandit","264","870551","0.0-226.0-0.0","82256801","wem/bandit_party_2","A1A2XH9JVSN8Z0","either","4","358","","","","","","","1","0","0","0.4557178443","","0.6","0.4","0.2","0.8","","","","","0.5853778332","0.4557178443","0.3250269766","0.7034535028","","","","","","","","","","74","J","1","","","185","main_expt",""
"","bandit","265","872448","0.0-227.0-0.0","82256801","wem/bandit_party_2","A1A2XH9JVSN8Z0","either","4","362","","","","","","","0","0","1","","0.3250172706","0.6","0.4","0.2","0.8","0.5009207633","0.3250172706","0.3636669497","0.7672503758","","","","","","","","","","","","","","74","J","1","","","186","main_expt",""
"","bandit","266","875071","0.0-228.0-0.0","82256801","wem/bandit_party_2","A1A2XH9JVSN8Z0","either","4","1086","","","","","","","0","0","1","0.2982192525","","0.6","0.4","0.2","0.8","","","","","0.4376492532","0.2982192525","0.4095027401","0.7505037824","","","","","","","","","","74","J","1","","","187","main_expt",""
"","bandit","267","877902","0.0-229.0-0.0","82256801","wem/bandit_party_2","A1A2XH9JVSN8Z0","either","4","1300","","","","","","","1","0","0","0.2647713636","","0.6","0.4","0.2","0.8","","","","","0.317868257","0.2647713636","0.3356624093","0.7458261356","","","","","","","","","","74","J","1","","","188","main_expt",""
"","bandit","268","880183","0.0-230.0-0.0","82256801","wem/bandit_party_2","A1A2XH9JVSN8Z0","either","4","756","","","","","","","0","0","1","0.2798663258","","0.6","0.4","0.2","0.8","","","","","0.3700786551","0.2798663258","0.3717951419","0.747965221","","","","","","","","","","74","J","1","","","189","main_expt",""
"","bandit","269","881790","0.0-231.0-0.0","82256801","wem/bandit_party_2","A1A2XH9JVSN8Z0","either","4","73","","","","","","","0","0","1","","0.2146362806","0.6","0.4","0.2","0.8","0.3423477616","0.2146362806","0.3266606931","0.7459095382","","","","","","","","","","","","","","74","J","1","","","190","main_expt",""
"","bandit","270","883964","0.0-232.0-0.0","82256801","wem/bandit_party_2","A1A2XH9JVSN8Z0","either","4","644","","","","","","","0","0","1","","0.4206899072","0.6","0.4","0.2","0.8","0.2488230813","0.3132783624","0.4206899072","0.6299055833","","","","","","","","","","","","","","75","K","2","","","191","main_expt",""
"","bandit","271","885847","0.0-233.0-0.0","82256801","wem/bandit_party_2","A1A2XH9JVSN8Z0","either","4","348","","","","","","","1","0","0","0.688533977","","0.6","0.4","0.2","0.8","","","","","0.2193108308","0.2488083766","0.4982817076","0.688533977","","","","","","","","","","76","L","3","","","192","main_expt",""
"","bandit","272","887942","0.0-234.0-0.0","82256801","wem/bandit_party_2","A1A2XH9JVSN8Z0","either","4","557","","","","","","","1","0","0","0.7176496952","","0.6","0.4","0.2","0.8","","","","","0.4057276106","0.225611763","0.4820211017","0.7176496952","","","","","","","","","","76","L","3","","","193","main_expt",""
"","bandit","273","889993","0.0-235.0-0.0","82256801","wem/bandit_party_2","A1A2XH9JVSN8Z0","either","4","515","","","","","","","1","0","0","0.746212457","","0.6","0.4","0.2","0.8","","","","","0.3826056333","0.2159393038","0.5373891537","0.746212457","","","","","","","","","","76","L","3","","","194","main_expt",""
"","bandit","274","892095","0.0-236.0-0.0","82256801","wem/bandit_party_2","A1A2XH9JVSN8Z0","either","4","565","","","","","","","1","0","0","0.6800784202","","0.6","0.4","0.2","0.8","","","","","0.4922935908","0.3112228701","0.3890275207","0.6800784202","","","","","","","","","","76","L","3","","","195","main_expt",""
"","bandit","275","894015","0.0-237.0-0.0","82256801","wem/bandit_party_2","A1A2XH9JVSN8Z0","either","4","381","","","","","","","0","1","0","","0.5986295964","0.6","0.4","0.2","0.8","0.5475793877","0.3249051539","0.4329462643","0.5986295964","","","","","","","","","","","","","","76","L","3","","","196","main_expt",""
"","bandit","276","895879","0.0-238.0-0.0","82256801","wem/bandit_party_2","A1A2XH9JVSN8Z0","either","4","326","","","","","","","0","0","1","0.5323622673","","0.6","0.4","0.2","0.8","","","","","0.6069385875","0.2985018541","0.416825946","0.5323622673","","","","","","","","","","76","L","3","","","197","main_expt",""
"","bandit","277","897806","0.0-239.0-0.0","82256801","wem/bandit_party_2","A1A2XH9JVSN8Z0","either","4","391","","","","","","","0","0","1","0.5348043844","","0.6","0.4","0.2","0.8","","","","","0.4946816555","0.3109366799","0.4063336836","0.5348043844","","","","","","","","","","76","L","3","","","198","main_expt",""
"","bandit","278","900239","0.0-240.0-0.0","82256801","wem/bandit_party_2","A1A2XH9JVSN8Z0","either","4","890","","","","","","","0","0","1","0.4534403339","","0.6","0.4","0.2","0.8","","","","","0.479635203","0.3143364341","0.361264989","0.4534403339","","","","","","","","","","76","L","3","","","199","main_expt",""
"","bandit","279","902054","0.0-241.0-0.0","82256801","wem/bandit_party_2","A1A2XH9JVSN8Z0","either","4","281","","","","","","","0","0","1","0.4185876589","","0.6","0.4","0.2","0.8","","","","","0.4969837249","0.3176919365","0.4700223374","0.4185876589","","","","","","","","","","76","L","3","","","200","main_expt",""
"","bandit","280","904144","0.0-242.0-0.0","82256801","wem/bandit_party_2","A1A2XH9JVSN8Z0","either","4","552","","","","","","","0","0","1","","0.3812211227","0.6","0.4","0.2","0.8","0.4548125401","0.2848283651","0.4751543938","0.3812211227","","","","","","","","","","","","","","76","L","3","","","201","main_expt",""
"","bandit","281","906317","0.0-243.0-0.0","82256801","wem/bandit_party_2","A1A2XH9JVSN8Z0","either","4","639","","","","","","","0","0","1","0.4414728031","","0.6","0.4","0.2","0.8","","","","","0.5767771981","0.2439676923","0.4044794657","0.4414728031","","","","","","","","","","76","L","3","","","202","main_expt",""
"","bandit","282","908318","0.0-244.0-0.0","82256801","wem/bandit_party_2","A1A2XH9JVSN8Z0","either","4","463","","","","","","","0","1","0","","0.3321077444","0.6","0.4","0.2","0.8","0.6118171827","0.2582922662","0.3321077444","0.3698030662","","","","","","","","","","","","","","75","K","2","","","203","main_expt",""
"","bandit","283","909989","0.0-245.0-0.0","82256801","wem/bandit_party_2","A1A2XH9JVSN8Z0","either","4","142","","","","","","","0","0","1","0.3697340749","","0.6","0.4","0.2","0.8","","","","","0.5373194108","0.3799793739","0.3697340749","0.4899087748","","","","","","","","","","75","K","2","","","204","main_expt",""
"","bandit","284","911599","0.0-246.0-0.0","82256801","wem/bandit_party_2","A1A2XH9JVSN8Z0","either","4","76","","","","","","","0","0","1","","0.3998168993","0.6","0.4","0.2","0.8","0.5501461309","0.4441528059","0.3998168993","0.4310108402","","","","","","","","","","","","","","75","K","2","","","205","main_expt",""
"","bandit","285","913477","0.0-247.0-0.0","82256801","wem/bandit_party_2","A1A2XH9JVSN8Z0","either","4","342","","","","","","","0","1","0","","0.4929909192","0.6","0.4","0.2","0.8","0.5094027242","0.4468516792","0.4929909192","0.3912115078","","","","","","","","","","","","","","75","K","2","","","206","main_expt",""
"","bandit","286","916118","0.0-248.0-0.0","82256801","wem/bandit_party_2","A1A2XH9JVSN8Z0","either","4","1110","","","","","","","0","0","1","","0.4960693894","0.6","0.4","0.2","0.8","0.6449696869","0.399366085","0.4960693894","0.3195818707","","","","","","","","","","","","","","75","K","2","","","207","main_expt",""
"","bandit","287","918198","0.0-249.0-0.0","82256801","wem/bandit_party_2","A1A2XH9JVSN8Z0","either","4","542","","","","","","","0","1","0","","0.3912862986","0.6","0.4","0.2","0.8","0.549996868","0.4206610772","0.3912862986","0.2378171997","","","","","","","","","","","","","","75","K","2","","","208","main_expt",""
"","bandit","288","920150","0.0-250.0-0.0","82256801","wem/bandit_party_2","A1A2XH9JVSN8Z0","either","4","415","","","","","","","0","0","1","","0.4218938049","0.6","0.4","0.2","0.8","0.5258833792","0.5145499259","0.4218938049","0.2339104391","","","","","","","","","","","","","","75","K","2","","","209","main_expt",""
"","bandit","289","922150","0.0-251.0-0.0","82256801","wem/bandit_party_2","A1A2XH9JVSN8Z0","either","4","463","","","","","","","0","0","1","","0.6003160005","0.6","0.4","0.2","0.8","0.5453980868","0.3497539355","0.6003160005","0.2506558306","","","","","","","","","","","","","","75","K","2","","","210","main_expt",""
"","bandit","290","924101","0.0-252.0-0.0","82256801","wem/bandit_party_2","A1A2XH9JVSN8Z0","either","4","417","","","","","","","1","0","0","0.5481562991","","0.6","0.4","0.2","0.8","","","","","0.5370950561","0.3335821388","0.5481562991","0.3466578502","","","","","","","","","","75","K","2","","","211","main_expt",""
"","bandit","291","928595","0.0-253.0-0.0","82256801","wem/bandit_party_2","A1A2XH9JVSN8Z0","either","4","2953","","","","","","","0","0","1","","0.2778022227","0.6","0.4","0.2","0.8","0.5774996514","0.2778022227","0.6210595125","0.4162959965","","","","","","","","","","","","","","74","J","1","","","212","main_expt",""
"","bandit","292","930983","0.0-254.0-0.0","82256801","wem/bandit_party_2","A1A2XH9JVSN8Z0","either","4","846","","","","","","","0","1","0","","0.7732161257","0.6","0.4","0.2","0.8","0.4826056363","0.2949104287","0.7732161257","0.545788555","","","","","","","","","","","","","","75","K","2","","","213","main_expt",""
"","bandit","293","932945","0.0-255.0-0.0","82256801","wem/bandit_party_2","A1A2XH9JVSN8Z0","either","4","421","","","","","","","0","1","0","","0.7689771773","0.6","0.4","0.2","0.8","0.4913277851","0.2443343027","0.7689771773","0.6077749924","","","","","","","","","","","","","","75","K","2","","","214","main_expt",""
"","bandit","294","936742","0.0-256.0-0.0","82256801","wem/bandit_party_2","A1A2XH9JVSN8Z0","either","4","2256","","","","","","","1","0","0","0.6841712945","","0.6","0.4","0.2","0.8","","","","","0.5415006571","0.2232989174","0.6841712945","0.4883429648","","","","","","","","","","75","K","2","","","215","main_expt",""
"","bandit","295","938732","0.0-257.0-0.0","82256801","wem/bandit_party_2","A1A2XH9JVSN8Z0","either","4","455","","","","","","","0","1","0","","0.7019934296","0.6","0.4","0.2","0.8","0.5198015267","0.2918619336","0.7019934296","0.3309854328","","","","","","","","","","","","","","75","K","2","","","216","main_expt",""
"","bandit","296","940605","0.0-258.0-0.0","82256801","wem/bandit_party_2","A1A2XH9JVSN8Z0","either","4","347","","","","","","","0","1","0","","0.7537099884","0.6","0.4","0.2","0.8","0.545097872","0.3571058798","0.7537099884","0.3310528633","","","","","","","","","","","","","","75","K","2","","","217","main_expt",""
"","bandit","297","942517","0.0-259.0-0.0","82256801","wem/bandit_party_2","A1A2XH9JVSN8Z0","either","4","373","","","","","","","0","0","1","","0.8428980993","0.6","0.4","0.2","0.8","0.5776025334","0.3738303097","0.8428980993","0.4147218791","","","","","","","","","","","","","","75","K","2","","","218","main_expt",""
"","bandit","298","944364","0.0-260.0-0.0","82256801","wem/bandit_party_2","A1A2XH9JVSN8Z0","either","4","308","","","","","","","0","0","1","","0.8007326434","0.6","0.4","0.2","0.8","0.5616346574","0.4832874948","0.8007326434","0.3402104323","","","","","","","","","","","","","","75","K","2","","","219","main_expt",""
"","bandit","299","946307","0.0-261.0-0.0","82256801","wem/bandit_party_2","A1A2XH9JVSN8Z0","either","4","405","","","","","","","0","1","0","","0.8518850648","0.6","0.4","0.2","0.8","0.6261942659","0.475455537","0.8518850648","0.3448871422","","","","","","","","","","","","","","75","K","2","","","220","main_expt",""
"","bandit","300","948317","0.0-262.0-0.0","82256801","wem/bandit_party_2","A1A2XH9JVSN8Z0","either","4","471","","","","","","","0","0","1","","0.8488451861","0.6","0.4","0.2","0.8","0.6533416475","0.3849790123","0.8488451861","0.4438284365","","","","","","","","","","","","","","75","K","2","","","221","main_expt",""
"","bandit","301","950430","0.0-263.0-0.0","82256801","wem/bandit_party_2","A1A2XH9JVSN8Z0","either","4","573","","","","","","","0","1","0","","0.8202185963","0.6","0.4","0.2","0.8","0.6780524799","0.2708628555","0.8202185963","0.3768672835","","","","","","","","","","","","","","75","K","2","","","222","main_expt",""
"","bandit","302","952341","0.0-264.0-0.0","82256801","wem/bandit_party_2","A1A2XH9JVSN8Z0","either","4","369","","","","","","","0","1","0","","0.839196386","0.6","0.4","0.2","0.8","0.638470603","0.3886191555","0.839196386","0.4599748191","","","","","","","","","","","","","","75","K","2","","","223","main_expt",""
"","bandit","303","954205","0.0-265.0-0.0","82256801","wem/bandit_party_2","A1A2XH9JVSN8Z0","either","4","326","","","","","","","0","1","0","","0.8340435664","0.6","0.4","0.2","0.8","0.560582988","0.3352763987","0.8340435664","0.5868274652","","","","","","","","","","","","","","75","K","2","","","224","main_expt",""
"","bandit","304","955876","0.0-266.0-0.0","82256801","wem/bandit_party_2","A1A2XH9JVSN8Z0","either","4","136","","","","","","","0","1","0","","0.8229669419","0.6","0.4","0.2","0.8","0.5004803289","0.3948846532","0.8229669419","0.510759767","","","","","","","","","","","","","","75","K","2","","","225","main_expt",""
"","bandit","305","957829","0.0-267.0-0.0","82256801","wem/bandit_party_2","A1A2XH9JVSN8Z0","either","4","414","","","","","","","0","1","0","","0.8326575293","0.6","0.4","0.2","0.8","0.5109709899","0.385279681","0.8326575293","0.6026028704","","","","","","","","","","","","","","75","K","2","","","226","main_expt",""
"","bandit","306","959836","0.0-268.0-0.0","82256801","wem/bandit_party_2","A1A2XH9JVSN8Z0","either","4","478","","","","","","","0","0","1","","0.8904476858","0.6","0.4","0.2","0.8","0.4271661703","0.3296530349","0.8904476858","0.588132951","","","","","","","","","","","","","","75","K","2","","","227","main_expt",""
"","bandit","307","962396","0.0-269.0-0.0","82256801","wem/bandit_party_2","A1A2XH9JVSN8Z0","either","4","1021","","","","","","","1","0","0","0.8877596604","","0.6","0.4","0.2","0.8","","","","","0.374673526","0.4227788413","0.8877596604","0.5754590721","","","","","","","","","","75","K","2","","","228","main_expt",""
"","bandit","308","965811","0.0-270.0-0.0","82256801","wem/bandit_party_2","A1A2XH9JVSN8Z0","either","4","1878","","","","","","","0","1","0","","0.8647697669","0.6","0.4","0.2","0.8","0.393435759","0.4470353227","0.8647697669","0.6311951266","","","","","","","","","","","","","","75","K","2","","","229","main_expt",""
"","bandit","309","967596","0.0-271.0-0.0","82256801","wem/bandit_party_2","A1A2XH9JVSN8Z0","either","4","257","","","","","","","0","1","0","","0.8704214291","0.6","0.4","0.2","0.8","0.3299431778","0.2986819632","0.8704214291","0.6164228117","","","","","","","","","","","","","","75","K","2","","","230","main_expt",""
"","bandit","310","969547","0.0-272.0-0.0","82256801","wem/bandit_party_2","A1A2XH9JVSN8Z0","either","4","412","","","","","","","0","1","0","","0.8598686354","0.6","0.4","0.2","0.8","0.3477061432","0.4508866759","0.8598686354","0.5943568022","","","","","","","","","","","","","","75","K","2","","","231","main_expt",""
"","bandit","311","971575","0.0-273.0-0.0","82256801","wem/bandit_party_2","A1A2XH9JVSN8Z0","either","4","484","","","","","","","1","0","0","0.7939027672","","0.6","0.4","0.2","0.8","","","","","0.3430234075","0.5125968159","0.7939027672","0.6032910051","","","","","","","","","","75","K","2","","","232","main_expt",""
"","bandit","312","974139","0.0-274.0-0.0","82256801","wem/bandit_party_2","A1A2XH9JVSN8Z0","either","4","1024","","","","","","","0","1","0","","0.7930400566","0.6","0.4","0.2","0.8","0.2812772396","0.6020802482","0.7930400566","0.7225660168","","","","","","","","","","","","","","75","K","2","","","233","main_expt",""
"","bandit","313","976723","0.0-275.0-0.0","82256801","wem/bandit_party_2","A1A2XH9JVSN8Z0","either","4","1045","","","","","","","0","1","0","","0.7549101179","0.6","0.4","0.2","0.8","0.2049555934","0.5927943616","0.7549101179","0.6718439238","","","","","","","","","","","","","","75","K","2","","","234","main_expt",""
"","bandit","314","979779","0.0-276.0-0.0","82256801","wem/bandit_party_2","A1A2XH9JVSN8Z0","either","4","1516","","","","","","","1","0","0","0.7654291135","","0.6","0.4","0.2","0.8","","","","","0.144612338","0.5814417759","0.7654291135","0.6025803433","","","","","","","","","","75","K","2","","","235","main_expt",""
"","bandit","315","981667","0.0-277.0-0.0","82256801","wem/bandit_party_2","A1A2XH9JVSN8Z0","either","4","358","","","","","","","0","0","1","","0.6965918162","0.6","0.4","0.2","0.8","0.1509581517","0.6530024001","0.6965918162","0.6170166349","","","","","","","","","","","","","","75","K","2","","","236","main_expt",""
"","bandit","316","984180","0.0-278.0-0.0","82256801","wem/bandit_party_2","A1A2XH9JVSN8Z0","either","4","970","","","","","","","1","0","0","0.8151927982","","0.6","0.4","0.2","0.8","","","","","0.2267465707","0.5861490443","0.8151927982","0.6426153702","","","","","","","","","","75","K","2","","","237","main_expt",""
