"consent","trial_type","trial_index","time_elapsed","internal_node_id","subjID","study","MID","cond","drift","rt","responses","button_pressed","key_press","like","value","connected","gems","bombs","no_reward","GemPrChosen","BombPrChosen","GainOverPainPr_0","GainOverPainPr_1","GainOverPainPr_2","GainOverPainPr_3","LosePr_0","LosePr_1","LosePr_2","LosePr_3","WinPr_0","WinPr_1","WinPr_2","WinPr_3","Q0","Q1","Q2","gender","age","ethnicity","label","expt_phase","target","respCharCode","respKey","respChoiceNum","respChoice","practice","trial_counter","trial_label","Q0_index"
"GDM/GDM_behavioral_consent_30min_online.html","consent","0","17210","0.0-0.0","82719350","wem/bandit_party_2","A11K9A2YRWQ4TU","either","1","","","","","","","","","","","","","","","","","","","","","","","","","","","","","","","","","","","","","","","","",""
"","survey-text","1","24203","0.0-1.0","82719350","wem/bandit_party_2","A11K9A2YRWQ4TU","either","1","5962","{""Q0"":""A11K9A2YRWQ4TU""}","","","","","","","","","","","","","","","","","","","","","","","","","","","","","","","","","","","","","","",""
"","button-response","2","28310","0.0-2.0","82719350","wem/bandit_party_2","A11K9A2YRWQ4TU","either","1","3072","","2","","","","","","","","","","","","","","","","","","","","","","","","","","","","","","","","","","","","","",""
"","text-replacement","3","35380","0.0-3.0","82719350","wem/bandit_party_2","A11K9A2YRWQ4TU","either","1","6049","","","32","","","","","","","","","","","","","","","","","","","","","","","","","","","","","","","","","","","","",""
"","text-replacement","4","47770","0.0-4.0","82719350","wem/bandit_party_2","A11K9A2YRWQ4TU","either","1","12379","","","32","","","","","","","","","","","","","","","","","","","","","","","","","","","","","","","","","","","","",""
"","text-replacement","5","55092","0.0-5.0-0.0","82719350","wem/bandit_party_2","A11K9A2YRWQ4TU","either","1","7312","","","32","","","","","","","","","","","","","","","","","","","","","","","","","","","","","","","","","","","","",""
"","identification","6","64891","0.0-6.0-0.0","82719350","wem/bandit_party_2","A11K9A2YRWQ4TU","either","1","9720","","","","3","3","3","","","","","","","","","","","","","","","","","","","","","","","","pre","identification_pre","the Democratic Party","","","","","","","",""
"","identification","7","75818","0.0-6.0-1.0","82719350","wem/bandit_party_2","A11K9A2YRWQ4TU","either","1","9859","","","","1","1","0","","","","","","","","","","","","","","","","","","","","","","","","pre","identification_pre","the Republican Party","","","","","","","",""
"","text-replacement","8","83250","0.0-7.0","82719350","wem/bandit_party_2","A11K9A2YRWQ4TU","either","1","6418","","","32","","","","","","","","","","","","","","","","","","","","","","","","","","","","","","","","","","","","",""
"","text-replacement","9","89122","0.0-8.0","82719350","wem/bandit_party_2","A11K9A2YRWQ4TU","either","1","5868","","","32","","","","","","","","","","","","","","","","","","","","","","","","","","","","","","","","","","","","",""
"","text-replacement","10","93906","0.0-9.0","82719350","wem/bandit_party_2","A11K9A2YRWQ4TU","either","1","4779","","","32","","","","","","","","","","","","","","","","","","","","","","","","","","","","","","","","","","","","",""
"","text-replacement","11","97377","0.0-10.0","82719350","wem/bandit_party_2","A11K9A2YRWQ4TU","either","1","3467","","","32","","","","","","","","","","","","","","","","","","","","","","","","","","","","","","","","","","","","",""
"","text-replacement","12","100849","0.0-11.0","82719350","wem/bandit_party_2","A11K9A2YRWQ4TU","either","1","3465","","","32","","","","","","","","","","","","","","","","","","","","","","","","","","","","","","","","","","","","",""
"","bandit","13","105152","0.0-12.0-0.0","82719350","wem/bandit_party_2","A11K9A2YRWQ4TU","either","1","2764","","","","","","","0","0","1","0","0","","","","","0","","","","0","","","","","","","","","","","","","74","J","0","img/none_selected_demo.jpg","true","0","",""
"","bandit","14","108469","0.0-13.0-0.0","82719350","wem/bandit_party_2","A11K9A2YRWQ4TU","either","1","1784","","","","","","","0","0","1","0","0","","","","","0","","","","0","","","","","","","","","","","","","75","K","0","img/none_selected_demo.jpg","true","0","",""
"","text-replacement","15","117601","0.0-14.0","82719350","wem/bandit_party_2","A11K9A2YRWQ4TU","either","1","9127","","","32","","","","","","","","","","","","","","","","","","","","","","","","","","","","","","","","","","","","",""
"","text-replacement","16","124001","0.0-15.0","82719350","wem/bandit_party_2","A11K9A2YRWQ4TU","either","1","6393","","","32","","","","","","","","","","","","","","","","","","","","","","","","","","","","","","","","","","","","",""
"","text-replacement","17","127457","0.0-16.0","82719350","wem/bandit_party_2","A11K9A2YRWQ4TU","either","1","3449","","","32","","","","","","","","","","","","","","","","","","","","","","","","","","","","","","","","","","","","",""
"","text-replacement","18","134546","0.0-17.0","82719350","wem/bandit_party_2","A11K9A2YRWQ4TU","either","1","7081","","","32","","","","","","","","","","","","","","","","","","","","","","","","","","","","","","","","","","","","",""
"","bandit","19","138293","0.0-18.0-0.0","82719350","wem/bandit_party_2","A11K9A2YRWQ4TU","either","1","2215","","","","","","","1","0","0","0.8","","0.5","0.5","","","","","","","0.8","0.2","","","","","","","","","","","","74","J","0","img/none_selected_demo.jpg","true","0","80_20_practice",""
"","bandit","20","143756","0.0-18.0-1.0","82719350","wem/bandit_party_2","A11K9A2YRWQ4TU","either","1","3940","","","","","","","0","0","1","","0.2","0.5","0.5","","","0.8","0.2","","","","","","","","","","","","","","","","75","K","1","","true","0","80_20_practice",""
"","bandit","21","145756","0.0-18.0-2.0","82719350","wem/bandit_party_2","A11K9A2YRWQ4TU","either","1","476","","","","","","","1","0","0","0.8","","0.5","0.5","","","","","","","0.8","0.2","","","","","","","","","","","","74","J","0","img/none_selected_demo.jpg","true","0","80_20_practice",""
"","bandit","22","147678","0.0-18.0-3.0","82719350","wem/bandit_party_2","A11K9A2YRWQ4TU","either","1","379","","","","","","","0","0","1","","0.2","0.5","0.5","","","0.8","0.2","","","","","","","","","","","","","","","","75","K","1","","true","0","80_20_practice",""
"","bandit","23","149585","0.0-18.0-4.0","82719350","wem/bandit_party_2","A11K9A2YRWQ4TU","either","1","378","","","","","","","0","0","1","0.8","","0.5","0.5","","","","","","","0.8","0.2","","","","","","","","","","","","74","J","0","img/none_selected_demo.jpg","true","0","80_20_practice",""
"","bandit","24","151871","0.0-18.0-5.0","82719350","wem/bandit_party_2","A11K9A2YRWQ4TU","either","1","761","","","","","","","0","0","1","0.2","","0.5","0.5","","","","","","","0.8","0.2","","","","","","","","","","","","75","K","1","","true","0","80_20_practice",""
"","bandit","25","153793","0.0-18.0-6.0","82719350","wem/bandit_party_2","A11K9A2YRWQ4TU","either","1","394","","","","","","","1","0","0","0.8","","0.5","0.5","","","","","","","0.8","0.2","","","","","","","","","","","","74","J","0","img/none_selected_demo.jpg","true","0","80_20_practice",""
"","bandit","26","155716","0.0-18.0-7.0","82719350","wem/bandit_party_2","A11K9A2YRWQ4TU","either","1","391","","","","","","","1","0","0","0.8","","0.5","0.5","","","","","","","0.8","0.2","","","","","","","","","","","","74","J","0","img/none_selected_demo.jpg","true","0","80_20_practice",""
"","bandit","27","157591","0.0-18.0-8.0","82719350","wem/bandit_party_2","A11K9A2YRWQ4TU","either","1","340","","","","","","","1","0","0","0.8","","0.5","0.5","","","","","","","0.8","0.2","","","","","","","","","","","","74","J","0","img/none_selected_demo.jpg","true","0","80_20_practice",""
"","bandit","28","159451","0.0-18.0-9.0","82719350","wem/bandit_party_2","A11K9A2YRWQ4TU","either","1","338","","","","","","","1","0","0","0.8","","0.5","0.5","","","","","","","0.8","0.2","","","","","","","","","","","","74","J","0","img/none_selected_demo.jpg","true","0","80_20_practice",""
"","bandit","29","161203","0.0-18.0-10.0","82719350","wem/bandit_party_2","A11K9A2YRWQ4TU","either","1","222","","","","","","","1","0","0","0.8","","0.5","0.5","","","","","","","0.8","0.2","","","","","","","","","","","","74","J","0","img/none_selected_demo.jpg","true","0","80_20_practice",""
"","bandit","30","163094","0.0-18.0-11.0","82719350","wem/bandit_party_2","A11K9A2YRWQ4TU","either","1","358","","","","","","","0","0","1","0.2","","0.5","0.5","","","","","","","0.8","0.2","","","","","","","","","","","","75","K","1","","true","0","80_20_practice",""
"","bandit","31","166582","0.0-18.0-12.0","82719350","wem/bandit_party_2","A11K9A2YRWQ4TU","either","1","1954","","","","","","","0","1","0","","0.8","0.5","0.5","","","0.8","0.2","","","","","","","","","","","","","","","","74","J","0","img/none_selected_demo.jpg","true","0","80_20_practice",""
"","bandit","32","168597","0.0-18.0-13.0","82719350","wem/bandit_party_2","A11K9A2YRWQ4TU","either","1","482","","","","","","","0","0","1","0.2","","0.5","0.5","","","","","","","0.8","0.2","","","","","","","","","","","","75","K","1","","true","0","80_20_practice",""
"","bandit","33","170922","0.0-18.0-14.0","82719350","wem/bandit_party_2","A11K9A2YRWQ4TU","either","1","803","","","","","","","0","0","1","0.2","","0.5","0.5","","","","","","","0.8","0.2","","","","","","","","","","","","75","K","1","","true","0","80_20_practice",""
"","bandit","34","173205","0.0-18.0-15.0","82719350","wem/bandit_party_2","A11K9A2YRWQ4TU","either","1","749","","","","","","","0","1","0","","0.2","0.5","0.5","","","0.8","0.2","","","","","","","","","","","","","","","","75","K","1","","true","0","80_20_practice",""
"","bandit","35","175092","0.0-18.0-16.0","82719350","wem/bandit_party_2","A11K9A2YRWQ4TU","either","1","356","","","","","","","0","0","1","0.8","","0.5","0.5","","","","","","","0.8","0.2","","","","","","","","","","","","74","J","0","img/none_selected_demo.jpg","true","0","80_20_practice",""
"","bandit","36","177075","0.0-18.0-17.0","82719350","wem/bandit_party_2","A11K9A2YRWQ4TU","either","1","450","","","","","","","0","0","1","","0.2","0.5","0.5","","","0.8","0.2","","","","","","","","","","","","","","","","75","K","1","","true","0","80_20_practice",""
"","bandit","37","178749","0.0-18.0-18.0","82719350","wem/bandit_party_2","A11K9A2YRWQ4TU","either","1","149","","","","","","","0","0","1","","0.2","0.5","0.5","","","0.8","0.2","","","","","","","","","","","","","","","","75","K","1","","true","0","80_20_practice",""
"","bandit","38","180578","0.0-18.0-19.0","82719350","wem/bandit_party_2","A11K9A2YRWQ4TU","either","1","300","","","","","","","0","0","1","0.2","","0.5","0.5","","","","","","","0.8","0.2","","","","","","","","","","","","75","K","1","","true","0","80_20_practice",""
"","text-replacement","39","185489","0.0-19.0","82719350","wem/bandit_party_2","A11K9A2YRWQ4TU","either","1","4907","","","32","","","","","","","","","","","","","","","","","","","","","","","","","","","","","","","","","","","","",""
"","bandit","40","188531","0.0-20.0-0.0","82719350","wem/bandit_party_2","A11K9A2YRWQ4TU","either","1","1511","","","","","","","1","0","0","1","0","","","","","0","1","","","1","0","","","","","","","","","","","","74","J","0","img/none_selected_demo.jpg","true","0","",""
"","text-replacement","41","193329","0.0-21.0","82719350","wem/bandit_party_2","A11K9A2YRWQ4TU","either","1","4793","","","32","","","","","","","","","","","","","","","","","","","","","","","","","","","","","","","","","","","","",""
"","text-replacement","42","197137","0.0-22.0","82719350","wem/bandit_party_2","A11K9A2YRWQ4TU","either","1","3804","","","32","","","","","","","","","","","","","","","","","","","","","","","","","","","","","","","","","","","","",""
"","text-replacement","43","199009","0.0-23.0","82719350","wem/bandit_party_2","A11K9A2YRWQ4TU","either","1","1868","","","32","","","","","","","","","","","","","","","","","","","","","","","","","","","","","","","","","","","","",""
"","text-replacement","44","200641","0.0-24.0","82719350","wem/bandit_party_2","A11K9A2YRWQ4TU","either","1","1627","","","32","","","","","","","","","","","","","","","","","","","","","","","","","","","","","","","","","","","","",""
"","text-replacement","45","211617","0.0-25.0","82719350","wem/bandit_party_2","A11K9A2YRWQ4TU","either","1","10971","","","32","","","","","","","","","","","","","","","","","","","","","","","","","","","","","","","","","","","","",""
"","text-replacement","46","213473","0.0-26.0","82719350","wem/bandit_party_2","A11K9A2YRWQ4TU","either","1","1852","","","32","","","","","","","","","","","","","","","","","","","","","","","","","","","","","","","","","","","","",""
"","text-replacement","47","215459","0.0-27.0","82719350","wem/bandit_party_2","A11K9A2YRWQ4TU","either","1","1981","","","32","","","","","","","","","","","","","","","","","","","","","","","","","","","","","","","","","","","","",""
"","text-replacement","48","218129","0.0-28.0","82719350","wem/bandit_party_2","A11K9A2YRWQ4TU","either","1","2666","","","32","","","","","","","","","","","","","","","","","","","","","","","","","","","","","","","","","","","","",""
"","text-replacement","49","220977","0.0-29.0","82719350","wem/bandit_party_2","A11K9A2YRWQ4TU","either","1","2844","","","32","","","","","","","","","","","","","","","","","","","","","","","","","","","","","","","","","","","","",""
"","text-replacement","50","222193","0.0-30.0","82719350","wem/bandit_party_2","A11K9A2YRWQ4TU","either","1","1212","","","32","","","","","","","","","","","","","","","","","","","","","","","","","","","","","","","","","","","","",""
"","text-replacement","51","225921","0.0-31.0","82719350","wem/bandit_party_2","A11K9A2YRWQ4TU","either","1","3723","","","32","","","","","","","","","","","","","","","","","","","","","","","","","","","","","","","","","","","","",""
"","bandit","52","228086","0.0-32.0-0.0","82719350","wem/bandit_party_2","A11K9A2YRWQ4TU","either","1","631","","","","","","","1","0","0","0.8","","0.5","0.5","0.5","0.5","","","","","0.8","0.2","0.6","0.2","","","","","","","","","","72","H","0","img/none_selected.jpg","true","0","full_practice",""
"","bandit","53","231006","0.0-32.0-1.0","82719350","wem/bandit_party_2","A11K9A2YRWQ4TU","either","1","1386","","","","","","","0","0","1","0.2","","0.5","0.5","0.5","0.5","","","","","0.8","0.2","0.6","0.2","","","","","","","","","","74","J","1","","true","0","full_practice",""
"","bandit","54","232961","0.0-32.0-2.0","82719350","wem/bandit_party_2","A11K9A2YRWQ4TU","either","1","426","","","","","","","1","0","0","0.6","","0.5","0.5","0.5","0.5","","","","","0.8","0.2","0.6","0.2","","","","","","","","","","75","K","2","","true","0","full_practice",""
"","bandit","55","234588","0.0-32.0-3.0","82719350","wem/bandit_party_2","A11K9A2YRWQ4TU","either","1","103","","","","","","","0","0","1","0.2","","0.5","0.5","0.5","0.5","","","","","0.8","0.2","0.6","0.2","","","","","","","","","","76","L","3","","true","0","full_practice",""
"","bandit","56","236666","0.0-32.0-4.0","82719350","wem/bandit_party_2","A11K9A2YRWQ4TU","either","1","550","","","","","","","1","0","0","0.8","","0.5","0.5","0.5","0.5","","","","","0.8","0.2","0.6","0.2","","","","","","","","","","72","H","0","img/none_selected.jpg","true","0","full_practice",""
"","bandit","57","238572","0.0-32.0-5.0","82719350","wem/bandit_party_2","A11K9A2YRWQ4TU","either","1","382","","","","","","","1","0","0","0.8","","0.5","0.5","0.5","0.5","","","","","0.8","0.2","0.6","0.2","","","","","","","","","","72","H","0","img/none_selected.jpg","true","0","full_practice",""
"","bandit","58","240464","0.0-32.0-6.0","82719350","wem/bandit_party_2","A11K9A2YRWQ4TU","either","1","363","","","","","","","1","0","0","0.8","","0.5","0.5","0.5","0.5","","","","","0.8","0.2","0.6","0.2","","","","","","","","","","72","H","0","img/none_selected.jpg","true","0","full_practice",""
"","bandit","59","242386","0.0-32.0-7.0","82719350","wem/bandit_party_2","A11K9A2YRWQ4TU","either","1","392","","","","","","","0","0","1","0.8","","0.5","0.5","0.5","0.5","","","","","0.8","0.2","0.6","0.2","","","","","","","","","","72","H","0","img/none_selected.jpg","true","0","full_practice",""
"","bandit","60","244215","0.0-32.0-8.0","82719350","wem/bandit_party_2","A11K9A2YRWQ4TU","either","1","310","","","","","","","1","0","0","0.6","","0.5","0.5","0.5","0.5","","","","","0.8","0.2","0.6","0.2","","","","","","","","","","75","K","2","","true","0","full_practice",""
"","bandit","61","245889","0.0-32.0-9.0","82719350","wem/bandit_party_2","A11K9A2YRWQ4TU","either","1","144","","","","","","","1","0","0","0.6","","0.5","0.5","0.5","0.5","","","","","0.8","0.2","0.6","0.2","","","","","","","","","","75","K","2","","true","0","full_practice",""
"","bandit","62","247750","0.0-32.0-10.0","82719350","wem/bandit_party_2","A11K9A2YRWQ4TU","either","1","326","","","","","","","0","0","1","0.6","","0.5","0.5","0.5","0.5","","","","","0.8","0.2","0.6","0.2","","","","","","","","","","75","K","2","","true","0","full_practice",""
"","bandit","63","249796","0.0-32.0-11.0","82719350","wem/bandit_party_2","A11K9A2YRWQ4TU","either","1","514","","","","","","","0","1","0","","0.6","0.5","0.5","0.5","0.5","0.8","0.2","0.6","0.2","","","","","","","","","","","","","","75","K","2","","true","0","full_practice",""
"","bandit","64","251766","0.0-32.0-12.0","82719350","wem/bandit_party_2","A11K9A2YRWQ4TU","either","1","433","","","","","","","0","0","1","","0.2","0.5","0.5","0.5","0.5","0.8","0.2","0.6","0.2","","","","","","","","","","","","","","76","L","3","","true","0","full_practice",""
"","bandit","65","254749","0.0-32.0-13.0","82719350","wem/bandit_party_2","A11K9A2YRWQ4TU","either","1","1442","","","","","","","0","0","1","0.2","","0.5","0.5","0.5","0.5","","","","","0.8","0.2","0.6","0.2","","","","","","","","","","76","L","3","","true","0","full_practice",""
"","bandit","66","256527","0.0-32.0-14.0","82719350","wem/bandit_party_2","A11K9A2YRWQ4TU","either","1","220","","","","","","","1","0","0","0.2","","0.5","0.5","0.5","0.5","","","","","0.8","0.2","0.6","0.2","","","","","","","","","","76","L","3","","true","0","full_practice",""
"","bandit","67","260074","0.0-32.0-15.0","82719350","wem/bandit_party_2","A11K9A2YRWQ4TU","either","1","2021","","","","","","","0","1","0","","0.2","0.5","0.5","0.5","0.5","0.8","0.2","0.6","0.2","","","","","","","","","","","","","","74","J","1","","true","0","full_practice",""
"","bandit","68","262073","0.0-32.0-16.0","82719350","wem/bandit_party_2","A11K9A2YRWQ4TU","either","1","476","","","","","","","0","0","1","","0.2","0.5","0.5","0.5","0.5","0.8","0.2","0.6","0.2","","","","","","","","","","","","","","74","J","1","","true","0","full_practice",""
"","bandit","69","266367","0.0-32.0-17.0","82719350","wem/bandit_party_2","A11K9A2YRWQ4TU","either","1","2766","","","","","","","0","0","1","","0.2","0.5","0.5","0.5","0.5","0.8","0.2","0.6","0.2","","","","","","","","","","","","","","74","J","1","","true","0","full_practice",""
"","bandit","70","268597","0.0-32.0-18.0","82719350","wem/bandit_party_2","A11K9A2YRWQ4TU","either","1","712","","","","","","","0","0","1","0.2","","0.5","0.5","0.5","0.5","","","","","0.8","0.2","0.6","0.2","","","","","","","","","","76","L","3","","true","0","full_practice",""
"","bandit","71","270755","0.0-32.0-19.0","82719350","wem/bandit_party_2","A11K9A2YRWQ4TU","either","1","626","","","","","","","0","0","1","0.6","","0.5","0.5","0.5","0.5","","","","","0.8","0.2","0.6","0.2","","","","","","","","","","75","K","2","","true","0","full_practice",""
"","text","72","273521","0.0-33.0","82719350","wem/bandit_party_2","A11K9A2YRWQ4TU","either","1","2752","","","32","","","","","","","","","","","","","","","","","","","","","","","","","","","","","","","","","","","","",""
"","text-replacement","73","307553","0.0-34.0","82719350","wem/bandit_party_2","A11K9A2YRWQ4TU","either","1","33015","","","32","","","","","","","","","","","","","","","","","","","","","","","","","","","","","","","","","","","","",""
"","text-replacement","74","312593","0.0-35.0","82719350","wem/bandit_party_2","A11K9A2YRWQ4TU","either","1","5033","","","32","","","","","","","","","","","","","","","","","","","","","","","","","","","","","","","","","","","","",""
"","text-replacement","75","316753","0.0-36.0","82719350","wem/bandit_party_2","A11K9A2YRWQ4TU","either","1","4154","","","32","","","","","","","","","","","","","","","","","","","","","","","","","","","","","","","","","","","","",""
"","text-replacement","76","319745","0.0-37.0","82719350","wem/bandit_party_2","A11K9A2YRWQ4TU","either","1","2986","","","32","","","","","","","","","","","","","","","","","","","","","","","","","","","","","","","","","","","","",""
"","text-replacement","77","325489","0.0-38.0","82719350","wem/bandit_party_2","A11K9A2YRWQ4TU","either","1","5738","","","32","","","","","","","","","","","","","","","","","","","","","","","","","","","","","","","","","","","","",""
"","survey-multi-choice-replacement","78","332826","0.0-39.0-0.0","82719350","wem/bandit_party_2","A11K9A2YRWQ4TU","either","1","7300","","","","","","","","","","","","","","","","","","","","","","","","Money will be added to the pool for <span style='color:red;'>REPUBLICANS</span>","","","","","","","attn_check","","","","","","","","","0"
"","survey-multi-choice-replacement","79","337835","0.0-40.0-0.0","82719350","wem/bandit_party_2","A11K9A2YRWQ4TU","either","1","3965","","","","","","","","","","","","","","","","","","","","","","","","Equal amounts of money will be added to the pool for <span style='color:red;'>REPUBLICANS</span> and subtracted from the pool for <span style='color:blue;'>DEMOCRATS</span>","","","","","","","attn_check","","","","","","","","","2"
"","survey-multi-choice-replacement","80","342762","0.0-41.0-0.0","82719350","wem/bandit_party_2","A11K9A2YRWQ4TU","either","1","3891","","","","","","","","","","","","","","","","","","","","","","","","No money will be added to either pool","","","","","","","attn_check","","","","","","","","","3"
"","bandit","81","348946","0.0-42.0-0.0","82719350","wem/bandit_party_2","A11K9A2YRWQ4TU","either","1","3645","","","","","","","0","0","1","","0.7674833066","0.2","0.8","0.6","0.4","0.7674833066","0.8101107889","0.5202783506","0.4995060561","","","","","","","","","","","","","","72","H","0","img/none_selected.jpg","","1","main_expt",""
"","bandit","82","351333","0.0-43.0-0.0","82719350","wem/bandit_party_2","A11K9A2YRWQ4TU","either","1","852","","","","","","","0","0","1","0.8827976921","","0.2","0.8","0.6","0.4","","","","","0.7786696111","0.8827976921","0.4559554218","0.4452888422","","","","","","","","","","74","J","1","","","2","main_expt",""
"","bandit","83","353689","0.0-44.0-0.0","82719350","wem/bandit_party_2","A11K9A2YRWQ4TU","either","1","833","","","","","","","1","0","0","0.3791335739","","0.2","0.8","0.6","0.4","","","","","0.7883912796","0.918633781","0.3791335739","0.4956599627","","","","","","","","","","75","K","2","","","3","main_expt",""
"","bandit","84","355691","0.0-45.0-0.0","82719350","wem/bandit_party_2","A11K9A2YRWQ4TU","either","1","474","","","","","","","0","0","1","","0.362446662","0.2","0.8","0.6","0.4","0.8311681014","0.8961075186","0.362446662","0.3939226057","","","","","","","","","","","","","","75","K","2","","","4","main_expt",""
"","bandit","85","357611","0.0-46.0-0.0","82719350","wem/bandit_party_2","A11K9A2YRWQ4TU","either","1","395","","","","","","","0","1","0","","0.4337427147","0.2","0.8","0.6","0.4","0.706748425","0.9065038385","0.4337427147","0.4737796053","","","","","","","","","","","","","","75","K","2","","","5","main_expt",""
"","bandit","86","359596","0.0-47.0-0.0","82719350","wem/bandit_party_2","A11K9A2YRWQ4TU","either","1","460","","","","","","","0","0","1","0.4260566605","","0.2","0.8","0.6","0.4","","","","","0.7246132019","0.9628954729","0.4260566605","0.5798080576","","","","","","","","","","75","K","2","","","6","main_expt",""
"","bandit","87","361487","0.0-48.0-0.0","82719350","wem/bandit_party_2","A11K9A2YRWQ4TU","either","1","362","","","","","","","0","0","1","0.5595739282","","0.2","0.8","0.6","0.4","","","","","0.822103072","0.9244273404","0.5595739282","0.6184433593","","","","","","","","","","75","K","2","","","7","main_expt",""
"","bandit","88","363688","0.0-49.0-0.0","82719350","wem/bandit_party_2","A11K9A2YRWQ4TU","either","1","680","","","","","","","0","0","1","0.5380809204","","0.2","0.8","0.6","0.4","","","","","0.8176183596","0.9214665689","0.5757792393","0.5380809204","","","","","","","","","","76","L","3","","","8","main_expt",""
"","bandit","89","366804","0.0-50.0-0.0","82719350","wem/bandit_party_2","A11K9A2YRWQ4TU","either","1","1582","","","","","","","0","1","0","","0.9604963414","0.2","0.8","0.6","0.4","0.7421782695","0.9604963414","0.5508288143","0.4884558296","","","","","","","","","","","","","","74","J","1","","","9","main_expt",""
"","bandit","90","369594","0.0-51.0-0.0","82719350","wem/bandit_party_2","A11K9A2YRWQ4TU","either","1","1265","","","","","","","0","1","0","","0.973544224","0.2","0.8","0.6","0.4","0.7112185725","0.973544224","0.4615344473","0.6062827564","","","","","","","","","","","","","","74","J","1","","","10","main_expt",""
"","bandit","91","372989","0.0-52.0-0.0","82719350","wem/bandit_party_2","A11K9A2YRWQ4TU","either","1","1867","","","","","","","0","0","1","0.6656122322","","0.2","0.8","0.6","0.4","","","","","0.6656122322","0.9756729976","0.4731032433","0.6618996933","","","","","","","","","","72","H","0","img/none_selected.jpg","","11","main_expt",""
"","bandit","92","375113","0.0-53.0-0.0","82719350","wem/bandit_party_2","A11K9A2YRWQ4TU","either","1","601","","","","","","","1","0","0","0.9824084628","","0.2","0.8","0.6","0.4","","","","","0.632951522","0.9824084628","0.5028989732","0.6589688621","","","","","","","","","","74","J","1","","","12","main_expt",""
"","bandit","93","378597","0.0-54.0-0.0","82719350","wem/bandit_party_2","A11K9A2YRWQ4TU","either","1","1950","","","","","","","1","0","0","0.9852841122","","0.2","0.8","0.6","0.4","","","","","0.6428643634","0.9852841122","0.5252386458","0.7483501345","","","","","","","","","","74","J","1","","","13","main_expt",""
"","bandit","94","381217","0.0-55.0-0.0","82719350","wem/bandit_party_2","A11K9A2YRWQ4TU","either","1","1091","","","","","","","1","0","0","0.9844185579","","0.2","0.8","0.6","0.4","","","","","0.5693663763","0.9844185579","0.4883642101","0.7642220585","","","","","","","","","","74","J","1","","","14","main_expt",""
"","bandit","95","384643","0.0-56.0-0.0","82719350","wem/bandit_party_2","A11K9A2YRWQ4TU","either","1","1892","","","","","","","1","0","0","0.9716790186","","0.2","0.8","0.6","0.4","","","","","0.6354763258","0.9716790186","0.5125695872","0.8255663415","","","","","","","","","","74","J","1","","","15","main_expt",""
"","bandit","96","387147","0.0-57.0-0.0","82719350","wem/bandit_party_2","A11K9A2YRWQ4TU","either","1","962","","","","","","","1","0","0","0.9724226268","","0.2","0.8","0.6","0.4","","","","","0.6074668868","0.9724226268","0.483313844","0.8262734196","","","","","","","","","","74","J","1","","","16","main_expt",""
"","bandit","97","389465","0.0-58.0-0.0","82719350","wem/bandit_party_2","A11K9A2YRWQ4TU","either","1","776","","","","","","","1","0","0","0.969397438","","0.2","0.8","0.6","0.4","","","","","0.634379517","0.969397438","0.4764119597","0.8957105494","","","","","","","","","","74","J","1","","","17","main_expt",""
"","bandit","98","392100","0.0-59.0-0.0","82719350","wem/bandit_party_2","A11K9A2YRWQ4TU","either","1","1099","","","","","","","1","0","0","0.9487821198","","0.2","0.8","0.6","0.4","","","","","0.7399013172","0.9487821198","0.4742144938","0.8243017832","","","","","","","","","","74","J","1","","","18","main_expt",""
"","bandit","99","394658","0.0-60.0-0.0","82719350","wem/bandit_party_2","A11K9A2YRWQ4TU","either","1","1026","","","","","","","1","0","0","0.8822386923","","0.2","0.8","0.6","0.4","","","","","0.6892422428","0.8822386923","0.5445729057","0.8174393347","","","","","","","","","","74","J","1","","","19","main_expt",""
"","bandit","100","397231","0.0-61.0-0.0","82719350","wem/bandit_party_2","A11K9A2YRWQ4TU","either","1","1044","","","","","","","1","0","0","0.8658452863","","0.2","0.8","0.6","0.4","","","","","0.5544472153","0.8658452863","0.5114357523","0.8457625901","","","","","","","","","","74","J","1","","","20","main_expt",""
"","bandit","101","399711","0.0-62.0-0.0","82719350","wem/bandit_party_2","A11K9A2YRWQ4TU","either","1","951","","","","","","","1","0","0","0.8597265301","","0.2","0.8","0.6","0.4","","","","","0.4705077418","0.8597265301","0.4948626968","0.8565453533","","","","","","","","","","74","J","1","","","21","main_expt",""
"","bandit","102","401928","0.0-63.0-0.0","82719350","wem/bandit_party_2","A11K9A2YRWQ4TU","either","1","686","","","","","","","1","0","0","0.929530396","","0.2","0.8","0.6","0.4","","","","","0.5364913494","0.929530396","0.3750889156","0.8821281293","","","","","","","","","","74","J","1","","","22","main_expt",""
"","bandit","103","404780","0.0-64.0-0.0","82719350","wem/bandit_party_2","A11K9A2YRWQ4TU","either","1","1323","","","","","","","1","0","0","0.9149061772","","0.2","0.8","0.6","0.4","","","","","0.5450887529","0.9149061772","0.3874093852","0.8253896901","","","","","","","","","","74","J","1","","","23","main_expt",""
"","bandit","104","406981","0.0-65.0-0.0","82719350","wem/bandit_party_2","A11K9A2YRWQ4TU","either","1","665","","","","","","","0","1","0","","0.9389899916","0.2","0.8","0.6","0.4","0.6013055931","0.9389899916","0.4126546177","0.8682133559","","","","","","","","","","","","","","74","J","1","","","24","main_expt",""
"","bandit","105","409416","0.0-66.0-0.0","82719350","wem/bandit_party_2","A11K9A2YRWQ4TU","either","1","912","","","","","","","1","0","0","0.9583062328","","0.2","0.8","0.6","0.4","","","","","0.7116226269","0.9583062328","0.3871809826","0.8186134727","","","","","","","","","","74","J","1","","","25","main_expt",""
"","bandit","106","412593","0.0-67.0-0.0","82719350","wem/bandit_party_2","A11K9A2YRWQ4TU","either","1","1647","","","","","","","1","0","0","0.9349434311","","0.2","0.8","0.6","0.4","","","","","0.7284905038","0.9349434311","0.4162773602","0.841170918","","","","","","","","","","74","J","1","","","26","main_expt",""
"","bandit","107","415182","0.0-68.0-0.0","82719350","wem/bandit_party_2","A11K9A2YRWQ4TU","either","1","1061","","","","","","","1","0","0","0.9147743466","","0.2","0.8","0.6","0.4","","","","","0.7007901837","0.9147743466","0.4153433109","0.8332298301","","","","","","","","","","74","J","1","","","27","main_expt",""
"","bandit","108","417569","0.0-69.0-0.0","82719350","wem/bandit_party_2","A11K9A2YRWQ4TU","either","1","856","","","","","","","1","0","0","0.8913744663","","0.2","0.8","0.6","0.4","","","","","0.7197690037","0.8913744663","0.3083156359","0.8340804883","","","","","","","","","","74","J","1","","","28","main_expt",""
"","bandit","109","419585","0.0-70.0-0.0","82719350","wem/bandit_party_2","A11K9A2YRWQ4TU","either","1","485","","","","","","","1","0","0","0.9004815278","","0.2","0.8","0.6","0.4","","","","","0.7569205749","0.9004815278","0.4048150761","0.8800986549","","","","","","","","","","74","J","1","","","29","main_expt",""
"","bandit","110","421798","0.0-71.0-0.0","82719350","wem/bandit_party_2","A11K9A2YRWQ4TU","either","1","693","","","","","","","1","0","0","0.8335499875","","0.2","0.8","0.6","0.4","","","","","0.7007062976","0.8335499875","0.5604470694","0.800988266","","","","","","","","","","74","J","1","","","30","main_expt",""
"","bandit","111","424251","0.0-72.0-0.0","82719350","wem/bandit_party_2","A11K9A2YRWQ4TU","either","1","928","","","","","","","0","1","0","","0.7904098286","0.2","0.8","0.6","0.4","0.6218809145","0.7904098286","0.5114456598","0.8092707987","","","","","","","","","","","","","","74","J","1","","","31","main_expt",""
"","bandit","112","426964","0.0-73.0-0.0","82719350","wem/bandit_party_2","A11K9A2YRWQ4TU","either","1","1178","","","","","","","1","0","0","0.8156470634","","0.2","0.8","0.6","0.4","","","","","0.5448888872","0.8156470634","0.5195843055","0.7600689364","","","","","","","","","","74","J","1","","","32","main_expt",""
"","bandit","113","429785","0.0-74.0-0.0","82719350","wem/bandit_party_2","A11K9A2YRWQ4TU","either","1","1298","","","","","","","0","0","1","0.7458483223","","0.2","0.8","0.6","0.4","","","","","0.4396040002","0.7458483223","0.4278216128","0.7268405739","","","","","","","","","","74","J","1","","","33","main_expt",""
"","bandit","114","432715","0.0-75.0-0.0","82719350","wem/bandit_party_2","A11K9A2YRWQ4TU","either","1","1403","","","","","","","0","1","0","","0.7867385379","0.2","0.8","0.6","0.4","0.3418027302","0.8745519215","0.4581725564","0.7867385379","","","","","","","","","","","","","","76","L","3","","","34","main_expt",""
"","bandit","115","434823","0.0-76.0-0.0","82719350","wem/bandit_party_2","A11K9A2YRWQ4TU","either","1","586","","","","","","","1","0","0","0.7776722478","","0.2","0.8","0.6","0.4","","","","","0.3770378826","0.8761773117","0.5170179058","0.7776722478","","","","","","","","","","76","L","3","","","35","main_expt",""
"","bandit","116","436993","0.0-77.0-0.0","82719350","wem/bandit_party_2","A11K9A2YRWQ4TU","either","1","638","","","","","","","0","1","0","","0.8110731924","0.2","0.8","0.6","0.4","0.3264650107","0.8898579413","0.5761285305","0.8110731924","","","","","","","","","","","","","","76","L","3","","","36","main_expt",""
"","bandit","117","439582","0.0-78.0-0.0","82719350","wem/bandit_party_2","A11K9A2YRWQ4TU","either","1","1058","","","","","","","1","0","0","0.8371501114","","0.2","0.8","0.6","0.4","","","","","0.1696248696","0.9189960073","0.5824592389","0.8371501114","","","","","","","","","","76","L","3","","","37","main_expt",""
"","bandit","118","442031","0.0-79.0-0.0","82719350","wem/bandit_party_2","A11K9A2YRWQ4TU","either","1","919","","","","","","","0","1","0","","0.801984358","0.2","0.8","0.6","0.4","0.3008725236","0.9429067042","0.5039158184","0.801984358","","","","","","","","","","","","","","76","L","3","","","38","main_expt",""
"","bandit","119","444419","0.0-80.0-0.0","82719350","wem/bandit_party_2","A11K9A2YRWQ4TU","either","1","854","","","","","","","0","0","1","","0.836760671","0.2","0.8","0.6","0.4","0.3612597963","0.8860185862","0.4906961915","0.836760671","","","","","","","","","","","","","","76","L","3","","","39","main_expt",""
"","bandit","120","447023","0.0-81.0-0.0","82719350","wem/bandit_party_2","A11K9A2YRWQ4TU","either","1","1075","","","","","","","0","1","0","","0.7930168878","0.2","0.8","0.6","0.4","0.3316001813","0.8958725565","0.5118773476","0.7930168878","","","","","","","","","","","","","","76","L","3","","","40","main_expt",""
"","bandit","121","449364","0.0-82.0-0.0","82719350","wem/bandit_party_2","A11K9A2YRWQ4TU","either","1","806","","","","","","","0","1","0","","0.6758505439","0.2","0.8","0.6","0.4","0.251761063","0.8369757826","0.5207000815","0.6758505439","","","","","","","","","","","","","","76","L","3","","","41","main_expt",""
"","bandit","122","451755","0.0-83.0-0.0","82719350","wem/bandit_party_2","A11K9A2YRWQ4TU","either","1","865","","","","","","","0","0","1","0.669091732","","0.2","0.8","0.6","0.4","","","","","0.3764367217","0.8724413244","0.6208632684","0.669091732","","","","","","","","","","76","L","3","","","42","main_expt",""
"","bandit","123","453692","0.0-84.0-0.0","82719350","wem/bandit_party_2","A11K9A2YRWQ4TU","either","1","410","","","","","","","0","0","1","","0.5774386383","0.2","0.8","0.6","0.4","0.4280411123","0.8721156492","0.6736877605","0.5774386383","","","","","","","","","","","","","","76","L","3","","","43","main_expt",""
"","bandit","124","456157","0.0-85.0-0.0","82719350","wem/bandit_party_2","A11K9A2YRWQ4TU","either","1","937","","","","","","","0","1","0","","0.6770598463","0.2","0.8","0.6","0.4","0.4250007774","0.874486911","0.6770598463","0.5402750746","","","","","","","","","","","","","","75","K","2","","","44","main_expt",""
"","bandit","125","458545","0.0-86.0-0.0","82719350","wem/bandit_party_2","A11K9A2YRWQ4TU","either","1","856","","","","","","","1","0","0","0.6811336834","","0.2","0.8","0.6","0.4","","","","","0.3964774122","0.7653026016","0.6811336834","0.4769525635","","","","","","","","","","75","K","2","","","45","main_expt",""
"","bandit","126","460993","0.0-87.0-0.0","82719350","wem/bandit_party_2","A11K9A2YRWQ4TU","either","1","917","","","","","","","0","0","1","","0.7409040253","0.2","0.8","0.6","0.4","0.3755541509","0.6884850605","0.7409040253","0.460739512","","","","","","","","","","","","","","75","K","2","","","46","main_expt",""
"","bandit","127","464032","0.0-88.0-0.0","82719350","wem/bandit_party_2","A11K9A2YRWQ4TU","either","1","1500","","","","","","","1","0","0","0.6869729855","","0.2","0.8","0.6","0.4","","","","","0.3698766084","0.6869729855","0.8602274841","0.3953603582","","","","","","","","","","74","J","1","","","47","main_expt",""
"","bandit","128","467747","0.0-89.0-0.0","82719350","wem/bandit_party_2","A11K9A2YRWQ4TU","either","1","2179","","","","","","","0","0","1","0.624749708","","0.2","0.8","0.6","0.4","","","","","0.2924141828","0.624749708","0.8947369126","0.5194217752","","","","","","","","","","74","J","1","","","48","main_expt",""
"","bandit","129","470058","0.0-90.0-0.0","82719350","wem/bandit_party_2","A11K9A2YRWQ4TU","either","1","784","","","","","","","0","0","1","","0.2506794134","0.2","0.8","0.6","0.4","0.2506794134","0.6269608649","0.9071052574","0.5015721984","","","","","","","","","","","","","","72","H","0","img/none_selected.jpg","","49","main_expt",""
"","bandit","130","473824","0.0-91.0-0.0","82719350","wem/bandit_party_2","A11K9A2YRWQ4TU","either","1","2234","","","","","","","1","0","0","0.8569531155","","0.2","0.8","0.6","0.4","","","","","0.2200095001","0.5394470416","0.8569531155","0.4427204185","","","","","","","","","","75","K","2","","","50","main_expt",""
"","bandit","131","475994","0.0-92.0-0.0","82719350","wem/bandit_party_2","A11K9A2YRWQ4TU","either","1","645","","","","","","","0","1","0","","0.8728609703","0.2","0.8","0.6","0.4","0.2703780474","0.4991806479","0.8728609703","0.5194544998","","","","","","","","","","","","","","75","K","2","","","51","main_expt",""
"","bandit","132","479435","0.0-93.0-0.0","82719350","wem/bandit_party_2","A11K9A2YRWQ4TU","either","1","1913","","","","","","","1","0","0","0.902184381","","0.2","0.8","0.6","0.4","","","","","0.3215640211","0.5431464126","0.902184381","0.4420680866","","","","","","","","","","75","K","2","","","52","main_expt",""
"","bandit","133","482288","0.0-94.0-0.0","82719350","wem/bandit_party_2","A11K9A2YRWQ4TU","either","1","1322","","","","","","","1","0","0","0.8975054296","","0.2","0.8","0.6","0.4","","","","","0.2918797996","0.4799783957","0.8975054296","0.5541791803","","","","","","","","","","75","K","2","","","53","main_expt",""
"","bandit","134","485311","0.0-95.0-0.0","82719350","wem/bandit_party_2","A11K9A2YRWQ4TU","either","1","1493","","","","","","","0","1","0","","0.9436546011","0.2","0.8","0.6","0.4","0.2432815539","0.3946877269","0.9436546011","0.6187664305","","","","","","","","","","","","","","75","K","2","","","54","main_expt",""
"","bandit","135","488597","0.0-96.0-0.0","82719350","wem/bandit_party_2","A11K9A2YRWQ4TU","either","1","1749","","","","","","","1","0","0","0.9411334538","","0.2","0.8","0.6","0.4","","","","","0.1993500609","0.3892466866","0.9411334538","0.538030076","","","","","","","","","","75","K","2","","","55","main_expt",""
"","bandit","136","491208","0.0-97.0-0.0","82719350","wem/bandit_party_2","A11K9A2YRWQ4TU","either","1","1070","","","","","","","1","0","0","0.862285227","","0.2","0.8","0.6","0.4","","","","","0.1832364248","0.347268188","0.862285227","0.5137881872","","","","","","","","","","75","K","2","","","56","main_expt",""
"","bandit","137","495409","0.0-98.0-0.0","82719350","wem/bandit_party_2","A11K9A2YRWQ4TU","either","1","2669","","","","","","","1","0","0","0.9034803314","","0.2","0.8","0.6","0.4","","","","","0.1703919496","0.3462231845","0.9034803314","0.6274604021","","","","","","","","","","75","K","2","","","57","main_expt",""
"","bandit","138","499813","0.0-99.0-0.0","82719350","wem/bandit_party_2","A11K9A2YRWQ4TU","either","1","2868","","","","","","","0","1","0","","0.9062052911","0.2","0.8","0.6","0.4","0.2146973212","0.3707442777","0.9062052911","0.5636132077","","","","","","","","","","","","","","75","K","2","","","58","main_expt",""
"","bandit","139","502960","0.0-100.0-0.0","82719350","wem/bandit_party_2","A11K9A2YRWQ4TU","either","1","1615","","","","","","","1","0","0","0.9169546289","","0.2","0.8","0.6","0.4","","","","","0.2118107272","0.4530366532","0.9169546289","0.6555757088","","","","","","","","","","75","K","2","","","59","main_expt",""
"","bandit","140","507155","0.0-101.0-0.0","82719350","wem/bandit_party_2","A11K9A2YRWQ4TU","either","1","2661","","","","","","","1","0","0","0.9048679239","","0.2","0.8","0.6","0.4","","","","","0.2096036334","0.4335409142","0.9048679239","0.6555481193","","","","","","","","","","75","K","2","","","60","main_expt",""
"","bandit","141","510208","0.0-102.0-0.0","82719350","wem/bandit_party_2","A11K9A2YRWQ4TU","either","1","1521","","","","","","","1","0","0","0.9346572725","","0.2","0.8","0.6","0.4","","","","","0.1985607356","0.3601573371","0.9346572725","0.6988977931","","","","","","","","","","75","K","2","","","61","main_expt",""
"","bandit","142","513061","0.0-103.0-0.0","82719350","wem/bandit_party_2","A11K9A2YRWQ4TU","either","1","1316","","","","","","","1","0","0","0.9332729597","","0.2","0.8","0.6","0.4","","","","","0.2352246004","0.3187004912","0.9332729597","0.6124712875","","","","","","","","","","75","K","2","","","62","main_expt",""
"","bandit","143","516642","0.0-104.0-0.0","82719350","wem/bandit_party_2","A11K9A2YRWQ4TU","either","1","2048","","","","","","","1","0","0","0.9300142507","","0.2","0.8","0.6","0.4","","","","","0.1989126294","0.331276396","0.9300142507","0.4881994696","","","","","","","","","","75","K","2","","","63","main_expt",""
"","bandit","144","520204","0.0-105.0-0.0","82719350","wem/bandit_party_2","A11K9A2YRWQ4TU","either","1","2035","","","","","","","0","1","0","","0.8992917639","0.2","0.8","0.6","0.4","0.2231035509","0.3984677","0.8992917639","0.5007509184","","","","","","","","","","","","","","75","K","2","","","64","main_expt",""
"","bandit","145","522424","0.0-106.0-0.0","82719350","wem/bandit_party_2","A11K9A2YRWQ4TU","either","1","696","","","","","","","0","0","1","0.7939475476","","0.2","0.8","0.6","0.4","","","","","0.174077904","0.3012021372","0.7939475476","0.6077525222","","","","","","","","","","75","K","2","","","65","main_expt",""
"","bandit","146","525881","0.0-107.0-0.0","82719350","wem/bandit_party_2","A11K9A2YRWQ4TU","either","1","1931","","","","","","","0","0","1","","0.2848395029","0.2","0.8","0.6","0.4","0.1505104035","0.2848395029","0.7848839068","0.4876759876","","","","","","","","","","","","","","74","J","1","","","66","main_expt",""
"","bandit","147","527820","0.0-108.0-0.0","82719350","wem/bandit_party_2","A11K9A2YRWQ4TU","either","1","411","","","","","","","0","0","1","","0.4705728971","0.2","0.8","0.6","0.4","0.1706094741","0.2908363747","0.7712869283","0.4705728971","","","","","","","","","","","","","","76","L","3","","","67","main_expt",""
"","bandit","148","529974","0.0-109.0-0.0","82719350","wem/bandit_party_2","A11K9A2YRWQ4TU","either","1","615","","","","","","","0","1","0","","0.193375558","0.2","0.8","0.6","0.4","0.193375558","0.3226378352","0.7426915226","0.5822594153","","","","","","","","","","","","","","72","H","0","img/none_selected.jpg","","68","main_expt",""
"","bandit","149","532059","0.0-110.0-0.0","82719350","wem/bandit_party_2","A11K9A2YRWQ4TU","either","1","557","","","","","","","0","1","0","","0.226811003","0.2","0.8","0.6","0.4","0.226811003","0.4490581071","0.592712881","0.6189715015","","","","","","","","","","","","","","72","H","0","img/none_selected.jpg","","69","main_expt",""
"","bandit","150","534148","0.0-111.0-0.0","82719350","wem/bandit_party_2","A11K9A2YRWQ4TU","either","1","569","","","","","","","0","0","1","","0.191142909","0.2","0.8","0.6","0.4","0.191142909","0.42365523","0.6587085967","0.5307799745","","","","","","","","","","","","","","72","H","0","img/none_selected.jpg","","70","main_expt",""
"","bandit","151","536136","0.0-112.0-0.0","82719350","wem/bandit_party_2","A11K9A2YRWQ4TU","either","1","464","","","","","","","0","0","1","","0.2371486809","0.2","0.8","0.6","0.4","0.2371486809","0.427101634","0.7562029562","0.5205551237","","","","","","","","","","","","","","72","H","0","img/none_selected.jpg","","71","main_expt",""
"","bandit","152","538448","0.0-113.0-0.0","82719350","wem/bandit_party_2","A11K9A2YRWQ4TU","either","1","780","","","","","","","0","0","1","0.2602117984","","0.2","0.8","0.6","0.4","","","","","0.2602117984","0.5387899421","0.670676276","0.5913901284","","","","","","","","","","72","H","0","img/none_selected.jpg","","72","main_expt",""
"","bandit","153","540665","0.0-114.0-0.0","82719350","wem/bandit_party_2","A11K9A2YRWQ4TU","either","1","692","","","","","","","0","0","1","0.4931252492","","0.2","0.8","0.6","0.4","","","","","0.1837165363","0.4931252492","0.6870219419","0.7127465592","","","","","","","","","","74","J","1","","","73","main_expt",""
"","bandit","154","543083","0.0-115.0-0.0","82719350","wem/bandit_party_2","A11K9A2YRWQ4TU","either","1","889","","","","","","","0","1","0","","0.582898469","0.2","0.8","0.6","0.4","0.2032334464","0.3888626504","0.582898469","0.7804212289","","","","","","","","","","","","","","75","K","2","","","74","main_expt",""
"","bandit","155","547424","0.0-116.0-0.0","82719350","wem/bandit_party_2","A11K9A2YRWQ4TU","either","1","2808","","","","","","","1","0","0","0.6452442043","","0.2","0.8","0.6","0.4","","","","","0.2782751631","0.3866429177","0.6452442043","0.7966502287","","","","","","","","","","75","K","2","","","75","main_expt",""
"","bandit","156","549827","0.0-117.0-0.0","82719350","wem/bandit_party_2","A11K9A2YRWQ4TU","either","1","867","","","","","","","0","1","0","","0.7031137023","0.2","0.8","0.6","0.4","0.3318782676","0.3948468247","0.7031137023","0.7775959854","","","","","","","","","","","","","","75","K","2","","","76","main_expt",""
"","bandit","157","552029","0.0-118.0-0.0","82719350","wem/bandit_party_2","A11K9A2YRWQ4TU","either","1","671","","","","","","","1","0","0","0.6096498107","","0.2","0.8","0.6","0.4","","","","","0.312607664","0.4853082722","0.6096498107","0.8523583745","","","","","","","","","","75","K","2","","","77","main_expt",""
"","bandit","158","554880","0.0-119.0-0.0","82719350","wem/bandit_party_2","A11K9A2YRWQ4TU","either","1","1319","","","","","","","1","0","0","0.532302087","","0.2","0.8","0.6","0.4","","","","","0.3250695504","0.4971609959","0.532302087","0.7707034136","","","","","","","","","","75","K","2","","","78","main_expt",""
"","bandit","159","557748","0.0-120.0-0.0","82719350","wem/bandit_party_2","A11K9A2YRWQ4TU","either","1","1331","","","","","","","0","0","1","","0.4448734945","0.2","0.8","0.6","0.4","0.277144637","0.5349041547","0.4448734945","0.7919080975","","","","","","","","","","","","","","75","K","2","","","79","main_expt",""
"","bandit","160","559717","0.0-121.0-0.0","82719350","wem/bandit_party_2","A11K9A2YRWQ4TU","either","1","447","","","","","","","0","0","1","0.34513516","","0.2","0.8","0.6","0.4","","","","","0.293018971","0.4713204996","0.34513516","0.8107458935","","","","","","","","","","75","K","2","","","80","main_expt",""
"","bandit","161","561770","0.0-122.0-0.0","82719350","wem/bandit_party_2","A11K9A2YRWQ4TU","either","1","527","","","","","","","0","0","1","","0.7851591746","0.2","0.8","0.6","0.4","0.2730851157","0.4132476049","0.406584365","0.7851591746","","","","","","","","","","","","","","76","L","3","","","81","main_expt",""
"","bandit","162","563863","0.0-123.0-0.0","82719350","wem/bandit_party_2","A11K9A2YRWQ4TU","either","1","569","","","","","","","0","0","1","","0.2436011542","0.2","0.8","0.6","0.4","0.2436011542","0.4640808921","0.5068312928","0.8067558171","","","","","","","","","","","","","","72","H","0","img/none_selected.jpg","","82","main_expt",""
"","bandit","163","565816","0.0-124.0-0.0","82719350","wem/bandit_party_2","A11K9A2YRWQ4TU","either","1","428","","","","","","","0","0","1","0.442115463","","0.2","0.8","0.6","0.4","","","","","0.2009218657","0.442115463","0.5209063211","0.7777816444","","","","","","","","","","74","J","1","","","83","main_expt",""
"","bandit","164","567661","0.0-125.0-0.0","82719350","wem/bandit_party_2","A11K9A2YRWQ4TU","either","1","315","","","","","","","1","0","0","0.5117806844","","0.2","0.8","0.6","0.4","","","","","0.1550904625","0.5117806844","0.6221591745","0.7801041195","","","","","","","","","","74","J","1","","","84","main_expt",""
"","bandit","165","569816","0.0-126.0-0.0","82719350","wem/bandit_party_2","A11K9A2YRWQ4TU","either","1","629","","","","","","","1","0","0","0.5309627618","","0.2","0.8","0.6","0.4","","","","","0.1193398435","0.5309627618","0.6939346182","0.7593249252","","","","","","","","","","74","J","1","","","85","main_expt",""
"","bandit","166","571923","0.0-127.0-0.0","82719350","wem/bandit_party_2","A11K9A2YRWQ4TU","either","1","572","","","","","","","0","1","0","","0.5482659382","0.2","0.8","0.6","0.4","0.1398572341","0.5482659382","0.7533471596","0.7911667705","","","","","","","","","","","","","","74","J","1","","","86","main_expt",""
"","bandit","167","574217","0.0-128.0-0.0","82719350","wem/bandit_party_2","A11K9A2YRWQ4TU","either","1","767","","","","","","","1","0","0","0.4772076429","","0.2","0.8","0.6","0.4","","","","","0.1941505275","0.4772076429","0.8040573679","0.8480662183","","","","","","","","","","74","J","1","","","87","main_expt",""
"","bandit","168","576419","0.0-129.0-0.0","82719350","wem/bandit_party_2","A11K9A2YRWQ4TU","either","1","665","","","","","","","1","0","0","0.5202977678","","0.2","0.8","0.6","0.4","","","","","0.09645570925","0.5202977678","0.7800800897","0.8110462569","","","","","","","","","","74","J","1","","","88","main_expt",""
"","bandit","169","578449","0.0-130.0-0.0","82719350","wem/bandit_party_2","A11K9A2YRWQ4TU","either","1","496","","","","","","","0","1","0","","0.4970482359","0.2","0.8","0.6","0.4","0.1304326216","0.4970482359","0.7329239748","0.7924414871","","","","","","","","","","","","","","74","J","1","","","89","main_expt",""
"","bandit","170","580945","0.0-131.0-0.0","82719350","wem/bandit_party_2","A11K9A2YRWQ4TU","either","1","961","","","","","","","0","0","1","0.4671205494","","0.2","0.8","0.6","0.4","","","","","0.1410434261","0.4671205494","0.7202813078","0.8190855249","","","","","","","","","","74","J","1","","","90","main_expt",""
"","bandit","171","583178","0.0-132.0-0.0","82719350","wem/bandit_party_2","A11K9A2YRWQ4TU","either","1","705","","","","","","","1","0","0","0.5518401665","","0.2","0.8","0.6","0.4","","","","","0.1277095213","0.5518401665","0.698586111","0.858270253","","","","","","","","","","74","J","1","","","91","main_expt",""
"","bandit","172","585410","0.0-133.0-0.0","82719350","wem/bandit_party_2","A11K9A2YRWQ4TU","either","1","697","","","","","","","1","0","0","0.620788192","","0.2","0.8","0.6","0.4","","","","","0.08596821216","0.620788192","0.6054304462","0.8583259383","","","","","","","","","","74","J","1","","","92","main_expt",""
"","bandit","173","587580","0.0-134.0-0.0","82719350","wem/bandit_party_2","A11K9A2YRWQ4TU","either","1","626","","","","","","","0","0","1","0.679669404","","0.2","0.8","0.6","0.4","","","","","0.05652587691","0.679669404","0.6829204303","0.8335107661","","","","","","","","","","74","J","1","","","93","main_expt",""
"","bandit","174","590277","0.0-135.0-0.0","82719350","wem/bandit_party_2","A11K9A2YRWQ4TU","either","1","1159","","","","","","","0","1","0","","0.6726581754","0.2","0.8","0.6","0.4","0.07490457358","0.6726581754","0.6084783934","0.8849423118","","","","","","","","","","","","","","74","J","1","","","94","main_expt",""
"","bandit","175","592463","0.0-136.0-0.0","82719350","wem/bandit_party_2","A11K9A2YRWQ4TU","either","1","653","","","","","","","1","0","0","0.5983950962","","0.2","0.8","0.6","0.4","","","","","0.05201682933","0.5983950962","0.51962455","0.9175662658","","","","","","","","","","74","J","1","","","95","main_expt",""
"","bandit","176","594773","0.0-137.0-0.0","82719350","wem/bandit_party_2","A11K9A2YRWQ4TU","either","1","770","","","","","","","0","0","1","0.6316158747","","0.2","0.8","0.6","0.4","","","","","0.0353667714","0.6316158747","0.453067158","0.8726153548","","","","","","","","","","74","J","1","","","96","main_expt",""
"","bandit","177","596664","0.0-138.0-0.0","82719350","wem/bandit_party_2","A11K9A2YRWQ4TU","either","1","365","","","","","","","1","0","0","0.6660601513","","0.2","0.8","0.6","0.4","","","","","0.04301306848","0.6660601513","0.4090095009","0.7260562137","","","","","","","","","","74","J","1","","","97","main_expt",""
"","bandit","178","599082","0.0-139.0-0.0","82719350","wem/bandit_party_2","A11K9A2YRWQ4TU","either","1","890","","","","","","","0","1","0","","0.6185462561","0.2","0.8","0.6","0.4","0.03950067624","0.6185462561","0.360727585","0.6506148609","","","","","","","","","","","","","","74","J","1","","","98","main_expt",""
"","bandit","179","601191","0.0-140.0-0.0","82719350","wem/bandit_party_2","A11K9A2YRWQ4TU","either","1","584","","","","","","","0","0","1","","0.581128502","0.2","0.8","0.6","0.4","0.03156699585","0.581128502","0.3351327477","0.5816342488","","","","","","","","","","","","","","74","J","1","","","99","main_expt",""
"","bandit","180","603906","0.0-141.0-0.0","82719350","wem/bandit_party_2","A11K9A2YRWQ4TU","either","1","1179","","","","","","","0","0","1","","0.5521464449","0.2","0.8","0.6","0.4","0.0248161238","0.479775063","0.3491912274","0.5521464449","","","","","","","","","","","","","","76","L","3","","","100","main_expt",""
"","bandit","181","606085","0.0-142.0-0.0","82719350","wem/bandit_party_2","A11K9A2YRWQ4TU","either","1","641","","","","","","","1","0","0","0.4105375765","","0.2","0.8","0.6","0.4","","","","","0.02218075004","0.5114647241","0.4105375765","0.6063232436","","","","","","","","","","75","K","2","","","101","main_expt",""
"","bandit","182","608178","0.0-143.0-0.0","82719350","wem/bandit_party_2","A11K9A2YRWQ4TU","either","1","557","","","","","","","0","0","1","0.438632671","","0.2","0.8","0.6","0.4","","","","","0.01802152149","0.4718740674","0.438632671","0.5636213764","","","","","","","","","","75","K","2","","","102","main_expt",""
"","bandit","183","610069","0.0-144.0-0.0","82719350","wem/bandit_party_2","A11K9A2YRWQ4TU","either","1","369","","","","","","","1","0","0","0.372838406","","0.2","0.8","0.6","0.4","","","","","0.01877214671","0.5245129891","0.372838406","0.5370473259","","","","","","","","","","75","K","2","","","103","main_expt",""
"","bandit","184","612475","0.0-145.0-0.0","82719350","wem/bandit_party_2","A11K9A2YRWQ4TU","either","1","877","","","","","","","0","0","1","0.3057692375","","0.2","0.8","0.6","0.4","","","","","0.01556743346","0.5170751474","0.3057692375","0.549647281","","","","","","","","","","75","K","2","","","104","main_expt",""
"","bandit","185","614735","0.0-146.0-0.0","82719350","wem/bandit_party_2","A11K9A2YRWQ4TU","either","1","726","","","","","","","0","0","1","0.472330124","","0.2","0.8","0.6","0.4","","","","","0.03717147126","0.472330124","0.37369274","0.4225976111","","","","","","","","","","74","J","1","","","105","main_expt",""
"","bandit","186","616921","0.0-147.0-0.0","82719350","wem/bandit_party_2","A11K9A2YRWQ4TU","either","1","659","","","","","","","0","0","1","","0.07687033395","0.2","0.8","0.6","0.4","0.07687033395","0.568133852","0.3179799449","0.5005163425","","","","","","","","","","","","","","72","H","0","img/none_selected.jpg","","106","main_expt",""
"","bandit","187","618921","0.0-148.0-0.0","82719350","wem/bandit_party_2","A11K9A2YRWQ4TU","either","1","473","","","","","","","0","0","1","","0.07659049968","0.2","0.8","0.6","0.4","0.07659049968","0.536018559","0.3053765494","0.3995396385","","","","","","","","","","","","","","72","H","0","img/none_selected.jpg","","107","main_expt",""
"","bandit","188","621479","0.0-149.0-0.0","82719350","wem/bandit_party_2","A11K9A2YRWQ4TU","either","1","1032","","","","","","","0","0","1","","0.2732860947","0.2","0.8","0.6","0.4","0.07827602418","0.3880888981","0.2732860947","0.3855926336","","","","","","","","","","","","","","75","K","2","","","108","main_expt",""
"","bandit","189","623339","0.0-150.0-0.0","82719350","wem/bandit_party_2","A11K9A2YRWQ4TU","either","1","328","","","","","","","0","1","0","","0.2624197952","0.2","0.8","0.6","0.4","0.1352418701","0.3675045314","0.2624197952","0.3059937163","","","","","","","","","","","","","","75","K","2","","","109","main_expt",""
"","bandit","190","625602","0.0-151.0-0.0","82719350","wem/bandit_party_2","A11K9A2YRWQ4TU","either","1","725","","","","","","","0","0","1","0.3303210632","","0.2","0.8","0.6","0.4","","","","","0.1705666919","0.4560700489","0.3303210632","0.2752892785","","","","","","","","","","75","K","2","","","110","main_expt",""
"","bandit","191","627877","0.0-152.0-0.0","82719350","wem/bandit_party_2","A11K9A2YRWQ4TU","either","1","735","","","","","","","0","0","1","0.3038626008","","0.2","0.8","0.6","0.4","","","","","0.2202970635","0.5366389876","0.3541452024","0.3038626008","","","","","","","","","","76","L","3","","","111","main_expt",""
"","bandit","192","630463","0.0-153.0-0.0","82719350","wem/bandit_party_2","A11K9A2YRWQ4TU","either","1","1051","","","","","","","1","0","0","0.5742054707","","0.2","0.8","0.6","0.4","","","","","0.2368742277","0.5742054707","0.4468573219","0.2308866464","","","","","","","","","","74","J","1","","","112","main_expt",""
"","bandit","193","632618","0.0-154.0-0.0","82719350","wem/bandit_party_2","A11K9A2YRWQ4TU","either","1","626","","","","","","","1","0","0","0.6014260319","","0.2","0.8","0.6","0.4","","","","","0.2487241586","0.6014260319","0.5163231944","0.2420052043","","","","","","","","","","74","J","1","","","113","main_expt",""
"","bandit","194","635175","0.0-155.0-0.0","82719350","wem/bandit_party_2","A11K9A2YRWQ4TU","either","1","1032","","","","","","","1","0","0","0.5398035654","","0.2","0.8","0.6","0.4","","","","","0.238824581","0.5398035654","0.4064640458","0.3277817495","","","","","","","","","","74","J","1","","","114","main_expt",""
"","bandit","195","637888","0.0-156.0-0.0","82719350","wem/bandit_party_2","A11K9A2YRWQ4TU","either","1","1179","","","","","","","0","0","1","0.5008208772","","0.2","0.8","0.6","0.4","","","","","0.1480638281","0.5008208772","0.4085425191","0.3280884562","","","","","","","","","","74","J","1","","","115","main_expt",""
"","bandit","196","639965","0.0-157.0-0.0","82719350","wem/bandit_party_2","A11K9A2YRWQ4TU","either","1","545","","","","","","","0","1","0","","0.4200837231","0.2","0.8","0.6","0.4","0.1246447603","0.4200837231","0.4412864427","0.4137256642","","","","","","","","","","","","","","74","J","1","","","116","main_expt",""
"","bandit","197","642616","0.0-158.0-0.0","82719350","wem/bandit_party_2","A11K9A2YRWQ4TU","either","1","1124","","","","","","","0","0","1","0.4094987027","","0.2","0.8","0.6","0.4","","","","","0.1308085784","0.4094987027","0.5188885271","0.372751341","","","","","","","","","","74","J","1","","","117","main_expt",""
"","bandit","198","644601","0.0-159.0-0.0","82719350","wem/bandit_party_2","A11K9A2YRWQ4TU","either","1","444","","","","","","","0","0","1","0.3862907493","","0.2","0.8","0.6","0.4","","","","","0.09076242324","0.3862907493","0.5728151575","0.4225631273","","","","","","","","","","74","J","1","","","118","main_expt",""
"","bandit","199","647205","0.0-160.0-0.0","82719350","wem/bandit_party_2","A11K9A2YRWQ4TU","either","1","1065","","","","","","","0","0","1","","0.09057925276","0.2","0.8","0.6","0.4","0.09057925276","0.4437318585","0.5065624602","0.4188482812","","","","","","","","","","","","","","72","H","0","img/none_selected.jpg","","119","main_expt",""
"","bandit","200","649220","0.0-161.0-0.0","82719350","wem/bandit_party_2","A11K9A2YRWQ4TU","either","1","489","","","","","","","0","1","0","","0.3729077829","0.2","0.8","0.6","0.4","0.1288926122","0.293469011","0.4064427813","0.3729077829","","","","","","","","","","","","","","76","L","3","","","120","main_expt",""
"","bandit","201","651391","0.0-162.0-0.0","82719350","wem/bandit_party_2","A11K9A2YRWQ4TU","either","1","636","","","","","","","0","0","1","","0.3817262037","0.2","0.8","0.6","0.4","0.1479701512","0.2141601759","0.3948988447","0.3817262037","","","","","","","","","","","","","","76","L","3","","","121","main_expt",""
"","bandit","202","653375","0.0-163.0-0.0","82719350","wem/bandit_party_2","A11K9A2YRWQ4TU","either","1","450","","","","","","","0","0","1","0.3537210734","","0.2","0.8","0.6","0.4","","","","","0.1663524813","0.2594293103","0.316823658","0.3537210734","","","","","","","","","","76","L","3","","","122","main_expt",""
"","bandit","203","655390","0.0-164.0-0.0","82719350","wem/bandit_party_2","A11K9A2YRWQ4TU","either","1","483","","","","","","","0","0","1","0.3045978244","","0.2","0.8","0.6","0.4","","","","","0.1993917655","0.1519240937","0.3045978244","0.3633727708","","","","","","","","","","75","K","2","","","123","main_expt",""
"","bandit","204","657328","0.0-165.0-0.0","82719350","wem/bandit_party_2","A11K9A2YRWQ4TU","either","1","402","","","","","","","1","0","0","0.2311656533","","0.2","0.8","0.6","0.4","","","","","0.2948689786","0.2311656533","0.2389028675","0.4139908316","","","","","","","","","","74","J","1","","","124","main_expt",""
"","bandit","205","660040","0.0-166.0-0.0","82719350","wem/bandit_party_2","A11K9A2YRWQ4TU","either","1","1186","","","","","","","0","0","1","","0.1956748967","0.2","0.8","0.6","0.4","0.4054398129","0.1956748967","0.2166803268","0.3619800754","","","","","","","","","","","","","","74","J","1","","","125","main_expt",""
"","bandit","206","662629","0.0-167.0-0.0","82719350","wem/bandit_party_2","A11K9A2YRWQ4TU","either","1","1048","","","","","","","0","0","1","0.1419383156","","0.2","0.8","0.6","0.4","","","","","0.5337661481","0.1419383156","0.1613674106","0.353362548","","","","","","","","","","74","J","1","","","126","main_expt",""
"","bandit","207","664784","0.0-168.0-0.0","82719350","wem/bandit_party_2","A11K9A2YRWQ4TU","either","1","619","","","","","","","0","0","1","","0.5510518781","0.2","0.8","0.6","0.4","0.5510518781","0.1768105291","0.1682412955","0.2888217425","","","","","","","","","","","","","","72","H","0","img/none_selected.jpg","","127","main_expt",""
"","bandit","208","666824","0.0-169.0-0.0","82719350","wem/bandit_party_2","A11K9A2YRWQ4TU","either","1","497","","","","","","","1","0","0","0.4746642732","","0.2","0.8","0.6","0.4","","","","","0.4746642732","0.1187699492","0.1655910943","0.3131893798","","","","","","","","","","72","H","0","img/none_selected.jpg","","128","main_expt",""
"","bandit","209","669118","0.0-170.0-0.0","82719350","wem/bandit_party_2","A11K9A2YRWQ4TU","either","1","761","","","","","","","0","1","0","","0.5345142674","0.2","0.8","0.6","0.4","0.5345142674","0.1860330609","0.1845506081","0.2826861836","","","","","","","","","","","","","","72","H","0","img/none_selected.jpg","","129","main_expt",""
"","bandit","210","671413","0.0-171.0-0.0","82719350","wem/bandit_party_2","A11K9A2YRWQ4TU","either","1","755","","","","","","","0","1","0","","0.6617219445","0.2","0.8","0.6","0.4","0.6617219445","0.09722607165","0.1548240476","0.3434973012","","","","","","","","","","","","","","72","H","0","img/none_selected.jpg","","130","main_expt",""
"","bandit","211","673676","0.0-172.0-0.0","82719350","wem/bandit_party_2","A11K9A2YRWQ4TU","either","1","732","","","","","","","0","1","0","","0.6183560712","0.2","0.8","0.6","0.4","0.6183560712","0.05626421391","0.1503989","0.3848082556","","","","","","","","","","","","","","72","H","0","img/none_selected.jpg","","131","main_expt",""
"","bandit","212","675800","0.0-173.0-0.0","82719350","wem/bandit_party_2","A11K9A2YRWQ4TU","either","1","597","","","","","","","1","0","0","0.7009512511","","0.2","0.8","0.6","0.4","","","","","0.7009512511","0.1149854728","0.1199593994","0.4140069858","","","","","","","","","","72","H","0","img/none_selected.jpg","","132","main_expt",""
"","bandit","213","677769","0.0-174.0-0.0","82719350","wem/bandit_party_2","A11K9A2YRWQ4TU","either","1","441","","","","","","","0","1","0","","0.5838974895","0.2","0.8","0.6","0.4","0.5838974895","0.1698175541","0.1518383839","0.3745017877","","","","","","","","","","","","","","72","H","0","img/none_selected.jpg","","133","main_expt",""
"","bandit","214","680636","0.0-175.0-0.0","82719350","wem/bandit_party_2","A11K9A2YRWQ4TU","either","1","1335","","","","","","","0","0","1","","0.6628563986","0.2","0.8","0.6","0.4","0.6628563986","0.1925371395","0.1855528241","0.3918835711","","","","","","","","","","","","","","72","H","0","img/none_selected.jpg","","134","main_expt",""
"","bandit","215","682496","0.0-176.0-0.0","82719350","wem/bandit_party_2","A11K9A2YRWQ4TU","either","1","324","","","","","","","1","0","0","0.5610912218","","0.2","0.8","0.6","0.4","","","","","0.5610912218","0.246136332","0.2187769305","0.3405764209","","","","","","","","","","72","H","0","img/none_selected.jpg","","135","main_expt",""
"","bandit","216","684729","0.0-177.0-0.0","82719350","wem/bandit_party_2","A11K9A2YRWQ4TU","either","1","704","","","","","","","0","1","0","","0.4834649218","0.2","0.8","0.6","0.4","0.4834649218","0.2277518718","0.2001534018","0.4155430462","","","","","","","","","","","","","","72","H","0","img/none_selected.jpg","","136","main_expt",""
"","bandit","217","686713","0.0-178.0-0.0","82719350","wem/bandit_party_2","A11K9A2YRWQ4TU","either","1","455","","","","","","","0","0","1","","0.513072369","0.2","0.8","0.6","0.4","0.513072369","0.252962458","0.176995917","0.3389252929","","","","","","","","","","","","","","72","H","0","img/none_selected.jpg","","137","main_expt",""
"","bandit","218","688651","0.0-179.0-0.0","82719350","wem/bandit_party_2","A11K9A2YRWQ4TU","either","1","406","","","","","","","1","0","0","0.5502636267","","0.2","0.8","0.6","0.4","","","","","0.5502636267","0.3018696236","0.1460019238","0.2698753193","","","","","","","","","","72","H","0","img/none_selected.jpg","","138","main_expt",""
"","bandit","219","691041","0.0-180.0-0.0","82719350","wem/bandit_party_2","A11K9A2YRWQ4TU","either","1","853","","","","","","","0","0","1","","0.4564922144","0.2","0.8","0.6","0.4","0.4564922144","0.347353107","0.06707115951","0.2821570394","","","","","","","","","","","","","","72","H","0","img/none_selected.jpg","","139","main_expt",""
"","bandit","220","693087","0.0-181.0-0.0","82719350","wem/bandit_party_2","A11K9A2YRWQ4TU","either","1","512","","","","","","","0","0","1","0.4116013625","","0.2","0.8","0.6","0.4","","","","","0.4116013625","0.2477375586","0.1071331831","0.3577533322","","","","","","","","","","72","H","0","img/none_selected.jpg","","140","main_expt",""
"","bandit","221","695521","0.0-182.0-0.0","82719350","wem/bandit_party_2","A11K9A2YRWQ4TU","either","1","898","","","","","","","0","0","1","0.2880826197","","0.2","0.8","0.6","0.4","","","","","0.4498847811","0.2880826197","0.1224459691","0.4250900652","","","","","","","","","","74","J","1","","","141","main_expt",""
"","bandit","222","697629","0.0-183.0-0.0","82719350","wem/bandit_party_2","A11K9A2YRWQ4TU","either","1","575","","","","","","","0","0","1","0.1127900777","","0.2","0.8","0.6","0.4","","","","","0.4822150968","0.2287108423","0.1127900777","0.3451055681","","","","","","","","","","75","K","2","","","142","main_expt",""
"","bandit","223","699335","0.0-184.0-0.0","82719350","wem/bandit_party_2","A11K9A2YRWQ4TU","either","1","162","","","","","","","0","1","0","","0.4661026996","0.2","0.8","0.6","0.4","0.513506041","0.2096850542","0.1736101882","0.4661026996","","","","","","","","","","","","","","76","L","3","","","143","main_expt",""
"","bandit","224","701225","0.0-185.0-0.0","82719350","wem/bandit_party_2","A11K9A2YRWQ4TU","either","1","361","","","","","","","0","0","1","0.4683168179","","0.2","0.8","0.6","0.4","","","","","0.556822441","0.2214165798","0.1231714597","0.4683168179","","","","","","","","","","76","L","3","","","144","main_expt",""
"","bandit","225","703582","0.0-186.0-0.0","82719350","wem/bandit_party_2","A11K9A2YRWQ4TU","either","1","823","","","","","","","0","0","1","","0.448697065","0.2","0.8","0.6","0.4","0.5633269006","0.2412424024","0.10514291","0.448697065","","","","","","","","","","","","","","76","L","3","","","145","main_expt",""
"","bandit","226","705209","0.0-187.0-0.0","82719350","wem/bandit_party_2","A11K9A2YRWQ4TU","either","1","97","","","","","","","0","0","1","0.1841611904","","0.2","0.8","0.6","0.4","","","","","0.6482805244","0.1841611904","0.0972381369","0.4560677512","","","","","","","","","","74","J","1","","","146","main_expt",""
"","bandit","227","707349","0.0-188.0-0.0","82719350","wem/bandit_party_2","A11K9A2YRWQ4TU","either","1","598","","","","","","","0","0","1","","0.1897119627","0.2","0.8","0.6","0.4","0.6036290043","0.1577922033","0.1897119627","0.513472809","","","","","","","","","","","","","","75","K","2","","","147","main_expt",""
"","bandit","228","709271","0.0-189.0-0.0","82719350","wem/bandit_party_2","A11K9A2YRWQ4TU","either","1","394","","","","","","","0","0","1","0.1663963597","","0.2","0.8","0.6","0.4","","","","","0.6110248825","0.1663963597","0.1759094881","0.3820674583","","","","","","","","","","74","J","1","","","148","main_expt",""
"","bandit","229","711457","0.0-190.0-0.0","82719350","wem/bandit_party_2","A11K9A2YRWQ4TU","either","1","647","","","","","","","0","0","1","0.6453676348","","0.2","0.8","0.6","0.4","","","","","0.6453676348","0.319747154","0.2204336569","0.3116557105","","","","","","","","","","72","H","0","img/none_selected.jpg","","149","main_expt",""
"","bandit","230","713348","0.0-191.0-0.0","82719350","wem/bandit_party_2","A11K9A2YRWQ4TU","either","1","351","","","","","","","0","1","0","","0.66235511","0.2","0.8","0.6","0.4","0.66235511","0.5410110608","0.2328853871","0.3039338698","","","","","","","","","","","","","","72","H","0","img/none_selected.jpg","","150","main_expt",""
"","bandit","231","715642","0.0-192.0-0.0","82719350","wem/bandit_party_2","A11K9A2YRWQ4TU","either","1","762","","","","","","","0","0","1","","0.5547575852","0.2","0.8","0.6","0.4","0.5547575852","0.5584745132","0.2652525627","0.3092958796","","","","","","","","","","","","","","72","H","0","img/none_selected.jpg","","151","main_expt",""
"","bandit","232","717844","0.0-193.0-0.0","82719350","wem/bandit_party_2","A11K9A2YRWQ4TU","either","1","661","","","","","","","0","1","0","","0.5223098228","0.2","0.8","0.6","0.4","0.5223098228","0.5709378499","0.2654363334","0.3097370874","","","","","","","","","","","","","","72","H","0","img/none_selected.jpg","","152","main_expt",""
"","bandit","233","720588","0.0-194.0-0.0","82719350","wem/bandit_party_2","A11K9A2YRWQ4TU","either","1","1211","","","","","","","0","0","1","","0.5137303037","0.2","0.8","0.6","0.4","0.5137303037","0.6314515046","0.3505589273","0.2955649657","","","","","","","","","","","","","","72","H","0","img/none_selected.jpg","","153","main_expt",""
"","bandit","234","722944","0.0-195.0-0.0","82719350","wem/bandit_party_2","A11K9A2YRWQ4TU","either","1","820","","","","","","","0","1","0","","0.5193194566","0.2","0.8","0.6","0.4","0.5193194566","0.6734276465","0.39889796","0.221553637","","","","","","","","","","","","","","72","H","0","img/none_selected.jpg","","154","main_expt",""
"","bandit","235","725765","0.0-196.0-0.0","82719350","wem/bandit_party_2","A11K9A2YRWQ4TU","either","1","1279","","","","","","","0","1","0","","0.4736812385","0.2","0.8","0.6","0.4","0.4736812385","0.7019144477","0.4202606707","0.2231547498","","","","","","","","","","","","","","72","H","0","img/none_selected.jpg","","155","main_expt",""
"","bandit","236","729579","0.0-197.0-0.0","82719350","wem/bandit_party_2","A11K9A2YRWQ4TU","either","1","2282","","","","","","","0","0","1","","0.4616442501","0.2","0.8","0.6","0.4","0.4616442501","0.6695455193","0.4814159609","0.2750957943","","","","","","","","","","","","","","72","H","0","img/none_selected.jpg","","156","main_expt",""
"","bandit","237","732877","0.0-198.0-0.0","82719350","wem/bandit_party_2","A11K9A2YRWQ4TU","either","1","1764","","","","","","","0","1","0","","0.5025740222","0.2","0.8","0.6","0.4","0.5025740222","0.6179864128","0.5316807058","0.2005793054","","","","","","","","","","","","","","72","H","0","img/none_selected.jpg","","157","main_expt",""
"","bandit","238","737667","0.0-199.0-0.0","82719350","wem/bandit_party_2","A11K9A2YRWQ4TU","either","1","3248","","","","","","","0","0","1","","0.4548105643","0.2","0.8","0.6","0.4","0.4548105643","0.7380689997","0.5429668589","0.2502080146","","","","","","","","","","","","","","72","H","0","img/none_selected.jpg","","158","main_expt",""
"","bandit","239","742008","0.0-200.0-0.0","82719350","wem/bandit_party_2","A11K9A2YRWQ4TU","either","1","2810","","","","","","","0","1","0","","0.4622667215","0.2","0.8","0.6","0.4","0.4622667215","0.7632184112","0.5991419929","0.2729805177","","","","","","","","","","","","","","72","H","0","img/none_selected.jpg","","159","main_expt",""
"","bandit","240","745652","0.0-201.0-0.0","82719350","wem/bandit_party_2","A11K9A2YRWQ4TU","either","1","2102","","","","","","","0","0","1","0.4600517474","","0.2","0.8","0.6","0.4","","","","","0.4600517474","0.6917664031","0.6480894682","0.2801697818","","","","","","","","","","72","H","0","img/none_selected.jpg","","160","main_expt",""
"","bandit","241","747824","0.0-202.0-0.0","82719350","wem/bandit_party_2","A11K9A2YRWQ4TU","either","1","634","","","","","","","1","0","0","0.7106531984","","0.2","0.8","0.6","0.4","","","","","0.481388234","0.7106531984","0.6776161973","0.2437938608","","","","","","","","","","74","J","1","","","161","main_expt",""
"","bandit","242","750193","0.0-203.0-0.0","82719350","wem/bandit_party_2","A11K9A2YRWQ4TU","either","1","831","","","","","","","0","1","0","","0.809310282","0.2","0.8","0.6","0.4","0.3850106192","0.809310282","0.7134031715","0.2687553501","","","","","","","","","","","","","","74","J","1","","","162","main_expt",""
"","bandit","243","752425","0.0-204.0-0.0","82719350","wem/bandit_party_2","A11K9A2YRWQ4TU","either","1","702","","","","","","","1","0","0","0.7492875705","","0.2","0.8","0.6","0.4","","","","","0.3498723973","0.7492875705","0.6215635068","0.245991677","","","","","","","","","","74","J","1","","","163","main_expt",""
"","bandit","244","754859","0.0-205.0-0.0","82719350","wem/bandit_party_2","A11K9A2YRWQ4TU","either","1","902","","","","","","","1","0","0","0.7561394707","","0.2","0.8","0.6","0.4","","","","","0.4287417444","0.7561394707","0.5219240024","0.270385563","","","","","","","","","","74","J","1","","","164","main_expt",""
"","bandit","245","757820","0.0-206.0-0.0","82719350","wem/bandit_party_2","A11K9A2YRWQ4TU","either","1","1427","","","","","","","0","0","1","","0.8111415702","0.2","0.8","0.6","0.4","0.3150145745","0.8111415702","0.4727302842","0.3037855967","","","","","","","","","","","","","","74","J","1","","","165","main_expt",""
"","bandit","246","759727","0.0-207.0-0.0","82719350","wem/bandit_party_2","A11K9A2YRWQ4TU","either","1","370","","","","","","","0","1","0","","0.7759938205","0.2","0.8","0.6","0.4","0.2927018344","0.7759938205","0.5181018645","0.3395577104","","","","","","","","","","","","","","74","J","1","","","166","main_expt",""
"","bandit","247","762207","0.0-208.0-0.0","82719350","wem/bandit_party_2","A11K9A2YRWQ4TU","either","1","944","","","","","","","1","0","0","0.8267633335","","0.2","0.8","0.6","0.4","","","","","0.3610256338","0.8267633335","0.5280433419","0.3443901906","","","","","","","","","","74","J","1","","","167","main_expt",""
"","bandit","248","764408","0.0-209.0-0.0","82719350","wem/bandit_party_2","A11K9A2YRWQ4TU","either","1","671","","","","","","","1","0","0","0.8136073627","","0.2","0.8","0.6","0.4","","","","","0.3137127159","0.8136073627","0.5470010145","0.2552323567","","","","","","","","","","74","J","1","","","168","main_expt",""
"","bandit","249","766671","0.0-210.0-0.0","82719350","wem/bandit_party_2","A11K9A2YRWQ4TU","either","1","726","","","","","","","1","0","0","0.7308533614","","0.2","0.8","0.6","0.4","","","","","0.2292796242","0.7308533614","0.5558845962","0.289352286","","","","","","","","","","74","J","1","","","169","main_expt",""
"","bandit","250","768656","0.0-211.0-0.0","82719350","wem/bandit_party_2","A11K9A2YRWQ4TU","either","1","447","","","","","","","1","0","0","0.7090730391","","0.2","0.8","0.6","0.4","","","","","0.221948569","0.7090730391","0.5799309324","0.2262743404","","","","","","","","","","74","J","1","","","170","main_expt",""
"","bandit","251","771057","0.0-212.0-0.0","82719350","wem/bandit_party_2","A11K9A2YRWQ4TU","either","1","863","","","","","","","0","0","1","0.7229684446","","0.2","0.8","0.6","0.4","","","","","0.159615594","0.7229684446","0.6643953266","0.2644351609","","","","","","","","","","74","J","1","","","171","main_expt",""
"","bandit","252","772964","0.0-213.0-0.0","82719350","wem/bandit_party_2","A11K9A2YRWQ4TU","either","1","364","","","","","","","1","0","0","0.6612043244","","0.2","0.8","0.6","0.4","","","","","0.1303854457","0.6612043244","0.7610666705","0.4136296373","","","","","","","","","","74","J","1","","","172","main_expt",""
"","bandit","253","775025","0.0-214.0-0.0","82719350","wem/bandit_party_2","A11K9A2YRWQ4TU","either","1","523","","","","","","","1","0","0","0.7669021743","","0.2","0.8","0.6","0.4","","","","","0.07729024622","0.7669021743","0.8006149786","0.491318492","","","","","","","","","","74","J","1","","","173","main_expt",""
"","bandit","254","777149","0.0-215.0-0.0","82719350","wem/bandit_party_2","A11K9A2YRWQ4TU","either","1","589","","","","","","","1","0","0","0.8111867287","","0.2","0.8","0.6","0.4","","","","","0.1227026474","0.8111867287","0.791095403","0.4966763124","","","","","","","","","","74","J","1","","","174","main_expt",""
"","bandit","255","779567","0.0-216.0-0.0","82719350","wem/bandit_party_2","A11K9A2YRWQ4TU","either","1","881","","","","","","","1","0","0","0.8192498968","","0.2","0.8","0.6","0.4","","","","","0.09483306355","0.8192498968","0.8572088762","0.5109350621","","","","","","","","","","74","J","1","","","175","main_expt",""
"","bandit","256","782094","0.0-217.0-0.0","82719350","wem/bandit_party_2","A11K9A2YRWQ4TU","either","1","991","","","","","","","1","0","0","0.8371283275","","0.2","0.8","0.6","0.4","","","","","0.143069758","0.8371283275","0.8576080684","0.6321295754","","","","","","","","","","74","J","1","","","176","main_expt",""
"","bandit","257","784342","0.0-218.0-0.0","82719350","wem/bandit_party_2","A11K9A2YRWQ4TU","either","1","704","","","","","","","1","0","0","0.8545140947","","0.2","0.8","0.6","0.4","","","","","0.1741656422","0.8545140947","0.8678158231","0.5515755996","","","","","","","","","","74","J","1","","","177","main_expt",""
"","bandit","258","786869","0.0-219.0-0.0","82719350","wem/bandit_party_2","A11K9A2YRWQ4TU","either","1","984","","","","","","","1","0","0","0.8794893657","","0.2","0.8","0.6","0.4","","","","","0.1904086474","0.8794893657","0.8820542777","0.5086275016","","","","","","","","","","74","J","1","","","178","main_expt",""
"","bandit","259","789225","0.0-220.0-0.0","82719350","wem/bandit_party_2","A11K9A2YRWQ4TU","either","1","825","","","","","","","1","0","0","0.8939587296","","0.2","0.8","0.6","0.4","","","","","0.1778905233","0.8939587296","0.8907334788","0.5215192908","","","","","","","","","","74","J","1","","","179","main_expt",""
"","bandit","260","792186","0.0-221.0-0.0","82719350","wem/bandit_party_2","A11K9A2YRWQ4TU","either","1","1429","","","","","","","1","0","0","0.868077767","","0.2","0.8","0.6","0.4","","","","","0.2112817454","0.868077767","0.9161653667","0.5193414217","","","","","","","","","","74","J","1","","","180","main_expt",""
"","bandit","261","795255","0.0-222.0-0.0","82719350","wem/bandit_party_2","A11K9A2YRWQ4TU","either","1","1539","","","","","","","0","1","0","","0.9295405476","0.2","0.8","0.6","0.4","0.2236312472","0.9295405476","0.9327112184","0.4613460131","","","","","","","","","","","","","","74","J","1","","","181","main_expt",""
"","bandit","262","797735","0.0-223.0-0.0","82719350","wem/bandit_party_2","A11K9A2YRWQ4TU","either","1","951","","","","","","","1","0","0","0.9213574857","","0.2","0.8","0.6","0.4","","","","","0.264467441","0.9213574857","0.9284398706","0.4468633868","","","","","","","","","","74","J","1","","","182","main_expt",""
"","bandit","263","800107","0.0-224.0-0.0","82719350","wem/bandit_party_2","A11K9A2YRWQ4TU","either","1","838","","","","","","","1","0","0","0.9374560388","","0.2","0.8","0.6","0.4","","","","","0.2240632979","0.9374560388","0.89591471","0.4985091709","","","","","","","","","","74","J","1","","","183","main_expt",""
"","bandit","264","802123","0.0-225.0-0.0","82719350","wem/bandit_party_2","A11K9A2YRWQ4TU","either","1","481","","","","","","","1","0","0","0.9120054929","","0.2","0.8","0.6","0.4","","","","","0.1671404848","0.9120054929","0.9146434193","0.6057575335","","","","","","","","","","74","J","1","","","184","main_expt",""
"","bandit","265","805704","0.0-226.0-0.0","82719350","wem/bandit_party_2","A11K9A2YRWQ4TU","either","1","2050","","","","","","","1","0","0","0.8428471033","","0.2","0.8","0.6","0.4","","","","","0.1932257563","0.8428471033","0.8575823977","0.4915456485","","","","","","","","","","74","J","1","","","185","main_expt",""
"","bandit","266","808726","0.0-227.0-0.0","82719350","wem/bandit_party_2","A11K9A2YRWQ4TU","either","1","1494","","","","","","","1","0","0","0.7734335662","","0.2","0.8","0.6","0.4","","","","","0.155472597","0.7734335662","0.8487952361","0.5976273718","","","","","","","","","","74","J","1","","","186","main_expt",""
"","bandit","267","811905","0.0-228.0-0.0","82719350","wem/bandit_party_2","A11K9A2YRWQ4TU","either","1","1639","","","","","","","0","1","0","","0.7667319261","0.2","0.8","0.6","0.4","0.1895871356","0.7667319261","0.8603972339","0.5743595779","","","","","","","","","","","","","","74","J","1","","","187","main_expt",""
"","bandit","268","814772","0.0-229.0-0.0","82719350","wem/bandit_party_2","A11K9A2YRWQ4TU","either","1","1325","","","","","","","0","0","1","0.5945875292","","0.2","0.8","0.6","0.4","","","","","0.2119556673","0.5945875292","0.8834510925","0.6833173747","","","","","","","","","","74","J","1","","","188","main_expt",""
"","bandit","269","816710","0.0-230.0-0.0","82719350","wem/bandit_party_2","A11K9A2YRWQ4TU","either","1","409","","","","","","","1","0","0","0.7406569186","","0.2","0.8","0.6","0.4","","","","","0.2255007403","0.7406569186","0.8973947779","0.651089354","","","","","","","","","","74","J","1","","","189","main_expt",""
"","bandit","270","819175","0.0-231.0-0.0","82719350","wem/bandit_party_2","A11K9A2YRWQ4TU","either","1","935","","","","","","","0","0","1","0.7371931777","","0.2","0.8","0.6","0.4","","","","","0.1754842532","0.7371931777","0.8824587855","0.6599652607","","","","","","","","","","74","J","1","","","190","main_expt",""
"","bandit","271","821050","0.0-232.0-0.0","82719350","wem/bandit_party_2","A11K9A2YRWQ4TU","either","1","342","","","","","","","1","0","0","0.7019705866","","0.2","0.8","0.6","0.4","","","","","0.1936311571","0.7019705866","0.9076431997","0.6960236584","","","","","","","","","","74","J","1","","","191","main_expt",""
"","bandit","272","823996","0.0-233.0-0.0","82719350","wem/bandit_party_2","A11K9A2YRWQ4TU","either","1","1411","","","","","","","0","0","1","","0.6198122665","0.2","0.8","0.6","0.4","0.215612591","0.6198122665","0.8673165995","0.6713911156","","","","","","","","","","","","","","74","J","1","","","192","main_expt",""
"","bandit","273","825810","0.0-234.0-0.0","82719350","wem/bandit_party_2","A11K9A2YRWQ4TU","either","1","273","","","","","","","1","0","0","0.7244072205","","0.2","0.8","0.6","0.4","","","","","0.2818734505","0.6100930929","0.8264401474","0.7244072205","","","","","","","","","","76","L","3","","","193","main_expt",""
"","bandit","274","828089","0.0-235.0-0.0","82719350","wem/bandit_party_2","A11K9A2YRWQ4TU","either","1","747","","","","","","","1","0","0","0.7397798508","","0.2","0.8","0.6","0.4","","","","","0.3616108755","0.6332739585","0.8546086414","0.7397798508","","","","","","","","","","76","L","3","","","194","main_expt",""
"","bandit","275","830214","0.0-236.0-0.0","82719350","wem/bandit_party_2","A11K9A2YRWQ4TU","either","1","580","","","","","","","0","1","0","","0.7602069811","0.2","0.8","0.6","0.4","0.3979961615","0.609207161","0.7914914872","0.7602069811","","","","","","","","","","","","","","76","L","3","","","195","main_expt",""
"","bandit","276","832770","0.0-237.0-0.0","82719350","wem/bandit_party_2","A11K9A2YRWQ4TU","either","1","1013","","","","","","","0","0","1","","0.7114092524","0.2","0.8","0.6","0.4","0.4366641927","0.6560649547","0.7608346536","0.7114092524","","","","","","","","","","","","","","76","L","3","","","196","main_expt",""
"","bandit","277","834692","0.0-238.0-0.0","82719350","wem/bandit_party_2","A11K9A2YRWQ4TU","either","1","363","","","","","","","1","0","0","0.6917424169","","0.2","0.8","0.6","0.4","","","","","0.560782874","0.6656533059","0.7003784325","0.6917424169","","","","","","","","","","76","L","3","","","197","main_expt",""
"","bandit","278","836738","0.0-239.0-0.0","82719350","wem/bandit_party_2","A11K9A2YRWQ4TU","either","1","505","","","","","","","0","1","0","","0.6561069913","0.2","0.8","0.6","0.4","0.5649388288","0.6841747727","0.6036075577","0.6561069913","","","","","","","","","","","","","","76","L","3","","","198","main_expt",""
"","bandit","279","838940","0.0-240.0-0.0","82719350","wem/bandit_party_2","A11K9A2YRWQ4TU","either","1","666","","","","","","","1","0","0","0.6948346643","","0.2","0.8","0.6","0.4","","","","","0.5375892324","0.7105065455","0.5843314555","0.6948346643","","","","","","","","","","76","L","3","","","199","main_expt",""
"","bandit","280","840971","0.0-241.0-0.0","82719350","wem/bandit_party_2","A11K9A2YRWQ4TU","either","1","497","","","","","","","0","1","0","","0.7369743936","0.2","0.8","0.6","0.4","0.5625167851","0.7380433654","0.539414212","0.7369743936","","","","","","","","","","","","","","76","L","3","","","200","main_expt",""
"","bandit","281","842986","0.0-242.0-0.0","82719350","wem/bandit_party_2","A11K9A2YRWQ4TU","either","1","482","","","","","","","0","1","0","","0.8347268415","0.2","0.8","0.6","0.4","0.6266810217","0.6432951689","0.3774065742","0.8347268415","","","","","","","","","","","","","","76","L","3","","","201","main_expt",""
"","bandit","282","845017","0.0-243.0-0.0","82719350","wem/bandit_party_2","A11K9A2YRWQ4TU","either","1","499","","","","","","","1","0","0","0.7612264534","","0.2","0.8","0.6","0.4","","","","","0.6661075828","0.4995879772","0.2824615609","0.7612264534","","","","","","","","","","76","L","3","","","202","main_expt",""
"","bandit","283","846970","0.0-244.0-0.0","82719350","wem/bandit_party_2","A11K9A2YRWQ4TU","either","1","420","","","","","","","0","0","1","0.6904596671","","0.2","0.8","0.6","0.4","","","","","0.7534099026","0.4767352753","0.210170224","0.6904596671","","","","","","","","","","76","L","3","","","203","main_expt",""
"","bandit","284","848877","0.0-245.0-0.0","82719350","wem/bandit_party_2","A11K9A2YRWQ4TU","either","1","371","","","","","","","0","1","0","","0.6855485072","0.2","0.8","0.6","0.4","0.7033522103","0.3680612217","0.2708138581","0.6855485072","","","","","","","","","","","","","","76","L","3","","","204","main_expt",""
"","bandit","285","850845","0.0-246.0-0.0","82719350","wem/bandit_party_2","A11K9A2YRWQ4TU","either","1","432","","","","","","","0","0","1","","0.7006332368","0.2","0.8","0.6","0.4","0.6105989365","0.3404512965","0.3319820794","0.7006332368","","","","","","","","","","","","","","76","L","3","","","205","main_expt",""
"","bandit","286","853000","0.0-247.0-0.0","82719350","wem/bandit_party_2","A11K9A2YRWQ4TU","either","1","623","","","","","","","0","1","0","","0.7533130943","0.2","0.8","0.6","0.4","0.725137222","0.2774568564","0.3517339603","0.7533130943","","","","","","","","","","","","","","76","L","3","","","206","main_expt",""
"","bandit","287","854969","0.0-248.0-0.0","82719350","wem/bandit_party_2","A11K9A2YRWQ4TU","either","1","436","","","","","","","1","0","0","0.7191760557","","0.2","0.8","0.6","0.4","","","","","0.5888984072","0.2228883469","0.2871079035","0.7191760557","","","","","","","","","","76","L","3","","","207","main_expt",""
"","bandit","288","856984","0.0-249.0-0.0","82719350","wem/bandit_party_2","A11K9A2YRWQ4TU","either","1","484","","","","","","","0","1","0","","0.6264293856","0.2","0.8","0.6","0.4","0.4650323514","0.2829247412","0.2642306377","0.6264293856","","","","","","","","","","","","","","76","L","3","","","208","main_expt",""
"","bandit","289","858937","0.0-250.0-0.0","82719350","wem/bandit_party_2","A11K9A2YRWQ4TU","either","1","420","","","","","","","1","0","0","0.6500478562","","0.2","0.8","0.6","0.4","","","","","0.4100719568","0.3169104167","0.3587725811","0.6500478562","","","","","","","","","","76","L","3","","","209","main_expt",""
"","bandit","290","860968","0.0-251.0-0.0","82719350","wem/bandit_party_2","A11K9A2YRWQ4TU","either","1","499","","","","","","","0","1","0","","0.6498865343","0.2","0.8","0.6","0.4","0.5177296744","0.2090062306","0.3103342645","0.6498865343","","","","","","","","","","","","","","76","L","3","","","210","main_expt",""
"","bandit","291","862983","0.0-252.0-0.0","82719350","wem/bandit_party_2","A11K9A2YRWQ4TU","either","1","484","","","","","","","0","1","0","","0.6056301442","0.2","0.8","0.6","0.4","0.5950812693","0.1481662818","0.3760595068","0.6056301442","","","","","","","","","","","","","","76","L","3","","","211","main_expt",""
"","bandit","292","865154","0.0-253.0-0.0","82719350","wem/bandit_party_2","A11K9A2YRWQ4TU","either","1","629","","","","","","","0","0","1","","0.5524844402","0.2","0.8","0.6","0.4","0.7169745983","0.2114888193","0.447023013","0.5524844402","","","","","","","","","","","","","","76","L","3","","","212","main_expt",""
"","bandit","293","867076","0.0-254.0-0.0","82719350","wem/bandit_party_2","A11K9A2YRWQ4TU","either","1","379","","","","","","","0","0","1","0.6984249358","","0.2","0.8","0.6","0.4","","","","","0.6766124197","0.2234642754","0.4529182837","0.6984249358","","","","","","","","","","76","L","3","","","213","main_expt",""
"","bandit","294","869107","0.0-255.0-0.0","82719350","wem/bandit_party_2","A11K9A2YRWQ4TU","either","1","488","","","","","","","1","0","0","0.4306534983","","0.2","0.8","0.6","0.4","","","","","0.8005648136","0.2315139555","0.4306534983","0.5996975418","","","","","","","","","","75","K","2","","","214","main_expt",""
"","bandit","295","871209","0.0-256.0-0.0","82719350","wem/bandit_party_2","A11K9A2YRWQ4TU","either","1","569","","","","","","","0","0","1","0.4314469479","","0.2","0.8","0.6","0.4","","","","","0.8487964291","0.1949488974","0.4314469479","0.6067129047","","","","","","","","","","75","K","2","","","215","main_expt",""
"","bandit","296","873116","0.0-257.0-0.0","82719350","wem/bandit_party_2","A11K9A2YRWQ4TU","either","1","370","","","","","","","1","0","0","0.45439575","","0.2","0.8","0.6","0.4","","","","","0.8674123454","0.2333303883","0.45439575","0.6297976658","","","","","","","","","","75","K","2","","","216","main_expt",""
"","bandit","297","875178","0.0-258.0-0.0","82719350","wem/bandit_party_2","A11K9A2YRWQ4TU","either","1","528","","","","","","","0","0","1","0.5228861726","","0.2","0.8","0.6","0.4","","","","","0.8774404243","0.2027763819","0.5228861726","0.6095272491","","","","","","","","","","75","K","2","","","217","main_expt",""
"","bandit","298","877333","0.0-259.0-0.0","82719350","wem/bandit_party_2","A11K9A2YRWQ4TU","either","1","610","","","","","","","0","0","1","0.1895874514","","0.2","0.8","0.6","0.4","","","","","0.8836448068","0.1895874514","0.463703458","0.7058099393","","","","","","","","","","74","J","1","","","218","main_expt",""
"","bandit","299","879224","0.0-260.0-0.0","82719350","wem/bandit_party_2","A11K9A2YRWQ4TU","either","1","359","","","","","","","1","0","0","0.880498508","","0.2","0.8","0.6","0.4","","","","","0.880498508","0.1537120117","0.4522864467","0.7396246451","","","","","","","","","","72","H","0","img/none_selected.jpg","","219","main_expt",""
"","bandit","300","881425","0.0-261.0-0.0","82719350","wem/bandit_party_2","A11K9A2YRWQ4TU","either","1","660","","","","","","","0","0","1","","0.8740874997","0.2","0.8","0.6","0.4","0.8740874997","0.2022747423","0.4561576612","0.7091968036","","","","","","","","","","","","","","72","H","0","img/none_selected.jpg","","220","main_expt",""
"","bandit","301","883363","0.0-262.0-0.0","82719350","wem/bandit_party_2","A11K9A2YRWQ4TU","either","1","394","","","","","","","0","1","0","","0.8527830905","0.2","0.8","0.6","0.4","0.8527830905","0.3174413427","0.4264657168","0.7116308873","","","","","","","","","","","","","","72","H","0","img/none_selected.jpg","","221","main_expt",""
"","bandit","302","885332","0.0-263.0-0.0","82719350","wem/bandit_party_2","A11K9A2YRWQ4TU","either","1","425","","","","","","","0","1","0","","0.7717907476","0.2","0.8","0.6","0.4","0.7717907476","0.2315667073","0.3055141729","0.769465391","","","","","","","","","","","","","","72","H","0","img/none_selected.jpg","","222","main_expt",""
"","bandit","303","974152","0.0-264.0-0.0","82719350","wem/bandit_party_2","A11K9A2YRWQ4TU","either","1","87272","","","","","","","0","0","1","0.2261006122","","0.2","0.8","0.6","0.4","","","","","0.8359700354","0.2261006122","0.2868954791","0.7509006974","","","","","","","","","","74","J","1","","","223","main_expt",""
"","bandit","304","976152","0.0-265.0-0.0","82719350","wem/bandit_party_2","A11K9A2YRWQ4TU","either","1","467","","","","","","","0","0","1","0.2662378096","","0.2","0.8","0.6","0.4","","","","","0.819670806","0.2662378096","0.2698185242","0.7007688409","","","","","","","","","","74","J","1","","","224","main_expt",""
"","bandit","305","978213","0.0-266.0-0.0","82719350","wem/bandit_party_2","A11K9A2YRWQ4TU","either","1","516","","","","","","","0","0","1","","0.8512382749","0.2","0.8","0.6","0.4","0.8512382749","0.2163280173","0.213842325","0.7409020096","","","","","","","","","","","","","","72","H","0","img/none_selected.jpg","","225","main_expt",""
"","bandit","306","980198","0.0-267.0-0.0","82719350","wem/bandit_party_2","A11K9A2YRWQ4TU","either","1","438","","","","","","","0","0","1","0.1616408491","","0.2","0.8","0.6","0.4","","","","","0.8342861847","0.2809353625","0.1616408491","0.7052945704","","","","","","","","","","75","K","2","","","226","main_expt",""
"","bandit","307","983019","0.0-268.0-0.0","82719350","wem/bandit_party_2","A11K9A2YRWQ4TU","either","1","1286","","","","","","","0","1","0","","0.606091252","0.2","0.8","0.6","0.4","0.7736041865","0.2396571279","0.1777599287","0.606091252","","","","","","","","","","","","","","76","L","3","","","227","main_expt",""
"","bandit","308","985003","0.0-269.0-0.0","82719350","wem/bandit_party_2","A11K9A2YRWQ4TU","either","1","449","","","","","","","0","0","1","","0.5834203199","0.2","0.8","0.6","0.4","0.8094350608","0.3430446928","0.2866543064","0.5834203199","","","","","","","","","","","","","","76","L","3","","","228","main_expt",""
"","bandit","309","986956","0.0-270.0-0.0","82719350","wem/bandit_party_2","A11K9A2YRWQ4TU","either","1","416","","","","","","","1","0","0","0.5466214007","","0.2","0.8","0.6","0.4","","","","","0.8078722129","0.2886233194","0.3948293382","0.5466214007","","","","","","","","","","76","L","3","","","229","main_expt",""
"","bandit","310","988972","0.0-271.0-0.0","82719350","wem/bandit_party_2","A11K9A2YRWQ4TU","either","1","479","","","","","","","0","0","1","0.5519014059","","0.2","0.8","0.6","0.4","","","","","0.7719043616","0.3213731463","0.3291786684","0.5519014059","","","","","","","","","","76","L","3","","","230","main_expt",""
"","bandit","311","991390","0.0-272.0-0.0","82719350","wem/bandit_party_2","A11K9A2YRWQ4TU","either","1","879","","","","","","","0","1","0","","0.4527164215","0.2","0.8","0.6","0.4","0.8049264475","0.2771614906","0.2378236032","0.4527164215","","","","","","","","","","","","","","76","L","3","","","231","main_expt",""
"","bandit","312","993700","0.0-273.0-0.0","82719350","wem/bandit_party_2","A11K9A2YRWQ4TU","either","1","765","","","","","","","0","1","0","","0.5135082398","0.2","0.8","0.6","0.4","0.8850589997","0.2249105956","0.246393804","0.5135082398","","","","","","","","","","","","","","76","L","3","","","232","main_expt",""
"","bandit","313","995932","0.0-274.0-0.0","82719350","wem/bandit_party_2","A11K9A2YRWQ4TU","either","1","695","","","","","","","1","0","0","0.5502454751","","0.2","0.8","0.6","0.4","","","","","0.9183615156","0.2447973041","0.2141634692","0.5502454751","","","","","","","","","","76","L","3","","","233","main_expt",""
"","bandit","314","998156","0.0-275.0-0.0","82719350","wem/bandit_party_2","A11K9A2YRWQ4TU","either","1","687","","","","","","","1","0","0","0.3783923662","","0.2","0.8","0.6","0.4","","","","","0.9639410842","0.24601643","0.2876436191","0.3783923662","","","","","","","","","","76","L","3","","","234","main_expt",""
"","bandit","315","1000420","0.0-276.0-0.0","82719350","wem/bandit_party_2","A11K9A2YRWQ4TU","either","1","719","","","","","","","0","0","1","0.2814299379","","0.2","0.8","0.6","0.4","","","","","0.9697187448","0.1629844561","0.2769077257","0.2814299379","","","","","","","","","","76","L","3","","","235","main_expt",""
"","bandit","316","1002373","0.0-277.0-0.0","82719350","wem/bandit_party_2","A11K9A2YRWQ4TU","either","1","407","","","","","","","0","0","1","","0.3106100538","0.2","0.8","0.6","0.4","0.9571573523","0.1929455839","0.136865198","0.3106100538","","","","","","","","","","","","","","76","L","3","","","236","main_expt",""
"","bandit","317","1004265","0.0-278.0-0.0","82719350","wem/bandit_party_2","A11K9A2YRWQ4TU","either","1","357","","","","","","","0","0","1","0.1123790732","","0.2","0.8","0.6","0.4","","","","","0.9170696074","0.1497712966","0.1123790732","0.3152445528","","","","","","","","","","75","K","2","","","237","main_expt",""
"","bandit","318","1006016","0.0-279.0-0.0","82719350","wem/bandit_party_2","A11K9A2YRWQ4TU","either","1","210","","","","","","","0","0","1","0.1526491196","","0.2","0.8","0.6","0.4","","","","","0.9207491077","0.1526491196","0.09027024906","0.2637175197","","","","","","","","","","74","J","1","","","238","main_expt",""
