"consent","trial_type","trial_index","time_elapsed","internal_node_id","subjID","study","MID","cond","drift","rt","responses","button_pressed","key_press","like","value","connected","gems","bombs","no_reward","GemPrChosen","BombPrChosen","GainOverPainPr_0","GainOverPainPr_1","GainOverPainPr_2","GainOverPainPr_3","LosePr_0","LosePr_1","LosePr_2","LosePr_3","WinPr_0","WinPr_1","WinPr_2","WinPr_3","Q0","Q1","Q2","gender","age","ethnicity","label","expt_phase","target","respCharCode","respKey","respChoiceNum","respChoice","practice","trial_counter","trial_label","Q0_index"
"GDM/GDM_behavioral_consent_30min_online.html","consent","0","1448035","0.0-0.0","83096853","wem/bandit_party_2","A2QKPBMYWR4KT3","either","8","","","","","","","","","","","","","","","","","","","","","","","","","","","","","","","","","","","","","","","","",""
"","survey-text","1","1454284","0.0-1.0","83096853","wem/bandit_party_2","A2QKPBMYWR4KT3","either","8","5236","{""Q0"":""A2QKPBMYWR4KT3""}","","","","","","","","","","","","","","","","","","","","","","","","","","","","","","","","","","","","","","",""
"","button-response","2","1463570","0.0-2.0","83096853","wem/bandit_party_2","A2QKPBMYWR4KT3","either","8","8277","","1","","","","","","","","","","","","","","","","","","","","","","","","","","","","","","","","","","","","","",""
"","text-replacement","3","1478094","0.0-3.0","83096853","wem/bandit_party_2","A2QKPBMYWR4KT3","either","8","13518","","","32","","","","","","","","","","","","","","","","","","","","","","","","","","","","","","","","","","","","",""
"","text-replacement","4","1488222","0.0-4.0","83096853","wem/bandit_party_2","A2QKPBMYWR4KT3","either","8","10124","","","32","","","","","","","","","","","","","","","","","","","","","","","","","","","","","","","","","","","","",""
"","identification","5","1501419","0.0-6.0-0.0","83096853","wem/bandit_party_2","A2QKPBMYWR4KT3","either","8","13164","","","","1","1","1","","","","","","","","","","","","","","","","","","","","","","","","pre","identification_pre","the Republican Party","","","","","","","",""
"","identification","6","1504595","0.0-6.0-1.0","83096853","wem/bandit_party_2","A2QKPBMYWR4KT3","either","8","2148","","","","1","1","1","","","","","","","","","","","","","","","","","","","","","","","","pre","identification_pre","the Democratic Party","","","","","","","",""
"","text-replacement","7","1510773","0.0-7.0","83096853","wem/bandit_party_2","A2QKPBMYWR4KT3","either","8","5174","","","32","","","","","","","","","","","","","","","","","","","","","","","","","","","","","","","","","","","","",""
"","text-replacement","8","1517172","0.0-8.0","83096853","wem/bandit_party_2","A2QKPBMYWR4KT3","either","8","6394","","","32","","","","","","","","","","","","","","","","","","","","","","","","","","","","","","","","","","","","",""
"","text-replacement","9","1524879","0.0-9.0","83096853","wem/bandit_party_2","A2QKPBMYWR4KT3","either","8","7702","","","32","","","","","","","","","","","","","","","","","","","","","","","","","","","","","","","","","","","","",""
"","text-replacement","10","1527795","0.0-10.0","83096853","wem/bandit_party_2","A2QKPBMYWR4KT3","either","8","2912","","","32","","","","","","","","","","","","","","","","","","","","","","","","","","","","","","","","","","","","",""
"","text-replacement","11","1532283","0.0-11.0","83096853","wem/bandit_party_2","A2QKPBMYWR4KT3","either","8","4484","","","32","","","","","","","","","","","","","","","","","","","","","","","","","","","","","","","","","","","","",""
"","bandit","12","1536448","0.0-12.0-0.0","83096853","wem/bandit_party_2","A2QKPBMYWR4KT3","either","8","2649","","","","","","","0","0","1","0","0","","","","","0","","","","0","","","","","","","","","","","","","74","J","0","img/none_selected_demo.jpg","true","0","",""
"","bandit","13","1539219","0.0-13.0-0.0","83096853","wem/bandit_party_2","A2QKPBMYWR4KT3","either","8","1258","","","","","","","0","0","1","0","0","","","","","0","","","","0","","","","","","","","","","","","","75","K","0","img/none_selected_demo.jpg","true","0","",""
"","text-replacement","14","1544899","0.0-14.0","83096853","wem/bandit_party_2","A2QKPBMYWR4KT3","either","8","5676","","","32","","","","","","","","","","","","","","","","","","","","","","","","","","","","","","","","","","","","",""
"","text-replacement","15","1549693","0.0-15.0","83096853","wem/bandit_party_2","A2QKPBMYWR4KT3","either","8","4791","","","32","","","","","","","","","","","","","","","","","","","","","","","","","","","","","","","","","","","","",""
"","text-replacement","16","1554043","0.0-16.0","83096853","wem/bandit_party_2","A2QKPBMYWR4KT3","either","8","4346","","","32","","","","","","","","","","","","","","","","","","","","","","","","","","","","","","","","","","","","",""
"","text-replacement","17","1557131","0.0-17.0","83096853","wem/bandit_party_2","A2QKPBMYWR4KT3","either","8","3085","","","32","","","","","","","","","","","","","","","","","","","","","","","","","","","","","","","","","","","","",""
"","bandit","18","1559316","0.0-18.0-0.0","83096853","wem/bandit_party_2","A2QKPBMYWR4KT3","either","8","675","","","","","","","0","1","0","","0.8","0.5","0.5","","","0.8","0.2","","","","","","","","","","","","","","","","74","J","0","img/none_selected_demo.jpg","true","0","80_20_practice",""
"","bandit","19","1561190","0.0-18.0-1.0","83096853","wem/bandit_party_2","A2QKPBMYWR4KT3","either","8","360","","","","","","","0","0","1","0.8","","0.5","0.5","","","","","","","0.8","0.2","","","","","","","","","","","","74","J","0","img/none_selected_demo.jpg","true","0","80_20_practice",""
"","bandit","20","1563028","0.0-18.0-2.0","83096853","wem/bandit_party_2","A2QKPBMYWR4KT3","either","8","330","","","","","","","0","0","1","","0.8","0.5","0.5","","","0.8","0.2","","","","","","","","","","","","","","","","74","J","0","img/none_selected_demo.jpg","true","0","80_20_practice",""
"","bandit","21","1564819","0.0-18.0-3.0","83096853","wem/bandit_party_2","A2QKPBMYWR4KT3","either","8","283","","","","","","","0","1","0","","0.8","0.5","0.5","","","0.8","0.2","","","","","","","","","","","","","","","","74","J","0","img/none_selected_demo.jpg","true","0","80_20_practice",""
"","bandit","22","1566611","0.0-18.0-4.0","83096853","wem/bandit_party_2","A2QKPBMYWR4KT3","either","8","282","","","","","","","1","0","0","0.8","","0.5","0.5","","","","","","","0.8","0.2","","","","","","","","","","","","74","J","0","img/none_selected_demo.jpg","true","0","80_20_practice",""
"","bandit","23","1568323","0.0-18.0-5.0","83096853","wem/bandit_party_2","A2QKPBMYWR4KT3","either","8","203","","","","","","","0","1","0","","0.8","0.5","0.5","","","0.8","0.2","","","","","","","","","","","","","","","","74","J","0","img/none_selected_demo.jpg","true","0","80_20_practice",""
"","bandit","24","1570067","0.0-18.0-6.0","83096853","wem/bandit_party_2","A2QKPBMYWR4KT3","either","8","232","","","","","","","1","0","0","0.8","","0.5","0.5","","","","","","","0.8","0.2","","","","","","","","","","","","74","J","0","img/none_selected_demo.jpg","true","0","80_20_practice",""
"","bandit","25","1571803","0.0-18.0-7.0","83096853","wem/bandit_party_2","A2QKPBMYWR4KT3","either","8","225","","","","","","","0","0","1","0.8","","0.5","0.5","","","","","","","0.8","0.2","","","","","","","","","","","","74","J","0","img/none_selected_demo.jpg","true","0","80_20_practice",""
"","bandit","26","1573454","0.0-18.0-8.0","83096853","wem/bandit_party_2","A2QKPBMYWR4KT3","either","8","139","","","","","","","0","1","0","","0.8","0.5","0.5","","","0.8","0.2","","","","","","","","","","","","","","","","74","J","0","img/none_selected_demo.jpg","true","0","80_20_practice",""
"","bandit","27","1575083","0.0-18.0-9.0","83096853","wem/bandit_party_2","A2QKPBMYWR4KT3","either","8","119","","","","","","","0","1","0","","0.8","0.5","0.5","","","0.8","0.2","","","","","","","","","","","","","","","","74","J","0","img/none_selected_demo.jpg","true","0","80_20_practice",""
"","bandit","28","1576883","0.0-18.0-10.0","83096853","wem/bandit_party_2","A2QKPBMYWR4KT3","either","8","290","","","","","","","1","0","0","0.8","","0.5","0.5","","","","","","","0.8","0.2","","","","","","","","","","","","74","J","0","img/none_selected_demo.jpg","true","0","80_20_practice",""
"","bandit","29","1578677","0.0-18.0-11.0","83096853","wem/bandit_party_2","A2QKPBMYWR4KT3","either","8","281","","","","","","","1","0","0","0.8","","0.5","0.5","","","","","","","0.8","0.2","","","","","","","","","","","","74","J","0","img/none_selected_demo.jpg","true","0","80_20_practice",""
"","bandit","30","1580444","0.0-18.0-12.0","83096853","wem/bandit_party_2","A2QKPBMYWR4KT3","either","8","256","","","","","","","0","0","1","0.8","","0.5","0.5","","","","","","","0.8","0.2","","","","","","","","","","","","74","J","0","img/none_selected_demo.jpg","true","0","80_20_practice",""
"","bandit","31","1582163","0.0-18.0-13.0","83096853","wem/bandit_party_2","A2QKPBMYWR4KT3","either","8","210","","","","","","","0","1","0","","0.8","0.5","0.5","","","0.8","0.2","","","","","","","","","","","","","","","","74","J","0","img/none_selected_demo.jpg","true","0","80_20_practice",""
"","bandit","32","1583981","0.0-18.0-14.0","83096853","wem/bandit_party_2","A2QKPBMYWR4KT3","either","8","307","","","","","","","0","1","0","","0.8","0.5","0.5","","","0.8","0.2","","","","","","","","","","","","","","","","74","J","0","img/none_selected_demo.jpg","true","0","80_20_practice",""
"","bandit","33","1585683","0.0-18.0-15.0","83096853","wem/bandit_party_2","A2QKPBMYWR4KT3","either","8","191","","","","","","","0","0","1","0.8","","0.5","0.5","","","","","","","0.8","0.2","","","","","","","","","","","","74","J","0","img/none_selected_demo.jpg","true","0","80_20_practice",""
"","bandit","34","1587452","0.0-18.0-16.0","83096853","wem/bandit_party_2","A2QKPBMYWR4KT3","either","8","257","","","","","","","1","0","0","0.8","","0.5","0.5","","","","","","","0.8","0.2","","","","","","","","","","","","74","J","0","img/none_selected_demo.jpg","true","0","80_20_practice",""
"","bandit","35","1589339","0.0-18.0-17.0","83096853","wem/bandit_party_2","A2QKPBMYWR4KT3","either","8","377","","","","","","","0","0","1","","0.8","0.5","0.5","","","0.8","0.2","","","","","","","","","","","","","","","","74","J","0","img/none_selected_demo.jpg","true","0","80_20_practice",""
"","bandit","36","1590996","0.0-18.0-18.0","83096853","wem/bandit_party_2","A2QKPBMYWR4KT3","either","8","143","","","","","","","1","0","0","0.8","","0.5","0.5","","","","","","","0.8","0.2","","","","","","","","","","","","74","J","0","img/none_selected_demo.jpg","true","0","80_20_practice",""
"","bandit","37","1592796","0.0-18.0-19.0","83096853","wem/bandit_party_2","A2QKPBMYWR4KT3","either","8","289","","","","","","","0","1","0","","0.8","0.5","0.5","","","0.8","0.2","","","","","","","","","","","","","","","","74","J","0","img/none_selected_demo.jpg","true","0","80_20_practice",""
"","text-replacement","38","1595459","0.0-19.0","83096853","wem/bandit_party_2","A2QKPBMYWR4KT3","either","8","2659","","","32","","","","","","","","","","","","","","","","","","","","","","","","","","","","","","","","","","","","",""
"","bandit","39","1598197","0.0-20.0-0.0","83096853","wem/bandit_party_2","A2QKPBMYWR4KT3","either","8","1225","","","","","","","1","0","0","1","0","","","","","0","1","","","1","0","","","","","","","","","","","","74","J","0","img/none_selected_demo.jpg","true","0","",""
"","text-replacement","40","1602492","0.0-21.0","83096853","wem/bandit_party_2","A2QKPBMYWR4KT3","either","8","4290","","","32","","","","","","","","","","","","","","","","","","","","","","","","","","","","","","","","","","","","",""
"","text-replacement","41","1605350","0.0-22.0","83096853","wem/bandit_party_2","A2QKPBMYWR4KT3","either","8","2854","","","32","","","","","","","","","","","","","","","","","","","","","","","","","","","","","","","","","","","","",""
"","text-replacement","42","1607643","0.0-23.0","83096853","wem/bandit_party_2","A2QKPBMYWR4KT3","either","8","2287","","","32","","","","","","","","","","","","","","","","","","","","","","","","","","","","","","","","","","","","",""
"","text-replacement","43","1610868","0.0-24.0","83096853","wem/bandit_party_2","A2QKPBMYWR4KT3","either","8","3220","","","32","","","","","","","","","","","","","","","","","","","","","","","","","","","","","","","","","","","","",""
"","text-replacement","44","1615243","0.0-25.0","83096853","wem/bandit_party_2","A2QKPBMYWR4KT3","either","8","4371","","","32","","","","","","","","","","","","","","","","","","","","","","","","","","","","","","","","","","","","",""
"","text-replacement","45","1618317","0.0-26.0","83096853","wem/bandit_party_2","A2QKPBMYWR4KT3","either","8","3067","","","32","","","","","","","","","","","","","","","","","","","","","","","","","","","","","","","","","","","","",""
"","text-replacement","46","1619915","0.0-27.0","83096853","wem/bandit_party_2","A2QKPBMYWR4KT3","either","8","1594","","","32","","","","","","","","","","","","","","","","","","","","","","","","","","","","","","","","","","","","",""
"","text-replacement","47","1622988","0.0-28.0","83096853","wem/bandit_party_2","A2QKPBMYWR4KT3","either","8","3068","","","32","","","","","","","","","","","","","","","","","","","","","","","","","","","","","","","","","","","","",""
"","text-replacement","48","1626972","0.0-29.0","83096853","wem/bandit_party_2","A2QKPBMYWR4KT3","either","8","3979","","","32","","","","","","","","","","","","","","","","","","","","","","","","","","","","","","","","","","","","",""
"","text-replacement","49","1627851","0.0-30.0","83096853","wem/bandit_party_2","A2QKPBMYWR4KT3","either","8","875","","","32","","","","","","","","","","","","","","","","","","","","","","","","","","","","","","","","","","","","",""
"","text-replacement","50","1629053","0.0-31.0","83096853","wem/bandit_party_2","A2QKPBMYWR4KT3","either","8","1198","","","32","","","","","","","","","","","","","","","","","","","","","","","","","","","","","","","","","","","","",""
"","bandit","51","1632061","0.0-32.0-0.0","83096853","wem/bandit_party_2","A2QKPBMYWR4KT3","either","8","1496","","","","","","","0","1","0","","0.8","0.5","0.5","0.5","0.5","0.8","0.2","0.6","0.2","","","","","","","","","","","","","","72","H","0","img/none_selected.jpg","true","0","full_practice",""
"","bandit","52","1633852","0.0-32.0-1.0","83096853","wem/bandit_party_2","A2QKPBMYWR4KT3","either","8","277","","","","","","","1","0","0","0.8","","0.5","0.5","0.5","0.5","","","","","0.8","0.2","0.6","0.2","","","","","","","","","","72","H","0","img/none_selected.jpg","true","0","full_practice",""
"","bandit","53","1635596","0.0-32.0-2.0","83096853","wem/bandit_party_2","A2QKPBMYWR4KT3","either","8","231","","","","","","","0","0","1","","0.8","0.5","0.5","0.5","0.5","0.8","0.2","0.6","0.2","","","","","","","","","","","","","","72","H","0","img/none_selected.jpg","true","0","full_practice",""
"","bandit","54","1637324","0.0-32.0-3.0","83096853","wem/bandit_party_2","A2QKPBMYWR4KT3","either","8","216","","","","","","","0","1","0","","0.8","0.5","0.5","0.5","0.5","0.8","0.2","0.6","0.2","","","","","","","","","","","","","","72","H","0","img/none_selected.jpg","true","0","full_practice",""
"","bandit","55","1639012","0.0-32.0-4.0","83096853","wem/bandit_party_2","A2QKPBMYWR4KT3","either","8","175","","","","","","","0","0","1","0.8","","0.5","0.5","0.5","0.5","","","","","0.8","0.2","0.6","0.2","","","","","","","","","","72","H","0","img/none_selected.jpg","true","0","full_practice",""
"","bandit","56","1640582","0.0-32.0-5.0","83096853","wem/bandit_party_2","A2QKPBMYWR4KT3","either","8","57","","","","","","","1","0","0","0.8","","0.5","0.5","0.5","0.5","","","","","0.8","0.2","0.6","0.2","","","","","","","","","","72","H","0","img/none_selected.jpg","true","0","full_practice",""
"","bandit","57","1642323","0.0-32.0-6.0","83096853","wem/bandit_party_2","A2QKPBMYWR4KT3","either","8","231","","","","","","","0","0","1","0.8","","0.5","0.5","0.5","0.5","","","","","0.8","0.2","0.6","0.2","","","","","","","","","","72","H","0","img/none_selected.jpg","true","0","full_practice",""
"","bandit","58","1643971","0.0-32.0-7.0","83096853","wem/bandit_party_2","A2QKPBMYWR4KT3","either","8","134","","","","","","","1","0","0","0.8","","0.5","0.5","0.5","0.5","","","","","0.8","0.2","0.6","0.2","","","","","","","","","","72","H","0","img/none_selected.jpg","true","0","full_practice",""
"","bandit","59","1645523","0.0-32.0-8.0","83096853","wem/bandit_party_2","A2QKPBMYWR4KT3","either","8","40","","","","","","","0","1","0","","0.8","0.5","0.5","0.5","0.5","0.8","0.2","0.6","0.2","","","","","","","","","","","","","","72","H","0","img/none_selected.jpg","true","0","full_practice",""
"","bandit","60","1647204","0.0-32.0-9.0","83096853","wem/bandit_party_2","A2QKPBMYWR4KT3","either","8","169","","","","","","","0","1","0","","0.8","0.5","0.5","0.5","0.5","0.8","0.2","0.6","0.2","","","","","","","","","","","","","","72","H","0","img/none_selected.jpg","true","0","full_practice",""
"","bandit","61","1648763","0.0-32.0-10.0","83096853","wem/bandit_party_2","A2QKPBMYWR4KT3","either","8","44","","","","","","","1","0","0","0.8","","0.5","0.5","0.5","0.5","","","","","0.8","0.2","0.6","0.2","","","","","","","","","","72","H","0","img/none_selected.jpg","true","0","full_practice",""
"","bandit","62","1650494","0.0-32.0-11.0","83096853","wem/bandit_party_2","A2QKPBMYWR4KT3","either","8","216","","","","","","","1","0","0","0.8","","0.5","0.5","0.5","0.5","","","","","0.8","0.2","0.6","0.2","","","","","","","","","","72","H","0","img/none_selected.jpg","true","0","full_practice",""
"","bandit","63","1652124","0.0-32.0-12.0","83096853","wem/bandit_party_2","A2QKPBMYWR4KT3","either","8","120","","","","","","","1","0","0","0.8","","0.5","0.5","0.5","0.5","","","","","0.8","0.2","0.6","0.2","","","","","","","","","","72","H","0","img/none_selected.jpg","true","0","full_practice",""
"","bandit","64","1654020","0.0-32.0-13.0","83096853","wem/bandit_party_2","A2QKPBMYWR4KT3","either","8","383","","","","","","","1","0","0","0.8","","0.5","0.5","0.5","0.5","","","","","0.8","0.2","0.6","0.2","","","","","","","","","","72","H","0","img/none_selected.jpg","true","0","full_practice",""
"","bandit","65","1655661","0.0-32.0-14.0","83096853","wem/bandit_party_2","A2QKPBMYWR4KT3","either","8","128","","","","","","","0","1","0","","0.8","0.5","0.5","0.5","0.5","0.8","0.2","0.6","0.2","","","","","","","","","","","","","","72","H","0","img/none_selected.jpg","true","0","full_practice",""
"","bandit","66","1657309","0.0-32.0-15.0","83096853","wem/bandit_party_2","A2QKPBMYWR4KT3","either","8","136","","","","","","","0","0","1","","0.8","0.5","0.5","0.5","0.5","0.8","0.2","0.6","0.2","","","","","","","","","","","","","","72","H","0","img/none_selected.jpg","true","0","full_practice",""
"","bandit","67","1658972","0.0-32.0-16.0","83096853","wem/bandit_party_2","A2QKPBMYWR4KT3","either","8","150","","","","","","","0","1","0","","0.8","0.5","0.5","0.5","0.5","0.8","0.2","0.6","0.2","","","","","","","","","","","","","","72","H","0","img/none_selected.jpg","true","0","full_practice",""
"","bandit","68","1660756","0.0-32.0-17.0","83096853","wem/bandit_party_2","A2QKPBMYWR4KT3","either","8","272","","","","","","","1","0","0","0.8","","0.5","0.5","0.5","0.5","","","","","0.8","0.2","0.6","0.2","","","","","","","","","","72","H","0","img/none_selected.jpg","true","0","full_practice",""
"","bandit","69","1662463","0.0-32.0-18.0","83096853","wem/bandit_party_2","A2QKPBMYWR4KT3","either","8","192","","","","","","","0","1","0","","0.8","0.5","0.5","0.5","0.5","0.8","0.2","0.6","0.2","","","","","","","","","","","","","","72","H","0","img/none_selected.jpg","true","0","full_practice",""
"","bandit","70","1664100","0.0-32.0-19.0","83096853","wem/bandit_party_2","A2QKPBMYWR4KT3","either","8","125","","","","","","","1","0","0","0.8","","0.5","0.5","0.5","0.5","","","","","0.8","0.2","0.6","0.2","","","","","","","","","","72","H","0","img/none_selected.jpg","true","0","full_practice",""
"","text","71","1666700","0.0-33.0","83096853","wem/bandit_party_2","A2QKPBMYWR4KT3","either","8","2577","","","32","","","","","","","","","","","","","","","","","","","","","","","","","","","","","","","","","","","","",""
"","text-replacement","72","1678438","0.0-34.0","83096853","wem/bandit_party_2","A2QKPBMYWR4KT3","either","8","10733","","","32","","","","","","","","","","","","","","","","","","","","","","","","","","","","","","","","","","","","",""
"","text-replacement","73","1680923","0.0-35.0","83096853","wem/bandit_party_2","A2QKPBMYWR4KT3","either","8","2480","","","32","","","","","","","","","","","","","","","","","","","","","","","","","","","","","","","","","","","","",""
"","text-replacement","74","1682291","0.0-36.0","83096853","wem/bandit_party_2","A2QKPBMYWR4KT3","either","8","1360","","","32","","","","","","","","","","","","","","","","","","","","","","","","","","","","","","","","","","","","",""
"","text-replacement","75","1685500","0.0-37.0","83096853","wem/bandit_party_2","A2QKPBMYWR4KT3","either","8","3202","","","32","","","","","","","","","","","","","","","","","","","","","","","","","","","","","","","","","","","","",""
"","text-replacement","76","1686524","0.0-38.0","83096853","wem/bandit_party_2","A2QKPBMYWR4KT3","either","8","1018","","","32","","","","","","","","","","","","","","","","","","","","","","","","","","","","","","","","","","","","",""
"","survey-multi-choice-replacement","77","1694404","0.0-39.0-0.0","83096853","wem/bandit_party_2","A2QKPBMYWR4KT3","either","8","7862","","","","","","","","","","","","","","","","","","","","","","","","Money will be added to the pool for <span style='color:blue;'>DEMOCRATS</span>","","","","","","","attn_check","","","","","","","","","0"
"","survey-multi-choice-replacement","78","1696995","0.0-40.0-0.0","83096853","wem/bandit_party_2","A2QKPBMYWR4KT3","either","8","1570","","","","","","","","","","","","","","","","","","","","","","","","Equal amounts of money will be added to the pool for <span style='color:blue;'>DEMOCRATS</span> and subtracted from the pool for <span style='color:red;'>REPUBLICANS</span>","","","","","","","attn_check","","","","","","","","","2"
"","survey-multi-choice-replacement","79","1700931","0.0-41.0-0.0","83096853","wem/bandit_party_2","A2QKPBMYWR4KT3","either","8","2918","","","","","","","","","","","","","","","","","","","","","","","","No money will be added to either pool","","","","","","","attn_check","","","","","","","","","3"
"","bandit","80","1705052","0.0-42.0-0.0","83096853","wem/bandit_party_2","A2QKPBMYWR4KT3","either","8","1602","","","","","","","0","0","1","","0.3040937467","0.2","0.8","0.6","0.4","0.3040937467","0.6337563202","0.2428949588","0.4468950172","","","","","","","","","","","","","","72","H","0","img/none_selected.jpg","","1","main_expt",""
"","bandit","81","1707003","0.0-43.0-0.0","83096853","wem/bandit_party_2","A2QKPBMYWR4KT3","either","8","438","","","","","","","0","0","1","","0.2687625136","0.2","0.8","0.6","0.4","0.2687625136","0.7380673114","0.248961424","0.3846124694","","","","","","","","","","","","","","72","H","0","img/none_selected.jpg","","2","main_expt",""
"","bandit","82","1708741","0.0-44.0-0.0","83096853","wem/bandit_party_2","A2QKPBMYWR4KT3","either","8","224","","","","","","","0","0","1","","0.3017919557","0.2","0.8","0.6","0.4","0.3017919557","0.7715549737","0.1878604038","0.3885967974","","","","","","","","","","","","","","72","H","0","img/none_selected.jpg","","3","main_expt",""
"","bandit","83","1710781","0.0-45.0-0.0","83096853","wem/bandit_party_2","A2QKPBMYWR4KT3","either","8","527","","","","","","","0","0","1","","0.3388517529","0.2","0.8","0.6","0.4","0.3388517529","0.8257013646","0.1194049449","0.2891644394","","","","","","","","","","","","","","72","H","0","img/none_selected.jpg","","4","main_expt",""
"","bandit","84","1712509","0.0-46.0-0.0","83096853","wem/bandit_party_2","A2QKPBMYWR4KT3","either","8","214","","","","","","","0","0","1","","0.389096829","0.2","0.8","0.6","0.4","0.389096829","0.8617886559","0.197046458","0.2654579937","","","","","","","","","","","","","","72","H","0","img/none_selected.jpg","","5","main_expt",""
"","bandit","85","1714197","0.0-47.0-0.0","83096853","wem/bandit_party_2","A2QKPBMYWR4KT3","either","8","174","","","","","","","1","0","0","0.8452125903","","0.2","0.8","0.6","0.4","","","","","0.4799636182","0.8452125903","0.2312720201","0.355160999","","","","","","","","","","74","J","1","","","6","main_expt",""
"","bandit","86","1715916","0.0-48.0-0.0","83096853","wem/bandit_party_2","A2QKPBMYWR4KT3","either","8","205","","","","","","","1","0","0","0.8765288384","","0.2","0.8","0.6","0.4","","","","","0.5316557606","0.8765288384","0.3255591742","0.4733904832","","","","","","","","","","74","J","1","","","7","main_expt",""
"","bandit","87","1717619","0.0-49.0-0.0","83096853","wem/bandit_party_2","A2QKPBMYWR4KT3","either","8","190","","","","","","","1","0","0","0.8625068071","","0.2","0.8","0.6","0.4","","","","","0.4935712437","0.8625068071","0.163151729","0.4900136729","","","","","","","","","","74","J","1","","","8","main_expt",""
"","bandit","88","1719277","0.0-50.0-0.0","83096853","wem/bandit_party_2","A2QKPBMYWR4KT3","either","8","147","","","","","","","0","1","0","","0.8385781597","0.2","0.8","0.6","0.4","0.5400450001","0.8385781597","0.1671639775","0.4543552171","","","","","","","","","","","","","","74","J","1","","","9","main_expt",""
"","bandit","89","1720843","0.0-51.0-0.0","83096853","wem/bandit_party_2","A2QKPBMYWR4KT3","either","8","46","","","","","","","1","0","0","0.833356221","","0.2","0.8","0.6","0.4","","","","","0.6510952772","0.833356221","0.1315225434","0.4523920981","","","","","","","","","","74","J","1","","","10","main_expt",""
"","bandit","90","1722429","0.0-52.0-0.0","83096853","wem/bandit_party_2","A2QKPBMYWR4KT3","either","8","71","","","","","","","1","0","0","0.9030756702","","0.2","0.8","0.6","0.4","","","","","0.6117649901","0.9030756702","0.1287002637","0.4053083118","","","","","","","","","","74","J","1","","","11","main_expt",""
"","bandit","91","1724046","0.0-53.0-0.0","83096853","wem/bandit_party_2","A2QKPBMYWR4KT3","either","8","100","","","","","","","1","0","0","0.9129290363","","0.2","0.8","0.6","0.4","","","","","0.6360746298","0.9129290363","0.1026596936","0.4059907931","","","","","","","","","","74","J","1","","","12","main_expt",""
"","bandit","92","1725692","0.0-54.0-0.0","83096853","wem/bandit_party_2","A2QKPBMYWR4KT3","either","8","134","","","","","","","1","0","0","0.8638417716","","0.2","0.8","0.6","0.4","","","","","0.5673960652","0.8638417716","0.1287514256","0.2934167972","","","","","","","","","","74","J","1","","","13","main_expt",""
"","bandit","93","1727444","0.0-55.0-0.0","83096853","wem/bandit_party_2","A2QKPBMYWR4KT3","either","8","237","","","","","","","1","0","0","0.787806988","","0.2","0.8","0.6","0.4","","","","","0.6747725803","0.787806988","0.1786171179","0.3260927596","","","","","","","","","","74","J","1","","","14","main_expt",""
"","bandit","94","1729022","0.0-56.0-0.0","83096853","wem/bandit_party_2","A2QKPBMYWR4KT3","either","8","64","","","","","","","1","0","0","0.7254212376","","0.2","0.8","0.6","0.4","","","","","0.6277188345","0.7254212376","0.1459410532","0.3355382734","","","","","","","","","","74","J","1","","","15","main_expt",""
"","bandit","95","1730631","0.0-57.0-0.0","83096853","wem/bandit_party_2","A2QKPBMYWR4KT3","either","8","93","","","","","","","0","0","1","0.7238415528","","0.2","0.8","0.6","0.4","","","","","0.5435568235","0.7238415528","0.2255600906","0.3040928121","","","","","","","","","","74","J","1","","","16","main_expt",""
"","bandit","96","1732171","0.0-58.0-0.0","83096853","wem/bandit_party_2","A2QKPBMYWR4KT3","either","8","28","","","","","","","1","0","0","0.7796243455","","0.2","0.8","0.6","0.4","","","","","0.4180161478","0.7796243455","0.2052013943","0.2730366263","","","","","","","","","","74","J","1","","","17","main_expt",""
"","bandit","97","1734003","0.0-59.0-0.0","83096853","wem/bandit_party_2","A2QKPBMYWR4KT3","either","8","319","","","","","","","1","0","0","0.6928902724","","0.2","0.8","0.6","0.4","","","","","0.4961111773","0.6928902724","0.1780354615","0.4105298721","","","","","","","","","","74","J","1","","","18","main_expt",""
"","bandit","98","1735710","0.0-60.0-0.0","83096853","wem/bandit_party_2","A2QKPBMYWR4KT3","either","8","192","","","","","","","0","0","1","0.7658630901","","0.2","0.8","0.6","0.4","","","","","0.445530788","0.7658630901","0.1576496117","0.3586923344","","","","","","","","","","74","J","1","","","19","main_expt",""
"","bandit","99","1737876","0.0-61.0-0.0","83096853","wem/bandit_party_2","A2QKPBMYWR4KT3","either","8","656","","","","","","","0","0","1","0.7584200513","","0.2","0.8","0.6","0.4","","","","","0.3443163705","0.7584200513","0.1618752313","0.3220075653","","","","","","","","","","74","J","1","","","20","main_expt",""
"","bandit","100","1739517","0.0-62.0-0.0","83096853","wem/bandit_party_2","A2QKPBMYWR4KT3","either","8","124","","","","","","","1","0","0","0.7727038765","","0.2","0.8","0.6","0.4","","","","","0.3012808647","0.7727038765","0.2152187387","0.2729660799","","","","","","","","","","74","J","1","","","21","main_expt",""
"","bandit","101","1741261","0.0-63.0-0.0","83096853","wem/bandit_party_2","A2QKPBMYWR4KT3","either","8","229","","","","","","","1","0","0","0.8152565923","","0.2","0.8","0.6","0.4","","","","","0.2882062485","0.8152565923","0.3547982299","0.2712352107","","","","","","","","","","74","J","1","","","22","main_expt",""
"","bandit","102","1742780","0.0-64.0-0.0","83096853","wem/bandit_party_2","A2QKPBMYWR4KT3","either","8","3","","","","","","","0","0","1","","0.7537075358","0.2","0.8","0.6","0.4","0.2113421372","0.7537075358","0.323805638","0.3390855774","","","","","","","","","","","","","","74","J","1","","","23","main_expt",""
"","bandit","103","1744429","0.0-65.0-0.0","83096853","wem/bandit_party_2","A2QKPBMYWR4KT3","either","8","136","","","","","","","0","0","1","","0.7108822858","0.2","0.8","0.6","0.4","0.2201805416","0.7108822858","0.3588909826","0.3483259141","","","","","","","","","","","","","","74","J","1","","","24","main_expt",""
"","bandit","104","1746111","0.0-66.0-0.0","83096853","wem/bandit_party_2","A2QKPBMYWR4KT3","either","8","164","","","","","","","1","0","0","0.6930515954","","0.2","0.8","0.6","0.4","","","","","0.2580956466","0.6930515954","0.3885553436","0.3416976173","","","","","","","","","","74","J","1","","","25","main_expt",""
"","bandit","105","1747788","0.0-67.0-0.0","83096853","wem/bandit_party_2","A2QKPBMYWR4KT3","either","8","163","","","","","","","0","0","1","0.6905393417","","0.2","0.8","0.6","0.4","","","","","0.2153432854","0.6905393417","0.4871556374","0.4243476322","","","","","","","","","","74","J","1","","","26","main_expt",""
"","bandit","106","1749619","0.0-68.0-0.0","83096853","wem/bandit_party_2","A2QKPBMYWR4KT3","either","8","308","","","","","","","0","0","1","0.7531652131","","0.2","0.8","0.6","0.4","","","","","0.1727955236","0.7531652131","0.4934119911","0.5257754898","","","","","","","","","","74","J","1","","","27","main_expt",""
"","bandit","107","1751136","0.0-69.0-0.0","83096853","wem/bandit_party_2","A2QKPBMYWR4KT3","either","8","3","","","","","","","0","0","1","0.4322092846","","0.2","0.8","0.6","0.4","","","","","0.1894296703","0.8001777041","0.4322092846","0.5246232361","","","","","","","","","","75","K","2","","","28","main_expt",""
"","bandit","108","1752964","0.0-70.0-0.0","83096853","wem/bandit_party_2","A2QKPBMYWR4KT3","either","8","312","","","","","","","0","0","1","0.3459113699","","0.2","0.8","0.6","0.4","","","","","0.2128919211","0.8118404327","0.3459113699","0.375994784","","","","","","","","","","75","K","2","","","29","main_expt",""
"","bandit","109","1754509","0.0-71.0-0.0","83096853","wem/bandit_party_2","A2QKPBMYWR4KT3","either","8","30","","","","","","","0","0","1","0.280789843","","0.2","0.8","0.6","0.4","","","","","0.206056468","0.7839534503","0.280789843","0.2936890161","","","","","","","","","","75","K","2","","","30","main_expt",""
"","bandit","110","1756286","0.0-72.0-0.0","83096853","wem/bandit_party_2","A2QKPBMYWR4KT3","either","8","262","","","","","","","0","0","1","","0.2878812258","0.2","0.8","0.6","0.4","0.1725623241","0.8066372971","0.2613810438","0.2878812258","","","","","","","","","","","","","","76","L","3","","","31","main_expt",""
"","bandit","111","1758124","0.0-73.0-0.0","83096853","wem/bandit_party_2","A2QKPBMYWR4KT3","either","8","326","","","","","","","0","0","1","","0.2451492808","0.2","0.8","0.6","0.4","0.1629883914","0.8049259064","0.3821585683","0.2451492808","","","","","","","","","","","","","","76","L","3","","","32","main_expt",""
"","bandit","112","1759844","0.0-74.0-0.0","83096853","wem/bandit_party_2","A2QKPBMYWR4KT3","either","8","204","","","","","","","0","0","1","","0.2802113289","0.2","0.8","0.6","0.4","0.2107911223","0.7891664673","0.2714925976","0.2802113289","","","","","","","","","","","","","","76","L","3","","","33","main_expt",""
"","bandit","113","1761731","0.0-75.0-0.0","83096853","wem/bandit_party_2","A2QKPBMYWR4KT3","either","8","375","","","","","","","0","0","1","","0.1025901997","0.2","0.8","0.6","0.4","0.1025901997","0.7854278051","0.2755575364","0.2892342718","","","","","","","","","","","","","","72","H","0","img/none_selected.jpg","","34","main_expt",""
"","bandit","114","1763556","0.0-76.0-0.0","83096853","wem/bandit_party_2","A2QKPBMYWR4KT3","either","8","303","","","","","","","0","0","1","","0.1289879153","0.2","0.8","0.6","0.4","0.1289879153","0.7260182018","0.2697856654","0.2486893666","","","","","","","","","","","","","","72","H","0","img/none_selected.jpg","","35","main_expt",""
"","bandit","115","1765325","0.0-77.0-0.0","83096853","wem/bandit_party_2","A2QKPBMYWR4KT3","either","8","254","","","","","","","0","1","0","","0.1645491317","0.2","0.8","0.6","0.4","0.1645491317","0.7910957192","0.2483646443","0.3536408983","","","","","","","","","","","","","","72","H","0","img/none_selected.jpg","","36","main_expt",""
"","bandit","116","1767108","0.0-78.0-0.0","83096853","wem/bandit_party_2","A2QKPBMYWR4KT3","either","8","270","","","","","","","0","1","0","","0.1698046746","0.2","0.8","0.6","0.4","0.1698046746","0.7996551039","0.2103950957","0.2493566902","","","","","","","","","","","","","","72","H","0","img/none_selected.jpg","","37","main_expt",""
"","bandit","117","1768946","0.0-79.0-0.0","83096853","wem/bandit_party_2","A2QKPBMYWR4KT3","either","8","326","","","","","","","0","0","1","","0.2281502886","0.2","0.8","0.6","0.4","0.2281502886","0.6717479894","0.2128944509","0.2948354516","","","","","","","","","","","","","","72","H","0","img/none_selected.jpg","","38","main_expt",""
"","bandit","118","1770628","0.0-80.0-0.0","83096853","wem/bandit_party_2","A2QKPBMYWR4KT3","either","8","167","","","","","","","0","0","1","","0.1561271762","0.2","0.8","0.6","0.4","0.1561271762","0.7121128808","0.2965153327","0.3373274679","","","","","","","","","","","","","","72","H","0","img/none_selected.jpg","","39","main_expt",""
"","bandit","119","1772340","0.0-81.0-0.0","83096853","wem/bandit_party_2","A2QKPBMYWR4KT3","either","8","196","","","","","","","0","0","1","","0.1543620621","0.2","0.8","0.6","0.4","0.1543620621","0.7157410044","0.4447532253","0.4138768052","","","","","","","","","","","","","","72","H","0","img/none_selected.jpg","","40","main_expt",""
"","bandit","120","1774076","0.0-82.0-0.0","83096853","wem/bandit_party_2","A2QKPBMYWR4KT3","either","8","220","","","","","","","1","0","0","0.681196038","","0.2","0.8","0.6","0.4","","","","","0.2271499981","0.681196038","0.5330008696","0.438096834","","","","","","","","","","74","J","1","","","41","main_expt",""
"","bandit","121","1775804","0.0-83.0-0.0","83096853","wem/bandit_party_2","A2QKPBMYWR4KT3","either","8","212","","","","","","","0","0","1","0.6504320647","","0.2","0.8","0.6","0.4","","","","","0.2882452936","0.6504320647","0.573861049","0.4185173612","","","","","","","","","","74","J","1","","","42","main_expt",""
"","bandit","122","1777607","0.0-84.0-0.0","83096853","wem/bandit_party_2","A2QKPBMYWR4KT3","either","8","288","","","","","","","0","0","1","","0.7369830744","0.2","0.8","0.6","0.4","0.298522686","0.7369830744","0.6654349765","0.3796335567","","","","","","","","","","","","","","74","J","1","","","43","main_expt",""
"","bandit","123","1779188","0.0-85.0-0.0","83096853","wem/bandit_party_2","A2QKPBMYWR4KT3","either","8","68","","","","","","","0","1","0","","0.6797935378","0.2","0.8","0.6","0.4","0.3188886026","0.6797935378","0.691198465","0.31766129","","","","","","","","","","","","","","74","J","1","","","44","main_expt",""
"","bandit","124","1780948","0.0-86.0-0.0","83096853","wem/bandit_party_2","A2QKPBMYWR4KT3","either","8","246","","","","","","","1","0","0","0.6507473666","","0.2","0.8","0.6","0.4","","","","","0.2705760174","0.6507473666","0.7652674903","0.4047397141","","","","","","","","","","74","J","1","","","45","main_expt",""
"","bandit","125","1782597","0.0-87.0-0.0","83096853","wem/bandit_party_2","A2QKPBMYWR4KT3","either","8","133","","","","","","","0","0","1","0.6334510787","","0.2","0.8","0.6","0.4","","","","","0.2506880939","0.6334510787","0.8065230058","0.4961613307","","","","","","","","","","74","J","1","","","46","main_expt",""
"","bandit","126","1784116","0.0-88.0-0.0","83096853","wem/bandit_party_2","A2QKPBMYWR4KT3","either","8","2","","","","","","","0","0","1","0.6143175143","","0.2","0.8","0.6","0.4","","","","","0.2491585872","0.6143175143","0.7774474893","0.4624468315","","","","","","","","","","74","J","1","","","47","main_expt",""
"","bandit","127","1786821","0.0-89.0-0.0","83096853","wem/bandit_party_2","A2QKPBMYWR4KT3","either","8","1190","","","","","","","1","0","0","0.6404512611","","0.2","0.8","0.6","0.4","","","","","0.1997021219","0.6404512611","0.7693176975","0.4886537242","","","","","","","","","","74","J","1","","","48","main_expt",""
"","bandit","128","1788615","0.0-90.0-0.0","83096853","wem/bandit_party_2","A2QKPBMYWR4KT3","either","8","280","","","","","","","1","0","0","0.6758621215","","0.2","0.8","0.6","0.4","","","","","0.2119577724","0.6758621215","0.807419373","0.4270302022","","","","","","","","","","74","J","1","","","49","main_expt",""
"","bandit","129","1790934","0.0-91.0-0.0","83096853","wem/bandit_party_2","A2QKPBMYWR4KT3","either","8","801","","","","","","","0","1","0","","0.6873234502","0.2","0.8","0.6","0.4","0.2615271711","0.6873234502","0.8562769227","0.5151345658","","","","","","","","","","","","","","74","J","1","","","50","main_expt",""
"","bandit","130","1792782","0.0-92.0-0.0","83096853","wem/bandit_party_2","A2QKPBMYWR4KT3","either","8","333","","","","","","","1","0","0","0.7776044395","","0.2","0.8","0.6","0.4","","","","","0.2764427577","0.7776044395","0.8705114925","0.5134524181","","","","","","","","","","74","J","1","","","51","main_expt",""
"","bandit","131","1795254","0.0-93.0-0.0","83096853","wem/bandit_party_2","A2QKPBMYWR4KT3","either","8","955","","","","","","","0","1","0","","0.8403410939","0.2","0.8","0.6","0.4","0.3833776697","0.8403410939","0.9310361031","0.4842684999","","","","","","","","","","","","","","74","J","1","","","52","main_expt",""
"","bandit","132","1796988","0.0-94.0-0.0","83096853","wem/bandit_party_2","A2QKPBMYWR4KT3","either","8","218","","","","","","","1","0","0","0.8151983534","","0.2","0.8","0.6","0.4","","","","","0.4356502318","0.8151983534","0.905794742","0.4412850773","","","","","","","","","","74","J","1","","","53","main_expt",""
"","bandit","133","1798815","0.0-95.0-0.0","83096853","wem/bandit_party_2","A2QKPBMYWR4KT3","either","8","312","","","","","","","1","0","0","0.8081222638","","0.2","0.8","0.6","0.4","","","","","0.4120588364","0.8081222638","0.9391541593","0.4397693946","","","","","","","","","","74","J","1","","","54","main_expt",""
"","bandit","134","1800539","0.0-96.0-0.0","83096853","wem/bandit_party_2","A2QKPBMYWR4KT3","either","8","209","","","","","","","0","0","1","0.742009976","","0.2","0.8","0.6","0.4","","","","","0.2714296105","0.742009976","0.9596285882","0.3928202278","","","","","","","","","","74","J","1","","","55","main_expt",""
"","bandit","135","1802276","0.0-97.0-0.0","83096853","wem/bandit_party_2","A2QKPBMYWR4KT3","either","8","219","","","","","","","1","0","0","0.7065076074","","0.2","0.8","0.6","0.4","","","","","0.2122311877","0.7065076074","0.9565658233","0.4593665993","","","","","","","","","","74","J","1","","","56","main_expt",""
"","bandit","136","1804060","0.0-98.0-0.0","83096853","wem/bandit_party_2","A2QKPBMYWR4KT3","either","8","269","","","","","","","1","0","0","0.6860695476","","0.2","0.8","0.6","0.4","","","","","0.2282278588","0.6860695476","0.9681540372","0.4006145211","","","","","","","","","","74","J","1","","","57","main_expt",""
"","bandit","137","1805871","0.0-99.0-0.0","83096853","wem/bandit_party_2","A2QKPBMYWR4KT3","either","8","292","","","","","","","1","0","0","0.742301155","","0.2","0.8","0.6","0.4","","","","","0.1392076118","0.742301155","0.9207083952","0.4597890412","","","","","","","","","","74","J","1","","","58","main_expt",""
"","bandit","138","1807483","0.0-100.0-0.0","83096853","wem/bandit_party_2","A2QKPBMYWR4KT3","either","8","97","","","","","","","1","0","0","0.9178227258","","0.2","0.8","0.6","0.4","","","","","0.1706239206","0.5291004622","0.9178227258","0.4232266093","","","","","","","","","","75","K","2","","","59","main_expt",""
"","bandit","139","1809223","0.0-101.0-0.0","83096853","wem/bandit_party_2","A2QKPBMYWR4KT3","either","8","224","","","","","","","1","0","0","0.8951285427","","0.2","0.8","0.6","0.4","","","","","0.1674269281","0.6348838793","0.8951285427","0.3565880291","","","","","","","","","","75","K","2","","","60","main_expt",""
"","bandit","140","1810996","0.0-102.0-0.0","83096853","wem/bandit_party_2","A2QKPBMYWR4KT3","either","8","258","","","","","","","1","0","0","0.8506814954","","0.2","0.8","0.6","0.4","","","","","0.2182313474","0.6796423313","0.8506814954","0.3663276413","","","","","","","","","","75","K","2","","","61","main_expt",""
"","bandit","141","1812813","0.0-103.0-0.0","83096853","wem/bandit_party_2","A2QKPBMYWR4KT3","either","8","299","","","","","","","1","0","0","0.8513854559","","0.2","0.8","0.6","0.4","","","","","0.2949218256","0.6928172916","0.8513854559","0.3193005293","","","","","","","","","","75","K","2","","","62","main_expt",""
"","bandit","142","1814596","0.0-104.0-0.0","83096853","wem/bandit_party_2","A2QKPBMYWR4KT3","either","8","268","","","","","","","1","0","0","0.8927579502","","0.2","0.8","0.6","0.4","","","","","0.3170222383","0.6996506825","0.8927579502","0.1562068481","","","","","","","","","","75","K","2","","","63","main_expt",""
"","bandit","143","1816444","0.0-105.0-0.0","83096853","wem/bandit_party_2","A2QKPBMYWR4KT3","either","8","332","","","","","","","0","0","1","0.9217936765","","0.2","0.8","0.6","0.4","","","","","0.3033511374","0.7294442249","0.9217936765","0.2300477965","","","","","","","","","","75","K","2","","","64","main_expt",""
"","bandit","144","1817967","0.0-106.0-0.0","83096853","wem/bandit_party_2","A2QKPBMYWR4KT3","either","8","4","","","","","","","1","0","0","0.9357047413","","0.2","0.8","0.6","0.4","","","","","0.3973690147","0.6605354899","0.9357047413","0.2869838185","","","","","","","","","","75","K","2","","","65","main_expt",""
"","bandit","145","1819807","0.0-107.0-0.0","83096853","wem/bandit_party_2","A2QKPBMYWR4KT3","either","8","322","","","","","","","1","0","0","0.910343843","","0.2","0.8","0.6","0.4","","","","","0.4320294497","0.6959621059","0.910343843","0.3287476356","","","","","","","","","","75","K","2","","","66","main_expt",""
"","bandit","146","1821683","0.0-108.0-0.0","83096853","wem/bandit_party_2","A2QKPBMYWR4KT3","either","8","363","","","","","","","0","1","0","","0.9022080512","0.2","0.8","0.6","0.4","0.3208465419","0.653899752","0.9022080512","0.3018365728","","","","","","","","","","","","","","75","K","2","","","67","main_expt",""
"","bandit","147","1823524","0.0-109.0-0.0","83096853","wem/bandit_party_2","A2QKPBMYWR4KT3","either","8","324","","","","","","","1","0","0","0.8492414063","","0.2","0.8","0.6","0.4","","","","","0.3570730799","0.6517851336","0.8492414063","0.3208616414","","","","","","","","","","75","K","2","","","68","main_expt",""
"","bandit","148","1825477","0.0-110.0-0.0","83096853","wem/bandit_party_2","A2QKPBMYWR4KT3","either","8","435","","","","","","","1","0","0","0.768219052","","0.2","0.8","0.6","0.4","","","","","0.3451514791","0.7011615004","0.768219052","0.386863802","","","","","","","","","","75","K","2","","","69","main_expt",""
"","bandit","149","1827220","0.0-111.0-0.0","83096853","wem/bandit_party_2","A2QKPBMYWR4KT3","either","8","229","","","","","","","1","0","0","0.7996218848","","0.2","0.8","0.6","0.4","","","","","0.3127714871","0.6278947594","0.7996218848","0.3628244161","","","","","","","","","","75","K","2","","","70","main_expt",""
"","bandit","150","1828986","0.0-112.0-0.0","83096853","wem/bandit_party_2","A2QKPBMYWR4KT3","either","8","251","","","","","","","0","1","0","","0.9130189757","0.2","0.8","0.6","0.4","0.3855297895","0.688517509","0.9130189757","0.2969295023","","","","","","","","","","","","","","75","K","2","","","71","main_expt",""
"","bandit","151","1830900","0.0-113.0-0.0","83096853","wem/bandit_party_2","A2QKPBMYWR4KT3","either","8","397","","","","","","","1","0","0","0.9016843832","","0.2","0.8","0.6","0.4","","","","","0.3555010044","0.6125440106","0.9016843832","0.3512325323","","","","","","","","","","75","K","2","","","72","main_expt",""
"","bandit","152","1832668","0.0-114.0-0.0","83096853","wem/bandit_party_2","A2QKPBMYWR4KT3","either","8","251","","","","","","","0","1","0","","0.9166584401","0.2","0.8","0.6","0.4","0.3278360739","0.4884410468","0.9166584401","0.3845321254","","","","","","","","","","","","","","75","K","2","","","73","main_expt",""
"","bandit","153","1834397","0.0-115.0-0.0","83096853","wem/bandit_party_2","A2QKPBMYWR4KT3","either","8","213","","","","","","","1","0","0","0.8699410266","","0.2","0.8","0.6","0.4","","","","","0.3275161349","0.5800760741","0.8699410266","0.3760614253","","","","","","","","","","75","K","2","","","74","main_expt",""
"","bandit","154","1836133","0.0-116.0-0.0","83096853","wem/bandit_party_2","A2QKPBMYWR4KT3","either","8","220","","","","","","","1","0","0","0.8192171788","","0.2","0.8","0.6","0.4","","","","","0.3454333807","0.6614390465","0.8192171788","0.370831352","","","","","","","","","","75","K","2","","","75","main_expt",""
"","bandit","155","1837948","0.0-117.0-0.0","83096853","wem/bandit_party_2","A2QKPBMYWR4KT3","either","8","297","","","","","","","0","1","0","","0.8990587115","0.2","0.8","0.6","0.4","0.4213924804","0.6861570843","0.8990587115","0.4008199491","","","","","","","","","","","","","","75","K","2","","","76","main_expt",""
"","bandit","156","1839644","0.0-118.0-0.0","83096853","wem/bandit_party_2","A2QKPBMYWR4KT3","either","8","178","","","","","","","0","1","0","","0.9062137116","0.2","0.8","0.6","0.4","0.439510692","0.5980737028","0.9062137116","0.3928984844","","","","","","","","","","","","","","75","K","2","","","77","main_expt",""
"","bandit","157","1841431","0.0-119.0-0.0","83096853","wem/bandit_party_2","A2QKPBMYWR4KT3","either","8","266","","","","","","","1","0","0","0.9215914722","","0.2","0.8","0.6","0.4","","","","","0.4419424199","0.6754083514","0.9215914722","0.4709058574","","","","","","","","","","75","K","2","","","78","main_expt",""
"","bandit","158","1843166","0.0-120.0-0.0","83096853","wem/bandit_party_2","A2QKPBMYWR4KT3","either","8","219","","","","","","","1","0","0","0.895443078","","0.2","0.8","0.6","0.4","","","","","0.5056762283","0.7012934339","0.895443078","0.4971614577","","","","","","","","","","75","K","2","","","79","main_expt",""
"","bandit","159","1844941","0.0-121.0-0.0","83096853","wem/bandit_party_2","A2QKPBMYWR4KT3","either","8","257","","","","","","","0","1","0","","0.7789772955","0.2","0.8","0.6","0.4","0.4558190996","0.7067798052","0.7789772955","0.4828267768","","","","","","","","","","","","","","75","K","2","","","80","main_expt",""
"","bandit","160","1846741","0.0-122.0-0.0","83096853","wem/bandit_party_2","A2QKPBMYWR4KT3","either","8","284","","","","","","","0","0","1","","0.755426824","0.2","0.8","0.6","0.4","0.4774921548","0.7259433061","0.755426824","0.4280570329","","","","","","","","","","","","","","75","K","2","","","81","main_expt",""
"","bandit","161","1848493","0.0-123.0-0.0","83096853","wem/bandit_party_2","A2QKPBMYWR4KT3","either","8","233","","","","","","","1","0","0","0.8356426425","","0.2","0.8","0.6","0.4","","","","","0.3611036613","0.7022130872","0.8356426425","0.486136241","","","","","","","","","","75","K","2","","","82","main_expt",""
"","bandit","162","1850277","0.0-124.0-0.0","83096853","wem/bandit_party_2","A2QKPBMYWR4KT3","either","8","265","","","","","","","0","1","0","","0.8783145762","0.2","0.8","0.6","0.4","0.3341354767","0.75927227","0.8783145762","0.3539143083","","","","","","","","","","","","","","75","K","2","","","83","main_expt",""
"","bandit","163","1851997","0.0-125.0-0.0","83096853","wem/bandit_party_2","A2QKPBMYWR4KT3","either","8","201","","","","","","","0","1","0","","0.9087743635","0.2","0.8","0.6","0.4","0.288479151","0.8556046088","0.9087743635","0.374811954","","","","","","","","","","","","","","75","K","2","","","84","main_expt",""
"","bandit","164","1853884","0.0-126.0-0.0","83096853","wem/bandit_party_2","A2QKPBMYWR4KT3","either","8","370","","","","","","","1","0","0","0.8632011641","","0.2","0.8","0.6","0.4","","","","","0.3061923995","0.7835234447","0.8632011641","0.4518264681","","","","","","","","","","75","K","2","","","85","main_expt",""
"","bandit","165","1855677","0.0-127.0-0.0","83096853","wem/bandit_party_2","A2QKPBMYWR4KT3","either","8","276","","","","","","","1","0","0","0.8341253046","","0.2","0.8","0.6","0.4","","","","","0.3370204437","0.7037548709","0.8341253046","0.461936863","","","","","","","","","","75","K","2","","","86","main_expt",""
"","bandit","166","1857474","0.0-128.0-0.0","83096853","wem/bandit_party_2","A2QKPBMYWR4KT3","either","8","284","","","","","","","1","0","0","0.8728746981","","0.2","0.8","0.6","0.4","","","","","0.3900809043","0.6903674631","0.8728746981","0.3681660755","","","","","","","","","","75","K","2","","","87","main_expt",""
"","bandit","167","1859237","0.0-129.0-0.0","83096853","wem/bandit_party_2","A2QKPBMYWR4KT3","either","8","244","","","","","","","1","0","0","0.8408980459","","0.2","0.8","0.6","0.4","","","","","0.4296615172","0.5883284312","0.8408980459","0.3788462328","","","","","","","","","","75","K","2","","","88","main_expt",""
"","bandit","168","1861052","0.0-130.0-0.0","83096853","wem/bandit_party_2","A2QKPBMYWR4KT3","either","8","299","","","","","","","0","0","1","0.8585781628","","0.2","0.8","0.6","0.4","","","","","0.4636560077","0.5258490985","0.8585781628","0.3316952272","","","","","","","","","","75","K","2","","","89","main_expt",""
"","bandit","169","1862679","0.0-131.0-0.0","83096853","wem/bandit_party_2","A2QKPBMYWR4KT3","either","8","109","","","","","","","1","0","0","0.925840658","","0.2","0.8","0.6","0.4","","","","","0.4463585346","0.6395041767","0.925840658","0.438068917","","","","","","","","","","75","K","2","","","90","main_expt",""
"","bandit","170","1864431","0.0-132.0-0.0","83096853","wem/bandit_party_2","A2QKPBMYWR4KT3","either","8","234","","","","","","","0","1","0","","0.9201841885","0.2","0.8","0.6","0.4","0.4734463503","0.6931091445","0.9201841885","0.5158843935","","","","","","","","","","","","","","75","K","2","","","91","main_expt",""
"","bandit","171","1866117","0.0-133.0-0.0","83096853","wem/bandit_party_2","A2QKPBMYWR4KT3","either","8","168","","","","","","","1","0","0","0.8508076908","","0.2","0.8","0.6","0.4","","","","","0.5248255385","0.6725373887","0.8508076908","0.5182757575","","","","","","","","","","75","K","2","","","92","main_expt",""
"","bandit","172","1867924","0.0-134.0-0.0","83096853","wem/bandit_party_2","A2QKPBMYWR4KT3","either","8","292","","","","","","","0","1","0","","0.8106711147","0.2","0.8","0.6","0.4","0.3386726181","0.7388835399","0.8106711147","0.5498130742","","","","","","","","","","","","","","75","K","2","","","93","main_expt",""
"","bandit","173","1869884","0.0-135.0-0.0","83096853","wem/bandit_party_2","A2QKPBMYWR4KT3","either","8","437","","","","","","","0","1","0","","0.8543263914","0.2","0.8","0.6","0.4","0.3718894848","0.697373586","0.8543263914","0.6049407638","","","","","","","","","","","","","","75","K","2","","","94","main_expt",""
"","bandit","174","1871835","0.0-136.0-0.0","83096853","wem/bandit_party_2","A2QKPBMYWR4KT3","either","8","437","","","","","","","0","1","0","","0.8387782901","0.2","0.8","0.6","0.4","0.4005278521","0.7550322224","0.8387782901","0.6604115927","","","","","","","","","","","","","","75","K","2","","","95","main_expt",""
"","bandit","175","1873647","0.0-137.0-0.0","83096853","wem/bandit_party_2","A2QKPBMYWR4KT3","either","8","294","","","","","","","1","0","0","0.8208071174","","0.2","0.8","0.6","0.4","","","","","0.3694595514","0.6576962358","0.8208071174","0.7003847986","","","","","","","","","","75","K","2","","","96","main_expt",""
"","bandit","176","1875468","0.0-138.0-0.0","83096853","wem/bandit_party_2","A2QKPBMYWR4KT3","either","8","305","","","","","","","0","1","0","","0.765358829","0.2","0.8","0.6","0.4","0.3186037095","0.6802484638","0.765358829","0.6793148949","","","","","","","","","","","","","","75","K","2","","","97","main_expt",""
"","bandit","177","1877245","0.0-139.0-0.0","83096853","wem/bandit_party_2","A2QKPBMYWR4KT3","either","8","258","","","","","","","1","0","0","0.7823463211","","0.2","0.8","0.6","0.4","","","","","0.2786717818","0.7042077447","0.7823463211","0.6204607354","","","","","","","","","","75","K","2","","","98","main_expt",""
"","bandit","178","1878876","0.0-140.0-0.0","83096853","wem/bandit_party_2","A2QKPBMYWR4KT3","either","8","114","","","","","","","1","0","0","0.7523003034","","0.2","0.8","0.6","0.4","","","","","0.32929866","0.7355617892","0.7523003034","0.6166262367","","","","","","","","","","75","K","2","","","99","main_expt",""
"","bandit","179","1880694","0.0-141.0-0.0","83096853","wem/bandit_party_2","A2QKPBMYWR4KT3","either","8","298","","","","","","","1","0","0","0.7174790615","","0.2","0.8","0.6","0.4","","","","","0.3115323478","0.7117411671","0.7174790615","0.5347115766","","","","","","","","","","75","K","2","","","100","main_expt",""
"","bandit","180","1882468","0.0-142.0-0.0","83096853","wem/bandit_party_2","A2QKPBMYWR4KT3","either","8","258","","","","","","","1","0","0","0.7660578318","","0.2","0.8","0.6","0.4","","","","","0.4221749579","0.7263903312","0.7660578318","0.3418016043","","","","","","","","","","75","K","2","","","101","main_expt",""
"","bandit","181","1884191","0.0-143.0-0.0","83096853","wem/bandit_party_2","A2QKPBMYWR4KT3","either","8","204","","","","","","","0","1","0","","0.7201180075","0.2","0.8","0.6","0.4","0.2718078598","0.7357346189","0.7201180075","0.2550922237","","","","","","","","","","","","","","75","K","2","","","102","main_expt",""
"","bandit","182","1885974","0.0-144.0-0.0","83096853","wem/bandit_party_2","A2QKPBMYWR4KT3","either","8","263","","","","","","","0","1","0","","0.8452780714","0.2","0.8","0.6","0.4","0.3011307106","0.7026134783","0.8452780714","0.3181696353","","","","","","","","","","","","","","75","K","2","","","103","main_expt",""
"","bandit","183","1887787","0.0-145.0-0.0","83096853","wem/bandit_party_2","A2QKPBMYWR4KT3","either","8","296","","","","","","","1","0","0","0.7236924273","","0.2","0.8","0.6","0.4","","","","","0.3659291838","0.8073666152","0.7236924273","0.3383579412","","","","","","","","","","75","K","2","","","104","main_expt",""
"","bandit","184","1889621","0.0-146.0-0.0","83096853","wem/bandit_party_2","A2QKPBMYWR4KT3","either","8","317","","","","","","","0","1","0","","0.743719778","0.2","0.8","0.6","0.4","0.3499435223","0.824483439","0.743719778","0.2354673658","","","","","","","","","","","","","","75","K","2","","","105","main_expt",""
"","bandit","185","1891516","0.0-147.0-0.0","83096853","wem/bandit_party_2","A2QKPBMYWR4KT3","either","8","376","","","","","","","1","0","0","0.7985687284","","0.2","0.8","0.6","0.4","","","","","0.3602262465","0.9208810438","0.7985687284","0.159398249","","","","","","","","","","75","K","2","","","106","main_expt",""
"","bandit","186","1893269","0.0-148.0-0.0","83096853","wem/bandit_party_2","A2QKPBMYWR4KT3","either","8","235","","","","","","","0","1","0","","0.799345197","0.2","0.8","0.6","0.4","0.3252215163","0.8911910097","0.799345197","0.1295169146","","","","","","","","","","","","","","75","K","2","","","107","main_expt",""
"","bandit","187","1895127","0.0-149.0-0.0","83096853","wem/bandit_party_2","A2QKPBMYWR4KT3","either","8","339","","","","","","","0","1","0","","0.8681690713","0.2","0.8","0.6","0.4","0.2812406992","0.8450149587","0.8681690713","0.07754053308","","","","","","","","","","","","","","75","K","2","","","108","main_expt",""
"","bandit","188","1896893","0.0-150.0-0.0","83096853","wem/bandit_party_2","A2QKPBMYWR4KT3","either","8","249","","","","","","","1","0","0","0.8556732204","","0.2","0.8","0.6","0.4","","","","","0.2559497519","0.868327257","0.8556732204","0.06591215473","","","","","","","","","","75","K","2","","","109","main_expt",""
"","bandit","189","1898652","0.0-151.0-0.0","83096853","wem/bandit_party_2","A2QKPBMYWR4KT3","either","8","242","","","","","","","1","0","0","0.8669893864","","0.2","0.8","0.6","0.4","","","","","0.2817400418","0.8868335222","0.8669893864","0.1189546392","","","","","","","","","","75","K","2","","","110","main_expt",""
"","bandit","190","1900422","0.0-152.0-0.0","83096853","wem/bandit_party_2","A2QKPBMYWR4KT3","either","8","252","","","","","","","0","1","0","","0.799383849","0.2","0.8","0.6","0.4","0.2773620367","0.8770728171","0.799383849","0.09523351692","","","","","","","","","","","","","","75","K","2","","","111","main_expt",""
"","bandit","191","1902148","0.0-153.0-0.0","83096853","wem/bandit_party_2","A2QKPBMYWR4KT3","either","8","208","","","","","","","0","1","0","","0.859799476","0.2","0.8","0.6","0.4","0.2833316415","0.8481710002","0.859799476","0.107489667","","","","","","","","","","","","","","75","K","2","","","112","main_expt",""
"","bandit","192","1903918","0.0-154.0-0.0","83096853","wem/bandit_party_2","A2QKPBMYWR4KT3","either","8","252","","","","","","","0","1","0","","0.7932436089","0.2","0.8","0.6","0.4","0.3433702059","0.8573528835","0.7932436089","0.1026187258","","","","","","","","","","","","","","75","K","2","","","113","main_expt",""
"","bandit","193","1905702","0.0-155.0-0.0","83096853","wem/bandit_party_2","A2QKPBMYWR4KT3","either","8","266","","","","","","","0","1","0","","0.849407262","0.2","0.8","0.6","0.4","0.4828882278","0.8291807482","0.849407262","0.1044839951","","","","","","","","","","","","","","75","K","2","","","114","main_expt",""
"","bandit","194","1907452","0.0-156.0-0.0","83096853","wem/bandit_party_2","A2QKPBMYWR4KT3","either","8","232","","","","","","","0","1","0","","0.8882716547","0.2","0.8","0.6","0.4","0.54932579","0.761972944","0.8882716547","0.1213931844","","","","","","","","","","","","","","75","K","2","","","115","main_expt",""
"","bandit","195","1909244","0.0-157.0-0.0","83096853","wem/bandit_party_2","A2QKPBMYWR4KT3","either","8","274","","","","","","","1","0","0","0.8741354715","","0.2","0.8","0.6","0.4","","","","","0.6971345968","0.786197192","0.8741354715","0.1184144227","","","","","","","","","","75","K","2","","","116","main_expt",""
"","bandit","196","1910876","0.0-158.0-0.0","83096853","wem/bandit_party_2","A2QKPBMYWR4KT3","either","8","116","","","","","","","0","0","1","","0.8083823922","0.2","0.8","0.6","0.4","0.5396272374","0.7834453561","0.8083823922","0.1983931569","","","","","","","","","","","","","","75","K","2","","","117","main_expt",""
"","bandit","197","1912573","0.0-159.0-0.0","83096853","wem/bandit_party_2","A2QKPBMYWR4KT3","either","8","178","","","","","","","0","1","0","","0.868525306","0.2","0.8","0.6","0.4","0.5544567993","0.6742380839","0.868525306","0.2840039584","","","","","","","","","","","","","","75","K","2","","","118","main_expt",""
"","bandit","198","1914381","0.0-160.0-0.0","83096853","wem/bandit_party_2","A2QKPBMYWR4KT3","either","8","290","","","","","","","1","0","0","0.8386471998","","0.2","0.8","0.6","0.4","","","","","0.5504896642","0.7350700153","0.8386471998","0.3563325119","","","","","","","","","","75","K","2","","","119","main_expt",""
"","bandit","199","1917256","0.0-161.0-0.0","83096853","wem/bandit_party_2","A2QKPBMYWR4KT3","either","8","1353","","","","","","","0","0","1","","0.8103559508","0.2","0.8","0.6","0.4","0.5812137135","0.70601835","0.8103559508","0.5682387565","","","","","","","","","","","","","","75","K","2","","","120","main_expt",""
"","bandit","200","1918975","0.0-162.0-0.0","83096853","wem/bandit_party_2","A2QKPBMYWR4KT3","either","8","199","","","","","","","0","1","0","","0.8193015173","0.2","0.8","0.6","0.4","0.6033058466","0.7347719752","0.8193015173","0.5189107771","","","","","","","","","","","","","","75","K","2","","","121","main_expt",""
"","bandit","201","1920942","0.0-163.0-0.0","83096853","wem/bandit_party_2","A2QKPBMYWR4KT3","either","8","448","","","","","","","1","0","0","0.8025146027","","0.2","0.8","0.6","0.4","","","","","0.6102220397","0.8270923978","0.8025146027","0.4428493372","","","","","","","","","","75","K","2","","","122","main_expt",""
"","bandit","202","1922708","0.0-164.0-0.0","83096853","wem/bandit_party_2","A2QKPBMYWR4KT3","either","8","248","","","","","","","1","0","0","0.8121847492","","0.2","0.8","0.6","0.4","","","","","0.6108151959","0.7980631313","0.8121847492","0.472724465","","","","","","","","","","75","K","2","","","123","main_expt",""
"","bandit","203","1924701","0.0-165.0-0.0","83096853","wem/bandit_party_2","A2QKPBMYWR4KT3","either","8","476","","","","","","","0","1","0","","0.8299418439","0.2","0.8","0.6","0.4","0.7117385939","0.7369852887","0.8299418439","0.4799585558","","","","","","","","","","","","","","75","K","2","","","124","main_expt",""
"","bandit","204","1926519","0.0-166.0-0.0","83096853","wem/bandit_party_2","A2QKPBMYWR4KT3","either","8","301","","","","","","","1","0","0","0.825688343","","0.2","0.8","0.6","0.4","","","","","0.7554186078","0.7465944313","0.825688343","0.5080184993","","","","","","","","","","75","K","2","","","125","main_expt",""
"","bandit","205","1928238","0.0-167.0-0.0","83096853","wem/bandit_party_2","A2QKPBMYWR4KT3","either","8","198","","","","","","","1","0","0","0.8372054396","","0.2","0.8","0.6","0.4","","","","","0.8855751833","0.7596834852","0.8372054396","0.4555098289","","","","","","","","","","75","K","2","","","126","main_expt",""
"","bandit","206","1930431","0.0-168.0-0.0","83096853","wem/bandit_party_2","A2QKPBMYWR4KT3","either","8","674","","","","","","","1","0","0","0.7906689898","","0.2","0.8","0.6","0.4","","","","","0.8003015049","0.7398299979","0.7906689898","0.5475411796","","","","","","","","","","75","K","2","","","127","main_expt",""
"","bandit","207","1932172","0.0-169.0-0.0","83096853","wem/bandit_party_2","A2QKPBMYWR4KT3","either","8","224","","","","","","","1","0","0","0.8008571507","","0.2","0.8","0.6","0.4","","","","","0.8403113951","0.7764866849","0.8008571507","0.612647382","","","","","","","","","","75","K","2","","","128","main_expt",""
"","bandit","208","1933956","0.0-170.0-0.0","83096853","wem/bandit_party_2","A2QKPBMYWR4KT3","either","8","265","","","","","","","1","0","0","0.7829297973","","0.2","0.8","0.6","0.4","","","","","0.8826872071","0.6435675963","0.7829297973","0.7128970287","","","","","","","","","","75","K","2","","","129","main_expt",""
"","bandit","209","1935726","0.0-171.0-0.0","83096853","wem/bandit_party_2","A2QKPBMYWR4KT3","either","8","252","","","","","","","0","0","1","","0.6898445721","0.2","0.8","0.6","0.4","0.8641000085","0.7030252038","0.6898445721","0.7309911721","","","","","","","","","","","","","","75","K","2","","","130","main_expt",""
"","bandit","210","1938015","0.0-172.0-0.0","83096853","wem/bandit_party_2","A2QKPBMYWR4KT3","either","8","771","","","","","","","0","1","0","","0.5864867529","0.2","0.8","0.6","0.4","0.8752037592","0.6829232191","0.5864867529","0.73180147","","","","","","","","","","","","","","75","K","2","","","131","main_expt",""
"","bandit","211","1940572","0.0-173.0-0.0","83096853","wem/bandit_party_2","A2QKPBMYWR4KT3","either","8","1039","","","","","","","0","0","1","","0.560122833","0.2","0.8","0.6","0.4","0.8279556795","0.7406452387","0.560122833","0.8467134838","","","","","","","","","","","","","","75","K","2","","","132","main_expt",""
"","bandit","212","1942358","0.0-174.0-0.0","83096853","wem/bandit_party_2","A2QKPBMYWR4KT3","either","8","267","","","","","","","1","0","0","0.48439517","","0.2","0.8","0.6","0.4","","","","","0.8194722428","0.6666234363","0.48439517","0.8481264083","","","","","","","","","","75","K","2","","","133","main_expt",""
"","bandit","213","1944861","0.0-175.0-0.0","83096853","wem/bandit_party_2","A2QKPBMYWR4KT3","either","8","985","","","","","","","1","0","0","0.3919863126","","0.2","0.8","0.6","0.4","","","","","0.8037084922","0.680542061","0.3919863126","0.8771050955","","","","","","","","","","75","K","2","","","134","main_expt",""
"","bandit","214","1947405","0.0-176.0-0.0","83096853","wem/bandit_party_2","A2QKPBMYWR4KT3","either","8","1026","","","","","","","0","0","1","0.5174750093","","0.2","0.8","0.6","0.4","","","","","0.8155916457","0.7006187635","0.5174750093","0.9103241533","","","","","","","","","","75","K","2","","","135","main_expt",""
"","bandit","215","1949941","0.0-177.0-0.0","83096853","wem/bandit_party_2","A2QKPBMYWR4KT3","either","8","1018","","","","","","","0","0","1","0.4264762493","","0.2","0.8","0.6","0.4","","","","","0.8281957705","0.6936815578","0.4264762493","0.9126032517","","","","","","","","","","75","K","2","","","136","main_expt",""
"","bandit","216","1952269","0.0-178.0-0.0","83096853","wem/bandit_party_2","A2QKPBMYWR4KT3","either","8","809","","","","","","","0","0","1","0.5351999402","","0.2","0.8","0.6","0.4","","","","","0.7055403129","0.6531428085","0.5351999402","0.8983360858","","","","","","","","","","75","K","2","","","137","main_expt",""
"","bandit","217","1954477","0.0-179.0-0.0","83096853","wem/bandit_party_2","A2QKPBMYWR4KT3","either","8","694","","","","","","","0","1","0","","0.4758748922","0.2","0.8","0.6","0.4","0.6884351598","0.6769758131","0.4758748922","0.8851370462","","","","","","","","","","","","","","75","K","2","","","138","main_expt",""
"","bandit","218","1956405","0.0-180.0-0.0","83096853","wem/bandit_party_2","A2QKPBMYWR4KT3","either","8","410","","","","","","","0","0","1","","0.4039793023","0.2","0.8","0.6","0.4","0.6090423031","0.7649589049","0.4039793023","0.8662270416","","","","","","","","","","","","","","75","K","2","","","139","main_expt",""
"","bandit","219","1958438","0.0-181.0-0.0","83096853","wem/bandit_party_2","A2QKPBMYWR4KT3","either","8","511","","","","","","","0","1","0","","0.384774136","0.2","0.8","0.6","0.4","0.7000077187","0.7674202191","0.384774136","0.8345767194","","","","","","","","","","","","","","75","K","2","","","140","main_expt",""
"","bandit","220","1960512","0.0-182.0-0.0","83096853","wem/bandit_party_2","A2QKPBMYWR4KT3","either","8","554","","","","","","","1","0","0","0.327254859","","0.2","0.8","0.6","0.4","","","","","0.6643185619","0.8575114448","0.327254859","0.8783670964","","","","","","","","","","75","K","2","","","141","main_expt",""
"","bandit","221","1962510","0.0-183.0-0.0","83096853","wem/bandit_party_2","A2QKPBMYWR4KT3","either","8","479","","","","","","","0","0","1","","0.4536641492","0.2","0.8","0.6","0.4","0.7079845674","0.8134430427","0.4536641492","0.8895828315","","","","","","","","","","","","","","75","K","2","","","142","main_expt",""
"","bandit","222","1964412","0.0-184.0-0.0","83096853","wem/bandit_party_2","A2QKPBMYWR4KT3","either","8","385","","","","","","","0","0","1","0.4348486293","","0.2","0.8","0.6","0.4","","","","","0.6624187643","0.8345505038","0.4348486293","0.9053928798","","","","","","","","","","75","K","2","","","143","main_expt",""
"","bandit","223","1966189","0.0-185.0-0.0","83096853","wem/bandit_party_2","A2QKPBMYWR4KT3","either","8","258","","","","","","","0","0","1","0.4086594597","","0.2","0.8","0.6","0.4","","","","","0.6779247185","0.7482817554","0.4086594597","0.9033088386","","","","","","","","","","75","K","2","","","144","main_expt",""
"","bandit","224","1968053","0.0-186.0-0.0","83096853","wem/bandit_party_2","A2QKPBMYWR4KT3","either","8","345","","","","","","","0","0","1","","0.4420772456","0.2","0.8","0.6","0.4","0.7216102374","0.7400387939","0.4420772456","0.8572864227","","","","","","","","","","","","","","75","K","2","","","145","main_expt",""
"","bandit","225","1969733","0.0-187.0-0.0","83096853","wem/bandit_party_2","A2QKPBMYWR4KT3","either","8","161","","","","","","","0","0","1","0.508741462","","0.2","0.8","0.6","0.4","","","","","0.7837267619","0.795971973","0.508741462","0.8687508917","","","","","","","","","","75","K","2","","","146","main_expt",""
"","bandit","226","1971326","0.0-188.0-0.0","83096853","wem/bandit_party_2","A2QKPBMYWR4KT3","either","8","76","","","","","","","0","1","0","","0.8657621525","0.2","0.8","0.6","0.4","0.7652264833","0.7503502301","0.4624398998","0.8657621525","","","","","","","","","","","","","","76","L","3","","","147","main_expt",""
"","bandit","227","1973124","0.0-189.0-0.0","83096853","wem/bandit_party_2","A2QKPBMYWR4KT3","either","8","285","","","","","","","0","1","0","","0.8362891365","0.2","0.8","0.6","0.4","0.7358716413","0.8200474043","0.4062589849","0.8362891365","","","","","","","","","","","","","","76","L","3","","","148","main_expt",""
"","bandit","228","1974901","0.0-190.0-0.0","83096853","wem/bandit_party_2","A2QKPBMYWR4KT3","either","8","258","","","","","","","0","1","0","","0.8144386017","0.2","0.8","0.6","0.4","0.7129200786","0.8509010271","0.4895331913","0.8144386017","","","","","","","","","","","","","","76","L","3","","","149","main_expt",""
"","bandit","229","1977237","0.0-191.0-0.0","83096853","wem/bandit_party_2","A2QKPBMYWR4KT3","either","8","818","","","","","","","0","0","1","0.6948055455","","0.2","0.8","0.6","0.4","","","","","0.705531668","0.8298908313","0.4704746919","0.6948055455","","","","","","","","","","76","L","3","","","150","main_expt",""
"","bandit","230","1979061","0.0-192.0-0.0","83096853","wem/bandit_party_2","A2QKPBMYWR4KT3","either","8","306","","","","","","","0","1","0","","0.6231991314","0.2","0.8","0.6","0.4","0.5744604188","0.7362749002","0.4725745774","0.6231991314","","","","","","","","","","","","","","76","L","3","","","151","main_expt",""
"","bandit","231","1981151","0.0-193.0-0.0","83096853","wem/bandit_party_2","A2QKPBMYWR4KT3","either","8","569","","","","","","","0","0","1","","0.7045057733","0.2","0.8","0.6","0.4","0.5372669321","0.7601791643","0.4943906398","0.7045057733","","","","","","","","","","","","","","76","L","3","","","152","main_expt",""
"","bandit","232","1982967","0.0-194.0-0.0","83096853","wem/bandit_party_2","A2QKPBMYWR4KT3","either","8","296","","","","","","","0","1","0","","0.5331338622","0.2","0.8","0.6","0.4","0.5447545218","0.7590648118","0.4639524782","0.5331338622","","","","","","","","","","","","","","76","L","3","","","153","main_expt",""
"","bandit","233","1984774","0.0-195.0-0.0","83096853","wem/bandit_party_2","A2QKPBMYWR4KT3","either","8","286","","","","","","","1","0","0","0.5096720896","","0.2","0.8","0.6","0.4","","","","","0.4191749193","0.7805387907","0.3935792086","0.5096720896","","","","","","","","","","76","L","3","","","154","main_expt",""
"","bandit","234","1986852","0.0-196.0-0.0","83096853","wem/bandit_party_2","A2QKPBMYWR4KT3","either","8","556","","","","","","","0","0","1","","0.4719011365","0.2","0.8","0.6","0.4","0.4269770229","0.8450805748","0.4127348605","0.4719011365","","","","","","","","","","","","","","76","L","3","","","155","main_expt",""
"","bandit","235","1988796","0.0-197.0-0.0","83096853","wem/bandit_party_2","A2QKPBMYWR4KT3","either","8","424","","","","","","","0","1","0","","0.5818713095","0.2","0.8","0.6","0.4","0.4589862704","0.8513110265","0.3697675558","0.5818713095","","","","","","","","","","","","","","76","L","3","","","156","main_expt",""
"","bandit","236","1990788","0.0-198.0-0.0","83096853","wem/bandit_party_2","A2QKPBMYWR4KT3","either","8","471","","","","","","","0","0","1","0.5804022203","","0.2","0.8","0.6","0.4","","","","","0.5370818316","0.8226236001","0.3604398023","0.5804022203","","","","","","","","","","76","L","3","","","157","main_expt",""
"","bandit","237","1992445","0.0-199.0-0.0","83096853","wem/bandit_party_2","A2QKPBMYWR4KT3","either","8","135","","","","","","","0","0","1","0.4773166223","","0.2","0.8","0.6","0.4","","","","","0.4757376888","0.8843141367","0.4061750625","0.4773166223","","","","","","","","","","76","L","3","","","158","main_expt",""
"","bandit","238","1994288","0.0-200.0-0.0","83096853","wem/bandit_party_2","A2QKPBMYWR4KT3","either","8","321","","","","","","","0","0","1","0.419048585","","0.2","0.8","0.6","0.4","","","","","0.4887287223","0.8078798749","0.4696417586","0.419048585","","","","","","","","","","76","L","3","","","159","main_expt",""
"","bandit","239","1996021","0.0-201.0-0.0","83096853","wem/bandit_party_2","A2QKPBMYWR4KT3","either","8","211","","","","","","","0","0","1","","0.4672574386","0.2","0.8","0.6","0.4","0.4588489809","0.7689164465","0.4659569923","0.4672574386","","","","","","","","","","","","","","76","L","3","","","160","main_expt",""
"","bandit","240","1997822","0.0-202.0-0.0","83096853","wem/bandit_party_2","A2QKPBMYWR4KT3","either","8","278","","","","","","","0","1","0","","0.5612985374","0.2","0.8","0.6","0.4","0.4920004413","0.7863156869","0.3947207546","0.5612985374","","","","","","","","","","","","","","76","L","3","","","161","main_expt",""
"","bandit","241","1999668","0.0-203.0-0.0","83096853","wem/bandit_party_2","A2QKPBMYWR4KT3","either","8","325","","","","","","","0","0","1","0.5288680036","","0.2","0.8","0.6","0.4","","","","","0.5389881207","0.8098475403","0.2460097942","0.5288680036","","","","","","","","","","76","L","3","","","162","main_expt",""
"","bandit","242","2001284","0.0-204.0-0.0","83096853","wem/bandit_party_2","A2QKPBMYWR4KT3","either","8","95","","","","","","","0","1","0","","0.6096883849","0.2","0.8","0.6","0.4","0.6040136001","0.8222712862","0.3603606056","0.6096883849","","","","","","","","","","","","","","76","L","3","","","163","main_expt",""
"","bandit","243","2002909","0.0-205.0-0.0","83096853","wem/bandit_party_2","A2QKPBMYWR4KT3","either","8","104","","","","","","","0","0","1","","0.4868922288","0.2","0.8","0.6","0.4","0.623756827","0.7876031225","0.2507209727","0.4868922288","","","","","","","","","","","","","","76","L","3","","","164","main_expt",""
"","bandit","244","2004680","0.0-206.0-0.0","83096853","wem/bandit_party_2","A2QKPBMYWR4KT3","either","8","248","","","","","","","0","0","1","","0.6164515281","0.2","0.8","0.6","0.4","0.6164515281","0.7435052823","0.2162043423","0.4055552053","","","","","","","","","","","","","","72","H","0","img/none_selected.jpg","","165","main_expt",""
"","bandit","245","2006646","0.0-207.0-0.0","83096853","wem/bandit_party_2","A2QKPBMYWR4KT3","either","8","438","","","","","","","1","0","0","0.6545739251","","0.2","0.8","0.6","0.4","","","","","0.4660222187","0.6545739251","0.2573409732","0.4748236382","","","","","","","","","","74","J","1","","","166","main_expt",""
"","bandit","246","2008405","0.0-208.0-0.0","83096853","wem/bandit_party_2","A2QKPBMYWR4KT3","either","8","238","","","","","","","0","0","1","","0.3336058786","0.2","0.8","0.6","0.4","0.3336058786","0.6645907447","0.4016088623","0.4725242185","","","","","","","","","","","","","","72","H","0","img/none_selected.jpg","","167","main_expt",""
"","bandit","247","2010092","0.0-209.0-0.0","83096853","wem/bandit_party_2","A2QKPBMYWR4KT3","either","8","166","","","","","","","1","0","0","0.7243751722","","0.2","0.8","0.6","0.4","","","","","0.2887723434","0.7243751722","0.5522858252","0.4775208721","","","","","","","","","","74","J","1","","","168","main_expt",""
"","bandit","248","2011806","0.0-210.0-0.0","83096853","wem/bandit_party_2","A2QKPBMYWR4KT3","either","8","192","","","","","","","0","0","1","0.6453105543","","0.2","0.8","0.6","0.4","","","","","0.3357056981","0.6453105543","0.5461138513","0.4682732781","","","","","","","","","","74","J","1","","","169","main_expt",""
"","bandit","249","2013557","0.0-211.0-0.0","83096853","wem/bandit_party_2","A2QKPBMYWR4KT3","either","8","228","","","","","","","0","1","0","","0.4179693295","0.2","0.8","0.6","0.4","0.4179693295","0.5334010147","0.4402798015","0.4246621539","","","","","","","","","","","","","","72","H","0","img/none_selected.jpg","","170","main_expt",""
"","bandit","250","2016350","0.0-212.0-0.0","83096853","wem/bandit_party_2","A2QKPBMYWR4KT3","either","8","1277","","","","","","","0","1","0","","0.498122785","0.2","0.8","0.6","0.4","0.3050406521","0.498122785","0.450294849","0.2843380906","","","","","","","","","","","","","","74","J","1","","","171","main_expt",""
"","bandit","251","2018317","0.0-213.0-0.0","83096853","wem/bandit_party_2","A2QKPBMYWR4KT3","either","8","447","","","","","","","0","0","1","0.3364500029","","0.2","0.8","0.6","0.4","","","","","0.3364500029","0.4356988635","0.6475755847","0.2668952485","","","","","","","","","","72","H","0","img/none_selected.jpg","","172","main_expt",""
"","bandit","252","2020134","0.0-214.0-0.0","83096853","wem/bandit_party_2","A2QKPBMYWR4KT3","either","8","304","","","","","","","0","0","1","0.3964199688","","0.2","0.8","0.6","0.4","","","","","0.421339117","0.3964199688","0.6095255177","0.3802819164","","","","","","","","","","74","J","1","","","173","main_expt",""
"","bandit","253","2021828","0.0-215.0-0.0","83096853","wem/bandit_party_2","A2QKPBMYWR4KT3","either","8","172","","","","","","","0","0","1","","0.4913704717","0.2","0.8","0.6","0.4","0.4913704717","0.3194345802","0.5003628493","0.4042455133","","","","","","","","","","","","","","72","H","0","img/none_selected.jpg","","174","main_expt",""
"","bandit","254","2023372","0.0-216.0-0.0","83096853","wem/bandit_party_2","A2QKPBMYWR4KT3","either","8","22","","","","","","","1","0","0","0.2865230234","","0.2","0.8","0.6","0.4","","","","","0.5882611891","0.2865230234","0.5576212716","0.4393989914","","","","","","","","","","74","J","1","","","175","main_expt",""
"","bandit","255","2025119","0.0-217.0-0.0","83096853","wem/bandit_party_2","A2QKPBMYWR4KT3","either","8","224","","","","","","","0","0","1","0.3352692614","","0.2","0.8","0.6","0.4","","","","","0.6313830356","0.3352692614","0.6230679906","0.4705173801","","","","","","","","","","74","J","1","","","176","main_expt",""
"","bandit","256","2026886","0.0-218.0-0.0","83096853","wem/bandit_party_2","A2QKPBMYWR4KT3","either","8","245","","","","","","","1","0","0","0.3389264817","","0.2","0.8","0.6","0.4","","","","","0.5531265137","0.3389264817","0.6501784685","0.4698597734","","","","","","","","","","74","J","1","","","177","main_expt",""
"","bandit","257","2028652","0.0-219.0-0.0","83096853","wem/bandit_party_2","A2QKPBMYWR4KT3","either","8","245","","","","","","","1","0","0","0.3709673039","","0.2","0.8","0.6","0.4","","","","","0.4621004187","0.3709673039","0.6334155083","0.3570804947","","","","","","","","","","74","J","1","","","178","main_expt",""
"","bandit","258","2030364","0.0-220.0-0.0","83096853","wem/bandit_party_2","A2QKPBMYWR4KT3","either","8","191","","","","","","","0","0","1","0.2940579202","","0.2","0.8","0.6","0.4","","","","","0.512884041","0.2940579202","0.7548338289","0.3441184995","","","","","","","","","","74","J","1","","","179","main_expt",""
"","bandit","259","2032166","0.0-221.0-0.0","83096853","wem/bandit_party_2","A2QKPBMYWR4KT3","either","8","278","","","","","","","0","0","1","0.3218724025","","0.2","0.8","0.6","0.4","","","","","0.506744284","0.3218724025","0.8074073351","0.3646136501","","","","","","","","","","74","J","1","","","180","main_expt",""
"","bandit","260","2033886","0.0-222.0-0.0","83096853","wem/bandit_party_2","A2QKPBMYWR4KT3","either","8","196","","","","","","","0","0","1","0.3633286182","","0.2","0.8","0.6","0.4","","","","","0.4556494723","0.3633286182","0.780721516","0.3777688814","","","","","","","","","","74","J","1","","","181","main_expt",""
"","bandit","261","2035828","0.0-223.0-0.0","83096853","wem/bandit_party_2","A2QKPBMYWR4KT3","either","8","420","","","","","","","0","0","1","0.3324048704","","0.2","0.8","0.6","0.4","","","","","0.4494525508","0.3324048704","0.7647415088","0.4578236703","","","","","","","","","","74","J","1","","","182","main_expt",""
"","bandit","262","2037621","0.0-224.0-0.0","83096853","wem/bandit_party_2","A2QKPBMYWR4KT3","either","8","270","","","","","","","0","1","0","","0.3092830871","0.2","0.8","0.6","0.4","0.5189143621","0.3092830871","0.7349307529","0.4244895098","","","","","","","","","","","","","","74","J","1","","","183","main_expt",""
"","bandit","263","2039572","0.0-225.0-0.0","83096853","wem/bandit_party_2","A2QKPBMYWR4KT3","either","8","429","","","","","","","0","0","1","0.3905692936","","0.2","0.8","0.6","0.4","","","","","0.5167606333","0.3905692936","0.8298088288","0.3566779322","","","","","","","","","","74","J","1","","","184","main_expt",""
"","bandit","264","2041852","0.0-226.0-0.0","83096853","wem/bandit_party_2","A2QKPBMYWR4KT3","either","8","757","","","","","","","0","0","1","0.4626192444","","0.2","0.8","0.6","0.4","","","","","0.5270237034","0.4626192444","0.7894193193","0.3737416658","","","","","","","","","","74","J","1","","","185","main_expt",""
"","bandit","265","2044228","0.0-227.0-0.0","83096853","wem/bandit_party_2","A2QKPBMYWR4KT3","either","8","856","","","","","","","0","0","1","0.6061762586","","0.2","0.8","0.6","0.4","","","","","0.5556036571","0.6061762586","0.7665022487","0.3120176694","","","","","","","","","","74","J","1","","","186","main_expt",""
"","bandit","266","2046327","0.0-228.0-0.0","83096853","wem/bandit_party_2","A2QKPBMYWR4KT3","either","8","577","","","","","","","1","0","0","0.530958695","","0.2","0.8","0.6","0.4","","","","","0.5865134094","0.530958695","0.7394266891","0.4134691065","","","","","","","","","","74","J","1","","","187","main_expt",""
"","bandit","267","2051301","0.0-229.0-0.0","83096853","wem/bandit_party_2","A2QKPBMYWR4KT3","either","8","3451","","","","","","","1","0","0","0.380024655","","0.2","0.8","0.6","0.4","","","","","0.5034866795","0.380024655","0.6567361442","0.4637770407","","","","","","","","","","74","J","1","","","188","main_expt",""
"","bandit","268","2053492","0.0-230.0-0.0","83096853","wem/bandit_party_2","A2QKPBMYWR4KT3","either","8","670","","","","","","","0","0","1","0.4563575644","","0.2","0.8","0.6","0.4","","","","","0.5761715841","0.4563575644","0.6572443956","0.5739034088","","","","","","","","","","74","J","1","","","189","main_expt",""
"","bandit","269","2059416","0.0-231.0-0.0","83096853","wem/bandit_party_2","A2QKPBMYWR4KT3","either","8","4401","","","","","","","0","0","1","","0.4540853102","0.2","0.8","0.6","0.4","0.5325489933","0.4540853102","0.6735764162","0.5859504021","","","","","","","","","","","","","","74","J","1","","","190","main_expt",""
"","bandit","270","2064181","0.0-232.0-0.0","83096853","wem/bandit_party_2","A2QKPBMYWR4KT3","either","8","3240","","","","","","","1","0","0","0.4328006462","","0.2","0.8","0.6","0.4","","","","","0.5614919892","0.4328006462","0.5997518312","0.5325822721","","","","","","","","","","74","J","1","","","191","main_expt",""
"","bandit","271","2065934","0.0-233.0-0.0","83096853","wem/bandit_party_2","A2QKPBMYWR4KT3","either","8","228","","","","","","","1","0","0","0.4979354652","","0.2","0.8","0.6","0.4","","","","","0.5972832049","0.4979354652","0.6582178794","0.4622441745","","","","","","","","","","74","J","1","","","192","main_expt",""
"","bandit","272","2068533","0.0-234.0-0.0","83096853","wem/bandit_party_2","A2QKPBMYWR4KT3","either","8","1076","","","","","","","0","1","0","","0.4887187701","0.2","0.8","0.6","0.4","0.6997951875","0.4887187701","0.7246172867","0.4765036663","","","","","","","","","","","","","","74","J","1","","","193","main_expt",""
"","bandit","273","2071855","0.0-235.0-0.0","83096853","wem/bandit_party_2","A2QKPBMYWR4KT3","either","8","1799","","","","","","","1","0","0","0.4993882896","","0.2","0.8","0.6","0.4","","","","","0.7511051992","0.4993882896","0.7721250451","0.4504155567","","","","","","","","","","74","J","1","","","194","main_expt",""
"","bandit","274","2074101","0.0-236.0-0.0","83096853","wem/bandit_party_2","A2QKPBMYWR4KT3","either","8","722","","","","","","","0","0","1","0.5011331455","","0.2","0.8","0.6","0.4","","","","","0.8281457055","0.5011331455","0.8366496483","0.4354252764","","","","","","","","","","74","J","1","","","195","main_expt",""
"","bandit","275","2076670","0.0-237.0-0.0","83096853","wem/bandit_party_2","A2QKPBMYWR4KT3","either","8","1044","","","","","","","0","0","1","0.4487960683","","0.2","0.8","0.6","0.4","","","","","0.8248544968","0.4487960683","0.8484646997","0.4170899215","","","","","","","","","","74","J","1","","","196","main_expt",""
"","bandit","276","2078510","0.0-238.0-0.0","83096853","wem/bandit_party_2","A2QKPBMYWR4KT3","either","8","316","","","","","","","0","0","1","0.3975590019","","0.2","0.8","0.6","0.4","","","","","0.8532714289","0.3975590019","0.8734060335","0.4149059055","","","","","","","","","","74","J","1","","","197","main_expt",""
"","bandit","277","2080212","0.0-239.0-0.0","83096853","wem/bandit_party_2","A2QKPBMYWR4KT3","either","8","179","","","","","","","1","0","0","0.4161601929","","0.2","0.8","0.6","0.4","","","","","0.7587337752","0.4161601929","0.8515360685","0.4737306044","","","","","","","","","","74","J","1","","","198","main_expt",""
"","bandit","278","2081863","0.0-240.0-0.0","83096853","wem/bandit_party_2","A2QKPBMYWR4KT3","either","8","127","","","","","","","1","0","0","0.4483979408","","0.2","0.8","0.6","0.4","","","","","0.8124408481","0.4483979408","0.8805923715","0.4541760911","","","","","","","","","","74","J","1","","","199","main_expt",""
"","bandit","279","2083740","0.0-241.0-0.0","83096853","wem/bandit_party_2","A2QKPBMYWR4KT3","either","8","354","","","","","","","0","0","1","0.5303380975","","0.2","0.8","0.6","0.4","","","","","0.7935778268","0.5303380975","0.9645818821","0.3964714959","","","","","","","","","","74","J","1","","","200","main_expt",""
"","bandit","280","2085525","0.0-242.0-0.0","83096853","wem/bandit_party_2","A2QKPBMYWR4KT3","either","8","267","","","","","","","0","0","1","","0.4014045657","0.2","0.8","0.6","0.4","0.736942723","0.4014045657","0.9689478708","0.3815447649","","","","","","","","","","","","","","74","J","1","","","201","main_expt",""
"","bandit","281","2087173","0.0-243.0-0.0","83096853","wem/bandit_party_2","A2QKPBMYWR4KT3","either","8","123","","","","","","","1","0","0","0.5115169607","","0.2","0.8","0.6","0.4","","","","","0.7001951276","0.5115169607","0.9678291885","0.3726367513","","","","","","","","","","74","J","1","","","202","main_expt",""
"","bandit","282","2088950","0.0-244.0-0.0","83096853","wem/bandit_party_2","A2QKPBMYWR4KT3","either","8","250","","","","","","","1","0","0","0.5026191452","","0.2","0.8","0.6","0.4","","","","","0.7209300446","0.5026191452","0.9633244117","0.3062653216","","","","","","","","","","74","J","1","","","203","main_expt",""
"","bandit","283","2090724","0.0-245.0-0.0","83096853","wem/bandit_party_2","A2QKPBMYWR4KT3","either","8","251","","","","","","","1","0","0","0.4736298566","","0.2","0.8","0.6","0.4","","","","","0.8574132932","0.4736298566","0.9730812582","0.2848501254","","","","","","","","","","74","J","1","","","204","main_expt",""
"","bandit","284","2092488","0.0-246.0-0.0","83096853","wem/bandit_party_2","A2QKPBMYWR4KT3","either","8","241","","","","","","","1","0","0","0.6121858428","","0.2","0.8","0.6","0.4","","","","","0.9038760074","0.6121858428","0.9521206422","0.3457586416","","","","","","","","","","74","J","1","","","205","main_expt",""
"","bandit","285","2094303","0.0-247.0-0.0","83096853","wem/bandit_party_2","A2QKPBMYWR4KT3","either","8","290","","","","","","","1","0","0","0.6377028942","","0.2","0.8","0.6","0.4","","","","","0.9273356803","0.6377028942","0.9614764056","0.4609097875","","","","","","","","","","74","J","1","","","206","main_expt",""
"","bandit","286","2096140","0.0-248.0-0.0","83096853","wem/bandit_party_2","A2QKPBMYWR4KT3","either","8","315","","","","","","","0","0","1","0.5700483165","","0.2","0.8","0.6","0.4","","","","","0.9502037039","0.5700483165","0.9625830716","0.4980316736","","","","","","","","","","74","J","1","","","207","main_expt",""
"","bandit","287","2097901","0.0-249.0-0.0","83096853","wem/bandit_party_2","A2QKPBMYWR4KT3","either","8","236","","","","","","","0","0","1","","0.624428721","0.2","0.8","0.6","0.4","0.944094639","0.624428721","0.9359306517","0.4537691537","","","","","","","","","","","","","","74","J","1","","","208","main_expt",""
"","bandit","288","2099526","0.0-250.0-0.0","83096853","wem/bandit_party_2","A2QKPBMYWR4KT3","either","8","101","","","","","","","1","0","0","0.4861871301","","0.2","0.8","0.6","0.4","","","","","0.9070839441","0.4861871301","0.9632917203","0.4475842875","","","","","","","","","","74","J","1","","","209","main_expt",""
"","bandit","289","2101245","0.0-251.0-0.0","83096853","wem/bandit_party_2","A2QKPBMYWR4KT3","either","8","194","","","","","","","0","0","1","0.3956361612","","0.2","0.8","0.6","0.4","","","","","0.8960653589","0.3956361612","0.9633226214","0.4803454055","","","","","","","","","","74","J","1","","","210","main_expt",""
"","bandit","290","2102991","0.0-252.0-0.0","83096853","wem/bandit_party_2","A2QKPBMYWR4KT3","either","8","222","","","","","","","0","0","1","0.3599204452","","0.2","0.8","0.6","0.4","","","","","0.9155455821","0.3599204452","0.9719781217","0.4126443349","","","","","","","","","","74","J","1","","","211","main_expt",""
"","bandit","291","2104685","0.0-253.0-0.0","83096853","wem/bandit_party_2","A2QKPBMYWR4KT3","either","8","170","","","","","","","1","0","0","0.9700781686","","0.2","0.8","0.6","0.4","","","","","0.9087954588","0.3349000901","0.9700781686","0.3384802849","","","","","","","","","","75","K","2","","","212","main_expt",""
"","bandit","292","2106541","0.0-254.0-0.0","83096853","wem/bandit_party_2","A2QKPBMYWR4KT3","either","8","339","","","","","","","1","0","0","0.971165811","","0.2","0.8","0.6","0.4","","","","","0.8528540962","0.3183344176","0.971165811","0.3039242722","","","","","","","","","","75","K","2","","","213","main_expt",""
"","bandit","293","2108227","0.0-255.0-0.0","83096853","wem/bandit_party_2","A2QKPBMYWR4KT3","either","8","164","","","","","","","1","0","0","0.9627117","","0.2","0.8","0.6","0.4","","","","","0.8506041988","0.2390758011","0.9627117","0.4541530846","","","","","","","","","","75","K","2","","","214","main_expt",""
"","bandit","294","2110012","0.0-256.0-0.0","83096853","wem/bandit_party_2","A2QKPBMYWR4KT3","either","8","258","","","","","","","0","0","1","","0.9552130497","0.2","0.8","0.6","0.4","0.8001829978","0.1997060473","0.9552130497","0.5101749692","","","","","","","","","","","","","","75","K","2","","","215","main_expt",""
"","bandit","295","2111536","0.0-257.0-0.0","83096853","wem/bandit_party_2","A2QKPBMYWR4KT3","either","8","2","","","","","","","1","0","0","0.9220350188","","0.2","0.8","0.6","0.4","","","","","0.733614842","0.2326539104","0.9220350188","0.5580520347","","","","","","","","","","75","K","2","","","216","main_expt",""
"","bandit","296","2113488","0.0-258.0-0.0","83096853","wem/bandit_party_2","A2QKPBMYWR4KT3","either","8","427","","","","","","","0","0","1","0.8736667029","","0.2","0.8","0.6","0.4","","","","","0.7479737912","0.2319826337","0.8736667029","0.4368451062","","","","","","","","","","75","K","2","","","217","main_expt",""
"","bandit","297","2115133","0.0-259.0-0.0","83096853","wem/bandit_party_2","A2QKPBMYWR4KT3","either","8","121","","","","","","","1","0","0","0.7602784417","","0.2","0.8","0.6","0.4","","","","","0.7713398237","0.3143382807","0.7602784417","0.3963441813","","","","","","","","","","75","K","2","","","218","main_expt",""
"","bandit","298","2116966","0.0-260.0-0.0","83096853","wem/bandit_party_2","A2QKPBMYWR4KT3","either","8","308","","","","","","","1","0","0","0.7643050859","","0.2","0.8","0.6","0.4","","","","","0.8077055691","0.3304972923","0.7643050859","0.4809426617","","","","","","","","","","75","K","2","","","219","main_expt",""
"","bandit","299","2118700","0.0-261.0-0.0","83096853","wem/bandit_party_2","A2QKPBMYWR4KT3","either","8","210","","","","","","","1","0","0","0.7793587236","","0.2","0.8","0.6","0.4","","","","","0.7778114837","0.2866104843","0.7793587236","0.397759556","","","","","","","","","","75","K","2","","","220","main_expt",""
"","bandit","300","2120364","0.0-262.0-0.0","83096853","wem/bandit_party_2","A2QKPBMYWR4KT3","either","8","139","","","","","","","1","0","0","0.82086311","","0.2","0.8","0.6","0.4","","","","","0.7214198583","0.3602561646","0.82086311","0.4087677593","","","","","","","","","","75","K","2","","","221","main_expt",""
"","bandit","301","2122132","0.0-263.0-0.0","83096853","wem/bandit_party_2","A2QKPBMYWR4KT3","either","8","244","","","","","","","1","0","0","0.8543662658","","0.2","0.8","0.6","0.4","","","","","0.8091526303","0.3228749062","0.8543662658","0.4561280915","","","","","","","","","","75","K","2","","","222","main_expt",""
"","bandit","302","2123958","0.0-264.0-0.0","83096853","wem/bandit_party_2","A2QKPBMYWR4KT3","either","8","304","","","","","","","0","1","0","","0.8599459829","0.2","0.8","0.6","0.4","0.8240838469","0.2549485676","0.8599459829","0.4419858618","","","","","","","","","","","","","","75","K","2","","","223","main_expt",""
"","bandit","303","2127782","0.0-265.0-0.0","83096853","wem/bandit_party_2","A2QKPBMYWR4KT3","either","8","2299","","","","","","","0","0","1","0.8747991669","","0.2","0.8","0.6","0.4","","","","","0.7670685714","0.2389333491","0.8747991669","0.494409337","","","","","","","","","","75","K","2","","","224","main_expt",""
"","bandit","304","2133879","0.0-266.0-0.0","83096853","wem/bandit_party_2","A2QKPBMYWR4KT3","either","8","4569","","","","","","","0","1","0","","0.7910409491","0.2","0.8","0.6","0.4","0.8775689376","0.1517307125","0.7910409491","0.3713348049","","","","","","","","","","","","","","75","K","2","","","225","main_expt",""
"","bandit","305","2135798","0.0-267.0-0.0","83096853","wem/bandit_party_2","A2QKPBMYWR4KT3","either","8","396","","","","","","","0","0","1","0.7212928749","","0.2","0.8","0.6","0.4","","","","","0.8846504348","0.1002450003","0.7212928749","0.4013452417","","","","","","","","","","75","K","2","","","226","main_expt",""
"","bandit","306","2137563","0.0-268.0-0.0","83096853","wem/bandit_party_2","A2QKPBMYWR4KT3","either","8","242","","","","","","","0","0","1","0.7090989562","","0.2","0.8","0.6","0.4","","","","","0.851087938","0.1049945928","0.7090989562","0.393451628","","","","","","","","","","75","K","2","","","227","main_expt",""
"","bandit","307","2139373","0.0-269.0-0.0","83096853","wem/bandit_party_2","A2QKPBMYWR4KT3","either","8","285","","","","","","","0","0","1","","0.6606736223","0.2","0.8","0.6","0.4","0.9074720337","0.03915988122","0.6606736223","0.4175844788","","","","","","","","","","","","","","75","K","2","","","228","main_expt",""
"","bandit","308","2141189","0.0-270.0-0.0","83096853","wem/bandit_party_2","A2QKPBMYWR4KT3","either","8","292","","","","","","","0","1","0","","0.6893924153","0.2","0.8","0.6","0.4","0.872332114","0.03767516843","0.6893924153","0.408368909","","","","","","","","","","","","","","75","K","2","","","229","main_expt",""
"","bandit","309","2142900","0.0-271.0-0.0","83096853","wem/bandit_party_2","A2QKPBMYWR4KT3","either","8","193","","","","","","","0","0","1","","0.6067604319","0.2","0.8","0.6","0.4","0.7967167456","0.05804790214","0.6067604319","0.4777699032","","","","","","","","","","","","","","75","K","2","","","230","main_expt",""
"","bandit","310","2144501","0.0-272.0-0.0","83096853","wem/bandit_party_2","A2QKPBMYWR4KT3","either","8","76","","","","","","","0","0","1","0.5037419277","","0.2","0.8","0.6","0.4","","","","","0.7760618079","0.04963095007","0.5037419277","0.4935442242","","","","","","","","","","75","K","2","","","231","main_expt",""
"","bandit","311","2146476","0.0-273.0-0.0","83096853","wem/bandit_party_2","A2QKPBMYWR4KT3","either","8","448","","","","","","","0","1","0","","0.4889590317","0.2","0.8","0.6","0.4","0.7765467853","0.03759782928","0.4339479185","0.4889590317","","","","","","","","","","","","","","76","L","3","","","232","main_expt",""
"","bandit","312","2148254","0.0-274.0-0.0","83096853","wem/bandit_party_2","A2QKPBMYWR4KT3","either","8","252","","","","","","","0","1","0","","0.5212294662","0.2","0.8","0.6","0.4","0.7895219362","0.03147013274","0.4525546635","0.5212294662","","","","","","","","","","","","","","76","L","3","","","233","main_expt",""
"","bandit","313","2150005","0.0-275.0-0.0","83096853","wem/bandit_party_2","A2QKPBMYWR4KT3","either","8","225","","","","","","","0","0","1","0.4420617392","","0.2","0.8","0.6","0.4","","","","","0.7491899586","0.03547440544","0.3680080929","0.4420617392","","","","","","","","","","76","L","3","","","234","main_expt",""
"","bandit","314","2151765","0.0-276.0-0.0","83096853","wem/bandit_party_2","A2QKPBMYWR4KT3","either","8","235","","","","","","","0","0","1","0.4816955248","","0.2","0.8","0.6","0.4","","","","","0.7397351474","0.04486782706","0.3416373547","0.4816955248","","","","","","","","","","76","L","3","","","235","main_expt",""
"","bandit","315","2153565","0.0-277.0-0.0","83096853","wem/bandit_party_2","A2QKPBMYWR4KT3","either","8","275","","","","","","","0","0","1","0.3028121716","","0.2","0.8","0.6","0.4","","","","","0.6587673302","0.03122339122","0.3722877153","0.3028121716","","","","","","","","","","76","L","3","","","236","main_expt",""
"","bandit","316","2155157","0.0-278.0-0.0","83096853","wem/bandit_party_2","A2QKPBMYWR4KT3","either","8","67","","","","","","","0","0","1","","0.7534934878","0.2","0.8","0.6","0.4","0.7534934878","0.04191117605","0.3081002542","0.3802502189","","","","","","","","","","","","","","72","H","0","img/none_selected.jpg","","237","main_expt",""
"","bandit","317","2157007","0.0-279.0-0.0","83096853","wem/bandit_party_2","A2QKPBMYWR4KT3","either","8","325","","","","","","","1","0","0","0.4160754302","","0.2","0.8","0.6","0.4","","","","","0.8023031038","0.06367740527","0.2546656634","0.4160754302","","","","","","","","","","76","L","3","","","238","main_expt",""
