"consent","trial_type","trial_index","time_elapsed","internal_node_id","subjID","study","MID","cond","drift","rt","responses","button_pressed","key_press","like","value","connected","gems","bombs","no_reward","GemPrChosen","BombPrChosen","GainOverPainPr_0","GainOverPainPr_1","GainOverPainPr_2","GainOverPainPr_3","LosePr_0","LosePr_1","LosePr_2","LosePr_3","WinPr_0","WinPr_1","WinPr_2","WinPr_3","Q0","Q1","Q2","gender","age","ethnicity","label","expt_phase","target","respCharCode","respKey","respChoiceNum","respChoice","practice","trial_counter","trial_label","Q0_index"
"GDM/GDM_behavioral_consent_30min_online.html","consent","0","17245","0.0-0.0","83869089","wem/bandit_party_2","A271IR0EM4NAL4","either","4","","","","","","","","","","","","","","","","","","","","","","","","","","","","","","","","","","","","","","","","",""
"","survey-text","1","22871","0.0-1.0","83869089","wem/bandit_party_2","A271IR0EM4NAL4","either","4","4616","{""Q0"":""A271IR0EM4NAL4""}","","","","","","","","","","","","","","","","","","","","","","","","","","","","","","","","","","","","","","",""
"","button-response","2","25454","0.0-2.0","83869089","wem/bandit_party_2","A271IR0EM4NAL4","either","4","1574","","0","","","","","","","","","","","","","","","","","","","","","","","","","","","","","","","","","","","","","",""
"","text-replacement","3","44174","0.0-3.0","83869089","wem/bandit_party_2","A271IR0EM4NAL4","either","4","17714","","","32","","","","","","","","","","","","","","","","","","","","","","","","","","","","","","","","","","","","",""
"","text-replacement","4","55755","0.0-4.0","83869089","wem/bandit_party_2","A271IR0EM4NAL4","either","4","11579","","","32","","","","","","","","","","","","","","","","","","","","","","","","","","","","","","","","","","","","",""
"","identification","5","63998","0.0-6.0-0.0","83869089","wem/bandit_party_2","A271IR0EM4NAL4","either","4","8218","","","","3","3","3","","","","","","","","","","","","","","","","","","","","","","","","pre","identification_pre","the Republican Party","","","","","","","",""
"","identification","6","77101","0.0-6.0-1.0","83869089","wem/bandit_party_2","A271IR0EM4NAL4","either","4","12079","","","","2","2","2","","","","","","","","","","","","","","","","","","","","","","","","pre","identification_pre","the Democratic Party","","","","","","","",""
"","text-replacement","7","87886","0.0-7.0","83869089","wem/bandit_party_2","A271IR0EM4NAL4","either","4","9782","","","32","","","","","","","","","","","","","","","","","","","","","","","","","","","","","","","","","","","","",""
"","text-replacement","8","111198","0.0-8.0","83869089","wem/bandit_party_2","A271IR0EM4NAL4","either","4","23308","","","32","","","","","","","","","","","","","","","","","","","","","","","","","","","","","","","","","","","","",""
"","text-replacement","9","139655","0.0-9.0","83869089","wem/bandit_party_2","A271IR0EM4NAL4","either","4","28453","","","32","","","","","","","","","","","","","","","","","","","","","","","","","","","","","","","","","","","","",""
"","text-replacement","10","144790","0.0-10.0","83869089","wem/bandit_party_2","A271IR0EM4NAL4","either","4","5132","","","32","","","","","","","","","","","","","","","","","","","","","","","","","","","","","","","","","","","","",""
"","text-replacement","11","151132","0.0-11.0","83869089","wem/bandit_party_2","A271IR0EM4NAL4","either","4","6340","","","32","","","","","","","","","","","","","","","","","","","","","","","","","","","","","","","","","","","","",""
"","bandit","12","156168","0.0-12.0-0.0","83869089","wem/bandit_party_2","A271IR0EM4NAL4","either","4","3521","","","","","","","0","0","1","0","0","","","","","0","","","","0","","","","","","","","","","","","","74","J","0","img/none_selected_demo.jpg","true","0","",""
"","bandit","13","158590","0.0-13.0-0.0","83869089","wem/bandit_party_2","A271IR0EM4NAL4","either","4","914","","","","","","","0","0","1","0","0","","","","","0","","","","0","","","","","","","","","","","","","75","K","0","img/none_selected_demo.jpg","true","0","",""
"","text-replacement","14","199950","0.0-14.0","83869089","wem/bandit_party_2","A271IR0EM4NAL4","either","4","41356","","","32","","","","","","","","","","","","","","","","","","","","","","","","","","","","","","","","","","","","",""
"","text-replacement","15","206742","0.0-15.0","83869089","wem/bandit_party_2","A271IR0EM4NAL4","either","4","6790","","","32","","","","","","","","","","","","","","","","","","","","","","","","","","","","","","","","","","","","",""
"","text-replacement","16","220266","0.0-16.0","83869089","wem/bandit_party_2","A271IR0EM4NAL4","either","4","13521","","","32","","","","","","","","","","","","","","","","","","","","","","","","","","","","","","","","","","","","",""
"","text-replacement","17","223939","0.0-17.0","83869089","wem/bandit_party_2","A271IR0EM4NAL4","either","4","3669","","","32","","","","","","","","","","","","","","","","","","","","","","","","","","","","","","","","","","","","",""
"","bandit","18","226766","0.0-18.0-0.0","83869089","wem/bandit_party_2","A271IR0EM4NAL4","either","4","1318","","","","","","","1","0","0","0.8","","0.5","0.5","","","","","","","0.8","0.2","","","","","","","","","","","","74","J","0","img/none_selected_demo.jpg","true","0","80_20_practice",""
"","bandit","19","229033","0.0-18.0-1.0","83869089","wem/bandit_party_2","A271IR0EM4NAL4","either","4","758","","","","","","","0","1","0","","0.8","0.5","0.5","","","0.8","0.2","","","","","","","","","","","","","","","","74","J","0","img/none_selected_demo.jpg","true","0","80_20_practice",""
"","bandit","20","231214","0.0-18.0-2.0","83869089","wem/bandit_party_2","A271IR0EM4NAL4","either","4","675","","","","","","","0","1","0","","0.8","0.5","0.5","","","0.8","0.2","","","","","","","","","","","","","","","","74","J","0","img/none_selected_demo.jpg","true","0","80_20_practice",""
"","bandit","21","233472","0.0-18.0-3.0","83869089","wem/bandit_party_2","A271IR0EM4NAL4","either","4","749","","","","","","","0","0","1","","0.8","0.5","0.5","","","0.8","0.2","","","","","","","","","","","","","","","","74","J","0","img/none_selected_demo.jpg","true","0","80_20_practice",""
"","bandit","22","235692","0.0-18.0-4.0","83869089","wem/bandit_party_2","A271IR0EM4NAL4","either","4","713","","","","","","","0","0","1","0.2","","0.5","0.5","","","","","","","0.8","0.2","","","","","","","","","","","","75","K","1","","true","0","80_20_practice",""
"","bandit","23","237506","0.0-18.0-5.0","83869089","wem/bandit_party_2","A271IR0EM4NAL4","either","4","308","","","","","","","0","0","1","","0.2","0.5","0.5","","","0.8","0.2","","","","","","","","","","","","","","","","75","K","1","","true","0","80_20_practice",""
"","bandit","24","239587","0.0-18.0-6.0","83869089","wem/bandit_party_2","A271IR0EM4NAL4","either","4","573","","","","","","","0","0","1","0.8","","0.5","0.5","","","","","","","0.8","0.2","","","","","","","","","","","","74","J","0","img/none_selected_demo.jpg","true","0","80_20_practice",""
"","bandit","25","241340","0.0-18.0-7.0","83869089","wem/bandit_party_2","A271IR0EM4NAL4","either","4","244","","","","","","","0","0","1","","0.8","0.5","0.5","","","0.8","0.2","","","","","","","","","","","","","","","","74","J","0","img/none_selected_demo.jpg","true","0","80_20_practice",""
"","bandit","26","243242","0.0-18.0-8.0","83869089","wem/bandit_party_2","A271IR0EM4NAL4","either","4","394","","","","","","","0","1","0","","0.8","0.5","0.5","","","0.8","0.2","","","","","","","","","","","","","","","","74","J","0","img/none_selected_demo.jpg","true","0","80_20_practice",""
"","bandit","27","245792","0.0-18.0-9.0","83869089","wem/bandit_party_2","A271IR0EM4NAL4","either","4","1039","","","","","","","0","0","1","","0.8","0.5","0.5","","","0.8","0.2","","","","","","","","","","","","","","","","74","J","0","img/none_selected_demo.jpg","true","0","80_20_practice",""
"","bandit","28","247541","0.0-18.0-10.0","83869089","wem/bandit_party_2","A271IR0EM4NAL4","either","4","241","","","","","","","1","0","0","0.8","","0.5","0.5","","","","","","","0.8","0.2","","","","","","","","","","","","74","J","0","img/none_selected_demo.jpg","true","0","80_20_practice",""
"","bandit","29","249295","0.0-18.0-11.0","83869089","wem/bandit_party_2","A271IR0EM4NAL4","either","4","245","","","","","","","0","0","1","","0.8","0.5","0.5","","","0.8","0.2","","","","","","","","","","","","","","","","74","J","0","img/none_selected_demo.jpg","true","0","80_20_practice",""
"","bandit","30","251107","0.0-18.0-12.0","83869089","wem/bandit_party_2","A271IR0EM4NAL4","either","4","303","","","","","","","0","0","1","","0.2","0.5","0.5","","","0.8","0.2","","","","","","","","","","","","","","","","75","K","1","","true","0","80_20_practice",""
"","bandit","31","252879","0.0-18.0-13.0","83869089","wem/bandit_party_2","A271IR0EM4NAL4","either","4","263","","","","","","","0","0","1","","0.2","0.5","0.5","","","0.8","0.2","","","","","","","","","","","","","","","","75","K","1","","true","0","80_20_practice",""
"","bandit","32","254669","0.0-18.0-14.0","83869089","wem/bandit_party_2","A271IR0EM4NAL4","either","4","278","","","","","","","0","0","1","0.2","","0.5","0.5","","","","","","","0.8","0.2","","","","","","","","","","","","75","K","1","","true","0","80_20_practice",""
"","bandit","33","256476","0.0-18.0-15.0","83869089","wem/bandit_party_2","A271IR0EM4NAL4","either","4","297","","","","","","","0","0","1","","0.2","0.5","0.5","","","0.8","0.2","","","","","","","","","","","","","","","","75","K","1","","true","0","80_20_practice",""
"","bandit","34","258226","0.0-18.0-16.0","83869089","wem/bandit_party_2","A271IR0EM4NAL4","either","4","241","","","","","","","1","0","0","0.8","","0.5","0.5","","","","","","","0.8","0.2","","","","","","","","","","","","74","J","0","img/none_selected_demo.jpg","true","0","80_20_practice",""
"","bandit","35","261288","0.0-18.0-17.0","83869089","wem/bandit_party_2","A271IR0EM4NAL4","either","4","1553","","","","","","","1","0","0","0.8","","0.5","0.5","","","","","","","0.8","0.2","","","","","","","","","","","","74","J","0","img/none_selected_demo.jpg","true","0","80_20_practice",""
"","bandit","36","263266","0.0-18.0-18.0","83869089","wem/bandit_party_2","A271IR0EM4NAL4","either","4","469","","","","","","","0","0","1","0.8","","0.5","0.5","","","","","","","0.8","0.2","","","","","","","","","","","","74","J","0","img/none_selected_demo.jpg","true","0","80_20_practice",""
"","bandit","37","265025","0.0-18.0-19.0","83869089","wem/bandit_party_2","A271IR0EM4NAL4","either","4","247","","","","","","","1","0","0","0.8","","0.5","0.5","","","","","","","0.8","0.2","","","","","","","","","","","","74","J","0","img/none_selected_demo.jpg","true","0","80_20_practice",""
"","text-replacement","38","270511","0.0-19.0","83869089","wem/bandit_party_2","A271IR0EM4NAL4","either","4","5481","","","32","","","","","","","","","","","","","","","","","","","","","","","","","","","","","","","","","","","","",""
"","bandit","39","273539","0.0-20.0-0.0","83869089","wem/bandit_party_2","A271IR0EM4NAL4","either","4","1517","","","","","","","1","0","0","1","0","","","","","0","1","","","1","0","","","","","","","","","","","","74","J","0","img/none_selected_demo.jpg","true","0","",""
"","text-replacement","40","280319","0.0-21.0","83869089","wem/bandit_party_2","A271IR0EM4NAL4","either","4","6775","","","32","","","","","","","","","","","","","","","","","","","","","","","","","","","","","","","","","","","","",""
"","text-replacement","41","284783","0.0-22.0","83869089","wem/bandit_party_2","A271IR0EM4NAL4","either","4","4461","","","32","","","","","","","","","","","","","","","","","","","","","","","","","","","","","","","","","","","","",""
"","text-replacement","42","289689","0.0-23.0","83869089","wem/bandit_party_2","A271IR0EM4NAL4","either","4","4901","","","32","","","","","","","","","","","","","","","","","","","","","","","","","","","","","","","","","","","","",""
"","text-replacement","43","292792","0.0-24.0","83869089","wem/bandit_party_2","A271IR0EM4NAL4","either","4","3100","","","32","","","","","","","","","","","","","","","","","","","","","","","","","","","","","","","","","","","","",""
"","text-replacement","44","302962","0.0-25.0","83869089","wem/bandit_party_2","A271IR0EM4NAL4","either","4","10168","","","32","","","","","","","","","","","","","","","","","","","","","","","","","","","","","","","","","","","","",""
"","text-replacement","45","305917","0.0-26.0","83869089","wem/bandit_party_2","A271IR0EM4NAL4","either","4","2951","","","32","","","","","","","","","","","","","","","","","","","","","","","","","","","","","","","","","","","","",""
"","text-replacement","46","311020","0.0-27.0","83869089","wem/bandit_party_2","A271IR0EM4NAL4","either","4","5098","","","32","","","","","","","","","","","","","","","","","","","","","","","","","","","","","","","","","","","","",""
"","text-replacement","47","315040","0.0-28.0","83869089","wem/bandit_party_2","A271IR0EM4NAL4","either","4","4017","","","32","","","","","","","","","","","","","","","","","","","","","","","","","","","","","","","","","","","","",""
"","text-replacement","48","320339","0.0-29.0","83869089","wem/bandit_party_2","A271IR0EM4NAL4","either","4","5296","","","32","","","","","","","","","","","","","","","","","","","","","","","","","","","","","","","","","","","","",""
"","text-replacement","49","323988","0.0-30.0","83869089","wem/bandit_party_2","A271IR0EM4NAL4","either","4","3646","","","32","","","","","","","","","","","","","","","","","","","","","","","","","","","","","","","","","","","","",""
"","text-replacement","50","329479","0.0-31.0","83869089","wem/bandit_party_2","A271IR0EM4NAL4","either","4","5488","","","32","","","","","","","","","","","","","","","","","","","","","","","","","","","","","","","","","","","","",""
"","bandit","51","335599","0.0-32.0-0.0","83869089","wem/bandit_party_2","A271IR0EM4NAL4","either","4","4606","","","","","","","0","0","1","","0.8","0.5","0.5","0.5","0.5","0.8","0.2","0.6","0.2","","","","","","","","","","","","","","72","H","0","img/none_selected.jpg","true","0","full_practice",""
"","bandit","52","337446","0.0-32.0-1.0","83869089","wem/bandit_party_2","A271IR0EM4NAL4","either","4","337","","","","","","","0","0","1","","0.8","0.5","0.5","0.5","0.5","0.8","0.2","0.6","0.2","","","","","","","","","","","","","","72","H","0","img/none_selected.jpg","true","0","full_practice",""
"","bandit","53","339243","0.0-32.0-2.0","83869089","wem/bandit_party_2","A271IR0EM4NAL4","either","4","286","","","","","","","1","0","0","0.2","","0.5","0.5","0.5","0.5","","","","","0.8","0.2","0.6","0.2","","","","","","","","","","74","J","1","","true","0","full_practice",""
"","bandit","54","341038","0.0-32.0-3.0","83869089","wem/bandit_party_2","A271IR0EM4NAL4","either","4","285","","","","","","","0","0","1","0.2","","0.5","0.5","0.5","0.5","","","","","0.8","0.2","0.6","0.2","","","","","","","","","","74","J","1","","true","0","full_practice",""
"","bandit","55","342874","0.0-32.0-4.0","83869089","wem/bandit_party_2","A271IR0EM4NAL4","either","4","323","","","","","","","0","0","1","0.2","","0.5","0.5","0.5","0.5","","","","","0.8","0.2","0.6","0.2","","","","","","","","","","74","J","1","","true","0","full_practice",""
"","bandit","56","344686","0.0-32.0-5.0","83869089","wem/bandit_party_2","A271IR0EM4NAL4","either","4","302","","","","","","","1","0","0","0.8","","0.5","0.5","0.5","0.5","","","","","0.8","0.2","0.6","0.2","","","","","","","","","","72","H","0","img/none_selected.jpg","true","0","full_practice",""
"","bandit","57","347137","0.0-32.0-6.0","83869089","wem/bandit_party_2","A271IR0EM4NAL4","either","4","939","","","","","","","0","1","0","","0.6","0.5","0.5","0.5","0.5","0.8","0.2","0.6","0.2","","","","","","","","","","","","","","75","K","2","","true","0","full_practice",""
"","bandit","58","348971","0.0-32.0-7.0","83869089","wem/bandit_party_2","A271IR0EM4NAL4","either","4","323","","","","","","","0","0","1","0.6","","0.5","0.5","0.5","0.5","","","","","0.8","0.2","0.6","0.2","","","","","","","","","","75","K","2","","true","0","full_practice",""
"","bandit","59","350872","0.0-32.0-8.0","83869089","wem/bandit_party_2","A271IR0EM4NAL4","either","4","385","","","","","","","0","1","0","","0.6","0.5","0.5","0.5","0.5","0.8","0.2","0.6","0.2","","","","","","","","","","","","","","75","K","2","","true","0","full_practice",""
"","bandit","60","352843","0.0-32.0-9.0","83869089","wem/bandit_party_2","A271IR0EM4NAL4","either","4","462","","","","","","","0","0","1","","0.2","0.5","0.5","0.5","0.5","0.8","0.2","0.6","0.2","","","","","","","","","","","","","","76","L","3","","true","0","full_practice",""
"","bandit","61","354756","0.0-32.0-10.0","83869089","wem/bandit_party_2","A271IR0EM4NAL4","either","4","402","","","","","","","0","0","1","","0.2","0.5","0.5","0.5","0.5","0.8","0.2","0.6","0.2","","","","","","","","","","","","","","76","L","3","","true","0","full_practice",""
"","bandit","62","356558","0.0-32.0-11.0","83869089","wem/bandit_party_2","A271IR0EM4NAL4","either","4","292","","","","","","","1","0","0","0.2","","0.5","0.5","0.5","0.5","","","","","0.8","0.2","0.6","0.2","","","","","","","","","","76","L","3","","true","0","full_practice",""
"","bandit","63","358350","0.0-32.0-12.0","83869089","wem/bandit_party_2","A271IR0EM4NAL4","either","4","280","","","","","","","1","0","0","0.6","","0.5","0.5","0.5","0.5","","","","","0.8","0.2","0.6","0.2","","","","","","","","","","75","K","2","","true","0","full_practice",""
"","bandit","64","360133","0.0-32.0-13.0","83869089","wem/bandit_party_2","A271IR0EM4NAL4","either","4","273","","","","","","","0","1","0","","0.6","0.5","0.5","0.5","0.5","0.8","0.2","0.6","0.2","","","","","","","","","","","","","","75","K","2","","true","0","full_practice",""
"","bandit","65","361896","0.0-32.0-14.0","83869089","wem/bandit_party_2","A271IR0EM4NAL4","either","4","250","","","","","","","0","0","1","0.6","","0.5","0.5","0.5","0.5","","","","","0.8","0.2","0.6","0.2","","","","","","","","","","75","K","2","","true","0","full_practice",""
"","bandit","66","363639","0.0-32.0-15.0","83869089","wem/bandit_party_2","A271IR0EM4NAL4","either","4","230","","","","","","","1","0","0","0.6","","0.5","0.5","0.5","0.5","","","","","0.8","0.2","0.6","0.2","","","","","","","","","","75","K","2","","true","0","full_practice",""
"","bandit","67","365692","0.0-32.0-16.0","83869089","wem/bandit_party_2","A271IR0EM4NAL4","either","4","546","","","","","","","0","1","0","","0.6","0.5","0.5","0.5","0.5","0.8","0.2","0.6","0.2","","","","","","","","","","","","","","75","K","2","","true","0","full_practice",""
"","bandit","68","367620","0.0-32.0-17.0","83869089","wem/bandit_party_2","A271IR0EM4NAL4","either","4","415","","","","","","","0","0","1","","0.6","0.5","0.5","0.5","0.5","0.8","0.2","0.6","0.2","","","","","","","","","","","","","","75","K","2","","true","0","full_practice",""
"","bandit","69","370112","0.0-32.0-18.0","83869089","wem/bandit_party_2","A271IR0EM4NAL4","either","4","982","","","","","","","0","1","0","","0.6","0.5","0.5","0.5","0.5","0.8","0.2","0.6","0.2","","","","","","","","","","","","","","75","K","2","","true","0","full_practice",""
"","bandit","70","372316","0.0-32.0-19.0","83869089","wem/bandit_party_2","A271IR0EM4NAL4","either","4","693","","","","","","","0","0","1","0.6","","0.5","0.5","0.5","0.5","","","","","0.8","0.2","0.6","0.2","","","","","","","","","","75","K","2","","true","0","full_practice",""
"","text","71","375069","0.0-33.0","83869089","wem/bandit_party_2","A271IR0EM4NAL4","either","4","2733","","","32","","","","","","","","","","","","","","","","","","","","","","","","","","","","","","","","","","","","",""
"","text-replacement","72","389349","0.0-34.0","83869089","wem/bandit_party_2","A271IR0EM4NAL4","either","4","13276","","","32","","","","","","","","","","","","","","","","","","","","","","","","","","","","","","","","","","","","",""
"","text-replacement","73","403271","0.0-35.0","83869089","wem/bandit_party_2","A271IR0EM4NAL4","either","4","13917","","","32","","","","","","","","","","","","","","","","","","","","","","","","","","","","","","","","","","","","",""
"","text-replacement","74","409906","0.0-36.0","83869089","wem/bandit_party_2","A271IR0EM4NAL4","either","4","6630","","","32","","","","","","","","","","","","","","","","","","","","","","","","","","","","","","","","","","","","",""
"","text-replacement","75","415287","0.0-37.0","83869089","wem/bandit_party_2","A271IR0EM4NAL4","either","4","5377","","","32","","","","","","","","","","","","","","","","","","","","","","","","","","","","","","","","","","","","",""
"","text-replacement","76","420267","0.0-38.0","83869089","wem/bandit_party_2","A271IR0EM4NAL4","either","4","4976","","","32","","","","","","","","","","","","","","","","","","","","","","","","","","","","","","","","","","","","",""
"","survey-multi-choice-replacement","77","428258","0.0-39.0-0.0","83869089","wem/bandit_party_2","A271IR0EM4NAL4","either","4","7976","","","","","","","","","","","","","","","","","","","","","","","","Money will be added to the pool for <span style='color:red;'>REPUBLICANS</span>","","","","","","","attn_check","","","","","","","","","0"
"","survey-multi-choice-replacement","78","433533","0.0-40.0-0.0","83869089","wem/bandit_party_2","A271IR0EM4NAL4","either","4","4257","","","","","","","","","","","","","","","","","","","","","","","","Equal amounts of money will be added to the pool for <span style='color:red;'>REPUBLICANS</span> and subtracted from the pool for <span style='color:blue;'>DEMOCRATS</span>","","","","","","","attn_check","","","","","","","","","2"
"","survey-multi-choice-replacement","79","437604","0.0-41.0-0.0","83869089","wem/bandit_party_2","A271IR0EM4NAL4","either","4","3058","","","","","","","","","","","","","","","","","","","","","","","","No money will be added to either pool","","","","","","","attn_check","","","","","","","","","3"
"","bandit","80","444156","0.0-42.0-0.0","83869089","wem/bandit_party_2","A271IR0EM4NAL4","either","4","4031","","","","","","","1","0","0","0.7267404998","","0.8","0.2","0.4","0.6","","","","","0.7267404998","0.8209843215","0.2887693562","0.9858900825","","","","","","","","","","72","H","0","img/none_selected.jpg","","1","main_expt",""
"","bandit","81","445948","0.0-43.0-0.0","83869089","wem/bandit_party_2","A271IR0EM4NAL4","either","4","280","","","","","","","1","0","0","0.7034907646","","0.8","0.2","0.4","0.6","","","","","0.7034907646","0.8179122382","0.2986217167","0.9854924354","","","","","","","","","","72","H","0","img/none_selected.jpg","","2","main_expt",""
"","bandit","82","447975","0.0-44.0-0.0","83869089","wem/bandit_party_2","A271IR0EM4NAL4","either","4","515","","","","","","","1","0","0","0.6574847675","","0.8","0.2","0.4","0.6","","","","","0.6574847675","0.8301291561","0.261346942","0.9789624529","","","","","","","","","","72","H","0","img/none_selected.jpg","","3","main_expt",""
"","bandit","83","449769","0.0-45.0-0.0","83869089","wem/bandit_party_2","A271IR0EM4NAL4","either","4","282","","","","","","","1","0","0","0.5092805277","","0.8","0.2","0.4","0.6","","","","","0.5092805277","0.8219157537","0.2757740293","0.9565345184","","","","","","","","","","72","H","0","img/none_selected.jpg","","4","main_expt",""
"","bandit","84","451573","0.0-46.0-0.0","83869089","wem/bandit_party_2","A271IR0EM4NAL4","either","4","291","","","","","","","1","0","0","0.5952926025","","0.8","0.2","0.4","0.6","","","","","0.5952926025","0.7759220463","0.3329857669","0.941194936","","","","","","","","","","72","H","0","img/none_selected.jpg","","5","main_expt",""
"","bandit","85","453397","0.0-47.0-0.0","83869089","wem/bandit_party_2","A271IR0EM4NAL4","either","4","313","","","","","","","1","0","0","0.6160758637","","0.8","0.2","0.4","0.6","","","","","0.6160758637","0.7495930044","0.331878758","0.9305219143","","","","","","","","","","72","H","0","img/none_selected.jpg","","6","main_expt",""
"","bandit","86","455365","0.0-48.0-0.0","83869089","wem/bandit_party_2","A271IR0EM4NAL4","either","4","458","","","","","","","1","0","0","0.6381806331","","0.8","0.2","0.4","0.6","","","","","0.6381806331","0.7078030286","0.3863389794","0.937738562","","","","","","","","","","72","H","0","img/none_selected.jpg","","7","main_expt",""
"","bandit","87","457266","0.0-49.0-0.0","83869089","wem/bandit_party_2","A271IR0EM4NAL4","either","4","387","","","","","","","0","1","0","","0.7047831713","0.8","0.2","0.4","0.6","0.7047831713","0.689407674","0.4242016385","0.8269671957","","","","","","","","","","","","","","72","H","0","img/none_selected.jpg","","8","main_expt",""
"","bandit","88","459285","0.0-50.0-0.0","83869089","wem/bandit_party_2","A271IR0EM4NAL4","either","4","506","","","","","","","0","0","1","0.6222923336","","0.8","0.2","0.4","0.6","","","","","0.6222923336","0.7848236408","0.379169242","0.7696709776","","","","","","","","","","72","H","0","img/none_selected.jpg","","9","main_expt",""
"","bandit","89","461131","0.0-51.0-0.0","83869089","wem/bandit_party_2","A271IR0EM4NAL4","either","4","330","","","","","","","0","0","1","0.5629201009","","0.8","0.2","0.4","0.6","","","","","0.5629201009","0.791363481","0.40569916","0.7313552403","","","","","","","","","","72","H","0","img/none_selected.jpg","","10","main_expt",""
"","bandit","90","462939","0.0-52.0-0.0","83869089","wem/bandit_party_2","A271IR0EM4NAL4","either","4","294","","","","","","","1","0","0","0.644159789","","0.8","0.2","0.4","0.6","","","","","0.644159789","0.7800632456","0.4188021694","0.8129169819","","","","","","","","","","72","H","0","img/none_selected.jpg","","11","main_expt",""
"","bandit","91","464779","0.0-53.0-0.0","83869089","wem/bandit_party_2","A271IR0EM4NAL4","either","4","328","","","","","","","1","0","0","0.6840372722","","0.8","0.2","0.4","0.6","","","","","0.6840372722","0.7559884596","0.3689559917","0.7611571711","","","","","","","","","","72","H","0","img/none_selected.jpg","","12","main_expt",""
"","bandit","92","466674","0.0-54.0-0.0","83869089","wem/bandit_party_2","A271IR0EM4NAL4","either","4","384","","","","","","","0","1","0","","0.6236151953","0.8","0.2","0.4","0.6","0.6236151953","0.7695577991","0.4584943612","0.7628417147","","","","","","","","","","","","","","72","H","0","img/none_selected.jpg","","13","main_expt",""
"","bandit","93","468575","0.0-55.0-0.0","83869089","wem/bandit_party_2","A271IR0EM4NAL4","either","4","389","","","","","","","1","0","0","0.5388331182","","0.8","0.2","0.4","0.6","","","","","0.5388331182","0.8509931145","0.455083938","0.7436451733","","","","","","","","","","72","H","0","img/none_selected.jpg","","14","main_expt",""
"","bandit","94","470451","0.0-56.0-0.0","83869089","wem/bandit_party_2","A271IR0EM4NAL4","either","4","365","","","","","","","1","0","0","0.4802769188","","0.8","0.2","0.4","0.6","","","","","0.4802769188","0.7745856811","0.5360112786","0.8256008488","","","","","","","","","","72","H","0","img/none_selected.jpg","","15","main_expt",""
"","bandit","95","472763","0.0-57.0-0.0","83869089","wem/bandit_party_2","A271IR0EM4NAL4","either","4","801","","","","","","","1","0","0","0.4688000192","","0.8","0.2","0.4","0.6","","","","","0.4688000192","0.7576521113","0.4791571541","0.7683027423","","","","","","","","","","72","H","0","img/none_selected.jpg","","16","main_expt",""
"","bandit","96","475014","0.0-58.0-0.0","83869089","wem/bandit_party_2","A271IR0EM4NAL4","either","4","737","","","","","","","1","0","0","0.6000602573","","0.8","0.2","0.4","0.6","","","","","0.6000602573","0.8099558365","0.5263630166","0.7857675768","","","","","","","","","","72","H","0","img/none_selected.jpg","","17","main_expt",""
"","bandit","97","477259","0.0-59.0-0.0","83869089","wem/bandit_party_2","A271IR0EM4NAL4","either","4","733","","","","","","","1","0","0","0.6046592687","","0.8","0.2","0.4","0.6","","","","","0.6046592687","0.7535280451","0.543945959","0.7303419725","","","","","","","","","","72","H","0","img/none_selected.jpg","","18","main_expt",""
"","bandit","98","479393","0.0-60.0-0.0","83869089","wem/bandit_party_2","A271IR0EM4NAL4","either","4","619","","","","","","","0","0","1","0.6177236116","","0.8","0.2","0.4","0.6","","","","","0.6177236116","0.7206444799","0.4579801682","0.7243255268","","","","","","","","","","72","H","0","img/none_selected.jpg","","19","main_expt",""
"","bandit","99","481310","0.0-61.0-0.0","83869089","wem/bandit_party_2","A271IR0EM4NAL4","either","4","404","","","","","","","1","0","0","0.5484637992","","0.8","0.2","0.4","0.6","","","","","0.5484637992","0.6388551968","0.5439896582","0.7691283854","","","","","","","","","","72","H","0","img/none_selected.jpg","","20","main_expt",""
"","bandit","100","483602","0.0-62.0-0.0","83869089","wem/bandit_party_2","A271IR0EM4NAL4","either","4","780","","","","","","","0","0","1","0.6646151354","","0.8","0.2","0.4","0.6","","","","","0.6646151354","0.4956822649","0.5796019833","0.7068464658","","","","","","","","","","72","H","0","img/none_selected.jpg","","21","main_expt",""
"","bandit","101","485444","0.0-63.0-0.0","83869089","wem/bandit_party_2","A271IR0EM4NAL4","either","4","330","","","","","","","0","0","1","0.7223938077","","0.8","0.2","0.4","0.6","","","","","0.7223938077","0.4316307404","0.5885929095","0.7407239748","","","","","","","","","","72","H","0","img/none_selected.jpg","","22","main_expt",""
"","bandit","102","487437","0.0-64.0-0.0","83869089","wem/bandit_party_2","A271IR0EM4NAL4","either","4","481","","","","","","","0","0","1","0.7548690184","","0.8","0.2","0.4","0.6","","","","","0.7548690184","0.4158022912","0.4899642796","0.7300920021","","","","","","","","","","72","H","0","img/none_selected.jpg","","23","main_expt",""
"","bandit","103","489348","0.0-65.0-0.0","83869089","wem/bandit_party_2","A271IR0EM4NAL4","either","4","400","","","","","","","1","0","0","0.7794954679","","0.8","0.2","0.4","0.6","","","","","0.7794954679","0.4099928258","0.4984159311","0.7074307303","","","","","","","","","","72","H","0","img/none_selected.jpg","","24","main_expt",""
"","bandit","104","491481","0.0-66.0-0.0","83869089","wem/bandit_party_2","A271IR0EM4NAL4","either","4","621","","","","","","","1","0","0","0.8029664172","","0.8","0.2","0.4","0.6","","","","","0.8029664172","0.4303724308","0.5885503773","0.6228099684","","","","","","","","","","72","H","0","img/none_selected.jpg","","25","main_expt",""
"","bandit","105","493364","0.0-67.0-0.0","83869089","wem/bandit_party_2","A271IR0EM4NAL4","either","4","366","","","","","","","0","0","1","","0.6980766755","0.8","0.2","0.4","0.6","0.6980766755","0.3291624114","0.6978100054","0.5588879168","","","","","","","","","","","","","","72","H","0","img/none_selected.jpg","","26","main_expt",""
"","bandit","106","495154","0.0-68.0-0.0","83869089","wem/bandit_party_2","A271IR0EM4NAL4","either","4","277","","","","","","","0","0","1","0.7021498626","","0.8","0.2","0.4","0.6","","","","","0.7021498626","0.3795789415","0.6442468271","0.5033257713","","","","","","","","","","72","H","0","img/none_selected.jpg","","27","main_expt",""
"","bandit","107","496921","0.0-69.0-0.0","83869089","wem/bandit_party_2","A271IR0EM4NAL4","either","4","257","","","","","","","0","1","0","","0.7802436781","0.8","0.2","0.4","0.6","0.7802436781","0.3208573938","0.7399213538","0.4915102133","","","","","","","","","","","","","","72","H","0","img/none_selected.jpg","","28","main_expt",""
"","bandit","108","498987","0.0-70.0-0.0","83869089","wem/bandit_party_2","A271IR0EM4NAL4","either","4","552","","","","","","","1","0","0","0.6907923131","","0.8","0.2","0.4","0.6","","","","","0.6907923131","0.3352919619","0.7520253205","0.4291187576","","","","","","","","","","72","H","0","img/none_selected.jpg","","29","main_expt",""
"","bandit","109","501096","0.0-71.0-0.0","83869089","wem/bandit_party_2","A271IR0EM4NAL4","either","4","597","","","","","","","0","0","1","0.6771306444","","0.8","0.2","0.4","0.6","","","","","0.6771306444","0.3452717309","0.7528469829","0.5379907803","","","","","","","","","","72","H","0","img/none_selected.jpg","","30","main_expt",""
"","bandit","110","503548","0.0-72.0-0.0","83869089","wem/bandit_party_2","A271IR0EM4NAL4","either","4","937","","","","","","","1","0","0","0.7130915948","","0.8","0.2","0.4","0.6","","","","","0.7130915948","0.2967094522","0.7571908429","0.646046857","","","","","","","","","","72","H","0","img/none_selected.jpg","","31","main_expt",""
"","bandit","111","505984","0.0-73.0-0.0","83869089","wem/bandit_party_2","A271IR0EM4NAL4","either","4","928","","","","","","","0","1","0","","0.6849190202","0.8","0.2","0.4","0.6","0.6849190202","0.255781972","0.7530934884","0.5608885347","","","","","","","","","","","","","","72","H","0","img/none_selected.jpg","","32","main_expt",""
"","bandit","112","508420","0.0-74.0-0.0","83869089","wem/bandit_party_2","A271IR0EM4NAL4","either","4","922","","","","","","","1","0","0","0.7392612035","","0.8","0.2","0.4","0.6","","","","","0.7392612035","0.2703771925","0.7163673585","0.5952322697","","","","","","","","","","72","H","0","img/none_selected.jpg","","33","main_expt",""
"","bandit","113","511795","0.0-75.0-0.0","83869089","wem/bandit_party_2","A271IR0EM4NAL4","either","4","1860","","","","","","","1","0","0","0.7026009082","","0.8","0.2","0.4","0.6","","","","","0.7026009082","0.3572673824","0.6817248107","0.6206609301","","","","","","","","","","72","H","0","img/none_selected.jpg","","34","main_expt",""
"","bandit","114","514708","0.0-76.0-0.0","83869089","wem/bandit_party_2","A271IR0EM4NAL4","either","4","1398","","","","","","","0","0","1","0.632003728","","0.8","0.2","0.4","0.6","","","","","0.632003728","0.3237575066","0.6903641832","0.6223058769","","","","","","","","","","72","H","0","img/none_selected.jpg","","35","main_expt",""
"","bandit","115","516935","0.0-77.0-0.0","83869089","wem/bandit_party_2","A271IR0EM4NAL4","either","4","715","","","","","","","0","0","1","0.7266912659","","0.8","0.2","0.4","0.6","","","","","0.7266912659","0.3724209237","0.6953747248","0.7304722347","","","","","","","","","","72","H","0","img/none_selected.jpg","","36","main_expt",""
"","bandit","116","519061","0.0-78.0-0.0","83869089","wem/bandit_party_2","A271IR0EM4NAL4","either","4","617","","","","","","","0","0","1","0.5512211225","","0.8","0.2","0.4","0.6","","","","","0.5512211225","0.3848591071","0.7552078918","0.6789706255","","","","","","","","","","72","H","0","img/none_selected.jpg","","37","main_expt",""
"","bandit","117","520909","0.0-79.0-0.0","83869089","wem/bandit_party_2","A271IR0EM4NAL4","either","4","335","","","","","","","0","0","1","0.5888446875","","0.8","0.2","0.4","0.6","","","","","0.5888446875","0.4026628424","0.7095976639","0.6758320082","","","","","","","","","","72","H","0","img/none_selected.jpg","","38","main_expt",""
"","bandit","118","523172","0.0-80.0-0.0","83869089","wem/bandit_party_2","A271IR0EM4NAL4","either","4","753","","","","","","","0","0","1","","0.460229008","0.8","0.2","0.4","0.6","0.7349010221","0.460229008","0.7813817897","0.753286291","","","","","","","","","","","","","","74","J","1","","","39","main_expt",""
"","bandit","119","525051","0.0-81.0-0.0","83869089","wem/bandit_party_2","A271IR0EM4NAL4","either","4","367","","","","","","","0","1","0","","0.3392787789","0.8","0.2","0.4","0.6","0.6715391024","0.3392787789","0.7604460558","0.7527041006","","","","","","","","","","","","","","74","J","1","","","40","main_expt",""
"","bandit","120","527189","0.0-82.0-0.0","83869089","wem/bandit_party_2","A271IR0EM4NAL4","either","4","622","","","","","","","0","0","1","","0.2983701942","0.8","0.2","0.4","0.6","0.688235262","0.2983701942","0.7588214983","0.7900808451","","","","","","","","","","","","","","74","J","1","","","41","main_expt",""
"","bandit","121","531388","0.0-83.0-0.0","83869089","wem/bandit_party_2","A271IR0EM4NAL4","either","4","2685","","","","","","","0","0","1","0.2390858253","","0.8","0.2","0.4","0.6","","","","","0.750516412","0.2390858253","0.8204813903","0.7261157662","","","","","","","","","","74","J","1","","","42","main_expt",""
"","bandit","122","534627","0.0-84.0-0.0","83869089","wem/bandit_party_2","A271IR0EM4NAL4","either","4","1723","","","","","","","0","1","0","","0.8310219988","0.8","0.2","0.4","0.6","0.775378891","0.1877526289","0.8310219988","0.772887471","","","","","","","","","","","","","","75","K","2","","","43","main_expt",""
"","bandit","123","536556","0.0-85.0-0.0","83869089","wem/bandit_party_2","A271IR0EM4NAL4","either","4","415","","","","","","","0","1","0","","0.8165903167","0.8","0.2","0.4","0.6","0.5983035632","0.2713877418","0.8165903167","0.7359848823","","","","","","","","","","","","","","75","K","2","","","44","main_expt",""
"","bandit","124","538460","0.0-86.0-0.0","83869089","wem/bandit_party_2","A271IR0EM4NAL4","either","4","391","","","","","","","0","0","1","0.6765015189","","0.8","0.2","0.4","0.6","","","","","0.6453890447","0.2600408605","0.6765015189","0.6223954065","","","","","","","","","","75","K","2","","","45","main_expt",""
"","bandit","125","540266","0.0-87.0-0.0","83869089","wem/bandit_party_2","A271IR0EM4NAL4","either","4","294","","","","","","","1","0","0","0.6613510417","","0.8","0.2","0.4","0.6","","","","","0.4979639723","0.2435580982","0.6613510417","0.5963379238","","","","","","","","","","75","K","2","","","46","main_expt",""
"","bandit","126","542087","0.0-88.0-0.0","83869089","wem/bandit_party_2","A271IR0EM4NAL4","either","4","306","","","","","","","0","0","1","0.7373034573","","0.8","0.2","0.4","0.6","","","","","0.4475739324","0.3258971046","0.7373034573","0.6161308884","","","","","","","","","","75","K","2","","","47","main_expt",""
"","bandit","127","543815","0.0-89.0-0.0","83869089","wem/bandit_party_2","A271IR0EM4NAL4","either","4","217","","","","","","","0","1","0","","0.6580913366","0.8","0.2","0.4","0.6","0.570942939","0.2934977076","0.6580913366","0.6354722558","","","","","","","","","","","","","","75","K","2","","","48","main_expt",""
"","bandit","128","545911","0.0-90.0-0.0","83869089","wem/bandit_party_2","A271IR0EM4NAL4","either","4","580","","","","","","","1","0","0","0.6518545324","","0.8","0.2","0.4","0.6","","","","","0.5943858444","0.3381222087","0.6518545324","0.5941747261","","","","","","","","","","75","K","2","","","49","main_expt",""
"","bandit","129","548254","0.0-91.0-0.0","83869089","wem/bandit_party_2","A271IR0EM4NAL4","either","4","829","","","","","","","0","1","0","","0.6362385309","0.8","0.2","0.4","0.6","0.72156704","0.4149653651","0.6362385309","0.5510631732","","","","","","","","","","","","","","75","K","2","","","50","main_expt",""
"","bandit","130","550512","0.0-92.0-0.0","83869089","wem/bandit_party_2","A271IR0EM4NAL4","either","4","742","","","","","","","0","1","0","","0.6673370403","0.8","0.2","0.4","0.6","0.6453884322","0.315936401","0.6673370403","0.5580995271","","","","","","","","","","","","","","75","K","2","","","51","main_expt",""
"","bandit","131","552703","0.0-93.0-0.0","83869089","wem/bandit_party_2","A271IR0EM4NAL4","either","4","677","","","","","","","0","1","0","","0.6614759556","0.8","0.2","0.4","0.6","0.635653338","0.34776451","0.6614759556","0.4492126091","","","","","","","","","","","","","","75","K","2","","","52","main_expt",""
"","bandit","132","554965","0.0-94.0-0.0","83869089","wem/bandit_party_2","A271IR0EM4NAL4","either","4","750","","","","","","","0","1","0","","0.5099009019","0.8","0.2","0.4","0.6","0.5700640027","0.2946288454","0.5099009019","0.4600129001","","","","","","","","","","","","","","75","K","2","","","53","main_expt",""
"","bandit","133","557127","0.0-95.0-0.0","83869089","wem/bandit_party_2","A271IR0EM4NAL4","either","4","645","","","","","","","0","0","1","","0.5323874036","0.8","0.2","0.4","0.6","0.4535518587","0.3757560715","0.5323874036","0.4005354829","","","","","","","","","","","","","","75","K","2","","","54","main_expt",""
"","bandit","134","559309","0.0-96.0-0.0","83869089","wem/bandit_party_2","A271IR0EM4NAL4","either","4","675","","","","","","","1","0","0","0.5410243768","","0.8","0.2","0.4","0.6","","","","","0.4271895083","0.3258455482","0.5410243768","0.3305694417","","","","","","","","","","75","K","2","","","55","main_expt",""
"","bandit","135","561221","0.0-97.0-0.0","83869089","wem/bandit_party_2","A271IR0EM4NAL4","either","4","396","","","","","","","0","0","1","","0.5594159285","0.8","0.2","0.4","0.6","0.3506641683","0.4350401219","0.5594159285","0.3443449075","","","","","","","","","","","","","","75","K","2","","","56","main_expt",""
"","bandit","136","563171","0.0-98.0-0.0","83869089","wem/bandit_party_2","A271IR0EM4NAL4","either","4","436","","","","","","","0","1","0","","0.5057935102","0.8","0.2","0.4","0.6","0.3266461122","0.3707313189","0.5057935102","0.3719720486","","","","","","","","","","","","","","75","K","2","","","57","main_expt",""
"","bandit","137","565486","0.0-99.0-0.0","83869089","wem/bandit_party_2","A271IR0EM4NAL4","either","4","801","","","","","","","1","0","0","0.4921421838","","0.8","0.2","0.4","0.6","","","","","0.3024401834","0.5588799977","0.4921421838","0.2230753252","","","","","","","","","","75","K","2","","","58","main_expt",""
"","bandit","138","569096","0.0-100.0-0.0","83869089","wem/bandit_party_2","A271IR0EM4NAL4","either","4","2100","","","","","","","0","0","1","","0.4740341295","0.8","0.2","0.4","0.6","0.4306619987","0.6863198467","0.4740341295","0.2255195526","","","","","","","","","","","","","","75","K","2","","","59","main_expt",""
"","bandit","139","571728","0.0-101.0-0.0","83869089","wem/bandit_party_2","A271IR0EM4NAL4","either","4","1122","","","","","","","0","0","1","0.4853159436","","0.8","0.2","0.4","0.6","","","","","0.4710521126","0.6998437478","0.4853159436","0.2150487889","","","","","","","","","","75","K","2","","","60","main_expt",""
"","bandit","140","573744","0.0-102.0-0.0","83869089","wem/bandit_party_2","A271IR0EM4NAL4","either","4","502","","","","","","","0","0","1","","0.4843563089","0.8","0.2","0.4","0.6","0.4797168847","0.7027468204","0.4843563089","0.2670703017","","","","","","","","","","","","","","75","K","2","","","61","main_expt",""
"","bandit","141","575585","0.0-103.0-0.0","83869089","wem/bandit_party_2","A271IR0EM4NAL4","either","4","326","","","","","","","0","0","1","0.1622034337","","0.8","0.2","0.4","0.6","","","","","0.441351191","0.7461433662","0.4970562682","0.1622034337","","","","","","","","","","76","L","3","","","62","main_expt",""
"","bandit","142","577604","0.0-104.0-0.0","83869089","wem/bandit_party_2","A271IR0EM4NAL4","either","4","505","","","","","","","0","0","1","","0.1872430185","0.8","0.2","0.4","0.6","0.6405696824","0.7956877632","0.4870743105","0.1872430185","","","","","","","","","","","","","","76","L","3","","","63","main_expt",""
"","bandit","143","579500","0.0-105.0-0.0","83869089","wem/bandit_party_2","A271IR0EM4NAL4","either","4","381","","","","","","","1","0","0","0.1921602407","","0.8","0.2","0.4","0.6","","","","","0.5093225209","0.7533911137","0.5297884171","0.1921602407","","","","","","","","","","76","L","3","","","64","main_expt",""
"","bandit","144","581391","0.0-106.0-0.0","83869089","wem/bandit_party_2","A271IR0EM4NAL4","either","4","377","","","","","","","1","0","0","0.1747679693","","0.8","0.2","0.4","0.6","","","","","0.5190422554","0.8407665504","0.5510281753","0.1747679693","","","","","","","","","","76","L","3","","","65","main_expt",""
"","bandit","145","583451","0.0-107.0-0.0","83869089","wem/bandit_party_2","A271IR0EM4NAL4","either","4","544","","","","","","","0","0","1","0.149475979","","0.8","0.2","0.4","0.6","","","","","0.4367989657","0.8392190168","0.6548378986","0.149475979","","","","","","","","","","76","L","3","","","66","main_expt",""
"","bandit","146","585487","0.0-108.0-0.0","83869089","wem/bandit_party_2","A271IR0EM4NAL4","either","4","524","","","","","","","0","0","1","0.4515976155","","0.8","0.2","0.4","0.6","","","","","0.4515976155","0.7998105719","0.7873643744","0.1340316754","","","","","","","","","","72","H","0","img/none_selected.jpg","","67","main_expt",""
"","bandit","147","587362","0.0-109.0-0.0","83869089","wem/bandit_party_2","A271IR0EM4NAL4","either","4","358","","","","","","","0","0","1","0.4605235732","","0.8","0.2","0.4","0.6","","","","","0.4605235732","0.8055175736","0.8374830125","0.1635100664","","","","","","","","","","72","H","0","img/none_selected.jpg","","68","main_expt",""
"","bandit","148","589241","0.0-110.0-0.0","83869089","wem/bandit_party_2","A271IR0EM4NAL4","either","4","366","","","","","","","1","0","0","0.3799115548","","0.8","0.2","0.4","0.6","","","","","0.3799115548","0.9157616325","0.7948054761","0.1227365859","","","","","","","","","","72","H","0","img/none_selected.jpg","","69","main_expt",""
"","bandit","149","591596","0.0-111.0-0.0","83869089","wem/bandit_party_2","A271IR0EM4NAL4","either","4","840","","","","","","","1","0","0","0.4215965018","","0.8","0.2","0.4","0.6","","","","","0.4215965018","0.9575411193","0.8257183208","0.1248437045","","","","","","","","","","72","H","0","img/none_selected.jpg","","70","main_expt",""
"","bandit","150","593621","0.0-112.0-0.0","83869089","wem/bandit_party_2","A271IR0EM4NAL4","either","4","512","","","","","","","0","0","1","","0.4069040491","0.8","0.2","0.4","0.6","0.4069040491","0.9604429572","0.7378076352","0.1153860856","","","","","","","","","","","","","","72","H","0","img/none_selected.jpg","","71","main_expt",""
"","bandit","151","595619","0.0-113.0-0.0","83869089","wem/bandit_party_2","A271IR0EM4NAL4","either","4","484","","","","","","","1","0","0","0.4396577013","","0.8","0.2","0.4","0.6","","","","","0.4396577013","0.9598545795","0.7402058239","0.1355011504","","","","","","","","","","72","H","0","img/none_selected.jpg","","72","main_expt",""
"","bandit","152","597494","0.0-114.0-0.0","83869089","wem/bandit_party_2","A271IR0EM4NAL4","either","4","361","","","","","","","1","0","0","0.6562772762","","0.8","0.2","0.4","0.6","","","","","0.6562772762","0.944667289","0.6976791507","0.05996807606","","","","","","","","","","72","H","0","img/none_selected.jpg","","73","main_expt",""
"","bandit","153","599359","0.0-115.0-0.0","83869089","wem/bandit_party_2","A271IR0EM4NAL4","either","4","345","","","","","","","0","1","0","","0.6973429816","0.8","0.2","0.4","0.6","0.6973429816","0.9226304804","0.7918365236","0.05405538329","","","","","","","","","","","","","","72","H","0","img/none_selected.jpg","","74","main_expt",""
"","bandit","154","601455","0.0-116.0-0.0","83869089","wem/bandit_party_2","A271IR0EM4NAL4","either","4","580","","","","","","","1","0","0","0.7736122178","","0.8","0.2","0.4","0.6","","","","","0.7736122178","0.9398646798","0.7822783488","0.02989929625","","","","","","","","","","72","H","0","img/none_selected.jpg","","75","main_expt",""
"","bandit","155","603434","0.0-117.0-0.0","83869089","wem/bandit_party_2","A271IR0EM4NAL4","either","4","465","","","","","","","1","0","0","0.8130420724","","0.8","0.2","0.4","0.6","","","","","0.8130420724","0.9344412274","0.7290889389","0.0563551135","","","","","","","","","","72","H","0","img/none_selected.jpg","","76","main_expt",""
"","bandit","156","606029","0.0-118.0-0.0","83869089","wem/bandit_party_2","A271IR0EM4NAL4","either","4","1081","","","","","","","0","0","1","","0.8182773084","0.8","0.2","0.4","0.6","0.8182773084","0.9512527415","0.7903383215","0.0510075381","","","","","","","","","","","","","","72","H","0","img/none_selected.jpg","","77","main_expt",""
"","bandit","157","607851","0.0-119.0-0.0","83869089","wem/bandit_party_2","A271IR0EM4NAL4","either","4","306","","","","","","","1","0","0","0.910984946","","0.8","0.2","0.4","0.6","","","","","0.910984946","0.945324638","0.8093770606","0.07280641377","","","","","","","","","","72","H","0","img/none_selected.jpg","","78","main_expt",""
"","bandit","158","610486","0.0-120.0-0.0","83869089","wem/bandit_party_2","A271IR0EM4NAL4","either","4","1117","","","","","","","1","0","0","0.9303795674","","0.8","0.2","0.4","0.6","","","","","0.9303795674","0.9313693401","0.7310189459","0.06591604593","","","","","","","","","","72","H","0","img/none_selected.jpg","","79","main_expt",""
"","bandit","159","612651","0.0-121.0-0.0","83869089","wem/bandit_party_2","A271IR0EM4NAL4","either","4","649","","","","","","","0","1","0","","0.9581515868","0.8","0.2","0.4","0.6","0.9581515868","0.9272018461","0.7915113188","0.02790121052","","","","","","","","","","","","","","72","H","0","img/none_selected.jpg","","80","main_expt",""
"","bandit","160","614791","0.0-122.0-0.0","83869089","wem/bandit_party_2","A271IR0EM4NAL4","either","4","626","","","","","","","1","0","0","0.9107397581","","0.8","0.2","0.4","0.6","","","","","0.9107397581","0.9340165544","0.8463201033","0.03997429631","","","","","","","","","","72","H","0","img/none_selected.jpg","","81","main_expt",""
"","bandit","161","616597","0.0-123.0-0.0","83869089","wem/bandit_party_2","A271IR0EM4NAL4","either","4","290","","","","","","","1","0","0","0.9531247327","","0.8","0.2","0.4","0.6","","","","","0.9531247327","0.9778602254","0.9043915002","0.03692483048","","","","","","","","","","72","H","0","img/none_selected.jpg","","82","main_expt",""
"","bandit","162","618648","0.0-124.0-0.0","83869089","wem/bandit_party_2","A271IR0EM4NAL4","either","4","537","","","","","","","1","0","0","0.91574064","","0.8","0.2","0.4","0.6","","","","","0.91574064","0.9593015187","0.922294541","0.04167024954","","","","","","","","","","72","H","0","img/none_selected.jpg","","83","main_expt",""
"","bandit","163","620763","0.0-125.0-0.0","83869089","wem/bandit_party_2","A271IR0EM4NAL4","either","4","600","","","","","","","1","0","0","0.9287460716","","0.8","0.2","0.4","0.6","","","","","0.9287460716","0.9398758864","0.9079954767","0.03449326924","","","","","","","","","","72","H","0","img/none_selected.jpg","","84","main_expt",""
"","bandit","164","622802","0.0-126.0-0.0","83869089","wem/bandit_party_2","A271IR0EM4NAL4","either","4","520","","","","","","","1","0","0","0.9817994773","","0.8","0.2","0.4","0.6","","","","","0.9817994773","0.9256746213","0.92293493","0.07382848834","","","","","","","","","","72","H","0","img/none_selected.jpg","","85","main_expt",""
"","bandit","165","624804","0.0-127.0-0.0","83869089","wem/bandit_party_2","A271IR0EM4NAL4","either","4","482","","","","","","","1","0","0","0.9651028603","","0.8","0.2","0.4","0.6","","","","","0.9651028603","0.8910640916","0.8831043051","0.08839198485","","","","","","","","","","72","H","0","img/none_selected.jpg","","86","main_expt",""
"","bandit","166","626811","0.0-128.0-0.0","83869089","wem/bandit_party_2","A271IR0EM4NAL4","either","4","492","","","","","","","0","0","1","","0.9364705545","0.8","0.2","0.4","0.6","0.9364705545","0.8729480744","0.876749115","0.08767612821","","","","","","","","","","","","","","72","H","0","img/none_selected.jpg","","87","main_expt",""
"","bandit","167","628669","0.0-129.0-0.0","83869089","wem/bandit_party_2","A271IR0EM4NAL4","either","4","344","","","","","","","0","0","1","","0.9235767634","0.8","0.2","0.4","0.6","0.9235767634","0.8780151739","0.9189432589","0.1606359608","","","","","","","","","","","","","","72","H","0","img/none_selected.jpg","","88","main_expt",""
"","bandit","168","631086","0.0-130.0-0.0","83869089","wem/bandit_party_2","A271IR0EM4NAL4","either","4","902","","","","","","","1","0","0","0.9375107972","","0.8","0.2","0.4","0.6","","","","","0.9375107972","0.8856980863","0.8770582065","0.2051996915","","","","","","","","","","72","H","0","img/none_selected.jpg","","89","main_expt",""
"","bandit","169","633334","0.0-131.0-0.0","83869089","wem/bandit_party_2","A271IR0EM4NAL4","either","4","734","","","","","","","1","0","0","0.9201099193","","0.8","0.2","0.4","0.6","","","","","0.9201099193","0.8828292745","0.9303780437","0.1757431166","","","","","","","","","","72","H","0","img/none_selected.jpg","","90","main_expt",""
"","bandit","170","636219","0.0-132.0-0.0","83869089","wem/bandit_party_2","A271IR0EM4NAL4","either","4","1371","","","","","","","1","0","0","0.9416722714","","0.8","0.2","0.4","0.6","","","","","0.9416722714","0.9016480115","0.8870296602","0.3470073597","","","","","","","","","","72","H","0","img/none_selected.jpg","","91","main_expt",""
"","bandit","171","638778","0.0-133.0-0.0","83869089","wem/bandit_party_2","A271IR0EM4NAL4","either","4","1045","","","","","","","0","0","1","0.943817784","","0.8","0.2","0.4","0.6","","","","","0.943817784","0.9077272713","0.8466670433","0.4969118024","","","","","","","","","","72","H","0","img/none_selected.jpg","","92","main_expt",""
"","bandit","172","641550","0.0-134.0-0.0","83869089","wem/bandit_party_2","A271IR0EM4NAL4","either","4","1257","","","","","","","1","0","0","0.9078517942","","0.8","0.2","0.4","0.6","","","","","0.9078517942","0.875936713","0.850017275","0.5773598144","","","","","","","","","","72","H","0","img/none_selected.jpg","","93","main_expt",""
"","bandit","173","643776","0.0-135.0-0.0","83869089","wem/bandit_party_2","A271IR0EM4NAL4","either","4","707","","","","","","","0","0","1","","0.8983200186","0.8","0.2","0.4","0.6","0.8983200186","0.8089346838","0.6893652978","0.5513550223","","","","","","","","","","","","","","72","H","0","img/none_selected.jpg","","94","main_expt",""
"","bandit","174","645797","0.0-136.0-0.0","83869089","wem/bandit_party_2","A271IR0EM4NAL4","either","4","507","","","","","","","0","1","0","","0.8744309931","0.8","0.2","0.4","0.6","0.8744309931","0.7472177953","0.6025630118","0.5461825447","","","","","","","","","","","","","","72","H","0","img/none_selected.jpg","","95","main_expt",""
"","bandit","175","649338","0.0-137.0-0.0","83869089","wem/bandit_party_2","A271IR0EM4NAL4","either","4","2025","","","","","","","1","0","0","0.8894212924","","0.8","0.2","0.4","0.6","","","","","0.8894212924","0.631257407","0.5565182624","0.5564841108","","","","","","","","","","72","H","0","img/none_selected.jpg","","96","main_expt",""
"","bandit","176","652616","0.0-138.0-0.0","83869089","wem/bandit_party_2","A271IR0EM4NAL4","either","4","1762","","","","","","","1","0","0","0.891162681","","0.8","0.2","0.4","0.6","","","","","0.891162681","0.7474787878","0.4820287155","0.6513715187","","","","","","","","","","72","H","0","img/none_selected.jpg","","97","main_expt",""
"","bandit","177","654943","0.0-139.0-0.0","83869089","wem/bandit_party_2","A271IR0EM4NAL4","either","4","811","","","","","","","1","0","0","0.8495400438","","0.8","0.2","0.4","0.6","","","","","0.8495400438","0.7753317291","0.4599621431","0.7004254565","","","","","","","","","","72","H","0","img/none_selected.jpg","","98","main_expt",""
"","bandit","178","657075","0.0-140.0-0.0","83869089","wem/bandit_party_2","A271IR0EM4NAL4","either","4","617","","","","","","","1","0","0","0.8671572546","","0.8","0.2","0.4","0.6","","","","","0.8671572546","0.7088399779","0.4109144258","0.6473310623","","","","","","","","","","72","H","0","img/none_selected.jpg","","99","main_expt",""
"","bandit","179","659317","0.0-141.0-0.0","83869089","wem/bandit_party_2","A271IR0EM4NAL4","either","4","725","","","","","","","0","0","1","0.8312294914","","0.8","0.2","0.4","0.6","","","","","0.8312294914","0.7328055719","0.3466085394","0.6160818326","","","","","","","","","","72","H","0","img/none_selected.jpg","","100","main_expt",""
"","bandit","180","662143","0.0-142.0-0.0","83869089","wem/bandit_party_2","A271IR0EM4NAL4","either","4","1316","","","","","","","1","0","0","0.8135240708","","0.8","0.2","0.4","0.6","","","","","0.8135240708","0.8183789849","0.3712289037","0.6963675268","","","","","","","","","","72","H","0","img/none_selected.jpg","","101","main_expt",""
"","bandit","181","664487","0.0-143.0-0.0","83869089","wem/bandit_party_2","A271IR0EM4NAL4","either","4","829","","","","","","","1","0","0","0.8556055773","","0.8","0.2","0.4","0.6","","","","","0.8556055773","0.7854635714","0.3626324234","0.6339579424","","","","","","","","","","72","H","0","img/none_selected.jpg","","102","main_expt",""
"","bandit","182","666748","0.0-144.0-0.0","83869089","wem/bandit_party_2","A271IR0EM4NAL4","either","4","747","","","","","","","1","0","0","0.7632006143","","0.8","0.2","0.4","0.6","","","","","0.7632006143","0.8481411385","0.2748825764","0.6908430899","","","","","","","","","","72","H","0","img/none_selected.jpg","","103","main_expt",""
"","bandit","183","668896","0.0-145.0-0.0","83869089","wem/bandit_party_2","A271IR0EM4NAL4","either","4","632","","","","","","","1","0","0","0.8273213265","","0.8","0.2","0.4","0.6","","","","","0.8273213265","0.8129446485","0.2381725209","0.6866318891","","","","","","","","","","72","H","0","img/none_selected.jpg","","104","main_expt",""
"","bandit","184","672659","0.0-146.0-0.0","83869089","wem/bandit_party_2","A271IR0EM4NAL4","either","4","2248","","","","","","","1","0","0","0.7930501456","","0.8","0.2","0.4","0.6","","","","","0.7930501456","0.7898688037","0.1939551764","0.6749941214","","","","","","","","","","72","H","0","img/none_selected.jpg","","105","main_expt",""
"","bandit","185","674897","0.0-147.0-0.0","83869089","wem/bandit_party_2","A271IR0EM4NAL4","either","4","719","","","","","","","1","0","0","0.7186603115","","0.8","0.2","0.4","0.6","","","","","0.7186603115","0.7810744832","0.1884153881","0.7300347885","","","","","","","","","","72","H","0","img/none_selected.jpg","","106","main_expt",""
"","bandit","186","677213","0.0-148.0-0.0","83869089","wem/bandit_party_2","A271IR0EM4NAL4","either","4","800","","","","","","","1","0","0","0.7155595947","","0.8","0.2","0.4","0.6","","","","","0.7155595947","0.7837395221","0.1011451677","0.8133516847","","","","","","","","","","72","H","0","img/none_selected.jpg","","107","main_expt",""
"","bandit","187","679642","0.0-149.0-0.0","83869089","wem/bandit_party_2","A271IR0EM4NAL4","either","4","914","","","","","","","0","0","1","","0.7654707556","0.8","0.2","0.4","0.6","0.7654707556","0.787971135","0.1500242655","0.8009432675","","","","","","","","","","","","","","72","H","0","img/none_selected.jpg","","108","main_expt",""
"","bandit","188","682687","0.0-150.0-0.0","83869089","wem/bandit_party_2","A271IR0EM4NAL4","either","4","1527","","","","","","","1","0","0","0.6288612937","","0.8","0.2","0.4","0.6","","","","","0.6288612937","0.6866525704","0.1285750889","0.7379370491","","","","","","","","","","72","H","0","img/none_selected.jpg","","109","main_expt",""
"","bandit","189","684876","0.0-151.0-0.0","83869089","wem/bandit_party_2","A271IR0EM4NAL4","either","4","671","","","","","","","0","1","0","","0.6309058105","0.8","0.2","0.4","0.6","0.6309058105","0.5824748378","0.06279291231","0.7379992527","","","","","","","","","","","","","","72","H","0","img/none_selected.jpg","","110","main_expt",""
"","bandit","190","687742","0.0-152.0-0.0","83869089","wem/bandit_party_2","A271IR0EM4NAL4","either","4","1352","","","","","","","1","0","0","0.6218965746","","0.8","0.2","0.4","0.6","","","","","0.6218965746","0.659702805","0.07144278273","0.7464430213","","","","","","","","","","72","H","0","img/none_selected.jpg","","111","main_expt",""
"","bandit","191","689871","0.0-153.0-0.0","83869089","wem/bandit_party_2","A271IR0EM4NAL4","either","4","616","","","","","","","0","0","1","","0.6741482942","0.8","0.2","0.4","0.6","0.6741482942","0.5111205641","0.06013221683","0.7736339118","","","","","","","","","","","","","","72","H","0","img/none_selected.jpg","","112","main_expt",""
"","bandit","192","691795","0.0-154.0-0.0","83869089","wem/bandit_party_2","A271IR0EM4NAL4","either","4","409","","","","","","","1","0","0","0.7405202534","","0.8","0.2","0.4","0.6","","","","","0.7405202534","0.4852392648","0.1442356489","0.8480767854","","","","","","","","","","72","H","0","img/none_selected.jpg","","113","main_expt",""
"","bandit","193","693817","0.0-155.0-0.0","83869089","wem/bandit_party_2","A271IR0EM4NAL4","either","4","509","","","","","","","1","0","0","0.743157628","","0.8","0.2","0.4","0.6","","","","","0.743157628","0.3531287621","0.1733870882","0.8016933152","","","","","","","","","","72","H","0","img/none_selected.jpg","","114","main_expt",""
"","bandit","194","695760","0.0-156.0-0.0","83869089","wem/bandit_party_2","A271IR0EM4NAL4","either","4","426","","","","","","","1","0","0","0.7732583829","","0.8","0.2","0.4","0.6","","","","","0.7732583829","0.4090792957","0.2198725907","0.8200260584","","","","","","","","","","72","H","0","img/none_selected.jpg","","115","main_expt",""
"","bandit","195","697698","0.0-157.0-0.0","83869089","wem/bandit_party_2","A271IR0EM4NAL4","either","4","424","","","","","","","1","0","0","0.6224016225","","0.8","0.2","0.4","0.6","","","","","0.6224016225","0.4927933112","0.2116870815","0.7761954976","","","","","","","","","","72","H","0","img/none_selected.jpg","","116","main_expt",""
"","bandit","196","699795","0.0-158.0-0.0","83869089","wem/bandit_party_2","A271IR0EM4NAL4","either","4","581","","","","","","","0","0","1","0.6784399158","","0.8","0.2","0.4","0.6","","","","","0.6784399158","0.4255499736","0.1293815938","0.7722233998","","","","","","","","","","72","H","0","img/none_selected.jpg","","117","main_expt",""
"","bandit","197","701722","0.0-159.0-0.0","83869089","wem/bandit_party_2","A271IR0EM4NAL4","either","4","413","","","","","","","0","0","1","0.7499631032","","0.8","0.2","0.4","0.6","","","","","0.7499631032","0.4073726931","0.1442073762","0.8049831996","","","","","","","","","","72","H","0","img/none_selected.jpg","","118","main_expt",""
"","bandit","198","703499","0.0-160.0-0.0","83869089","wem/bandit_party_2","A271IR0EM4NAL4","either","4","261","","","","","","","1","0","0","0.6258432538","","0.8","0.2","0.4","0.6","","","","","0.6258432538","0.5447318884","0.2098334931","0.8469405197","","","","","","","","","","72","H","0","img/none_selected.jpg","","119","main_expt",""
"","bandit","199","705266","0.0-161.0-0.0","83869089","wem/bandit_party_2","A271IR0EM4NAL4","either","4","252","","","","","","","1","0","0","0.5602994123","","0.8","0.2","0.4","0.6","","","","","0.5602994123","0.5336717705","0.243218138","0.783925966","","","","","","","","","","72","H","0","img/none_selected.jpg","","120","main_expt",""
"","bandit","200","707097","0.0-162.0-0.0","83869089","wem/bandit_party_2","A271IR0EM4NAL4","either","4","315","","","","","","","1","0","0","0.5850644561","","0.8","0.2","0.4","0.6","","","","","0.5850644561","0.5621279662","0.1595445902","0.8031476983","","","","","","","","","","72","H","0","img/none_selected.jpg","","121","main_expt",""
"","bandit","201","708836","0.0-163.0-0.0","83869089","wem/bandit_party_2","A271IR0EM4NAL4","either","4","226","","","","","","","0","1","0","","0.6205732407","0.8","0.2","0.4","0.6","0.6205732407","0.5664238538","0.1939767007","0.776878313","","","","","","","","","","","","","","72","H","0","img/none_selected.jpg","","122","main_expt",""
"","bandit","202","710608","0.0-164.0-0.0","83869089","wem/bandit_party_2","A271IR0EM4NAL4","either","4","257","","","","","","","1","0","0","0.7954206102","","0.8","0.2","0.4","0.6","","","","","0.7954206102","0.6501842916","0.2265728871","0.7695343448","","","","","","","","","","72","H","0","img/none_selected.jpg","","123","main_expt",""
"","bandit","203","712383","0.0-165.0-0.0","83869089","wem/bandit_party_2","A271IR0EM4NAL4","either","4","253","","","","","","","1","0","0","0.881213352","","0.8","0.2","0.4","0.6","","","","","0.881213352","0.5413703051","0.2027469411","0.6154230174","","","","","","","","","","72","H","0","img/none_selected.jpg","","124","main_expt",""
"","bandit","204","714439","0.0-166.0-0.0","83869089","wem/bandit_party_2","A271IR0EM4NAL4","either","4","541","","","","","","","1","0","0","0.8598562332","","0.8","0.2","0.4","0.6","","","","","0.8598562332","0.5191338098","0.1506135949","0.4710930195","","","","","","","","","","72","H","0","img/none_selected.jpg","","125","main_expt",""
"","bandit","205","716261","0.0-167.0-0.0","83869089","wem/bandit_party_2","A271IR0EM4NAL4","either","4","308","","","","","","","1","0","0","0.867144728","","0.8","0.2","0.4","0.6","","","","","0.867144728","0.6232591378","0.1875851228","0.5258886302","","","","","","","","","","72","H","0","img/none_selected.jpg","","126","main_expt",""
"","bandit","206","718052","0.0-168.0-0.0","83869089","wem/bandit_party_2","A271IR0EM4NAL4","either","4","275","","","","","","","0","0","1","0.8677917819","","0.8","0.2","0.4","0.6","","","","","0.8677917819","0.601333273","0.2106184636","0.3996486754","","","","","","","","","","72","H","0","img/none_selected.jpg","","127","main_expt",""
"","bandit","207","719868","0.0-169.0-0.0","83869089","wem/bandit_party_2","A271IR0EM4NAL4","either","4","301","","","","","","","1","0","0","0.8194058857","","0.8","0.2","0.4","0.6","","","","","0.8194058857","0.6312294041","0.1276240755","0.3557241191","","","","","","","","","","72","H","0","img/none_selected.jpg","","128","main_expt",""
"","bandit","208","721676","0.0-170.0-0.0","83869089","wem/bandit_party_2","A271IR0EM4NAL4","either","4","288","","","","","","","1","0","0","0.813940224","","0.8","0.2","0.4","0.6","","","","","0.813940224","0.6655034733","0.2163335705","0.2432070908","","","","","","","","","","72","H","0","img/none_selected.jpg","","129","main_expt",""
"","bandit","209","723695","0.0-171.0-0.0","83869089","wem/bandit_party_2","A271IR0EM4NAL4","either","4","505","","","","","","","0","1","0","","0.7296764962","0.8","0.2","0.4","0.6","0.7296764962","0.6882303755","0.2448863899","0.1722843937","","","","","","","","","","","","","","72","H","0","img/none_selected.jpg","","130","main_expt",""
"","bandit","210","725738","0.0-172.0-0.0","83869089","wem/bandit_party_2","A271IR0EM4NAL4","either","4","525","","","","","","","0","1","0","","0.614258276","0.8","0.2","0.4","0.6","0.614258276","0.6772884453","0.3447645787","0.1336027919","","","","","","","","","","","","","","72","H","0","img/none_selected.jpg","","131","main_expt",""
"","bandit","211","727947","0.0-173.0-0.0","83869089","wem/bandit_party_2","A271IR0EM4NAL4","either","4","698","","","","","","","1","0","0","0.5349540706","","0.8","0.2","0.4","0.6","","","","","0.5349540706","0.6773684555","0.3622527956","0.1351629047","","","","","","","","","","72","H","0","img/none_selected.jpg","","132","main_expt",""
"","bandit","212","730431","0.0-174.0-0.0","83869089","wem/bandit_party_2","A271IR0EM4NAL4","either","4","966","","","","","","","1","0","0","0.5449090787","","0.8","0.2","0.4","0.6","","","","","0.5449090787","0.7437755928","0.2961885878","0.2495029","","","","","","","","","","72","H","0","img/none_selected.jpg","","133","main_expt",""
"","bandit","213","732432","0.0-175.0-0.0","83869089","wem/bandit_party_2","A271IR0EM4NAL4","either","4","485","","","","","","","0","0","1","0.5037108559","","0.8","0.2","0.4","0.6","","","","","0.5037108559","0.7423545867","0.2932126781","0.2118512663","","","","","","","","","","72","H","0","img/none_selected.jpg","","134","main_expt",""
"","bandit","214","734565","0.0-176.0-0.0","83869089","wem/bandit_party_2","A271IR0EM4NAL4","either","4","615","","","","","","","0","0","1","0.5131336393","","0.8","0.2","0.4","0.6","","","","","0.5131336393","0.7462440124","0.2836439675","0.2474577379","","","","","","","","","","72","H","0","img/none_selected.jpg","","135","main_expt",""
"","bandit","215","736362","0.0-177.0-0.0","83869089","wem/bandit_party_2","A271IR0EM4NAL4","either","4","280","","","","","","","1","0","0","0.5847952324","","0.8","0.2","0.4","0.6","","","","","0.5847952324","0.6372772774","0.1985775905","0.1496333288","","","","","","","","","","72","H","0","img/none_selected.jpg","","136","main_expt",""
"","bandit","216","738185","0.0-178.0-0.0","83869089","wem/bandit_party_2","A271IR0EM4NAL4","either","4","308","","","","","","","1","0","0","0.5191620222","","0.8","0.2","0.4","0.6","","","","","0.5191620222","0.6587707878","0.2655975","0.164835495","","","","","","","","","","72","H","0","img/none_selected.jpg","","137","main_expt",""
"","bandit","217","740105","0.0-179.0-0.0","83869089","wem/bandit_party_2","A271IR0EM4NAL4","either","4","406","","","","","","","1","0","0","0.3830682141","","0.8","0.2","0.4","0.6","","","","","0.3830682141","0.6545472314","0.4066298912","0.1629561883","","","","","","","","","","72","H","0","img/none_selected.jpg","","138","main_expt",""
"","bandit","218","741846","0.0-180.0-0.0","83869089","wem/bandit_party_2","A271IR0EM4NAL4","either","4","226","","","","","","","0","0","1","0.3036015776","","0.8","0.2","0.4","0.6","","","","","0.3036015776","0.5773899651","0.4537429859","0.1162724323","","","","","","","","","","72","H","0","img/none_selected.jpg","","139","main_expt",""
"","bandit","219","743947","0.0-181.0-0.0","83869089","wem/bandit_party_2","A271IR0EM4NAL4","either","4","585","","","","","","","0","0","1","0.2541790234","","0.8","0.2","0.4","0.6","","","","","0.2541790234","0.5786924042","0.410026376","0.1262651596","","","","","","","","","","72","H","0","img/none_selected.jpg","","140","main_expt",""
"","bandit","220","745879","0.0-182.0-0.0","83869089","wem/bandit_party_2","A271IR0EM4NAL4","either","4","417","","","","","","","0","0","1","0.1899663758","","0.8","0.2","0.4","0.6","","","","","0.1899663758","0.4589731036","0.3978668086","0.1258799353","","","","","","","","","","72","H","0","img/none_selected.jpg","","141","main_expt",""
"","bandit","221","747924","0.0-183.0-0.0","83869089","wem/bandit_party_2","A271IR0EM4NAL4","either","4","527","","","","","","","1","0","0","0.214868544","","0.8","0.2","0.4","0.6","","","","","0.214868544","0.3667804619","0.4096738096","0.1220135665","","","","","","","","","","72","H","0","img/none_selected.jpg","","142","main_expt",""
"","bandit","222","749709","0.0-184.0-0.0","83869089","wem/bandit_party_2","A271IR0EM4NAL4","either","4","273","","","","","","","0","0","1","0.1549416237","","0.8","0.2","0.4","0.6","","","","","0.1549416237","0.3563831379","0.5422751762","0.1600355681","","","","","","","","","","72","H","0","img/none_selected.jpg","","143","main_expt",""
"","bandit","223","751555","0.0-185.0-0.0","83869089","wem/bandit_party_2","A271IR0EM4NAL4","either","4","330","","","","","","","0","0","1","0.2142728447","","0.8","0.2","0.4","0.6","","","","","0.2142728447","0.3675361202","0.6045197677","0.103653669","","","","","","","","","","72","H","0","img/none_selected.jpg","","144","main_expt",""
"","bandit","224","753506","0.0-186.0-0.0","83869089","wem/bandit_party_2","A271IR0EM4NAL4","either","4","434","","","","","","","0","0","1","","0.3266856562","0.8","0.2","0.4","0.6","0.2166472609","0.3266856562","0.6140727406","0.1417267119","","","","","","","","","","","","","","74","J","1","","","145","main_expt",""
"","bandit","225","755248","0.0-187.0-0.0","83869089","wem/bandit_party_2","A271IR0EM4NAL4","either","4","226","","","","","","","0","0","1","","0.2815179259","0.8","0.2","0.4","0.6","0.2446047688","0.2815179259","0.5553742365","0.1508894681","","","","","","","","","","","","","","74","J","1","","","146","main_expt",""
"","bandit","226","757019","0.0-188.0-0.0","83869089","wem/bandit_party_2","A271IR0EM4NAL4","either","4","255","","","","","","","0","0","1","","0.3560244833","0.8","0.2","0.4","0.6","0.3011136322","0.3560244833","0.52787167","0.1207147728","","","","","","","","","","","","","","74","J","1","","","147","main_expt",""
"","bandit","227","758822","0.0-189.0-0.0","83869089","wem/bandit_party_2","A271IR0EM4NAL4","either","4","287","","","","","","","0","0","1","","0.5053851794","0.8","0.2","0.4","0.6","0.2519777133","0.3585854149","0.5053851794","0.1362234148","","","","","","","","","","","","","","75","K","2","","","148","main_expt",""
"","bandit","228","760627","0.0-190.0-0.0","83869089","wem/bandit_party_2","A271IR0EM4NAL4","either","4","288","","","","","","","0","1","0","","0.5431256022","0.8","0.2","0.4","0.6","0.2996109941","0.284478414","0.5431256022","0.1244444975","","","","","","","","","","","","","","75","K","2","","","149","main_expt",""
"","bandit","229","762423","0.0-191.0-0.0","83869089","wem/bandit_party_2","A271IR0EM4NAL4","either","4","279","","","","","","","0","1","0","","0.422574086","0.8","0.2","0.4","0.6","0.2963563975","0.2617238314","0.422574086","0.1109305632","","","","","","","","","","","","","","75","K","2","","","150","main_expt",""
"","bandit","230","764355","0.0-192.0-0.0","83869089","wem/bandit_party_2","A271IR0EM4NAL4","either","4","415","","","","","","","0","1","0","","0.3907227364","0.8","0.2","0.4","0.6","0.4327396174","0.2709462114","0.3907227364","0.11412436","","","","","","","","","","","","","","75","K","2","","","151","main_expt",""
"","bandit","231","766179","0.0-193.0-0.0","83869089","wem/bandit_party_2","A271IR0EM4NAL4","either","4","305","","","","","","","1","0","0","0.5580814469","","0.8","0.2","0.4","0.6","","","","","0.4303068123","0.2993716907","0.5580814469","0.1469045903","","","","","","","","","","75","K","2","","","152","main_expt",""
"","bandit","232","767995","0.0-194.0-0.0","83869089","wem/bandit_party_2","A271IR0EM4NAL4","either","4","301","","","","","","","0","0","1","0.51223936","","0.8","0.2","0.4","0.6","","","","","0.455197397","0.2733354782","0.51223936","0.1633028487","","","","","","","","","","75","K","2","","","153","main_expt",""
"","bandit","233","770017","0.0-195.0-0.0","83869089","wem/bandit_party_2","A271IR0EM4NAL4","either","4","505","","","","","","","0","0","1","","0.4811601507","0.8","0.2","0.4","0.6","0.6184454144","0.3264007987","0.4811601507","0.1340882311","","","","","","","","","","","","","","75","K","2","","","154","main_expt",""
"","bandit","234","771806","0.0-196.0-0.0","83869089","wem/bandit_party_2","A271IR0EM4NAL4","either","4","272","","","","","","","0","1","0","","0.575425417","0.8","0.2","0.4","0.6","0.5833601464","0.204433578","0.575425417","0.1041462846","","","","","","","","","","","","","","75","K","2","","","155","main_expt",""
"","bandit","235","773757","0.0-197.0-0.0","83869089","wem/bandit_party_2","A271IR0EM4NAL4","either","4","437","","","","","","","0","0","1","","0.6109018817","0.8","0.2","0.4","0.6","0.646897734","0.07451572188","0.6109018817","0.08564190031","","","","","","","","","","","","","","75","K","2","","","156","main_expt",""
"","bandit","236","775745","0.0-198.0-0.0","83869089","wem/bandit_party_2","A271IR0EM4NAL4","either","4","470","","","","","","","1","0","0","0.6812883852","","0.8","0.2","0.4","0.6","","","","","0.6912470103","0.1251686374","0.6812883852","0.06977116317","","","","","","","","","","75","K","2","","","157","main_expt",""
"","bandit","237","777738","0.0-199.0-0.0","83869089","wem/bandit_party_2","A271IR0EM4NAL4","either","4","474","","","","","","","0","0","1","0.73777041","","0.8","0.2","0.4","0.6","","","","","0.7865398282","0.1292052795","0.73777041","0.1504927074","","","","","","","","","","75","K","2","","","158","main_expt",""
"","bandit","238","779911","0.0-200.0-0.0","83869089","wem/bandit_party_2","A271IR0EM4NAL4","either","4","657","","","","","","","0","1","0","","0.8388849062","0.8","0.2","0.4","0.6","0.7220910122","0.1200050714","0.8388849062","0.1429264201","","","","","","","","","","","","","","75","K","2","","","159","main_expt",""
"","bandit","239","781883","0.0-201.0-0.0","83869089","wem/bandit_party_2","A271IR0EM4NAL4","either","4","456","","","","","","","0","0","1","0.8006667519","","0.8","0.2","0.4","0.6","","","","","0.710563805","0.1156014834","0.8006667519","0.1832893837","","","","","","","","","","75","K","2","","","160","main_expt",""
"","bandit","240","783659","0.0-202.0-0.0","83869089","wem/bandit_party_2","A271IR0EM4NAL4","either","4","259","","","","","","","1","0","0","0.7406956812","","0.8","0.2","0.4","0.6","","","","","0.6205281072","0.1425751263","0.7406956812","0.2337310763","","","","","","","","","","75","K","2","","","161","main_expt",""
"","bandit","241","785722","0.0-203.0-0.0","83869089","wem/bandit_party_2","A271IR0EM4NAL4","either","4","547","","","","","","","0","0","1","","0.775259894","0.8","0.2","0.4","0.6","0.5246840185","0.2108345254","0.775259894","0.2326198937","","","","","","","","","","","","","","75","K","2","","","162","main_expt",""
"","bandit","242","787598","0.0-204.0-0.0","83869089","wem/bandit_party_2","A271IR0EM4NAL4","either","4","361","","","","","","","1","0","0","0.6539471222","","0.8","0.2","0.4","0.6","","","","","0.569340372","0.1664621688","0.6539471222","0.1584290897","","","","","","","","","","75","K","2","","","163","main_expt",""
"","bandit","243","789906","0.0-205.0-0.0","83869089","wem/bandit_party_2","A271IR0EM4NAL4","either","4","790","","","","","","","1","0","0","0.7914062868","","0.8","0.2","0.4","0.6","","","","","0.5688323765","0.1741279052","0.7914062868","0.1417900361","","","","","","","","","","75","K","2","","","164","main_expt",""
"","bandit","244","792200","0.0-206.0-0.0","83869089","wem/bandit_party_2","A271IR0EM4NAL4","either","4","777","","","","","","","1","0","0","0.8415061218","","0.8","0.2","0.4","0.6","","","","","0.5195648955","0.1891196979","0.8415061218","0.08849486786","","","","","","","","","","75","K","2","","","165","main_expt",""
"","bandit","245","794996","0.0-207.0-0.0","83869089","wem/bandit_party_2","A271IR0EM4NAL4","either","4","1273","","","","","","","1","0","0","0.9084068317","","0.8","0.2","0.4","0.6","","","","","0.536500984","0.3016440744","0.9084068317","0.1010416226","","","","","","","","","","75","K","2","","","166","main_expt",""
"","bandit","246","797264","0.0-208.0-0.0","83869089","wem/bandit_party_2","A271IR0EM4NAL4","either","4","754","","","","","","","0","1","0","","0.8857506799","0.8","0.2","0.4","0.6","0.4243381616","0.3427468607","0.8857506799","0.1506776516","","","","","","","","","","","","","","75","K","2","","","167","main_expt",""
"","bandit","247","799356","0.0-209.0-0.0","83869089","wem/bandit_party_2","A271IR0EM4NAL4","either","4","575","","","","","","","1","0","0","0.9247721234","","0.8","0.2","0.4","0.6","","","","","0.4877327119","0.3759001064","0.9247721234","0.2532220847","","","","","","","","","","75","K","2","","","168","main_expt",""
"","bandit","248","801527","0.0-210.0-0.0","83869089","wem/bandit_party_2","A271IR0EM4NAL4","either","4","651","","","","","","","0","1","0","","0.8870410368","0.8","0.2","0.4","0.6","0.5096331713","0.3824832387","0.8870410368","0.2223654062","","","","","","","","","","","","","","75","K","2","","","169","main_expt",""
"","bandit","249","803757","0.0-211.0-0.0","83869089","wem/bandit_party_2","A271IR0EM4NAL4","either","4","713","","","","","","","0","0","1","","0.8782412079","0.8","0.2","0.4","0.6","0.6111595203","0.3257043992","0.8782412079","0.2161840498","","","","","","","","","","","","","","75","K","2","","","170","main_expt",""
"","bandit","250","805437","0.0-212.0-0.0","83869089","wem/bandit_party_2","A271IR0EM4NAL4","either","4","161","","","","","","","0","0","1","","0.7978982074","0.8","0.2","0.4","0.6","0.5888321224","0.2943589708","0.7978982074","0.1996440145","","","","","","","","","","","","","","75","K","2","","","171","main_expt",""
"","bandit","251","807737","0.0-213.0-0.0","83869089","wem/bandit_party_2","A271IR0EM4NAL4","either","4","782","","","","","","","0","1","0","","0.7896885826","0.8","0.2","0.4","0.6","0.6295404033","0.4298537702","0.7896885826","0.275753823","","","","","","","","","","","","","","75","K","2","","","172","main_expt",""
"","bandit","252","810231","0.0-214.0-0.0","83869089","wem/bandit_party_2","A271IR0EM4NAL4","either","4","977","","","","","","","0","0","1","","0.7771385218","0.8","0.2","0.4","0.6","0.5976712981","0.4196262671","0.7771385218","0.2850946521","","","","","","","","","","","","","","75","K","2","","","173","main_expt",""
"","bandit","253","812562","0.0-215.0-0.0","83869089","wem/bandit_party_2","A271IR0EM4NAL4","either","4","811","","","","","","","0","1","0","","0.8412209493","0.8","0.2","0.4","0.6","0.5936331925","0.4056978145","0.8412209493","0.2836726952","","","","","","","","","","","","","","75","K","2","","","174","main_expt",""
"","bandit","254","814890","0.0-216.0-0.0","83869089","wem/bandit_party_2","A271IR0EM4NAL4","either","4","811","","","","","","","0","1","0","","0.8433491626","0.8","0.2","0.4","0.6","0.544145328","0.3323311207","0.8433491626","0.27413619","","","","","","","","","","","","","","75","K","2","","","175","main_expt",""
"","bandit","255","816920","0.0-217.0-0.0","83869089","wem/bandit_party_2","A271IR0EM4NAL4","either","4","512","","","","","","","0","1","0","","0.778586436","0.8","0.2","0.4","0.6","0.3584947592","0.3087900888","0.778586436","0.2369491767","","","","","","","","","","","","","","75","K","2","","","176","main_expt",""
"","bandit","256","819005","0.0-218.0-0.0","83869089","wem/bandit_party_2","A271IR0EM4NAL4","either","4","563","","","","","","","0","0","1","0.7488794252","","0.8","0.2","0.4","0.6","","","","","0.436171931","0.3898613412","0.7488794252","0.3440943848","","","","","","","","","","75","K","2","","","177","main_expt",""
"","bandit","257","820844","0.0-219.0-0.0","83869089","wem/bandit_party_2","A271IR0EM4NAL4","either","4","313","","","","","","","0","1","0","","0.7738581751","0.8","0.2","0.4","0.6","0.5193680035","0.5236321052","0.7738581751","0.3529135521","","","","","","","","","","","","","","75","K","2","","","178","main_expt",""
"","bandit","258","822724","0.0-220.0-0.0","83869089","wem/bandit_party_2","A271IR0EM4NAL4","either","4","361","","","","","","","0","0","1","","0.7527820287","0.8","0.2","0.4","0.6","0.3957798075","0.2955080601","0.7527820287","0.3787243664","","","","","","","","","","","","","","75","K","2","","","179","main_expt",""
"","bandit","259","824516","0.0-221.0-0.0","83869089","wem/bandit_party_2","A271IR0EM4NAL4","either","4","274","","","","","","","0","1","0","","0.8022950929","0.8","0.2","0.4","0.6","0.4249873197","0.3174151272","0.8022950929","0.3092677326","","","","","","","","","","","","","","75","K","2","","","180","main_expt",""
"","bandit","260","826484","0.0-222.0-0.0","83869089","wem/bandit_party_2","A271IR0EM4NAL4","either","4","448","","","","","","","1","0","0","0.7505347306","","0.8","0.2","0.4","0.6","","","","","0.4260342439","0.3560995969","0.7505347306","0.3701559146","","","","","","","","","","75","K","2","","","181","main_expt",""
"","bandit","261","828411","0.0-223.0-0.0","83869089","wem/bandit_party_2","A271IR0EM4NAL4","either","4","407","","","","","","","1","0","0","0.603349844","","0.8","0.2","0.4","0.6","","","","","0.4305619521","0.4649908644","0.603349844","0.2672844749","","","","","","","","","","75","K","2","","","182","main_expt",""
"","bandit","262","830349","0.0-224.0-0.0","83869089","wem/bandit_party_2","A271IR0EM4NAL4","either","4","420","","","","","","","0","1","0","","0.6464544124","0.8","0.2","0.4","0.6","0.4638513582","0.4588174784","0.6464544124","0.3046315644","","","","","","","","","","","","","","75","K","2","","","183","main_expt",""
"","bandit","263","832183","0.0-225.0-0.0","83869089","wem/bandit_party_2","A271IR0EM4NAL4","either","4","317","","","","","","","0","0","1","","0.5084330557","0.8","0.2","0.4","0.6","0.5084330557","0.509799977","0.6606024443","0.3507685813","","","","","","","","","","","","","","72","H","0","img/none_selected.jpg","","184","main_expt",""
"","bandit","264","833985","0.0-226.0-0.0","83869089","wem/bandit_party_2","A271IR0EM4NAL4","either","4","281","","","","","","","0","0","1","0.5853778332","","0.8","0.2","0.4","0.6","","","","","0.5853778332","0.4557178443","0.7034535028","0.3250269766","","","","","","","","","","72","H","0","img/none_selected.jpg","","185","main_expt",""
"","bandit","265","835801","0.0-227.0-0.0","83869089","wem/bandit_party_2","A271IR0EM4NAL4","either","4","297","","","","","","","0","0","1","0.5009207633","","0.8","0.2","0.4","0.6","","","","","0.5009207633","0.3250172706","0.7672503758","0.3636669497","","","","","","","","","","72","H","0","img/none_selected.jpg","","186","main_expt",""
"","bandit","266","837569","0.0-228.0-0.0","83869089","wem/bandit_party_2","A271IR0EM4NAL4","either","4","249","","","","","","","0","0","1","0.4376492532","","0.8","0.2","0.4","0.6","","","","","0.4376492532","0.2982192525","0.7505037824","0.4095027401","","","","","","","","","","72","H","0","img/none_selected.jpg","","187","main_expt",""
"","bandit","267","839362","0.0-229.0-0.0","83869089","wem/bandit_party_2","A271IR0EM4NAL4","either","4","275","","","","","","","0","1","0","","0.7458261356","0.8","0.2","0.4","0.6","0.317868257","0.2647713636","0.7458261356","0.3356624093","","","","","","","","","","","","","","75","K","2","","","188","main_expt",""
"","bandit","268","841161","0.0-230.0-0.0","83869089","wem/bandit_party_2","A271IR0EM4NAL4","either","4","281","","","","","","","0","1","0","","0.747965221","0.8","0.2","0.4","0.6","0.3700786551","0.2798663258","0.747965221","0.3717951419","","","","","","","","","","","","","","75","K","2","","","189","main_expt",""
"","bandit","269","843002","0.0-231.0-0.0","83869089","wem/bandit_party_2","A271IR0EM4NAL4","either","4","320","","","","","","","0","1","0","","0.7459095382","0.8","0.2","0.4","0.6","0.3423477616","0.2146362806","0.7459095382","0.3266606931","","","","","","","","","","","","","","75","K","2","","","190","main_expt",""
"","bandit","270","845274","0.0-232.0-0.0","83869089","wem/bandit_party_2","A271IR0EM4NAL4","either","4","749","","","","","","","1","0","0","0.6299055833","","0.8","0.2","0.4","0.6","","","","","0.2488230813","0.3132783624","0.6299055833","0.4206899072","","","","","","","","","","75","K","2","","","191","main_expt",""
"","bandit","271","847218","0.0-233.0-0.0","83869089","wem/bandit_party_2","A271IR0EM4NAL4","either","4","425","","","","","","","0","1","0","","0.688533977","0.8","0.2","0.4","0.6","0.2193108308","0.2488083766","0.688533977","0.4982817076","","","","","","","","","","","","","","75","K","2","","","192","main_expt",""
"","bandit","272","849204","0.0-234.0-0.0","83869089","wem/bandit_party_2","A271IR0EM4NAL4","either","4","467","","","","","","","0","1","0","","0.7176496952","0.8","0.2","0.4","0.6","0.4057276106","0.225611763","0.7176496952","0.4820211017","","","","","","","","","","","","","","75","K","2","","","193","main_expt",""
"","bandit","273","851649","0.0-235.0-0.0","83869089","wem/bandit_party_2","A271IR0EM4NAL4","either","4","925","","","","","","","0","1","0","","0.746212457","0.8","0.2","0.4","0.6","0.3826056333","0.2159393038","0.746212457","0.5373891537","","","","","","","","","","","","","","75","K","2","","","194","main_expt",""
"","bandit","274","853420","0.0-236.0-0.0","83869089","wem/bandit_party_2","A271IR0EM4NAL4","either","4","252","","","","","","","0","0","1","0.6800784202","","0.8","0.2","0.4","0.6","","","","","0.4922935908","0.3112228701","0.6800784202","0.3890275207","","","","","","","","","","75","K","2","","","195","main_expt",""
"","bandit","275","855245","0.0-237.0-0.0","83869089","wem/bandit_party_2","A271IR0EM4NAL4","either","4","308","","","","","","","0","0","1","0.5986295964","","0.8","0.2","0.4","0.6","","","","","0.5475793877","0.3249051539","0.5986295964","0.4329462643","","","","","","","","","","75","K","2","","","196","main_expt",""
"","bandit","276","857023","0.0-238.0-0.0","83869089","wem/bandit_party_2","A271IR0EM4NAL4","either","4","259","","","","","","","1","0","0","0.5323622673","","0.8","0.2","0.4","0.6","","","","","0.6069385875","0.2985018541","0.5323622673","0.416825946","","","","","","","","","","75","K","2","","","197","main_expt",""
"","bandit","277","858871","0.0-239.0-0.0","83869089","wem/bandit_party_2","A271IR0EM4NAL4","either","4","324","","","","","","","0","1","0","","0.5348043844","0.8","0.2","0.4","0.6","0.4946816555","0.3109366799","0.5348043844","0.4063336836","","","","","","","","","","","","","","75","K","2","","","198","main_expt",""
"","bandit","278","860750","0.0-240.0-0.0","83869089","wem/bandit_party_2","A271IR0EM4NAL4","either","4","352","","","","","","","0","1","0","","0.4534403339","0.8","0.2","0.4","0.6","0.479635203","0.3143364341","0.4534403339","0.361264989","","","","","","","","","","","","","","75","K","2","","","199","main_expt",""
"","bandit","279","862658","0.0-241.0-0.0","83869089","wem/bandit_party_2","A271IR0EM4NAL4","either","4","390","","","","","","","0","1","0","","0.4185876589","0.8","0.2","0.4","0.6","0.4969837249","0.3176919365","0.4185876589","0.4700223374","","","","","","","","","","","","","","75","K","2","","","200","main_expt",""
"","bandit","280","864680","0.0-242.0-0.0","83869089","wem/bandit_party_2","A271IR0EM4NAL4","either","4","503","","","","","","","0","0","1","0.3812211227","","0.8","0.2","0.4","0.6","","","","","0.4548125401","0.2848283651","0.3812211227","0.4751543938","","","","","","","","","","75","K","2","","","201","main_expt",""
"","bandit","281","866814","0.0-243.0-0.0","83869089","wem/bandit_party_2","A271IR0EM4NAL4","either","4","621","","","","","","","0","1","0","","0.4414728031","0.8","0.2","0.4","0.6","0.5767771981","0.2439676923","0.4414728031","0.4044794657","","","","","","","","","","","","","","75","K","2","","","202","main_expt",""
"","bandit","282","869017","0.0-244.0-0.0","83869089","wem/bandit_party_2","A271IR0EM4NAL4","either","4","681","","","","","","","0","1","0","","0.3698030662","0.8","0.2","0.4","0.6","0.6118171827","0.2582922662","0.3698030662","0.3321077444","","","","","","","","","","","","","","75","K","2","","","203","main_expt",""
"","bandit","283","871353","0.0-245.0-0.0","83869089","wem/bandit_party_2","A271IR0EM4NAL4","either","4","813","","","","","","","0","0","1","0.4899087748","","0.8","0.2","0.4","0.6","","","","","0.5373194108","0.3799793739","0.4899087748","0.3697340749","","","","","","","","","","75","K","2","","","204","main_expt",""
"","bandit","284","873483","0.0-246.0-0.0","83869089","wem/bandit_party_2","A271IR0EM4NAL4","either","4","610","","","","","","","0","1","0","","0.4310108402","0.8","0.2","0.4","0.6","0.5501461309","0.4441528059","0.4310108402","0.3998168993","","","","","","","","","","","","","","75","K","2","","","205","main_expt",""
"","bandit","285","876435","0.0-247.0-0.0","83869089","wem/bandit_party_2","A271IR0EM4NAL4","either","4","1433","","","","","","","0","1","0","","0.3912115078","0.8","0.2","0.4","0.6","0.5094027242","0.4468516792","0.3912115078","0.4929909192","","","","","","","","","","","","","","75","K","2","","","206","main_expt",""
"","bandit","286","878646","0.0-248.0-0.0","83869089","wem/bandit_party_2","A271IR0EM4NAL4","either","4","693","","","","","","","0","0","1","0.3195818707","","0.8","0.2","0.4","0.6","","","","","0.6449696869","0.399366085","0.3195818707","0.4960693894","","","","","","","","","","75","K","2","","","207","main_expt",""
"","bandit","287","880690","0.0-249.0-0.0","83869089","wem/bandit_party_2","A271IR0EM4NAL4","either","4","524","","","","","","","0","1","0","","0.2378171997","0.8","0.2","0.4","0.6","0.549996868","0.4206610772","0.2378171997","0.3912862986","","","","","","","","","","","","","","75","K","2","","","208","main_expt",""
"","bandit","288","883001","0.0-250.0-0.0","83869089","wem/bandit_party_2","A271IR0EM4NAL4","either","4","792","","","","","","","0","0","1","","0.2339104391","0.8","0.2","0.4","0.6","0.5258833792","0.5145499259","0.2339104391","0.4218938049","","","","","","","","","","","","","","75","K","2","","","209","main_expt",""
"","bandit","289","884912","0.0-251.0-0.0","83869089","wem/bandit_party_2","A271IR0EM4NAL4","either","4","399","","","","","","","0","0","1","","0.2506558306","0.8","0.2","0.4","0.6","0.5453980868","0.3497539355","0.2506558306","0.6003160005","","","","","","","","","","","","","","75","K","2","","","210","main_expt",""
"","bandit","290","887147","0.0-252.0-0.0","83869089","wem/bandit_party_2","A271IR0EM4NAL4","either","4","720","","","","","","","1","0","0","0.3466578502","","0.8","0.2","0.4","0.6","","","","","0.5370950561","0.3335821388","0.3466578502","0.5481562991","","","","","","","","","","75","K","2","","","211","main_expt",""
"","bandit","291","889702","0.0-253.0-0.0","83869089","wem/bandit_party_2","A271IR0EM4NAL4","either","4","1035","","","","","","","1","0","0","0.4162959965","","0.8","0.2","0.4","0.6","","","","","0.5774996514","0.2778022227","0.4162959965","0.6210595125","","","","","","","","","","75","K","2","","","212","main_expt",""
"","bandit","292","892226","0.0-254.0-0.0","83869089","wem/bandit_party_2","A271IR0EM4NAL4","either","4","1005","","","","","","","1","0","0","0.545788555","","0.8","0.2","0.4","0.6","","","","","0.4826056363","0.2949104287","0.545788555","0.7732161257","","","","","","","","","","75","K","2","","","213","main_expt",""
"","bandit","293","894607","0.0-255.0-0.0","83869089","wem/bandit_party_2","A271IR0EM4NAL4","either","4","861","","","","","","","1","0","0","0.6077749924","","0.8","0.2","0.4","0.6","","","","","0.4913277851","0.2443343027","0.6077749924","0.7689771773","","","","","","","","","","75","K","2","","","214","main_expt",""
"","bandit","294","896680","0.0-256.0-0.0","83869089","wem/bandit_party_2","A271IR0EM4NAL4","either","4","563","","","","","","","0","0","1","","0.4883429648","0.8","0.2","0.4","0.6","0.5415006571","0.2232989174","0.4883429648","0.6841712945","","","","","","","","","","","","","","75","K","2","","","215","main_expt",""
"","bandit","295","898543","0.0-257.0-0.0","83869089","wem/bandit_party_2","A271IR0EM4NAL4","either","4","350","","","","","","","1","0","0","0.3309854328","","0.8","0.2","0.4","0.6","","","","","0.5198015267","0.2918619336","0.3309854328","0.7019934296","","","","","","","","","","75","K","2","","","216","main_expt",""
"","bandit","296","900740","0.0-258.0-0.0","83869089","wem/bandit_party_2","A271IR0EM4NAL4","either","4","675","","","","","","","0","0","1","","0.3310528633","0.8","0.2","0.4","0.6","0.545097872","0.3571058798","0.3310528633","0.7537099884","","","","","","","","","","","","","","75","K","2","","","217","main_expt",""
"","bandit","297","902926","0.0-259.0-0.0","83869089","wem/bandit_party_2","A271IR0EM4NAL4","either","4","668","","","","","","","0","0","1","0.4147218791","","0.8","0.2","0.4","0.6","","","","","0.5776025334","0.3738303097","0.4147218791","0.8428980993","","","","","","","","","","75","K","2","","","218","main_expt",""
"","bandit","298","904769","0.0-260.0-0.0","83869089","wem/bandit_party_2","A271IR0EM4NAL4","either","4","319","","","","","","","0","0","1","0.3402104323","","0.8","0.2","0.4","0.6","","","","","0.5616346574","0.4832874948","0.3402104323","0.8007326434","","","","","","","","","","75","K","2","","","219","main_expt",""
"","bandit","299","906601","0.0-261.0-0.0","83869089","wem/bandit_party_2","A271IR0EM4NAL4","either","4","323","","","","","","","1","0","0","0.8518850648","","0.8","0.2","0.4","0.6","","","","","0.6261942659","0.475455537","0.3448871422","0.8518850648","","","","","","","","","","76","L","3","","","220","main_expt",""
"","bandit","300","908467","0.0-262.0-0.0","83869089","wem/bandit_party_2","A271IR0EM4NAL4","either","4","342","","","","","","","0","1","0","","0.8488451861","0.8","0.2","0.4","0.6","0.6533416475","0.3849790123","0.4438284365","0.8488451861","","","","","","","","","","","","","","76","L","3","","","221","main_expt",""
"","bandit","301","910295","0.0-263.0-0.0","83869089","wem/bandit_party_2","A271IR0EM4NAL4","either","4","308","","","","","","","0","1","0","","0.8202185963","0.8","0.2","0.4","0.6","0.6780524799","0.2708628555","0.3768672835","0.8202185963","","","","","","","","","","","","","","76","L","3","","","222","main_expt",""
"","bandit","302","912192","0.0-264.0-0.0","83869089","wem/bandit_party_2","A271IR0EM4NAL4","either","4","378","","","","","","","1","0","0","0.839196386","","0.8","0.2","0.4","0.6","","","","","0.638470603","0.3886191555","0.4599748191","0.839196386","","","","","","","","","","76","L","3","","","223","main_expt",""
"","bandit","303","914437","0.0-265.0-0.0","83869089","wem/bandit_party_2","A271IR0EM4NAL4","either","4","724","","","","","","","1","0","0","0.8340435664","","0.8","0.2","0.4","0.6","","","","","0.560582988","0.3352763987","0.5868274652","0.8340435664","","","","","","","","","","76","L","3","","","224","main_expt",""
"","bandit","304","916342","0.0-266.0-0.0","83869089","wem/bandit_party_2","A271IR0EM4NAL4","either","4","382","","","","","","","0","0","1","0.8229669419","","0.8","0.2","0.4","0.6","","","","","0.5004803289","0.3948846532","0.510759767","0.8229669419","","","","","","","","","","76","L","3","","","225","main_expt",""
"","bandit","305","918348","0.0-267.0-0.0","83869089","wem/bandit_party_2","A271IR0EM4NAL4","either","4","488","","","","","","","0","0","1","0.8326575293","","0.8","0.2","0.4","0.6","","","","","0.5109709899","0.385279681","0.6026028704","0.8326575293","","","","","","","","","","76","L","3","","","226","main_expt",""
"","bandit","306","920322","0.0-268.0-0.0","83869089","wem/bandit_party_2","A271IR0EM4NAL4","either","4","464","","","","","","","1","0","0","0.8904476858","","0.8","0.2","0.4","0.6","","","","","0.4271661703","0.3296530349","0.588132951","0.8904476858","","","","","","","","","","76","L","3","","","227","main_expt",""
"","bandit","307","923056","0.0-269.0-0.0","83869089","wem/bandit_party_2","A271IR0EM4NAL4","either","4","1215","","","","","","","1","0","0","0.8877596604","","0.8","0.2","0.4","0.6","","","","","0.374673526","0.4227788413","0.5754590721","0.8877596604","","","","","","","","","","76","L","3","","","228","main_expt",""
"","bandit","308","925176","0.0-270.0-0.0","83869089","wem/bandit_party_2","A271IR0EM4NAL4","either","4","601","","","","","","","1","0","0","0.8647697669","","0.8","0.2","0.4","0.6","","","","","0.393435759","0.4470353227","0.6311951266","0.8647697669","","","","","","","","","","76","L","3","","","229","main_expt",""
"","bandit","309","927616","0.0-271.0-0.0","83869089","wem/bandit_party_2","A271IR0EM4NAL4","either","4","919","","","","","","","0","0","1","","0.8704214291","0.8","0.2","0.4","0.6","0.3299431778","0.2986819632","0.6164228117","0.8704214291","","","","","","","","","","","","","","76","L","3","","","230","main_expt",""
"","bandit","310","929450","0.0-272.0-0.0","83869089","wem/bandit_party_2","A271IR0EM4NAL4","either","4","308","","","","","","","1","0","0","0.8598686354","","0.8","0.2","0.4","0.6","","","","","0.3477061432","0.4508866759","0.5943568022","0.8598686354","","","","","","","","","","76","L","3","","","231","main_expt",""
"","bandit","311","932434","0.0-273.0-0.0","83869089","wem/bandit_party_2","A271IR0EM4NAL4","either","4","1465","","","","","","","0","1","0","","0.7939027672","0.8","0.2","0.4","0.6","0.3430234075","0.5125968159","0.6032910051","0.7939027672","","","","","","","","","","","","","","76","L","3","","","232","main_expt",""
"","bandit","312","934810","0.0-274.0-0.0","83869089","wem/bandit_party_2","A271IR0EM4NAL4","either","4","856","","","","","","","1","0","0","0.7930400566","","0.8","0.2","0.4","0.6","","","","","0.2812772396","0.6020802482","0.7225660168","0.7930400566","","","","","","","","","","76","L","3","","","233","main_expt",""
