"consent","trial_type","trial_index","time_elapsed","internal_node_id","subjID","study","MID","cond","drift","rt","responses","button_pressed","key_press","like","value","connected","gems","bombs","no_reward","GemPrChosen","BombPrChosen","GainOverPainPr_0","GainOverPainPr_1","GainOverPainPr_2","GainOverPainPr_3","LosePr_0","LosePr_1","LosePr_2","LosePr_3","WinPr_0","WinPr_1","WinPr_2","WinPr_3","Q0","Q1","Q2","gender","age","ethnicity","label","expt_phase","target","respCharCode","respKey","respChoiceNum","respChoice","practice","trial_counter","trial_label","Q0_index"
"GDM/GDM_behavioral_consent_30min_online.html","consent","0","7614","0.0-0.0","84905847","wem/bandit_party_2","A2PWE9TKEM99BA","either","8","","","","","","","","","","","","","","","","","","","","","","","","","","","","","","","","","","","","","","","","",""
"","survey-text","1","15132","0.0-1.0","84905847","wem/bandit_party_2","A2PWE9TKEM99BA","either","8","6512","{""Q0"":""A2PWE9TKEM99BA""}","","","","","","","","","","","","","","","","","","","","","","","","","","","","","","","","","","","","","","",""
"","button-response","2","17770","0.0-2.0","84905847","wem/bandit_party_2","A2PWE9TKEM99BA","either","8","1634","","2","","","","","","","","","","","","","","","","","","","","","","","","","","","","","","","","","","","","","",""
"","text-replacement","3","24391","0.0-3.0","84905847","wem/bandit_party_2","A2PWE9TKEM99BA","either","8","5617","","","32","","","","","","","","","","","","","","","","","","","","","","","","","","","","","","","","","","","","",""
"","text-replacement","4","33544","0.0-4.0","84905847","wem/bandit_party_2","A2PWE9TKEM99BA","either","8","9151","","","32","","","","","","","","","","","","","","","","","","","","","","","","","","","","","","","","","","","","",""
"","text-replacement","5","43672","0.0-5.0-0.0","84905847","wem/bandit_party_2","A2PWE9TKEM99BA","either","8","10126","","","32","","","","","","","","","","","","","","","","","","","","","","","","","","","","","","","","","","","","",""
"","identification","6","51351","0.0-6.0-0.0","84905847","wem/bandit_party_2","A2PWE9TKEM99BA","either","8","7669","","","","2","2","2","","","","","","","","","","","","","","","","","","","","","","","","pre","identification_pre","the Republican Party","","","","","","","",""
"","identification","7","55431","0.0-6.0-1.0","84905847","wem/bandit_party_2","A2PWE9TKEM99BA","either","8","3063","","","","3","3","3","","","","","","","","","","","","","","","","","","","","","","","","pre","identification_pre","the Democratic Party","","","","","","","",""
"","text-replacement","8","61079","0.0-7.0","84905847","wem/bandit_party_2","A2PWE9TKEM99BA","either","8","4645","","","32","","","","","","","","","","","","","","","","","","","","","","","","","","","","","","","","","","","","",""
"","text-replacement","9","68024","0.0-8.0","84905847","wem/bandit_party_2","A2PWE9TKEM99BA","either","8","6944","","","32","","","","","","","","","","","","","","","","","","","","","","","","","","","","","","","","","","","","",""
"","text-replacement","10","75055","0.0-9.0","84905847","wem/bandit_party_2","A2PWE9TKEM99BA","either","8","7030","","","32","","","","","","","","","","","","","","","","","","","","","","","","","","","","","","","","","","","","",""
"","text-replacement","11","78039","0.0-10.0","84905847","wem/bandit_party_2","A2PWE9TKEM99BA","either","8","2984","","","32","","","","","","","","","","","","","","","","","","","","","","","","","","","","","","","","","","","","",""
"","text-replacement","12","82718","0.0-11.0","84905847","wem/bandit_party_2","A2PWE9TKEM99BA","either","8","4678","","","32","","","","","","","","","","","","","","","","","","","","","","","","","","","","","","","","","","","","",""
"","bandit","13","86574","0.0-12.0-0.0","84905847","wem/bandit_party_2","A2PWE9TKEM99BA","either","8","2350","","","","","","","0","0","1","0","0","","","","","0","","","","0","","","","","","","","","","","","","74","J","0","img/none_selected_demo.jpg","true","0","",""
"","bandit","14","88741","0.0-13.0-0.0","84905847","wem/bandit_party_2","A2PWE9TKEM99BA","either","8","663","","","","","","","0","0","1","0","0","","","","","0","","","","0","","","","","","","","","","","","","75","K","0","img/none_selected_demo.jpg","true","0","",""
"","text-replacement","15","94663","0.0-14.0","84905847","wem/bandit_party_2","A2PWE9TKEM99BA","either","8","5922","","","32","","","","","","","","","","","","","","","","","","","","","","","","","","","","","","","","","","","","",""
"","text-replacement","16","103975","0.0-15.0","84905847","wem/bandit_party_2","A2PWE9TKEM99BA","either","8","9310","","","32","","","","","","","","","","","","","","","","","","","","","","","","","","","","","","","","","","","","",""
"","text-replacement","17","111415","0.0-16.0","84905847","wem/bandit_party_2","A2PWE9TKEM99BA","either","8","7440","","","32","","","","","","","","","","","","","","","","","","","","","","","","","","","","","","","","","","","","",""
"","text-replacement","18","113733","0.0-17.0","84905847","wem/bandit_party_2","A2PWE9TKEM99BA","either","8","2317","","","32","","","","","","","","","","","","","","","","","","","","","","","","","","","","","","","","","","","","",""
"","bandit","19","116172","0.0-18.0-0.0","84905847","wem/bandit_party_2","A2PWE9TKEM99BA","either","8","934","","","","","","","1","0","0","0.8","","0.5","0.5","","","","","","","0.8","0.2","","","","","","","","","","","","74","J","0","img/none_selected_demo.jpg","true","0","80_20_practice",""
"","bandit","20","118196","0.0-18.0-1.0","84905847","wem/bandit_party_2","A2PWE9TKEM99BA","either","8","519","","","","","","","0","1","0","","0.8","0.5","0.5","","","0.8","0.2","","","","","","","","","","","","","","","","74","J","0","img/none_selected_demo.jpg","true","0","80_20_practice",""
"","bandit","21","120164","0.0-18.0-2.0","84905847","wem/bandit_party_2","A2PWE9TKEM99BA","either","8","464","","","","","","","1","0","0","0.8","","0.5","0.5","","","","","","","0.8","0.2","","","","","","","","","","","","74","J","0","img/none_selected_demo.jpg","true","0","80_20_practice",""
"","bandit","22","122092","0.0-18.0-3.0","84905847","wem/bandit_party_2","A2PWE9TKEM99BA","either","8","423","","","","","","","0","0","1","0.8","","0.5","0.5","","","","","","","0.8","0.2","","","","","","","","","","","","74","J","0","img/none_selected_demo.jpg","true","0","80_20_practice",""
"","bandit","23","124069","0.0-18.0-4.0","84905847","wem/bandit_party_2","A2PWE9TKEM99BA","either","8","473","","","","","","","1","0","0","0.8","","0.5","0.5","","","","","","","0.8","0.2","","","","","","","","","","","","74","J","0","img/none_selected_demo.jpg","true","0","80_20_practice",""
"","bandit","24","125779","0.0-18.0-5.0","84905847","wem/bandit_party_2","A2PWE9TKEM99BA","either","8","207","","","","","","","0","0","1","0.2","","0.5","0.5","","","","","","","0.8","0.2","","","","","","","","","","","","75","K","1","","true","0","80_20_practice",""
"","bandit","25","127908","0.0-18.0-6.0","84905847","wem/bandit_party_2","A2PWE9TKEM99BA","either","8","625","","","","","","","0","0","1","0.2","","0.5","0.5","","","","","","","0.8","0.2","","","","","","","","","","","","75","K","1","","true","0","80_20_practice",""
"","bandit","26","129763","0.0-18.0-7.0","84905847","wem/bandit_party_2","A2PWE9TKEM99BA","either","8","353","","","","","","","0","0","1","","0.2","0.5","0.5","","","0.8","0.2","","","","","","","","","","","","","","","","75","K","1","","true","0","80_20_practice",""
"","bandit","27","131899","0.0-18.0-8.0","84905847","wem/bandit_party_2","A2PWE9TKEM99BA","either","8","632","","","","","","","0","0","1","0.8","","0.5","0.5","","","","","","","0.8","0.2","","","","","","","","","","","","74","J","0","img/none_selected_demo.jpg","true","0","80_20_practice",""
"","bandit","28","133709","0.0-18.0-9.0","84905847","wem/bandit_party_2","A2PWE9TKEM99BA","either","8","305","","","","","","","1","0","0","0.8","","0.5","0.5","","","","","","","0.8","0.2","","","","","","","","","","","","74","J","0","img/none_selected_demo.jpg","true","0","80_20_practice",""
"","bandit","29","135621","0.0-18.0-10.0","84905847","wem/bandit_party_2","A2PWE9TKEM99BA","either","8","408","","","","","","","1","0","0","0.8","","0.5","0.5","","","","","","","0.8","0.2","","","","","","","","","","","","74","J","0","img/none_selected_demo.jpg","true","0","80_20_practice",""
"","bandit","30","137195","0.0-18.0-11.0","84905847","wem/bandit_party_2","A2PWE9TKEM99BA","either","8","71","","","","","","","1","0","0","0.8","","0.5","0.5","","","","","","","0.8","0.2","","","","","","","","","","","","74","J","0","img/none_selected_demo.jpg","true","0","80_20_practice",""
"","bandit","31","140763","0.0-18.0-12.0","84905847","wem/bandit_party_2","A2PWE9TKEM99BA","either","8","2065","","","","","","","1","0","0","0.8","","0.5","0.5","","","","","","","0.8","0.2","","","","","","","","","","","","74","J","0","img/none_selected_demo.jpg","true","0","80_20_practice",""
"","bandit","32","142692","0.0-18.0-13.0","84905847","wem/bandit_party_2","A2PWE9TKEM99BA","either","8","424","","","","","","","0","1","0","","0.8","0.5","0.5","","","0.8","0.2","","","","","","","","","","","","","","","","74","J","0","img/none_selected_demo.jpg","true","0","80_20_practice",""
"","bandit","33","145892","0.0-18.0-14.0","84905847","wem/bandit_party_2","A2PWE9TKEM99BA","either","8","1696","","","","","","","0","0","1","0.8","","0.5","0.5","","","","","","","0.8","0.2","","","","","","","","","","","","74","J","0","img/none_selected_demo.jpg","true","0","80_20_practice",""
"","bandit","34","148268","0.0-18.0-15.0","84905847","wem/bandit_party_2","A2PWE9TKEM99BA","either","8","872","","","","","","","1","0","0","0.8","","0.5","0.5","","","","","","","0.8","0.2","","","","","","","","","","","","74","J","0","img/none_selected_demo.jpg","true","0","80_20_practice",""
"","bandit","35","150788","0.0-18.0-16.0","84905847","wem/bandit_party_2","A2PWE9TKEM99BA","either","8","1015","","","","","","","0","1","0","","0.8","0.5","0.5","","","0.8","0.2","","","","","","","","","","","","","","","","74","J","0","img/none_selected_demo.jpg","true","0","80_20_practice",""
"","bandit","36","152699","0.0-18.0-17.0","84905847","wem/bandit_party_2","A2PWE9TKEM99BA","either","8","407","","","","","","","0","0","1","","0.8","0.5","0.5","","","0.8","0.2","","","","","","","","","","","","","","","","74","J","0","img/none_selected_demo.jpg","true","0","80_20_practice",""
"","bandit","37","154419","0.0-18.0-18.0","84905847","wem/bandit_party_2","A2PWE9TKEM99BA","either","8","216","","","","","","","1","0","0","0.8","","0.5","0.5","","","","","","","0.8","0.2","","","","","","","","","","","","74","J","0","img/none_selected_demo.jpg","true","0","80_20_practice",""
"","bandit","38","156419","0.0-18.0-19.0","84905847","wem/bandit_party_2","A2PWE9TKEM99BA","either","8","495","","","","","","","0","1","0","","0.8","0.5","0.5","","","0.8","0.2","","","","","","","","","","","","","","","","74","J","0","img/none_selected_demo.jpg","true","0","80_20_practice",""
"","text-replacement","39","158558","0.0-19.0","84905847","wem/bandit_party_2","A2PWE9TKEM99BA","either","8","2137","","","32","","","","","","","","","","","","","","","","","","","","","","","","","","","","","","","","","","","","",""
"","bandit","40","160868","0.0-20.0-0.0","84905847","wem/bandit_party_2","A2PWE9TKEM99BA","either","8","805","","","","","","","1","0","0","1","0","","","","","0","1","","","1","0","","","","","","","","","","","","74","J","0","img/none_selected_demo.jpg","true","0","",""
"","text-replacement","41","163262","0.0-21.0","84905847","wem/bandit_party_2","A2PWE9TKEM99BA","either","8","2392","","","32","","","","","","","","","","","","","","","","","","","","","","","","","","","","","","","","","","","","",""
"","text-replacement","42","166406","0.0-22.0","84905847","wem/bandit_party_2","A2PWE9TKEM99BA","either","8","3144","","","32","","","","","","","","","","","","","","","","","","","","","","","","","","","","","","","","","","","","",""
"","text-replacement","43","168142","0.0-23.0","84905847","wem/bandit_party_2","A2PWE9TKEM99BA","either","8","1734","","","32","","","","","","","","","","","","","","","","","","","","","","","","","","","","","","","","","","","","",""
"","text-replacement","44","171549","0.0-24.0","84905847","wem/bandit_party_2","A2PWE9TKEM99BA","either","8","3407","","","32","","","","","","","","","","","","","","","","","","","","","","","","","","","","","","","","","","","","",""
"","text-replacement","45","178214","0.0-25.0","84905847","wem/bandit_party_2","A2PWE9TKEM99BA","either","8","6664","","","32","","","","","","","","","","","","","","","","","","","","","","","","","","","","","","","","","","","","",""
"","text-replacement","46","179965","0.0-26.0","84905847","wem/bandit_party_2","A2PWE9TKEM99BA","either","8","1750","","","32","","","","","","","","","","","","","","","","","","","","","","","","","","","","","","","","","","","","",""
"","text-replacement","47","183166","0.0-27.0","84905847","wem/bandit_party_2","A2PWE9TKEM99BA","either","8","3199","","","32","","","","","","","","","","","","","","","","","","","","","","","","","","","","","","","","","","","","",""
"","text-replacement","48","186381","0.0-28.0","84905847","wem/bandit_party_2","A2PWE9TKEM99BA","either","8","3215","","","32","","","","","","","","","","","","","","","","","","","","","","","","","","","","","","","","","","","","",""
"","text-replacement","49","190966","0.0-29.0","84905847","wem/bandit_party_2","A2PWE9TKEM99BA","either","8","4584","","","32","","","","","","","","","","","","","","","","","","","","","","","","","","","","","","","","","","","","",""
"","text-replacement","50","192101","0.0-30.0","84905847","wem/bandit_party_2","A2PWE9TKEM99BA","either","8","1133","","","32","","","","","","","","","","","","","","","","","","","","","","","","","","","","","","","","","","","","",""
"","text-replacement","51","194973","0.0-31.0","84905847","wem/bandit_party_2","A2PWE9TKEM99BA","either","8","2872","","","32","","","","","","","","","","","","","","","","","","","","","","","","","","","","","","","","","","","","",""
"","bandit","52","197212","0.0-32.0-0.0","84905847","wem/bandit_party_2","A2PWE9TKEM99BA","either","8","734","","","","","","","1","0","0","0.8","","0.5","0.5","0.5","0.5","","","","","0.8","0.2","0.6","0.2","","","","","","","","","","72","H","0","img/none_selected.jpg","true","0","full_practice",""
"","bandit","53","199027","0.0-32.0-1.0","84905847","wem/bandit_party_2","A2PWE9TKEM99BA","either","8","311","","","","","","","0","0","1","","0.8","0.5","0.5","0.5","0.5","0.8","0.2","0.6","0.2","","","","","","","","","","","","","","72","H","0","img/none_selected.jpg","true","0","full_practice",""
"","bandit","54","202122","0.0-32.0-2.0","84905847","wem/bandit_party_2","A2PWE9TKEM99BA","either","8","1592","","","","","","","0","1","0","","0.8","0.5","0.5","0.5","0.5","0.8","0.2","0.6","0.2","","","","","","","","","","","","","","72","H","0","img/none_selected.jpg","true","0","full_practice",""
"","bandit","55","204419","0.0-32.0-3.0","84905847","wem/bandit_party_2","A2PWE9TKEM99BA","either","8","793","","","","","","","1","0","0","0.8","","0.5","0.5","0.5","0.5","","","","","0.8","0.2","0.6","0.2","","","","","","","","","","72","H","0","img/none_selected.jpg","true","0","full_practice",""
"","bandit","56","206372","0.0-32.0-4.0","84905847","wem/bandit_party_2","A2PWE9TKEM99BA","either","8","448","","","","","","","1","0","0","0.8","","0.5","0.5","0.5","0.5","","","","","0.8","0.2","0.6","0.2","","","","","","","","","","72","H","0","img/none_selected.jpg","true","0","full_practice",""
"","bandit","57","208147","0.0-32.0-5.0","84905847","wem/bandit_party_2","A2PWE9TKEM99BA","either","8","271","","","","","","","1","0","0","0.8","","0.5","0.5","0.5","0.5","","","","","0.8","0.2","0.6","0.2","","","","","","","","","","72","H","0","img/none_selected.jpg","true","0","full_practice",""
"","bandit","58","210930","0.0-32.0-6.0","84905847","wem/bandit_party_2","A2PWE9TKEM99BA","either","8","1279","","","","","","","0","1","0","","0.8","0.5","0.5","0.5","0.5","0.8","0.2","0.6","0.2","","","","","","","","","","","","","","72","H","0","img/none_selected.jpg","true","0","full_practice",""
"","bandit","59","213099","0.0-32.0-7.0","84905847","wem/bandit_party_2","A2PWE9TKEM99BA","either","8","665","","","","","","","0","0","1","","0.8","0.5","0.5","0.5","0.5","0.8","0.2","0.6","0.2","","","","","","","","","","","","","","72","H","0","img/none_selected.jpg","true","0","full_practice",""
"","bandit","60","214908","0.0-32.0-8.0","84905847","wem/bandit_party_2","A2PWE9TKEM99BA","either","8","304","","","","","","","0","0","1","","0.8","0.5","0.5","0.5","0.5","0.8","0.2","0.6","0.2","","","","","","","","","","","","","","72","H","0","img/none_selected.jpg","true","0","full_practice",""
"","bandit","61","217203","0.0-32.0-9.0","84905847","wem/bandit_party_2","A2PWE9TKEM99BA","either","8","790","","","","","","","0","1","0","","0.8","0.5","0.5","0.5","0.5","0.8","0.2","0.6","0.2","","","","","","","","","","","","","","72","H","0","img/none_selected.jpg","true","0","full_practice",""
"","bandit","62","219131","0.0-32.0-10.0","84905847","wem/bandit_party_2","A2PWE9TKEM99BA","either","8","424","","","","","","","1","0","0","0.8","","0.5","0.5","0.5","0.5","","","","","0.8","0.2","0.6","0.2","","","","","","","","","","72","H","0","img/none_selected.jpg","true","0","full_practice",""
"","bandit","63","220995","0.0-32.0-11.0","84905847","wem/bandit_party_2","A2PWE9TKEM99BA","either","8","360","","","","","","","1","0","0","0.2","","0.5","0.5","0.5","0.5","","","","","0.8","0.2","0.6","0.2","","","","","","","","","","74","J","1","","true","0","full_practice",""
"","bandit","64","222843","0.0-32.0-12.0","84905847","wem/bandit_party_2","A2PWE9TKEM99BA","either","8","344","","","","","","","0","0","1","0.2","","0.5","0.5","0.5","0.5","","","","","0.8","0.2","0.6","0.2","","","","","","","","","","74","J","1","","true","0","full_practice",""
"","bandit","65","224739","0.0-32.0-13.0","84905847","wem/bandit_party_2","A2PWE9TKEM99BA","either","8","392","","","","","","","0","0","1","0.2","","0.5","0.5","0.5","0.5","","","","","0.8","0.2","0.6","0.2","","","","","","","","","","74","J","1","","true","0","full_practice",""
"","bandit","66","226404","0.0-32.0-14.0","84905847","wem/bandit_party_2","A2PWE9TKEM99BA","either","8","161","","","","","","","0","0","1","","0.2","0.5","0.5","0.5","0.5","0.8","0.2","0.6","0.2","","","","","","","","","","","","","","74","J","1","","true","0","full_practice",""
"","bandit","67","228770","0.0-32.0-15.0","84905847","wem/bandit_party_2","A2PWE9TKEM99BA","either","8","863","","","","","","","1","0","0","0.2","","0.5","0.5","0.5","0.5","","","","","0.8","0.2","0.6","0.2","","","","","","","","","","74","J","1","","true","0","full_practice",""
"","bandit","68","231587","0.0-32.0-16.0","84905847","wem/bandit_party_2","A2PWE9TKEM99BA","either","8","1312","","","","","","","0","0","1","0.2","","0.5","0.5","0.5","0.5","","","","","0.8","0.2","0.6","0.2","","","","","","","","","","74","J","1","","true","0","full_practice",""
"","bandit","69","234003","0.0-32.0-17.0","84905847","wem/bandit_party_2","A2PWE9TKEM99BA","either","8","911","","","","","","","0","0","1","","0.2","0.5","0.5","0.5","0.5","0.8","0.2","0.6","0.2","","","","","","","","","","","","","","74","J","1","","true","0","full_practice",""
"","bandit","70","235866","0.0-32.0-18.0","84905847","wem/bandit_party_2","A2PWE9TKEM99BA","either","8","360","","","","","","","0","1","0","","0.2","0.5","0.5","0.5","0.5","0.8","0.2","0.6","0.2","","","","","","","","","","","","","","74","J","1","","true","0","full_practice",""
"","bandit","71","237820","0.0-32.0-19.0","84905847","wem/bandit_party_2","A2PWE9TKEM99BA","either","8","447","","","","","","","0","0","1","0.2","","0.5","0.5","0.5","0.5","","","","","0.8","0.2","0.6","0.2","","","","","","","","","","74","J","1","","true","0","full_practice",""
"","text","72","241053","0.0-33.0","84905847","wem/bandit_party_2","A2PWE9TKEM99BA","either","8","3229","","","32","","","","","","","","","","","","","","","","","","","","","","","","","","","","","","","","","","","","",""
"","text-replacement","73","249398","0.0-34.0","84905847","wem/bandit_party_2","A2PWE9TKEM99BA","either","8","7343","","","32","","","","","","","","","","","","","","","","","","","","","","","","","","","","","","","","","","","","",""
"","text-replacement","74","253493","0.0-35.0","84905847","wem/bandit_party_2","A2PWE9TKEM99BA","either","8","4094","","","32","","","","","","","","","","","","","","","","","","","","","","","","","","","","","","","","","","","","",""
"","text-replacement","75","257660","0.0-36.0","84905847","wem/bandit_party_2","A2PWE9TKEM99BA","either","8","4165","","","32","","","","","","","","","","","","","","","","","","","","","","","","","","","","","","","","","","","","",""
"","text-replacement","76","261005","0.0-37.0","84905847","wem/bandit_party_2","A2PWE9TKEM99BA","either","8","3344","","","32","","","","","","","","","","","","","","","","","","","","","","","","","","","","","","","","","","","","",""
"","text-replacement","77","263805","0.0-38.0","84905847","wem/bandit_party_2","A2PWE9TKEM99BA","either","8","2798","","","32","","","","","","","","","","","","","","","","","","","","","","","","","","","","","","","","","","","","",""
"","survey-multi-choice-replacement","78","269058","0.0-39.0-0.0","84905847","wem/bandit_party_2","A2PWE9TKEM99BA","either","8","5247","","","","","","","","","","","","","","","","","","","","","","","","Money will be added to the pool for <span style='color:blue;'>DEMOCRATS</span>","","","","","","","attn_check","","","","","","","","","0"
"","survey-multi-choice-replacement","79","274225","0.0-40.0-0.0","84905847","wem/bandit_party_2","A2PWE9TKEM99BA","either","8","4160","","","","","","","","","","","","","","","","","","","","","","","","Equal amounts of money will be added to the pool for <span style='color:blue;'>DEMOCRATS</span> and subtracted from the pool for <span style='color:red;'>REPUBLICANS</span>","","","","","","","attn_check","","","","","","","","","2"
"","survey-multi-choice-replacement","80","277668","0.0-41.0-0.0","84905847","wem/bandit_party_2","A2PWE9TKEM99BA","either","8","2437","","","","","","","","","","","","","","","","","","","","","","","","No money will be added to either pool","","","","","","","attn_check","","","","","","","","","3"
"","bandit","81","282443","0.0-42.0-0.0","84905847","wem/bandit_party_2","A2PWE9TKEM99BA","either","8","2266","","","","","","","0","0","1","0.3040937467","","0.8","0.4","0.6","0.2","","","","","0.3040937467","0.6337563202","0.4468950172","0.2428949588","","","","","","","","","","72","H","0","img/none_selected.jpg","","1","main_expt",""
"","bandit","82","284395","0.0-43.0-0.0","84905847","wem/bandit_party_2","A2PWE9TKEM99BA","either","8","448","","","","","","","0","1","0","","0.7380673114","0.8","0.4","0.6","0.2","0.2687625136","0.7380673114","0.3846124694","0.248961424","","","","","","","","","","","","","","74","J","1","","","2","main_expt",""
"","bandit","83","286242","0.0-44.0-0.0","84905847","wem/bandit_party_2","A2PWE9TKEM99BA","either","8","342","","","","","","","0","1","0","","0.7715549737","0.8","0.4","0.6","0.2","0.3017919557","0.7715549737","0.3885967974","0.1878604038","","","","","","","","","","","","","","74","J","1","","","3","main_expt",""
"","bandit","84","288090","0.0-45.0-0.0","84905847","wem/bandit_party_2","A2PWE9TKEM99BA","either","8","344","","","","","","","0","1","0","","0.8257013646","0.8","0.4","0.6","0.2","0.3388517529","0.8257013646","0.2891644394","0.1194049449","","","","","","","","","","","","","","74","J","1","","","4","main_expt",""
"","bandit","85","289916","0.0-46.0-0.0","84905847","wem/bandit_party_2","A2PWE9TKEM99BA","either","8","320","","","","","","","1","0","0","0.8617886559","","0.8","0.4","0.6","0.2","","","","","0.389096829","0.8617886559","0.2654579937","0.197046458","","","","","","","","","","74","J","1","","","5","main_expt",""
"","bandit","86","291738","0.0-47.0-0.0","84905847","wem/bandit_party_2","A2PWE9TKEM99BA","either","8","319","","","","","","","1","0","0","0.8452125903","","0.8","0.4","0.6","0.2","","","","","0.4799636182","0.8452125903","0.355160999","0.2312720201","","","","","","","","","","74","J","1","","","6","main_expt",""
"","bandit","87","293626","0.0-48.0-0.0","84905847","wem/bandit_party_2","A2PWE9TKEM99BA","either","8","384","","","","","","","0","1","0","","0.8765288384","0.8","0.4","0.6","0.2","0.5316557606","0.8765288384","0.4733904832","0.3255591742","","","","","","","","","","","","","","74","J","1","","","7","main_expt",""
"","bandit","88","295459","0.0-49.0-0.0","84905847","wem/bandit_party_2","A2PWE9TKEM99BA","either","8","329","","","","","","","0","1","0","","0.8625068071","0.8","0.4","0.6","0.2","0.4935712437","0.8625068071","0.4900136729","0.163151729","","","","","","","","","","","","","","74","J","1","","","8","main_expt",""
"","bandit","89","297291","0.0-50.0-0.0","84905847","wem/bandit_party_2","A2PWE9TKEM99BA","either","8","326","","","","","","","0","1","0","","0.8385781597","0.8","0.4","0.6","0.2","0.5400450001","0.8385781597","0.4543552171","0.1671639775","","","","","","","","","","","","","","74","J","1","","","9","main_expt",""
"","bandit","90","299147","0.0-51.0-0.0","84905847","wem/bandit_party_2","A2PWE9TKEM99BA","either","8","351","","","","","","","0","1","0","","0.833356221","0.8","0.4","0.6","0.2","0.6510952772","0.833356221","0.4523920981","0.1315225434","","","","","","","","","","","","","","74","J","1","","","10","main_expt",""
"","bandit","91","300986","0.0-52.0-0.0","84905847","wem/bandit_party_2","A2PWE9TKEM99BA","either","8","335","","","","","","","1","0","0","0.9030756702","","0.8","0.4","0.6","0.2","","","","","0.6117649901","0.9030756702","0.4053083118","0.1287002637","","","","","","","","","","74","J","1","","","11","main_expt",""
"","bandit","92","302825","0.0-53.0-0.0","84905847","wem/bandit_party_2","A2PWE9TKEM99BA","either","8","335","","","","","","","0","0","1","","0.9129290363","0.8","0.4","0.6","0.2","0.6360746298","0.9129290363","0.4059907931","0.1026596936","","","","","","","","","","","","","","74","J","1","","","12","main_expt",""
"","bandit","93","305170","0.0-54.0-0.0","84905847","wem/bandit_party_2","A2PWE9TKEM99BA","either","8","841","","","","","","","0","1","0","","0.8638417716","0.8","0.4","0.6","0.2","0.5673960652","0.8638417716","0.2934167972","0.1287514256","","","","","","","","","","","","","","74","J","1","","","13","main_expt",""
"","bandit","94","307003","0.0-55.0-0.0","84905847","wem/bandit_party_2","A2PWE9TKEM99BA","either","8","328","","","","","","","1","0","0","0.787806988","","0.8","0.4","0.6","0.2","","","","","0.6747725803","0.787806988","0.3260927596","0.1786171179","","","","","","","","","","74","J","1","","","14","main_expt",""
"","bandit","95","308754","0.0-56.0-0.0","84905847","wem/bandit_party_2","A2PWE9TKEM99BA","either","8","247","","","","","","","0","1","0","","0.7254212376","0.8","0.4","0.6","0.2","0.6277188345","0.7254212376","0.3355382734","0.1459410532","","","","","","","","","","","","","","74","J","1","","","15","main_expt",""
"","bandit","96","310690","0.0-57.0-0.0","84905847","wem/bandit_party_2","A2PWE9TKEM99BA","either","8","432","","","","","","","1","0","0","0.7238415528","","0.8","0.4","0.6","0.2","","","","","0.5435568235","0.7238415528","0.3040928121","0.2255600906","","","","","","","","","","74","J","1","","","16","main_expt",""
"","bandit","97","312554","0.0-58.0-0.0","84905847","wem/bandit_party_2","A2PWE9TKEM99BA","either","8","360","","","","","","","0","0","1","0.7796243455","","0.8","0.4","0.6","0.2","","","","","0.4180161478","0.7796243455","0.2730366263","0.2052013943","","","","","","","","","","74","J","1","","","17","main_expt",""
"","bandit","98","314234","0.0-59.0-0.0","84905847","wem/bandit_party_2","A2PWE9TKEM99BA","either","8","174","","","","","","","0","0","1","0.4105298721","","0.8","0.4","0.6","0.2","","","","","0.4961111773","0.6928902724","0.4105298721","0.1780354615","","","","","","","","","","75","K","2","","","18","main_expt",""
"","bandit","99","316043","0.0-60.0-0.0","84905847","wem/bandit_party_2","A2PWE9TKEM99BA","either","8","302","","","","","","","0","0","1","0.3586923344","","0.8","0.4","0.6","0.2","","","","","0.445530788","0.7658630901","0.3586923344","0.1576496117","","","","","","","","","","75","K","2","","","19","main_expt",""
"","bandit","100","317691","0.0-61.0-0.0","84905847","wem/bandit_party_2","A2PWE9TKEM99BA","either","8","144","","","","","","","0","0","1","","0.1618752313","0.8","0.4","0.6","0.2","0.3443163705","0.7584200513","0.3220075653","0.1618752313","","","","","","","","","","","","","","76","L","3","","","20","main_expt",""
"","bandit","101","319402","0.0-62.0-0.0","84905847","wem/bandit_party_2","A2PWE9TKEM99BA","either","8","207","","","","","","","0","1","0","","0.7727038765","0.8","0.4","0.6","0.2","0.3012808647","0.7727038765","0.2729660799","0.2152187387","","","","","","","","","","","","","","74","J","1","","","21","main_expt",""
"","bandit","102","321226","0.0-63.0-0.0","84905847","wem/bandit_party_2","A2PWE9TKEM99BA","either","8","319","","","","","","","1","0","0","0.8152565923","","0.8","0.4","0.6","0.2","","","","","0.2882062485","0.8152565923","0.2712352107","0.3547982299","","","","","","","","","","74","J","1","","","22","main_expt",""
"","bandit","103","323059","0.0-64.0-0.0","84905847","wem/bandit_party_2","A2PWE9TKEM99BA","either","8","328","","","","","","","0","0","1","0.7537075358","","0.8","0.4","0.6","0.2","","","","","0.2113421372","0.7537075358","0.3390855774","0.323805638","","","","","","","","","","74","J","1","","","23","main_expt",""
"","bandit","104","325170","0.0-65.0-0.0","84905847","wem/bandit_party_2","A2PWE9TKEM99BA","either","8","606","","","","","","","0","0","1","0.2201805416","","0.8","0.4","0.6","0.2","","","","","0.2201805416","0.7108822858","0.3483259141","0.3588909826","","","","","","","","","","72","H","0","img/none_selected.jpg","","24","main_expt",""
"","bandit","105","327041","0.0-66.0-0.0","84905847","wem/bandit_party_2","A2PWE9TKEM99BA","either","8","367","","","","","","","0","1","0","","0.3416976173","0.8","0.4","0.6","0.2","0.2580956466","0.6930515954","0.3416976173","0.3885553436","","","","","","","","","","","","","","75","K","2","","","25","main_expt",""
"","bandit","106","328763","0.0-67.0-0.0","84905847","wem/bandit_party_2","A2PWE9TKEM99BA","either","8","217","","","","","","","0","0","1","0.4243476322","","0.8","0.4","0.6","0.2","","","","","0.2153432854","0.6905393417","0.4243476322","0.4871556374","","","","","","","","","","75","K","2","","","26","main_expt",""
"","bandit","107","330626","0.0-68.0-0.0","84905847","wem/bandit_party_2","A2PWE9TKEM99BA","either","8","358","","","","","","","0","1","0","","0.4934119911","0.8","0.4","0.6","0.2","0.1727955236","0.7531652131","0.5257754898","0.4934119911","","","","","","","","","","","","","","76","L","3","","","27","main_expt",""
"","bandit","108","332530","0.0-69.0-0.0","84905847","wem/bandit_party_2","A2PWE9TKEM99BA","either","8","398","","","","","","","0","0","1","","0.4322092846","0.8","0.4","0.6","0.2","0.1894296703","0.8001777041","0.5246232361","0.4322092846","","","","","","","","","","","","","","76","L","3","","","28","main_expt",""
"","bandit","109","334314","0.0-70.0-0.0","84905847","wem/bandit_party_2","A2PWE9TKEM99BA","either","8","280","","","","","","","1","0","0","0.8118404327","","0.8","0.4","0.6","0.2","","","","","0.2128919211","0.8118404327","0.375994784","0.3459113699","","","","","","","","","","74","J","1","","","29","main_expt",""
"","bandit","110","336186","0.0-71.0-0.0","84905847","wem/bandit_party_2","A2PWE9TKEM99BA","either","8","367","","","","","","","0","1","0","","0.7839534503","0.8","0.4","0.6","0.2","0.206056468","0.7839534503","0.2936890161","0.280789843","","","","","","","","","","","","","","74","J","1","","","30","main_expt",""
"","bandit","111","337994","0.0-72.0-0.0","84905847","wem/bandit_party_2","A2PWE9TKEM99BA","either","8","303","","","","","","","0","0","1","","0.8066372971","0.8","0.4","0.6","0.2","0.1725623241","0.8066372971","0.2878812258","0.2613810438","","","","","","","","","","","","","","74","J","1","","","31","main_expt",""
"","bandit","112","339762","0.0-73.0-0.0","84905847","wem/bandit_party_2","A2PWE9TKEM99BA","either","8","263","","","","","","","0","1","0","","0.8049259064","0.8","0.4","0.6","0.2","0.1629883914","0.8049259064","0.2451492808","0.3821585683","","","","","","","","","","","","","","74","J","1","","","32","main_expt",""
"","bandit","113","341617","0.0-74.0-0.0","84905847","wem/bandit_party_2","A2PWE9TKEM99BA","either","8","351","","","","","","","1","0","0","0.7891664673","","0.8","0.4","0.6","0.2","","","","","0.2107911223","0.7891664673","0.2802113289","0.2714925976","","","","","","","","","","74","J","1","","","33","main_expt",""
"","bandit","114","343332","0.0-75.0-0.0","84905847","wem/bandit_party_2","A2PWE9TKEM99BA","either","8","207","","","","","","","1","0","0","0.7854278051","","0.8","0.4","0.6","0.2","","","","","0.1025901997","0.7854278051","0.2892342718","0.2755575364","","","","","","","","","","74","J","1","","","34","main_expt",""
"","bandit","115","345122","0.0-76.0-0.0","84905847","wem/bandit_party_2","A2PWE9TKEM99BA","either","8","285","","","","","","","0","0","1","","0.7260182018","0.8","0.4","0.6","0.2","0.1289879153","0.7260182018","0.2486893666","0.2697856654","","","","","","","","","","","","","","74","J","1","","","35","main_expt",""
"","bandit","116","346995","0.0-77.0-0.0","84905847","wem/bandit_party_2","A2PWE9TKEM99BA","either","8","366","","","","","","","0","0","1","0.7910957192","","0.8","0.4","0.6","0.2","","","","","0.1645491317","0.7910957192","0.3536408983","0.2483646443","","","","","","","","","","74","J","1","","","36","main_expt",""
"","bandit","117","348817","0.0-78.0-0.0","84905847","wem/bandit_party_2","A2PWE9TKEM99BA","either","8","318","","","","","","","1","0","0","0.2493566902","","0.8","0.4","0.6","0.2","","","","","0.1698046746","0.7996551039","0.2493566902","0.2103950957","","","","","","","","","","75","K","2","","","37","main_expt",""
"","bandit","118","350642","0.0-79.0-0.0","84905847","wem/bandit_party_2","A2PWE9TKEM99BA","either","8","320","","","","","","","0","0","1","","0.2948354516","0.8","0.4","0.6","0.2","0.2281502886","0.6717479894","0.2948354516","0.2128944509","","","","","","","","","","","","","","75","K","2","","","38","main_expt",""
"","bandit","119","352450","0.0-80.0-0.0","84905847","wem/bandit_party_2","A2PWE9TKEM99BA","either","8","303","","","","","","","1","0","0","0.2965153327","","0.8","0.4","0.6","0.2","","","","","0.1561271762","0.7121128808","0.3373274679","0.2965153327","","","","","","","","","","76","L","3","","","39","main_expt",""
"","bandit","120","354065","0.0-81.0-0.0","84905847","wem/bandit_party_2","A2PWE9TKEM99BA","either","8","110","","","","","","","0","1","0","","0.4447532253","0.8","0.4","0.6","0.2","0.1543620621","0.7157410044","0.4138768052","0.4447532253","","","","","","","","","","","","","","76","L","3","","","40","main_expt",""
"","bandit","121","355889","0.0-82.0-0.0","84905847","wem/bandit_party_2","A2PWE9TKEM99BA","either","8","320","","","","","","","0","1","0","","0.5330008696","0.8","0.4","0.6","0.2","0.2271499981","0.681196038","0.438096834","0.5330008696","","","","","","","","","","","","","","76","L","3","","","41","main_expt",""
"","bandit","122","357698","0.0-83.0-0.0","84905847","wem/bandit_party_2","A2PWE9TKEM99BA","either","8","303","","","","","","","0","0","1","","0.573861049","0.8","0.4","0.6","0.2","0.2882452936","0.6504320647","0.4185173612","0.573861049","","","","","","","","","","","","","","76","L","3","","","42","main_expt",""
"","bandit","123","359378","0.0-84.0-0.0","84905847","wem/bandit_party_2","A2PWE9TKEM99BA","either","8","176","","","","","","","0","1","0","","0.6654349765","0.8","0.4","0.6","0.2","0.298522686","0.7369830744","0.3796335567","0.6654349765","","","","","","","","","","","","","","76","L","3","","","43","main_expt",""
"","bandit","124","361282","0.0-85.0-0.0","84905847","wem/bandit_party_2","A2PWE9TKEM99BA","either","8","399","","","","","","","0","0","1","","0.691198465","0.8","0.4","0.6","0.2","0.3188886026","0.6797935378","0.31766129","0.691198465","","","","","","","","","","","","","","76","L","3","","","44","main_expt",""
"","bandit","125","363010","0.0-86.0-0.0","84905847","wem/bandit_party_2","A2PWE9TKEM99BA","either","8","223","","","","","","","1","0","0","0.2705760174","","0.8","0.4","0.6","0.2","","","","","0.2705760174","0.6507473666","0.4047397141","0.7652674903","","","","","","","","","","72","H","0","img/none_selected.jpg","","45","main_expt",""
"","bandit","126","364833","0.0-87.0-0.0","84905847","wem/bandit_party_2","A2PWE9TKEM99BA","either","8","318","","","","","","","0","0","1","0.2506880939","","0.8","0.4","0.6","0.2","","","","","0.2506880939","0.6334510787","0.4961613307","0.8065230058","","","","","","","","","","72","H","0","img/none_selected.jpg","","46","main_expt",""
"","bandit","127","366786","0.0-88.0-0.0","84905847","wem/bandit_party_2","A2PWE9TKEM99BA","either","8","448","","","","","","","0","1","0","","0.7774474893","0.8","0.4","0.6","0.2","0.2491585872","0.6143175143","0.4624468315","0.7774474893","","","","","","","","","","","","","","76","L","3","","","47","main_expt",""
"","bandit","128","368474","0.0-89.0-0.0","84905847","wem/bandit_party_2","A2PWE9TKEM99BA","either","8","182","","","","","","","0","1","0","","0.7693176975","0.8","0.4","0.6","0.2","0.1997021219","0.6404512611","0.4886537242","0.7693176975","","","","","","","","","","","","","","76","L","3","","","48","main_expt",""
"","bandit","129","370369","0.0-90.0-0.0","84905847","wem/bandit_party_2","A2PWE9TKEM99BA","either","8","391","","","","","","","0","1","0","","0.807419373","0.8","0.4","0.6","0.2","0.2119577724","0.6758621215","0.4270302022","0.807419373","","","","","","","","","","","","","","76","L","3","","","49","main_expt",""
"","bandit","130","372482","0.0-91.0-0.0","84905847","wem/bandit_party_2","A2PWE9TKEM99BA","either","8","608","","","","","","","0","0","1","","0.8562769227","0.8","0.4","0.6","0.2","0.2615271711","0.6873234502","0.5151345658","0.8562769227","","","","","","","","","","","","","","76","L","3","","","50","main_expt",""
"","bandit","131","374417","0.0-92.0-0.0","84905847","wem/bandit_party_2","A2PWE9TKEM99BA","either","8","431","","","","","","","0","0","1","0.5134524181","","0.8","0.4","0.6","0.2","","","","","0.2764427577","0.7776044395","0.5134524181","0.8705114925","","","","","","","","","","75","K","2","","","51","main_expt",""
"","bandit","132","376849","0.0-93.0-0.0","84905847","wem/bandit_party_2","A2PWE9TKEM99BA","either","8","928","","","","","","","0","0","1","0.3833776697","","0.8","0.4","0.6","0.2","","","","","0.3833776697","0.8403410939","0.4842684999","0.9310361031","","","","","","","","","","72","H","0","img/none_selected.jpg","","52","main_expt",""
"","bandit","133","378657","0.0-94.0-0.0","84905847","wem/bandit_party_2","A2PWE9TKEM99BA","either","8","301","","","","","","","0","1","0","","0.8151983534","0.8","0.4","0.6","0.2","0.4356502318","0.8151983534","0.4412850773","0.905794742","","","","","","","","","","","","","","74","J","1","","","53","main_expt",""
"","bandit","134","380514","0.0-95.0-0.0","84905847","wem/bandit_party_2","A2PWE9TKEM99BA","either","8","352","","","","","","","0","1","0","","0.8081222638","0.8","0.4","0.6","0.2","0.4120588364","0.8081222638","0.4397693946","0.9391541593","","","","","","","","","","","","","","74","J","1","","","54","main_expt",""
"","bandit","135","383050","0.0-96.0-0.0","84905847","wem/bandit_party_2","A2PWE9TKEM99BA","either","8","1032","","","","","","","0","1","0","","0.742009976","0.8","0.4","0.6","0.2","0.2714296105","0.742009976","0.3928202278","0.9596285882","","","","","","","","","","","","","","74","J","1","","","55","main_expt",""
"","bandit","136","385257","0.0-97.0-0.0","84905847","wem/bandit_party_2","A2PWE9TKEM99BA","either","8","703","","","","","","","0","0","1","","0.7065076074","0.8","0.4","0.6","0.2","0.2122311877","0.7065076074","0.4593665993","0.9565658233","","","","","","","","","","","","","","74","J","1","","","56","main_expt",""
"","bandit","137","387161","0.0-98.0-0.0","84905847","wem/bandit_party_2","A2PWE9TKEM99BA","either","8","399","","","","","","","0","0","1","","0.6860695476","0.8","0.4","0.6","0.2","0.2282278588","0.6860695476","0.4006145211","0.9681540372","","","","","","","","","","","","","","74","J","1","","","57","main_expt",""
"","bandit","138","390080","0.0-99.0-0.0","84905847","wem/bandit_party_2","A2PWE9TKEM99BA","either","8","1414","","","","","","","0","1","0","","0.742301155","0.8","0.4","0.6","0.2","0.1392076118","0.742301155","0.4597890412","0.9207083952","","","","","","","","","","","","","","74","J","1","","","58","main_expt",""
"","bandit","139","391793","0.0-100.0-0.0","84905847","wem/bandit_party_2","A2PWE9TKEM99BA","either","8","208","","","","","","","0","1","0","","0.9178227258","0.8","0.4","0.6","0.2","0.1706239206","0.5291004622","0.4232266093","0.9178227258","","","","","","","","","","","","","","76","L","3","","","59","main_expt",""
"","bandit","140","393793","0.0-101.0-0.0","84905847","wem/bandit_party_2","A2PWE9TKEM99BA","either","8","495","","","","","","","0","1","0","","0.8951285427","0.8","0.4","0.6","0.2","0.1674269281","0.6348838793","0.3565880291","0.8951285427","","","","","","","","","","","","","","76","L","3","","","60","main_expt",""
"","bandit","141","395737","0.0-102.0-0.0","84905847","wem/bandit_party_2","A2PWE9TKEM99BA","either","8","439","","","","","","","0","1","0","","0.8506814954","0.8","0.4","0.6","0.2","0.2182313474","0.6796423313","0.3663276413","0.8506814954","","","","","","","","","","","","","","76","L","3","","","61","main_expt",""
"","bandit","142","397450","0.0-103.0-0.0","84905847","wem/bandit_party_2","A2PWE9TKEM99BA","either","8","207","","","","","","","0","1","0","","0.8513854559","0.8","0.4","0.6","0.2","0.2949218256","0.6928172916","0.3193005293","0.8513854559","","","","","","","","","","","","","","76","L","3","","","62","main_expt",""
"","bandit","143","399290","0.0-104.0-0.0","84905847","wem/bandit_party_2","A2PWE9TKEM99BA","either","8","334","","","","","","","0","1","0","","0.8927579502","0.8","0.4","0.6","0.2","0.3170222383","0.6996506825","0.1562068481","0.8927579502","","","","","","","","","","","","","","76","L","3","","","63","main_expt",""
"","bandit","144","401138","0.0-105.0-0.0","84905847","wem/bandit_party_2","A2PWE9TKEM99BA","either","8","342","","","","","","","1","0","0","0.9217936765","","0.8","0.4","0.6","0.2","","","","","0.3033511374","0.7294442249","0.2300477965","0.9217936765","","","","","","","","","","76","L","3","","","64","main_expt",""
"","bandit","145","402763","0.0-106.0-0.0","84905847","wem/bandit_party_2","A2PWE9TKEM99BA","either","8","118","","","","","","","0","1","0","","0.9357047413","0.8","0.4","0.6","0.2","0.3973690147","0.6605354899","0.2869838185","0.9357047413","","","","","","","","","","","","","","76","L","3","","","65","main_expt",""
"","bandit","146","404929","0.0-107.0-0.0","84905847","wem/bandit_party_2","A2PWE9TKEM99BA","either","8","661","","","","","","","1","0","0","0.910343843","","0.8","0.4","0.6","0.2","","","","","0.4320294497","0.6959621059","0.3287476356","0.910343843","","","","","","","","","","76","L","3","","","66","main_expt",""
"","bandit","147","406793","0.0-108.0-0.0","84905847","wem/bandit_party_2","A2PWE9TKEM99BA","either","8","359","","","","","","","0","1","0","","0.9022080512","0.8","0.4","0.6","0.2","0.3208465419","0.653899752","0.3018365728","0.9022080512","","","","","","","","","","","","","","76","L","3","","","67","main_expt",""
"","bandit","148","408674","0.0-109.0-0.0","84905847","wem/bandit_party_2","A2PWE9TKEM99BA","either","8","374","","","","","","","0","0","1","","0.8492414063","0.8","0.4","0.6","0.2","0.3570730799","0.6517851336","0.3208616414","0.8492414063","","","","","","","","","","","","","","76","L","3","","","68","main_expt",""
"","bandit","149","410529","0.0-110.0-0.0","84905847","wem/bandit_party_2","A2PWE9TKEM99BA","either","8","349","","","","","","","0","1","0","","0.768219052","0.8","0.4","0.6","0.2","0.3451514791","0.7011615004","0.386863802","0.768219052","","","","","","","","","","","","","","76","L","3","","","69","main_expt",""
"","bandit","150","412289","0.0-111.0-0.0","84905847","wem/bandit_party_2","A2PWE9TKEM99BA","either","8","255","","","","","","","0","0","1","","0.7996218848","0.8","0.4","0.6","0.2","0.3127714871","0.6278947594","0.3628244161","0.7996218848","","","","","","","","","","","","","","76","L","3","","","70","main_expt",""
"","bandit","151","414371","0.0-112.0-0.0","84905847","wem/bandit_party_2","A2PWE9TKEM99BA","either","8","576","","","","","","","0","0","1","","0.9130189757","0.8","0.4","0.6","0.2","0.3855297895","0.688517509","0.2969295023","0.9130189757","","","","","","","","","","","","","","76","L","3","","","71","main_expt",""
"","bandit","152","416184","0.0-113.0-0.0","84905847","wem/bandit_party_2","A2PWE9TKEM99BA","either","8","309","","","","","","","0","0","1","0.3512325323","","0.8","0.4","0.6","0.2","","","","","0.3555010044","0.6125440106","0.3512325323","0.9016843832","","","","","","","","","","75","K","2","","","72","main_expt",""
"","bandit","153","417769","0.0-114.0-0.0","84905847","wem/bandit_party_2","A2PWE9TKEM99BA","either","8","80","","","","","","","0","0","1","0.4884410468","","0.8","0.4","0.6","0.2","","","","","0.3278360739","0.4884410468","0.3845321254","0.9166584401","","","","","","","","","","74","J","1","","","73","main_expt",""
"","bandit","154","419626","0.0-115.0-0.0","84905847","wem/bandit_party_2","A2PWE9TKEM99BA","either","8","351","","","","","","","0","1","0","","0.5800760741","0.8","0.4","0.6","0.2","0.3275161349","0.5800760741","0.3760614253","0.8699410266","","","","","","","","","","","","","","74","J","1","","","74","main_expt",""
"","bandit","155","421489","0.0-116.0-0.0","84905847","wem/bandit_party_2","A2PWE9TKEM99BA","either","8","358","","","","","","","0","1","0","","0.6614390465","0.8","0.4","0.6","0.2","0.3454333807","0.6614390465","0.370831352","0.8192171788","","","","","","","","","","","","","","74","J","1","","","75","main_expt",""
"","bandit","156","423338","0.0-117.0-0.0","84905847","wem/bandit_party_2","A2PWE9TKEM99BA","either","8","343","","","","","","","0","0","1","0.6861570843","","0.8","0.4","0.6","0.2","","","","","0.4213924804","0.6861570843","0.4008199491","0.8990587115","","","","","","","","","","74","J","1","","","76","main_expt",""
"","bandit","157","425131","0.0-118.0-0.0","84905847","wem/bandit_party_2","A2PWE9TKEM99BA","either","8","287","","","","","","","1","0","0","0.439510692","","0.8","0.4","0.6","0.2","","","","","0.439510692","0.5980737028","0.3928984844","0.9062137116","","","","","","","","","","72","H","0","img/none_selected.jpg","","77","main_expt",""
"","bandit","158","426897","0.0-119.0-0.0","84905847","wem/bandit_party_2","A2PWE9TKEM99BA","either","8","262","","","","","","","0","0","1","0.4419424199","","0.8","0.4","0.6","0.2","","","","","0.4419424199","0.6754083514","0.4709058574","0.9215914722","","","","","","","","","","72","H","0","img/none_selected.jpg","","78","main_expt",""
"","bandit","159","428721","0.0-120.0-0.0","84905847","wem/bandit_party_2","A2PWE9TKEM99BA","either","8","318","","","","","","","0","0","1","0.5056762283","","0.8","0.4","0.6","0.2","","","","","0.5056762283","0.7012934339","0.4971614577","0.895443078","","","","","","","","","","72","H","0","img/none_selected.jpg","","79","main_expt",""
"","bandit","160","430593","0.0-121.0-0.0","84905847","wem/bandit_party_2","A2PWE9TKEM99BA","either","8","366","","","","","","","1","0","0","0.7067798052","","0.8","0.4","0.6","0.2","","","","","0.4558190996","0.7067798052","0.4828267768","0.7789772955","","","","","","","","","","74","J","1","","","80","main_expt",""
"","bandit","161","432465","0.0-122.0-0.0","84905847","wem/bandit_party_2","A2PWE9TKEM99BA","either","8","367","","","","","","","0","1","0","","0.7259433061","0.8","0.4","0.6","0.2","0.4774921548","0.7259433061","0.4280570329","0.755426824","","","","","","","","","","","","","","74","J","1","","","81","main_expt",""
"","bandit","162","434234","0.0-123.0-0.0","84905847","wem/bandit_party_2","A2PWE9TKEM99BA","either","8","263","","","","","","","1","0","0","0.7022130872","","0.8","0.4","0.6","0.2","","","","","0.3611036613","0.7022130872","0.486136241","0.8356426425","","","","","","","","","","74","J","1","","","82","main_expt",""
"","bandit","163","435921","0.0-124.0-0.0","84905847","wem/bandit_party_2","A2PWE9TKEM99BA","either","8","182","","","","","","","1","0","0","0.75927227","","0.8","0.4","0.6","0.2","","","","","0.3341354767","0.75927227","0.3539143083","0.8783145762","","","","","","","","","","74","J","1","","","83","main_expt",""
"","bandit","164","437746","0.0-125.0-0.0","84905847","wem/bandit_party_2","A2PWE9TKEM99BA","either","8","319","","","","","","","1","0","0","0.8556046088","","0.8","0.4","0.6","0.2","","","","","0.288479151","0.8556046088","0.374811954","0.9087743635","","","","","","","","","","74","J","1","","","84","main_expt",""
"","bandit","165","439641","0.0-126.0-0.0","84905847","wem/bandit_party_2","A2PWE9TKEM99BA","either","8","391","","","","","","","0","1","0","","0.7835234447","0.8","0.4","0.6","0.2","0.3061923995","0.7835234447","0.4518264681","0.8632011641","","","","","","","","","","","","","","74","J","1","","","85","main_expt",""
"","bandit","166","441377","0.0-127.0-0.0","84905847","wem/bandit_party_2","A2PWE9TKEM99BA","either","8","230","","","","","","","1","0","0","0.7037548709","","0.8","0.4","0.6","0.2","","","","","0.3370204437","0.7037548709","0.461936863","0.8341253046","","","","","","","","","","74","J","1","","","86","main_expt",""
"","bandit","167","443280","0.0-128.0-0.0","84905847","wem/bandit_party_2","A2PWE9TKEM99BA","either","8","398","","","","","","","0","0","1","","0.6903674631","0.8","0.4","0.6","0.2","0.3900809043","0.6903674631","0.3681660755","0.8728746981","","","","","","","","","","","","","","74","J","1","","","87","main_expt",""
"","bandit","168","445008","0.0-129.0-0.0","84905847","wem/bandit_party_2","A2PWE9TKEM99BA","either","8","222","","","","","","","1","0","0","0.8408980459","","0.8","0.4","0.6","0.2","","","","","0.4296615172","0.5883284312","0.3788462328","0.8408980459","","","","","","","","","","76","L","3","","","88","main_expt",""
"","bandit","169","446762","0.0-130.0-0.0","84905847","wem/bandit_party_2","A2PWE9TKEM99BA","either","8","249","","","","","","","0","0","1","","0.8585781628","0.8","0.4","0.6","0.2","0.4636560077","0.5258490985","0.3316952272","0.8585781628","","","","","","","","","","","","","","76","L","3","","","89","main_expt",""
"","bandit","170","448449","0.0-131.0-0.0","84905847","wem/bandit_party_2","A2PWE9TKEM99BA","either","8","181","","","","","","","1","0","0","0.925840658","","0.8","0.4","0.6","0.2","","","","","0.4463585346","0.6395041767","0.438068917","0.925840658","","","","","","","","","","76","L","3","","","90","main_expt",""
"","bandit","171","450353","0.0-132.0-0.0","84905847","wem/bandit_party_2","A2PWE9TKEM99BA","either","8","400","","","","","","","0","1","0","","0.9201841885","0.8","0.4","0.6","0.2","0.4734463503","0.6931091445","0.5158843935","0.9201841885","","","","","","","","","","","","","","76","L","3","","","91","main_expt",""
"","bandit","172","452138","0.0-133.0-0.0","84905847","wem/bandit_party_2","A2PWE9TKEM99BA","either","8","279","","","","","","","0","1","0","","0.8508076908","0.8","0.4","0.6","0.2","0.5248255385","0.6725373887","0.5182757575","0.8508076908","","","","","","","","","","","","","","76","L","3","","","92","main_expt",""
"","bandit","173","454017","0.0-134.0-0.0","84905847","wem/bandit_party_2","A2PWE9TKEM99BA","either","8","373","","","","","","","0","1","0","","0.8106711147","0.8","0.4","0.6","0.2","0.3386726181","0.7388835399","0.5498130742","0.8106711147","","","","","","","","","","","","","","76","L","3","","","93","main_expt",""
"","bandit","174","455777","0.0-135.0-0.0","84905847","wem/bandit_party_2","A2PWE9TKEM99BA","either","8","252","","","","","","","0","1","0","","0.8543263914","0.8","0.4","0.6","0.2","0.3718894848","0.697373586","0.6049407638","0.8543263914","","","","","","","","","","","","","","76","L","3","","","94","main_expt",""
"","bandit","175","457563","0.0-136.0-0.0","84905847","wem/bandit_party_2","A2PWE9TKEM99BA","either","8","279","","","","","","","1","0","0","0.8387782901","","0.8","0.4","0.6","0.2","","","","","0.4005278521","0.7550322224","0.6604115927","0.8387782901","","","","","","","","","","76","L","3","","","95","main_expt",""
"","bandit","176","459361","0.0-137.0-0.0","84905847","wem/bandit_party_2","A2PWE9TKEM99BA","either","8","292","","","","","","","0","1","0","","0.8208071174","0.8","0.4","0.6","0.2","0.3694595514","0.6576962358","0.7003847986","0.8208071174","","","","","","","","","","","","","","76","L","3","","","96","main_expt",""
"","bandit","177","461457","0.0-138.0-0.0","84905847","wem/bandit_party_2","A2PWE9TKEM99BA","either","8","590","","","","","","","0","1","0","","0.765358829","0.8","0.4","0.6","0.2","0.3186037095","0.6802484638","0.6793148949","0.765358829","","","","","","","","","","","","","","76","L","3","","","97","main_expt",""
"","bandit","178","463272","0.0-139.0-0.0","84905847","wem/bandit_party_2","A2PWE9TKEM99BA","either","8","310","","","","","","","0","1","0","","0.7823463211","0.8","0.4","0.6","0.2","0.2786717818","0.7042077447","0.6204607354","0.7823463211","","","","","","","","","","","","","","76","L","3","","","98","main_expt",""
"","bandit","179","465056","0.0-140.0-0.0","84905847","wem/bandit_party_2","A2PWE9TKEM99BA","either","8","280","","","","","","","1","0","0","0.7523003034","","0.8","0.4","0.6","0.2","","","","","0.32929866","0.7355617892","0.6166262367","0.7523003034","","","","","","","","","","76","L","3","","","99","main_expt",""
"","bandit","180","466808","0.0-141.0-0.0","84905847","wem/bandit_party_2","A2PWE9TKEM99BA","either","8","247","","","","","","","0","1","0","","0.7174790615","0.8","0.4","0.6","0.2","0.3115323478","0.7117411671","0.5347115766","0.7174790615","","","","","","","","","","","","","","76","L","3","","","100","main_expt",""
"","bandit","181","468738","0.0-142.0-0.0","84905847","wem/bandit_party_2","A2PWE9TKEM99BA","either","8","424","","","","","","","0","0","1","","0.7660578318","0.8","0.4","0.6","0.2","0.4221749579","0.7263903312","0.3418016043","0.7660578318","","","","","","","","","","","","","","76","L","3","","","101","main_expt",""
"","bandit","182","470625","0.0-143.0-0.0","84905847","wem/bandit_party_2","A2PWE9TKEM99BA","either","8","381","","","","","","","1","0","0","0.7357346189","","0.8","0.4","0.6","0.2","","","","","0.2718078598","0.7357346189","0.2550922237","0.7201180075","","","","","","","","","","74","J","1","","","102","main_expt",""
"","bandit","183","472633","0.0-144.0-0.0","84905847","wem/bandit_party_2","A2PWE9TKEM99BA","either","8","501","","","","","","","1","0","0","0.7026134783","","0.8","0.4","0.6","0.2","","","","","0.3011307106","0.7026134783","0.3181696353","0.8452780714","","","","","","","","","","74","J","1","","","103","main_expt",""
"","bandit","184","476096","0.0-145.0-0.0","84905847","wem/bandit_party_2","A2PWE9TKEM99BA","either","8","1958","","","","","","","0","1","0","","0.8073666152","0.8","0.4","0.6","0.2","0.3659291838","0.8073666152","0.3383579412","0.7236924273","","","","","","","","","","","","","","74","J","1","","","104","main_expt",""
"","bandit","185","478922","0.0-146.0-0.0","84905847","wem/bandit_party_2","A2PWE9TKEM99BA","either","8","1319","","","","","","","1","0","0","0.824483439","","0.8","0.4","0.6","0.2","","","","","0.3499435223","0.824483439","0.2354673658","0.743719778","","","","","","","","","","74","J","1","","","105","main_expt",""
"","bandit","186","480656","0.0-147.0-0.0","84905847","wem/bandit_party_2","A2PWE9TKEM99BA","either","8","229","","","","","","","0","1","0","","0.9208810438","0.8","0.4","0.6","0.2","0.3602262465","0.9208810438","0.159398249","0.7985687284","","","","","","","","","","","","","","74","J","1","","","106","main_expt",""
"","bandit","187","484432","0.0-148.0-0.0","84905847","wem/bandit_party_2","A2PWE9TKEM99BA","either","8","2270","","","","","","","0","1","0","","0.8911910097","0.8","0.4","0.6","0.2","0.3252215163","0.8911910097","0.1295169146","0.799345197","","","","","","","","","","","","","","74","J","1","","","107","main_expt",""
"","bandit","188","487330","0.0-149.0-0.0","84905847","wem/bandit_party_2","A2PWE9TKEM99BA","either","8","1391","","","","","","","1","0","0","0.8450149587","","0.8","0.4","0.6","0.2","","","","","0.2812406992","0.8450149587","0.07754053308","0.8681690713","","","","","","","","","","74","J","1","","","108","main_expt",""
"","bandit","189","489465","0.0-150.0-0.0","84905847","wem/bandit_party_2","A2PWE9TKEM99BA","either","8","630","","","","","","","0","0","1","0.868327257","","0.8","0.4","0.6","0.2","","","","","0.2559497519","0.868327257","0.06591215473","0.8556732204","","","","","","","","","","74","J","1","","","109","main_expt",""
"","bandit","190","491368","0.0-151.0-0.0","84905847","wem/bandit_party_2","A2PWE9TKEM99BA","either","8","398","","","","","","","0","1","0","","0.8669893864","0.8","0.4","0.6","0.2","0.2817400418","0.8868335222","0.1189546392","0.8669893864","","","","","","","","","","","","","","76","L","3","","","110","main_expt",""
"","bandit","191","493105","0.0-152.0-0.0","84905847","wem/bandit_party_2","A2PWE9TKEM99BA","either","8","230","","","","","","","0","0","1","","0.799383849","0.8","0.4","0.6","0.2","0.2773620367","0.8770728171","0.09523351692","0.799383849","","","","","","","","","","","","","","76","L","3","","","111","main_expt",""
"","bandit","192","494920","0.0-153.0-0.0","84905847","wem/bandit_party_2","A2PWE9TKEM99BA","either","8","310","","","","","","","0","1","0","","0.859799476","0.8","0.4","0.6","0.2","0.2833316415","0.8481710002","0.107489667","0.859799476","","","","","","","","","","","","","","76","L","3","","","112","main_expt",""
"","bandit","193","496817","0.0-154.0-0.0","84905847","wem/bandit_party_2","A2PWE9TKEM99BA","either","8","391","","","","","","","0","1","0","","0.8573528835","0.8","0.4","0.6","0.2","0.3433702059","0.8573528835","0.1026187258","0.7932436089","","","","","","","","","","","","","","74","J","1","","","113","main_expt",""
"","bandit","194","499473","0.0-155.0-0.0","84905847","wem/bandit_party_2","A2PWE9TKEM99BA","either","8","1151","","","","","","","0","0","1","","0.8291807482","0.8","0.4","0.6","0.2","0.4828882278","0.8291807482","0.1044839951","0.849407262","","","","","","","","","","","","","","74","J","1","","","114","main_expt",""
"","bandit","195","501465","0.0-156.0-0.0","84905847","wem/bandit_party_2","A2PWE9TKEM99BA","either","8","485","","","","","","","0","1","0","","0.761972944","0.8","0.4","0.6","0.2","0.54932579","0.761972944","0.1213931844","0.8882716547","","","","","","","","","","","","","","74","J","1","","","115","main_expt",""
"","bandit","196","504432","0.0-157.0-0.0","84905847","wem/bandit_party_2","A2PWE9TKEM99BA","either","8","1462","","","","","","","1","0","0","0.786197192","","0.8","0.4","0.6","0.2","","","","","0.6971345968","0.786197192","0.1184144227","0.8741354715","","","","","","","","","","74","J","1","","","116","main_expt",""
"","bandit","197","506240","0.0-158.0-0.0","84905847","wem/bandit_party_2","A2PWE9TKEM99BA","either","8","301","","","","","","","1","0","0","0.7834453561","","0.8","0.4","0.6","0.2","","","","","0.5396272374","0.7834453561","0.1983931569","0.8083823922","","","","","","","","","","74","J","1","","","117","main_expt",""
"","bandit","198","508104","0.0-159.0-0.0","84905847","wem/bandit_party_2","A2PWE9TKEM99BA","either","8","359","","","","","","","0","1","0","","0.6742380839","0.8","0.4","0.6","0.2","0.5544567993","0.6742380839","0.2840039584","0.868525306","","","","","","","","","","","","","","74","J","1","","","118","main_expt",""
"","bandit","199","510290","0.0-160.0-0.0","84905847","wem/bandit_party_2","A2PWE9TKEM99BA","either","8","679","","","","","","","0","0","1","","0.7350700153","0.8","0.4","0.6","0.2","0.5504896642","0.7350700153","0.3563325119","0.8386471998","","","","","","","","","","","","","","74","J","1","","","119","main_expt",""
"","bandit","200","511936","0.0-161.0-0.0","84905847","wem/bandit_party_2","A2PWE9TKEM99BA","either","8","140","","","","","","","0","1","0","","0.70601835","0.8","0.4","0.6","0.2","0.5812137135","0.70601835","0.5682387565","0.8103559508","","","","","","","","","","","","","","74","J","1","","","120","main_expt",""
"","bandit","201","514296","0.0-162.0-0.0","84905847","wem/bandit_party_2","A2PWE9TKEM99BA","either","8","854","","","","","","","0","1","0","","0.8193015173","0.8","0.4","0.6","0.2","0.6033058466","0.7347719752","0.5189107771","0.8193015173","","","","","","","","","","","","","","76","L","3","","","121","main_expt",""
"","bandit","202","516120","0.0-163.0-0.0","84905847","wem/bandit_party_2","A2PWE9TKEM99BA","either","8","319","","","","","","","0","1","0","","0.8025146027","0.8","0.4","0.6","0.2","0.6102220397","0.8270923978","0.4428493372","0.8025146027","","","","","","","","","","","","","","76","L","3","","","122","main_expt",""
"","bandit","203","517927","0.0-164.0-0.0","84905847","wem/bandit_party_2","A2PWE9TKEM99BA","either","8","301","","","","","","","1","0","0","0.8121847492","","0.8","0.4","0.6","0.2","","","","","0.6108151959","0.7980631313","0.472724465","0.8121847492","","","","","","","","","","76","L","3","","","123","main_expt",""
"","bandit","204","519746","0.0-165.0-0.0","84905847","wem/bandit_party_2","A2PWE9TKEM99BA","either","8","312","","","","","","","0","1","0","","0.8299418439","0.8","0.4","0.6","0.2","0.7117385939","0.7369852887","0.4799585558","0.8299418439","","","","","","","","","","","","","","76","L","3","","","124","main_expt",""
"","bandit","205","521555","0.0-166.0-0.0","84905847","wem/bandit_party_2","A2PWE9TKEM99BA","either","8","302","","","","","","","0","1","0","","0.825688343","0.8","0.4","0.6","0.2","0.7554186078","0.7465944313","0.5080184993","0.825688343","","","","","","","","","","","","","","76","L","3","","","125","main_expt",""
"","bandit","206","523369","0.0-167.0-0.0","84905847","wem/bandit_party_2","A2PWE9TKEM99BA","either","8","307","","","","","","","0","1","0","","0.8372054396","0.8","0.4","0.6","0.2","0.8855751833","0.7596834852","0.4555098289","0.8372054396","","","","","","","","","","","","","","76","L","3","","","126","main_expt",""
"","bandit","207","525145","0.0-168.0-0.0","84905847","wem/bandit_party_2","A2PWE9TKEM99BA","either","8","269","","","","","","","0","0","1","","0.7906689898","0.8","0.4","0.6","0.2","0.8003015049","0.7398299979","0.5475411796","0.7906689898","","","","","","","","","","","","","","76","L","3","","","127","main_expt",""
"","bandit","208","526968","0.0-169.0-0.0","84905847","wem/bandit_party_2","A2PWE9TKEM99BA","either","8","318","","","","","","","0","1","0","","0.7764866849","0.8","0.4","0.6","0.2","0.8403113951","0.7764866849","0.612647382","0.8008571507","","","","","","","","","","","","","","74","J","1","","","128","main_expt",""
"","bandit","209","529096","0.0-170.0-0.0","84905847","wem/bandit_party_2","A2PWE9TKEM99BA","either","8","621","","","","","","","0","0","1","","0.6435675963","0.8","0.4","0.6","0.2","0.8826872071","0.6435675963","0.7128970287","0.7829297973","","","","","","","","","","","","","","74","J","1","","","129","main_expt",""
"","bandit","210","530872","0.0-171.0-0.0","84905847","wem/bandit_party_2","A2PWE9TKEM99BA","either","8","269","","","","","","","0","1","0","","0.6898445721","0.8","0.4","0.6","0.2","0.8641000085","0.7030252038","0.7309911721","0.6898445721","","","","","","","","","","","","","","76","L","3","","","130","main_expt",""
"","bandit","211","532658","0.0-172.0-0.0","84905847","wem/bandit_party_2","A2PWE9TKEM99BA","either","8","279","","","","","","","0","1","0","","0.5864867529","0.8","0.4","0.6","0.2","0.8752037592","0.6829232191","0.73180147","0.5864867529","","","","","","","","","","","","","","76","L","3","","","131","main_expt",""
"","bandit","212","534409","0.0-173.0-0.0","84905847","wem/bandit_party_2","A2PWE9TKEM99BA","either","8","244","","","","","","","0","1","0","","0.560122833","0.8","0.4","0.6","0.2","0.8279556795","0.7406452387","0.8467134838","0.560122833","","","","","","","","","","","","","","76","L","3","","","132","main_expt",""
"","bandit","213","536183","0.0-174.0-0.0","84905847","wem/bandit_party_2","A2PWE9TKEM99BA","either","8","269","","","","","","","0","1","0","","0.48439517","0.8","0.4","0.6","0.2","0.8194722428","0.6666234363","0.8481264083","0.48439517","","","","","","","","","","","","","","76","L","3","","","133","main_expt",""
"","bandit","214","538112","0.0-175.0-0.0","84905847","wem/bandit_party_2","A2PWE9TKEM99BA","either","8","424","","","","","","","1","0","0","0.3919863126","","0.8","0.4","0.6","0.2","","","","","0.8037084922","0.680542061","0.8771050955","0.3919863126","","","","","","","","","","76","L","3","","","134","main_expt",""
"","bandit","215","540049","0.0-176.0-0.0","84905847","wem/bandit_party_2","A2PWE9TKEM99BA","either","8","430","","","","","","","0","0","1","","0.5174750093","0.8","0.4","0.6","0.2","0.8155916457","0.7006187635","0.9103241533","0.5174750093","","","","","","","","","","","","","","76","L","3","","","135","main_expt",""
"","bandit","216","541824","0.0-177.0-0.0","84905847","wem/bandit_party_2","A2PWE9TKEM99BA","either","8","270","","","","","","","0","1","0","","0.6936815578","0.8","0.4","0.6","0.2","0.8281957705","0.6936815578","0.9126032517","0.4264762493","","","","","","","","","","","","","","74","J","1","","","136","main_expt",""
"","bandit","217","543728","0.0-178.0-0.0","84905847","wem/bandit_party_2","A2PWE9TKEM99BA","either","8","398","","","","","","","1","0","0","0.6531428085","","0.8","0.4","0.6","0.2","","","","","0.7055403129","0.6531428085","0.8983360858","0.5351999402","","","","","","","","","","74","J","1","","","137","main_expt",""
"","bandit","218","545632","0.0-179.0-0.0","84905847","wem/bandit_party_2","A2PWE9TKEM99BA","either","8","399","","","","","","","0","1","0","","0.6769758131","0.8","0.4","0.6","0.2","0.6884351598","0.6769758131","0.8851370462","0.4758748922","","","","","","","","","","","","","","74","J","1","","","138","main_expt",""
"","bandit","219","547495","0.0-180.0-0.0","84905847","wem/bandit_party_2","A2PWE9TKEM99BA","either","8","357","","","","","","","0","1","0","","0.7649589049","0.8","0.4","0.6","0.2","0.6090423031","0.7649589049","0.8662270416","0.4039793023","","","","","","","","","","","","","","74","J","1","","","139","main_expt",""
"","bandit","220","549432","0.0-181.0-0.0","84905847","wem/bandit_party_2","A2PWE9TKEM99BA","either","8","432","","","","","","","0","1","0","","0.7674202191","0.8","0.4","0.6","0.2","0.7000077187","0.7674202191","0.8345767194","0.384774136","","","","","","","","","","","","","","74","J","1","","","140","main_expt",""
"","bandit","221","551288","0.0-182.0-0.0","84905847","wem/bandit_party_2","A2PWE9TKEM99BA","either","8","349","","","","","","","0","1","0","","0.8575114448","0.8","0.4","0.6","0.2","0.6643185619","0.8575114448","0.8783670964","0.327254859","","","","","","","","","","","","","","74","J","1","","","141","main_expt",""
"","bandit","222","553056","0.0-183.0-0.0","84905847","wem/bandit_party_2","A2PWE9TKEM99BA","either","8","262","","","","","","","0","1","0","","0.8134430427","0.8","0.4","0.6","0.2","0.7079845674","0.8134430427","0.8895828315","0.4536641492","","","","","","","","","","","","","","74","J","1","","","142","main_expt",""
"","bandit","223","555121","0.0-184.0-0.0","84905847","wem/bandit_party_2","A2PWE9TKEM99BA","either","8","559","","","","","","","0","1","0","","0.8345505038","0.8","0.4","0.6","0.2","0.6624187643","0.8345505038","0.9053928798","0.4348486293","","","","","","","","","","","","","","74","J","1","","","143","main_expt",""
"","bandit","224","557016","0.0-185.0-0.0","84905847","wem/bandit_party_2","A2PWE9TKEM99BA","either","8","390","","","","","","","1","0","0","0.6779247185","","0.8","0.4","0.6","0.2","","","","","0.6779247185","0.7482817554","0.9033088386","0.4086594597","","","","","","","","","","72","H","0","img/none_selected.jpg","","144","main_expt",""
"","bandit","225","558840","0.0-186.0-0.0","84905847","wem/bandit_party_2","A2PWE9TKEM99BA","either","8","318","","","","","","","1","0","0","0.7216102374","","0.8","0.4","0.6","0.2","","","","","0.7216102374","0.7400387939","0.8572864227","0.4420772456","","","","","","","","","","72","H","0","img/none_selected.jpg","","145","main_expt",""
"","bandit","226","560720","0.0-187.0-0.0","84905847","wem/bandit_party_2","A2PWE9TKEM99BA","either","8","374","","","","","","","0","0","1","0.7837267619","","0.8","0.4","0.6","0.2","","","","","0.7837267619","0.795971973","0.8687508917","0.508741462","","","","","","","","","","72","H","0","img/none_selected.jpg","","146","main_expt",""
"","bandit","227","562536","0.0-188.0-0.0","84905847","wem/bandit_party_2","A2PWE9TKEM99BA","either","8","310","","","","","","","0","1","0","","0.7503502301","0.8","0.4","0.6","0.2","0.7652264833","0.7503502301","0.8657621525","0.4624398998","","","","","","","","","","","","","","74","J","1","","","147","main_expt",""
"","bandit","228","564351","0.0-189.0-0.0","84905847","wem/bandit_party_2","A2PWE9TKEM99BA","either","8","310","","","","","","","0","1","0","","0.8200474043","0.8","0.4","0.6","0.2","0.7358716413","0.8200474043","0.8362891365","0.4062589849","","","","","","","","","","","","","","74","J","1","","","148","main_expt",""
"","bandit","229","566200","0.0-190.0-0.0","84905847","wem/bandit_party_2","A2PWE9TKEM99BA","either","8","343","","","","","","","1","0","0","0.8509010271","","0.8","0.4","0.6","0.2","","","","","0.7129200786","0.8509010271","0.8144386017","0.4895331913","","","","","","","","","","74","J","1","","","149","main_expt",""
"","bandit","230","567928","0.0-191.0-0.0","84905847","wem/bandit_party_2","A2PWE9TKEM99BA","either","8","222","","","","","","","0","1","0","","0.8298908313","0.8","0.4","0.6","0.2","0.705531668","0.8298908313","0.6948055455","0.4704746919","","","","","","","","","","","","","","74","J","1","","","150","main_expt",""
"","bandit","231","569752","0.0-192.0-0.0","84905847","wem/bandit_party_2","A2PWE9TKEM99BA","either","8","319","","","","","","","0","1","0","","0.7362749002","0.8","0.4","0.6","0.2","0.5744604188","0.7362749002","0.6231991314","0.4725745774","","","","","","","","","","","","","","74","J","1","","","151","main_expt",""
"","bandit","232","571545","0.0-193.0-0.0","84905847","wem/bandit_party_2","A2PWE9TKEM99BA","either","8","286","","","","","","","0","0","1","","0.7601791643","0.8","0.4","0.6","0.2","0.5372669321","0.7601791643","0.7045057733","0.4943906398","","","","","","","","","","","","","","74","J","1","","","152","main_expt",""
"","bandit","233","573344","0.0-194.0-0.0","84905847","wem/bandit_party_2","A2PWE9TKEM99BA","either","8","294","","","","","","","0","1","0","","0.7590648118","0.8","0.4","0.6","0.2","0.5447545218","0.7590648118","0.5331338622","0.4639524782","","","","","","","","","","","","","","74","J","1","","","153","main_expt",""
"","bandit","234","575160","0.0-195.0-0.0","84905847","wem/bandit_party_2","A2PWE9TKEM99BA","either","8","310","","","","","","","0","0","1","","0.3935792086","0.8","0.4","0.6","0.2","0.4191749193","0.7805387907","0.5096720896","0.3935792086","","","","","","","","","","","","","","76","L","3","","","154","main_expt",""
"","bandit","235","576977","0.0-196.0-0.0","84905847","wem/bandit_party_2","A2PWE9TKEM99BA","either","8","310","","","","","","","0","0","1","","0.4127348605","0.8","0.4","0.6","0.2","0.4269770229","0.8450805748","0.4719011365","0.4127348605","","","","","","","","","","","","","","76","L","3","","","155","main_expt",""
"","bandit","236","578527","0.0-197.0-0.0","84905847","wem/bandit_party_2","A2PWE9TKEM99BA","either","8","44","","","","","","","0","1","0","","0.5818713095","0.8","0.4","0.6","0.2","0.4589862704","0.8513110265","0.5818713095","0.3697675558","","","","","","","","","","","","","","75","K","2","","","156","main_expt",""
"","bandit","237","580328","0.0-198.0-0.0","84905847","wem/bandit_party_2","A2PWE9TKEM99BA","either","8","294","","","","","","","0","1","0","","0.5804022203","0.8","0.4","0.6","0.2","0.5370818316","0.8226236001","0.5804022203","0.3604398023","","","","","","","","","","","","","","75","K","2","","","157","main_expt",""
"","bandit","238","582288","0.0-199.0-0.0","84905847","wem/bandit_party_2","A2PWE9TKEM99BA","either","8","453","","","","","","","0","0","1","0.4773166223","","0.8","0.4","0.6","0.2","","","","","0.4757376888","0.8843141367","0.4773166223","0.4061750625","","","","","","","","","","75","K","2","","","158","main_expt",""
"","bandit","239","584055","0.0-200.0-0.0","84905847","wem/bandit_party_2","A2PWE9TKEM99BA","either","8","261","","","","","","","0","1","0","","0.8078798749","0.8","0.4","0.6","0.2","0.4887287223","0.8078798749","0.419048585","0.4696417586","","","","","","","","","","","","","","74","J","1","","","159","main_expt",""
"","bandit","240","585975","0.0-201.0-0.0","84905847","wem/bandit_party_2","A2PWE9TKEM99BA","either","8","414","","","","","","","0","1","0","","0.7689164465","0.8","0.4","0.6","0.2","0.4588489809","0.7689164465","0.4672574386","0.4659569923","","","","","","","","","","","","","","74","J","1","","","160","main_expt",""
"","bandit","241","587922","0.0-202.0-0.0","84905847","wem/bandit_party_2","A2PWE9TKEM99BA","either","8","439","","","","","","","0","1","0","","0.7863156869","0.8","0.4","0.6","0.2","0.4920004413","0.7863156869","0.5612985374","0.3947207546","","","","","","","","","","","","","","74","J","1","","","161","main_expt",""
"","bandit","242","589734","0.0-203.0-0.0","84905847","wem/bandit_party_2","A2PWE9TKEM99BA","either","8","308","","","","","","","1","0","0","0.5389881207","","0.8","0.4","0.6","0.2","","","","","0.5389881207","0.8098475403","0.5288680036","0.2460097942","","","","","","","","","","72","H","0","img/none_selected.jpg","","162","main_expt",""
"","bandit","243","591344","0.0-204.0-0.0","84905847","wem/bandit_party_2","A2PWE9TKEM99BA","either","8","102","","","","","","","0","1","0","","0.8222712862","0.8","0.4","0.6","0.2","0.6040136001","0.8222712862","0.6096883849","0.3603606056","","","","","","","","","","","","","","74","J","1","","","163","main_expt",""
"","bandit","244","593127","0.0-205.0-0.0","84905847","wem/bandit_party_2","A2PWE9TKEM99BA","either","8","277","","","","","","","0","1","0","","0.4868922288","0.8","0.4","0.6","0.2","0.623756827","0.7876031225","0.4868922288","0.2507209727","","","","","","","","","","","","","","75","K","2","","","164","main_expt",""
"","bandit","245","594935","0.0-206.0-0.0","84905847","wem/bandit_party_2","A2PWE9TKEM99BA","either","8","300","","","","","","","1","0","0","0.4055552053","","0.8","0.4","0.6","0.2","","","","","0.6164515281","0.7435052823","0.4055552053","0.2162043423","","","","","","","","","","75","K","2","","","165","main_expt",""
"","bandit","246","596735","0.0-207.0-0.0","84905847","wem/bandit_party_2","A2PWE9TKEM99BA","either","8","293","","","","","","","0","1","0","","0.6545739251","0.8","0.4","0.6","0.2","0.4660222187","0.6545739251","0.4748236382","0.2573409732","","","","","","","","","","","","","","74","J","1","","","166","main_expt",""
"","bandit","247","598593","0.0-208.0-0.0","84905847","wem/bandit_party_2","A2PWE9TKEM99BA","either","8","352","","","","","","","0","0","1","0.3336058786","","0.8","0.4","0.6","0.2","","","","","0.3336058786","0.6645907447","0.4725242185","0.4016088623","","","","","","","","","","72","H","0","img/none_selected.jpg","","167","main_expt",""
"","bandit","248","600295","0.0-209.0-0.0","84905847","wem/bandit_party_2","A2PWE9TKEM99BA","either","8","196","","","","","","","0","0","1","","0.2887723434","0.8","0.4","0.6","0.2","0.2887723434","0.7243751722","0.4775208721","0.5522858252","","","","","","","","","","","","","","72","H","0","img/none_selected.jpg","","168","main_expt",""
"","bandit","249","602280","0.0-210.0-0.0","84905847","wem/bandit_party_2","A2PWE9TKEM99BA","either","8","477","","","","","","","0","1","0","","0.6453105543","0.8","0.4","0.6","0.2","0.3357056981","0.6453105543","0.4682732781","0.5461138513","","","","","","","","","","","","","","74","J","1","","","169","main_expt",""
"","bandit","250","604351","0.0-211.0-0.0","84905847","wem/bandit_party_2","A2PWE9TKEM99BA","either","8","565","","","","","","","0","0","1","","0.4246621539","0.8","0.4","0.6","0.2","0.4179693295","0.5334010147","0.4246621539","0.4402798015","","","","","","","","","","","","","","75","K","2","","","170","main_expt",""
"","bandit","251","605879","0.0-212.0-0.0","84905847","wem/bandit_party_2","A2PWE9TKEM99BA","either","8","22","","","","","","","1","0","0","0.498122785","","0.8","0.4","0.6","0.2","","","","","0.3050406521","0.498122785","0.2843380906","0.450294849","","","","","","","","","","74","J","1","","","171","main_expt",""
"","bandit","252","607591","0.0-213.0-0.0","84905847","wem/bandit_party_2","A2PWE9TKEM99BA","either","8","206","","","","","","","0","0","1","0.2668952485","","0.8","0.4","0.6","0.2","","","","","0.3364500029","0.4356988635","0.2668952485","0.6475755847","","","","","","","","","","75","K","2","","","172","main_expt",""
"","bandit","253","609224","0.0-214.0-0.0","84905847","wem/bandit_party_2","A2PWE9TKEM99BA","either","8","126","","","","","","","0","0","1","0.421339117","","0.8","0.4","0.6","0.2","","","","","0.421339117","0.3964199688","0.3802819164","0.6095255177","","","","","","","","","","72","H","0","img/none_selected.jpg","","173","main_expt",""
"","bandit","254","610830","0.0-215.0-0.0","84905847","wem/bandit_party_2","A2PWE9TKEM99BA","either","8","100","","","","","","","0","1","0","","0.5003628493","0.8","0.4","0.6","0.2","0.4913704717","0.3194345802","0.4042455133","0.5003628493","","","","","","","","","","","","","","76","L","3","","","174","main_expt",""
"","bandit","255","612567","0.0-216.0-0.0","84905847","wem/bandit_party_2","A2PWE9TKEM99BA","either","8","231","","","","","","","1","0","0","0.2865230234","","0.8","0.4","0.6","0.2","","","","","0.5882611891","0.2865230234","0.4393989914","0.5576212716","","","","","","","","","","74","J","1","","","175","main_expt",""
"","bandit","256","614367","0.0-217.0-0.0","84905847","wem/bandit_party_2","A2PWE9TKEM99BA","either","8","294","","","","","","","0","0","1","","0.3352692614","0.8","0.4","0.6","0.2","0.6313830356","0.3352692614","0.4705173801","0.6230679906","","","","","","","","","","","","","","74","J","1","","","176","main_expt",""
"","bandit","257","616208","0.0-218.0-0.0","84905847","wem/bandit_party_2","A2PWE9TKEM99BA","either","8","332","","","","","","","0","1","0","","0.6501784685","0.8","0.4","0.6","0.2","0.5531265137","0.3389264817","0.4698597734","0.6501784685","","","","","","","","","","","","","","76","L","3","","","177","main_expt",""
"","bandit","258","618032","0.0-219.0-0.0","84905847","wem/bandit_party_2","A2PWE9TKEM99BA","either","8","316","","","","","","","0","0","1","","0.6334155083","0.8","0.4","0.6","0.2","0.4621004187","0.3709673039","0.3570804947","0.6334155083","","","","","","","","","","","","","","76","L","3","","","178","main_expt",""
"","bandit","259","620063","0.0-220.0-0.0","84905847","wem/bandit_party_2","A2PWE9TKEM99BA","either","8","525","","","","","","","0","1","0","","0.2940579202","0.8","0.4","0.6","0.2","0.512884041","0.2940579202","0.3441184995","0.7548338289","","","","","","","","","","","","","","74","J","1","","","179","main_expt",""
"","bandit","260","621976","0.0-221.0-0.0","84905847","wem/bandit_party_2","A2PWE9TKEM99BA","either","8","405","","","","","","","0","1","0","","0.3218724025","0.8","0.4","0.6","0.2","0.506744284","0.3218724025","0.3646136501","0.8074073351","","","","","","","","","","","","","","74","J","1","","","180","main_expt",""
"","bandit","261","623728","0.0-222.0-0.0","84905847","wem/bandit_party_2","A2PWE9TKEM99BA","either","8","245","","","","","","","1","0","0","0.3633286182","","0.8","0.4","0.6","0.2","","","","","0.4556494723","0.3633286182","0.3777688814","0.780721516","","","","","","","","","","74","J","1","","","181","main_expt",""
"","bandit","262","625439","0.0-223.0-0.0","84905847","wem/bandit_party_2","A2PWE9TKEM99BA","either","8","204","","","","","","","0","0","1","","0.3324048704","0.8","0.4","0.6","0.2","0.4494525508","0.3324048704","0.4578236703","0.7647415088","","","","","","","","","","","","","","74","J","1","","","182","main_expt",""
"","bandit","263","626946","0.0-224.0-0.0","84905847","wem/bandit_party_2","A2PWE9TKEM99BA","either","8","1","","","","","","","0","0","1","","0.4244895098","0.8","0.4","0.6","0.2","0.5189143621","0.3092830871","0.4244895098","0.7349307529","","","","","","","","","","","","","","75","K","2","","","183","main_expt",""
"","bandit","264","628487","0.0-225.0-0.0","84905847","wem/bandit_party_2","A2PWE9TKEM99BA","either","8","35","","","","","","","1","0","0","0.5167606333","","0.8","0.4","0.6","0.2","","","","","0.5167606333","0.3905692936","0.3566779322","0.8298088288","","","","","","","","","","72","H","0","img/none_selected.jpg","","184","main_expt",""
"","bandit","265","630103","0.0-226.0-0.0","84905847","wem/bandit_party_2","A2PWE9TKEM99BA","either","8","111","","","","","","","1","0","0","0.5270237034","","0.8","0.4","0.6","0.2","","","","","0.5270237034","0.4626192444","0.3737416658","0.7894193193","","","","","","","","","","72","H","0","img/none_selected.jpg","","185","main_expt",""
"","bandit","266","631887","0.0-227.0-0.0","84905847","wem/bandit_party_2","A2PWE9TKEM99BA","either","8","278","","","","","","","1","0","0","0.5556036571","","0.8","0.4","0.6","0.2","","","","","0.5556036571","0.6061762586","0.3120176694","0.7665022487","","","","","","","","","","72","H","0","img/none_selected.jpg","","186","main_expt",""
"","bandit","267","633726","0.0-228.0-0.0","84905847","wem/bandit_party_2","A2PWE9TKEM99BA","either","8","333","","","","","","","0","0","1","0.5865134094","","0.8","0.4","0.6","0.2","","","","","0.5865134094","0.530958695","0.4134691065","0.7394266891","","","","","","","","","","72","H","0","img/none_selected.jpg","","187","main_expt",""
"","bandit","268","635638","0.0-229.0-0.0","84905847","wem/bandit_party_2","A2PWE9TKEM99BA","either","8","406","","","","","","","0","1","0","","0.380024655","0.8","0.4","0.6","0.2","0.5034866795","0.380024655","0.4637770407","0.6567361442","","","","","","","","","","","","","","74","J","1","","","188","main_expt",""
"","bandit","269","637503","0.0-230.0-0.0","84905847","wem/bandit_party_2","A2PWE9TKEM99BA","either","8","359","","","","","","","0","1","0","","0.4563575644","0.8","0.4","0.6","0.2","0.5761715841","0.4563575644","0.5739034088","0.6572443956","","","","","","","","","","","","","","74","J","1","","","189","main_expt",""
"","bandit","270","639334","0.0-231.0-0.0","84905847","wem/bandit_party_2","A2PWE9TKEM99BA","either","8","326","","","","","","","0","0","1","","0.4540853102","0.8","0.4","0.6","0.2","0.5325489933","0.4540853102","0.5859504021","0.6735764162","","","","","","","","","","","","","","74","J","1","","","190","main_expt",""
"","bandit","271","641128","0.0-232.0-0.0","84905847","wem/bandit_party_2","A2PWE9TKEM99BA","either","8","288","","","","","","","0","0","1","","0.4328006462","0.8","0.4","0.6","0.2","0.5614919892","0.4328006462","0.5325822721","0.5997518312","","","","","","","","","","","","","","74","J","1","","","191","main_expt",""
"","bandit","272","644103","0.0-233.0-0.0","84905847","wem/bandit_party_2","A2PWE9TKEM99BA","either","8","1467","","","","","","","0","1","0","","0.4979354652","0.8","0.4","0.6","0.2","0.5972832049","0.4979354652","0.4622441745","0.6582178794","","","","","","","","","","","","","","74","J","1","","","192","main_expt",""
"","bandit","273","646054","0.0-234.0-0.0","84905847","wem/bandit_party_2","A2PWE9TKEM99BA","either","8","444","","","","","","","1","0","0","0.4887187701","","0.8","0.4","0.6","0.2","","","","","0.6997951875","0.4887187701","0.4765036663","0.7246172867","","","","","","","","","","74","J","1","","","193","main_expt",""
"","bandit","274","647766","0.0-235.0-0.0","84905847","wem/bandit_party_2","A2PWE9TKEM99BA","either","8","205","","","","","","","0","1","0","","0.4993882896","0.8","0.4","0.6","0.2","0.7511051992","0.4993882896","0.4504155567","0.7721250451","","","","","","","","","","","","","","74","J","1","","","194","main_expt",""
"","bandit","275","649823","0.0-236.0-0.0","84905847","wem/bandit_party_2","A2PWE9TKEM99BA","either","8","550","","","","","","","0","1","0","","0.5011331455","0.8","0.4","0.6","0.2","0.8281457055","0.5011331455","0.4354252764","0.8366496483","","","","","","","","","","","","","","74","J","1","","","195","main_expt",""
"","bandit","276","652192","0.0-237.0-0.0","84905847","wem/bandit_party_2","A2PWE9TKEM99BA","either","8","862","","","","","","","1","0","0","0.4487960683","","0.8","0.4","0.6","0.2","","","","","0.8248544968","0.4487960683","0.4170899215","0.8484646997","","","","","","","","","","74","J","1","","","196","main_expt",""
"","bandit","277","654103","0.0-238.0-0.0","84905847","wem/bandit_party_2","A2PWE9TKEM99BA","either","8","404","","","","","","","0","0","1","0.3975590019","","0.8","0.4","0.6","0.2","","","","","0.8532714289","0.3975590019","0.4149059055","0.8734060335","","","","","","","","","","74","J","1","","","197","main_expt",""
"","bandit","278","656695","0.0-239.0-0.0","84905847","wem/bandit_party_2","A2PWE9TKEM99BA","either","8","1086","","","","","","","0","0","1","","0.4161601929","0.8","0.4","0.6","0.2","0.7587337752","0.4161601929","0.4737306044","0.8515360685","","","","","","","","","","","","","","74","J","1","","","198","main_expt",""
"","bandit","279","660015","0.0-240.0-0.0","84905847","wem/bandit_party_2","A2PWE9TKEM99BA","either","8","1813","","","","","","","0","1","0","","0.8805923715","0.8","0.4","0.6","0.2","0.8124408481","0.4483979408","0.4541760911","0.8805923715","","","","","","","","","","","","","","76","L","3","","","199","main_expt",""
"","bandit","280","662480","0.0-241.0-0.0","84905847","wem/bandit_party_2","A2PWE9TKEM99BA","either","8","957","","","","","","","0","1","0","","0.9645818821","0.8","0.4","0.6","0.2","0.7935778268","0.5303380975","0.3964714959","0.9645818821","","","","","","","","","","","","","","76","L","3","","","200","main_expt",""
"","bandit","281","665214","0.0-242.0-0.0","84905847","wem/bandit_party_2","A2PWE9TKEM99BA","either","8","1227","","","","","","","0","1","0","","0.9689478708","0.8","0.4","0.6","0.2","0.736942723","0.4014045657","0.3815447649","0.9689478708","","","","","","","","","","","","","","76","L","3","","","201","main_expt",""
"","bandit","282","667239","0.0-243.0-0.0","84905847","wem/bandit_party_2","A2PWE9TKEM99BA","either","8","517","","","","","","","0","1","0","","0.9678291885","0.8","0.4","0.6","0.2","0.7001951276","0.5115169607","0.3726367513","0.9678291885","","","","","","","","","","","","","","76","L","3","","","202","main_expt",""
"","bandit","283","669623","0.0-244.0-0.0","84905847","wem/bandit_party_2","A2PWE9TKEM99BA","either","8","876","","","","","","","0","1","0","","0.9633244117","0.8","0.4","0.6","0.2","0.7209300446","0.5026191452","0.3062653216","0.9633244117","","","","","","","","","","","","","","76","L","3","","","203","main_expt",""
"","bandit","284","671455","0.0-245.0-0.0","84905847","wem/bandit_party_2","A2PWE9TKEM99BA","either","8","324","","","","","","","0","1","0","","0.9730812582","0.8","0.4","0.6","0.2","0.8574132932","0.4736298566","0.2848501254","0.9730812582","","","","","","","","","","","","","","76","L","3","","","204","main_expt",""
"","bandit","285","673351","0.0-246.0-0.0","84905847","wem/bandit_party_2","A2PWE9TKEM99BA","either","8","389","","","","","","","0","1","0","","0.9521206422","0.8","0.4","0.6","0.2","0.9038760074","0.6121858428","0.3457586416","0.9521206422","","","","","","","","","","","","","","76","L","3","","","205","main_expt",""
"","bandit","286","676870","0.0-247.0-0.0","84905847","wem/bandit_party_2","A2PWE9TKEM99BA","either","8","2012","","","","","","","0","1","0","","0.9614764056","0.8","0.4","0.6","0.2","0.9273356803","0.6377028942","0.4609097875","0.9614764056","","","","","","","","","","","","","","76","L","3","","","206","main_expt",""
"","bandit","287","678815","0.0-248.0-0.0","84905847","wem/bandit_party_2","A2PWE9TKEM99BA","either","8","437","","","","","","","0","0","1","","0.5700483165","0.8","0.4","0.6","0.2","0.9502037039","0.5700483165","0.4980316736","0.9625830716","","","","","","","","","","","","","","74","J","1","","","207","main_expt",""
"","bandit","288","681263","0.0-249.0-0.0","84905847","wem/bandit_party_2","A2PWE9TKEM99BA","either","8","940","","","","","","","0","0","1","","0.9359306517","0.8","0.4","0.6","0.2","0.944094639","0.624428721","0.4537691537","0.9359306517","","","","","","","","","","","","","","76","L","3","","","208","main_expt",""
"","bandit","289","682959","0.0-250.0-0.0","84905847","wem/bandit_party_2","A2PWE9TKEM99BA","either","8","188","","","","","","","0","0","1","","0.4475842875","0.8","0.4","0.6","0.2","0.9070839441","0.4861871301","0.4475842875","0.9632917203","","","","","","","","","","","","","","75","K","2","","","209","main_expt",""
"","bandit","290","685886","0.0-251.0-0.0","84905847","wem/bandit_party_2","A2PWE9TKEM99BA","either","8","1420","","","","","","","1","0","0","0.8960653589","","0.8","0.4","0.6","0.2","","","","","0.8960653589","0.3956361612","0.4803454055","0.9633226214","","","","","","","","","","72","H","0","img/none_selected.jpg","","210","main_expt",""
"","bandit","291","687982","0.0-252.0-0.0","84905847","wem/bandit_party_2","A2PWE9TKEM99BA","either","8","589","","","","","","","1","0","0","0.9155455821","","0.8","0.4","0.6","0.2","","","","","0.9155455821","0.3599204452","0.4126443349","0.9719781217","","","","","","","","","","72","H","0","img/none_selected.jpg","","211","main_expt",""
"","bandit","292","689719","0.0-253.0-0.0","84905847","wem/bandit_party_2","A2PWE9TKEM99BA","either","8","229","","","","","","","1","0","0","0.9087954588","","0.8","0.4","0.6","0.2","","","","","0.9087954588","0.3349000901","0.3384802849","0.9700781686","","","","","","","","","","72","H","0","img/none_selected.jpg","","212","main_expt",""
"","bandit","293","691231","0.0-254.0-0.0","84905847","wem/bandit_party_2","A2PWE9TKEM99BA","either","8","5","","","","","","","0","1","0","","0.8528540962","0.8","0.4","0.6","0.2","0.8528540962","0.3183344176","0.3039242722","0.971165811","","","","","","","","","","","","","","72","H","0","img/none_selected.jpg","","213","main_expt",""
"","bandit","294","692798","0.0-255.0-0.0","84905847","wem/bandit_party_2","A2PWE9TKEM99BA","either","8","60","","","","","","","1","0","0","0.8506041988","","0.8","0.4","0.6","0.2","","","","","0.8506041988","0.2390758011","0.4541530846","0.9627117","","","","","","","","","","72","H","0","img/none_selected.jpg","","214","main_expt",""
"","bandit","295","694527","0.0-256.0-0.0","84905847","wem/bandit_party_2","A2PWE9TKEM99BA","either","8","222","","","","","","","1","0","0","0.8001829978","","0.8","0.4","0.6","0.2","","","","","0.8001829978","0.1997060473","0.5101749692","0.9552130497","","","","","","","","","","72","H","0","img/none_selected.jpg","","215","main_expt",""
"","bandit","296","696295","0.0-257.0-0.0","84905847","wem/bandit_party_2","A2PWE9TKEM99BA","either","8","260","","","","","","","0","0","1","","0.733614842","0.8","0.4","0.6","0.2","0.733614842","0.2326539104","0.5580520347","0.9220350188","","","","","","","","","","","","","","72","H","0","img/none_selected.jpg","","216","main_expt",""
"","bandit","297","698070","0.0-258.0-0.0","84905847","wem/bandit_party_2","A2PWE9TKEM99BA","either","8","268","","","","","","","1","0","0","0.7479737912","","0.8","0.4","0.6","0.2","","","","","0.7479737912","0.2319826337","0.4368451062","0.8736667029","","","","","","","","","","72","H","0","img/none_selected.jpg","","217","main_expt",""
"","bandit","298","699910","0.0-259.0-0.0","84905847","wem/bandit_party_2","A2PWE9TKEM99BA","either","8","333","","","","","","","1","0","0","0.3963441813","","0.8","0.4","0.6","0.2","","","","","0.7713398237","0.3143382807","0.3963441813","0.7602784417","","","","","","","","","","75","K","2","","","218","main_expt",""
"","bandit","299","701654","0.0-260.0-0.0","84905847","wem/bandit_party_2","A2PWE9TKEM99BA","either","8","237","","","","","","","1","0","0","0.8077055691","","0.8","0.4","0.6","0.2","","","","","0.8077055691","0.3304972923","0.4809426617","0.7643050859","","","","","","","","","","72","H","0","img/none_selected.jpg","","219","main_expt",""
"","bandit","300","703414","0.0-261.0-0.0","84905847","wem/bandit_party_2","A2PWE9TKEM99BA","either","8","253","","","","","","","0","1","0","","0.397759556","0.8","0.4","0.6","0.2","0.7778114837","0.2866104843","0.397759556","0.7793587236","","","","","","","","","","","","","","75","K","2","","","220","main_expt",""
"","bandit","301","705025","0.0-262.0-0.0","84905847","wem/bandit_party_2","A2PWE9TKEM99BA","either","8","102","","","","","","","1","0","0","0.7214198583","","0.8","0.4","0.6","0.2","","","","","0.7214198583","0.3602561646","0.4087677593","0.82086311","","","","","","","","","","72","H","0","img/none_selected.jpg","","221","main_expt",""
"","bandit","302","706727","0.0-263.0-0.0","84905847","wem/bandit_party_2","A2PWE9TKEM99BA","either","8","194","","","","","","","0","0","1","0.4561280915","","0.8","0.4","0.6","0.2","","","","","0.8091526303","0.3228749062","0.4561280915","0.8543662658","","","","","","","","","","75","K","2","","","222","main_expt",""
"","bandit","303","708455","0.0-264.0-0.0","84905847","wem/bandit_party_2","A2PWE9TKEM99BA","either","8","219","","","","","","","1","0","0","0.8240838469","","0.8","0.4","0.6","0.2","","","","","0.8240838469","0.2549485676","0.4419858618","0.8599459829","","","","","","","","","","72","H","0","img/none_selected.jpg","","223","main_expt",""
"","bandit","304","710023","0.0-265.0-0.0","84905847","wem/bandit_party_2","A2PWE9TKEM99BA","either","8","60","","","","","","","1","0","0","0.7670685714","","0.8","0.4","0.6","0.2","","","","","0.7670685714","0.2389333491","0.494409337","0.8747991669","","","","","","","","","","72","H","0","img/none_selected.jpg","","224","main_expt",""
"","bandit","305","711807","0.0-266.0-0.0","84905847","wem/bandit_party_2","A2PWE9TKEM99BA","either","8","276","","","","","","","1","0","0","0.8775689376","","0.8","0.4","0.6","0.2","","","","","0.8775689376","0.1517307125","0.3713348049","0.7910409491","","","","","","","","","","72","H","0","img/none_selected.jpg","","225","main_expt",""
"","bandit","306","713319","0.0-267.0-0.0","84905847","wem/bandit_party_2","A2PWE9TKEM99BA","either","8","2","","","","","","","1","0","0","0.8846504348","","0.8","0.4","0.6","0.2","","","","","0.8846504348","0.1002450003","0.4013452417","0.7212928749","","","","","","","","","","72","H","0","img/none_selected.jpg","","226","main_expt",""
"","bandit","307","715528","0.0-268.0-0.0","84905847","wem/bandit_party_2","A2PWE9TKEM99BA","either","8","701","","","","","","","1","0","0","0.851087938","","0.8","0.4","0.6","0.2","","","","","0.851087938","0.1049945928","0.393451628","0.7090989562","","","","","","","","","","72","H","0","img/none_selected.jpg","","227","main_expt",""
"","bandit","308","717231","0.0-269.0-0.0","84905847","wem/bandit_party_2","A2PWE9TKEM99BA","either","8","194","","","","","","","0","0","1","0.4175844788","","0.8","0.4","0.6","0.2","","","","","0.9074720337","0.03915988122","0.4175844788","0.6606736223","","","","","","","","","","75","K","2","","","228","main_expt",""
"","bandit","309","718894","0.0-270.0-0.0","84905847","wem/bandit_party_2","A2PWE9TKEM99BA","either","8","153","","","","","","","1","0","0","0.872332114","","0.8","0.4","0.6","0.2","","","","","0.872332114","0.03767516843","0.408368909","0.6893924153","","","","","","","","","","72","H","0","img/none_selected.jpg","","229","main_expt",""
"","bandit","310","720775","0.0-271.0-0.0","84905847","wem/bandit_party_2","A2PWE9TKEM99BA","either","8","373","","","","","","","1","0","0","0.7967167456","","0.8","0.4","0.6","0.2","","","","","0.7967167456","0.05804790214","0.4777699032","0.6067604319","","","","","","","","","","72","H","0","img/none_selected.jpg","","230","main_expt",""
"","bandit","311","722543","0.0-272.0-0.0","84905847","wem/bandit_party_2","A2PWE9TKEM99BA","either","8","260","","","","","","","1","0","0","0.7760618079","","0.8","0.4","0.6","0.2","","","","","0.7760618079","0.04963095007","0.4935442242","0.5037419277","","","","","","","","","","72","H","0","img/none_selected.jpg","","231","main_expt",""
"","bandit","312","724247","0.0-273.0-0.0","84905847","wem/bandit_party_2","A2PWE9TKEM99BA","either","8","193","","","","","","","1","0","0","0.7765467853","","0.8","0.4","0.6","0.2","","","","","0.7765467853","0.03759782928","0.4889590317","0.4339479185","","","","","","","","","","72","H","0","img/none_selected.jpg","","232","main_expt",""
"","bandit","313","726063","0.0-274.0-0.0","84905847","wem/bandit_party_2","A2PWE9TKEM99BA","either","8","308","","","","","","","1","0","0","0.7895219362","","0.8","0.4","0.6","0.2","","","","","0.7895219362","0.03147013274","0.5212294662","0.4525546635","","","","","","","","","","72","H","0","img/none_selected.jpg","","233","main_expt",""
"","bandit","314","728790","0.0-275.0-0.0","84905847","wem/bandit_party_2","A2PWE9TKEM99BA","either","8","1220","","","","","","","1","0","0","0.7491899586","","0.8","0.4","0.6","0.2","","","","","0.7491899586","0.03547440544","0.4420617392","0.3680080929","","","","","","","","","","72","H","0","img/none_selected.jpg","","234","main_expt",""
"","bandit","315","730303","0.0-276.0-0.0","84905847","wem/bandit_party_2","A2PWE9TKEM99BA","either","8","5","","","","","","","0","1","0","","0.7397351474","0.8","0.4","0.6","0.2","0.7397351474","0.04486782706","0.4816955248","0.3416373547","","","","","","","","","","","","","","72","H","0","img/none_selected.jpg","","235","main_expt",""
"","bandit","316","732830","0.0-277.0-0.0","84905847","wem/bandit_party_2","A2PWE9TKEM99BA","either","8","1019","","","","","","","0","0","1","0.6587673302","","0.8","0.4","0.6","0.2","","","","","0.6587673302","0.03122339122","0.3028121716","0.3722877153","","","","","","","","","","72","H","0","img/none_selected.jpg","","236","main_expt",""
"","bandit","317","735535","0.0-278.0-0.0","84905847","wem/bandit_party_2","A2PWE9TKEM99BA","either","8","1198","","","","","","","1","0","0","0.7534934878","","0.8","0.4","0.6","0.2","","","","","0.7534934878","0.04191117605","0.3802502189","0.3081002542","","","","","","","","","","72","H","0","img/none_selected.jpg","","237","main_expt",""
