"consent","trial_type","trial_index","time_elapsed","internal_node_id","subjID","study","MID","cond","drift","rt","responses","button_pressed","key_press","like","value","connected","gems","bombs","no_reward","GemPrChosen","BombPrChosen","GainOverPainPr_0","GainOverPainPr_1","GainOverPainPr_2","GainOverPainPr_3","LosePr_0","LosePr_1","LosePr_2","LosePr_3","WinPr_0","WinPr_1","WinPr_2","WinPr_3","Q0","Q1","Q2","gender","age","ethnicity","label","expt_phase","target","respCharCode","respKey","respChoiceNum","respChoice","practice","trial_counter","trial_label","Q0_index"
"GDM/GDM_behavioral_consent_30min_online.html","consent","0","16323","0.0-0.0","86265348","wem/bandit_party_2","A39PKC5DMX5FJN","either","5","","","","","","","","","","","","","","","","","","","","","","","","","","","","","","","","","","","","","","","","",""
"","survey-text","1","29046","0.0-1.0","86265348","wem/bandit_party_2","A39PKC5DMX5FJN","either","5","11712","{""Q0"":""A39PKC5DMX5FJN""}","","","","","","","","","","","","","","","","","","","","","","","","","","","","","","","","","","","","","","",""
"","button-response","2","32255","0.0-2.0","86265348","wem/bandit_party_2","A39PKC5DMX5FJN","either","5","2203","","1","","","","","","","","","","","","","","","","","","","","","","","","","","","","","","","","","","","","","",""
"","text-replacement","3","46367","0.0-3.0","86265348","wem/bandit_party_2","A39PKC5DMX5FJN","either","5","13106","","","32","","","","","","","","","","","","","","","","","","","","","","","","","","","","","","","","","","","","",""
"","text-replacement","4","58053","0.0-4.0","86265348","wem/bandit_party_2","A39PKC5DMX5FJN","either","5","11683","","","32","","","","","","","","","","","","","","","","","","","","","","","","","","","","","","","","","","","","",""
"","identification","5","65834","0.0-6.0-0.0","86265348","wem/bandit_party_2","A39PKC5DMX5FJN","either","5","7769","","","","0","2","1","","","","","","","","","","","","","","","","","","","","","","","","pre","identification_pre","the Republican Party","","","","","","","",""
"","identification","6","74244","0.0-6.0-1.0","86265348","wem/bandit_party_2","A39PKC5DMX5FJN","either","5","7399","","","","4","6","4","","","","","","","","","","","","","","","","","","","","","","","","pre","identification_pre","the Democratic Party","","","","","","","",""
"","text-replacement","7","84876","0.0-7.0","86265348","wem/bandit_party_2","A39PKC5DMX5FJN","either","5","9629","","","32","","","","","","","","","","","","","","","","","","","","","","","","","","","","","","","","","","","","",""
"","text-replacement","8","89181","0.0-8.0","86265348","wem/bandit_party_2","A39PKC5DMX5FJN","either","5","4303","","","32","","","","","","","","","","","","","","","","","","","","","","","","","","","","","","","","","","","","",""
"","text-replacement","9","94309","0.0-9.0","86265348","wem/bandit_party_2","A39PKC5DMX5FJN","either","5","5126","","","32","","","","","","","","","","","","","","","","","","","","","","","","","","","","","","","","","","","","",""
"","text-replacement","10","96128","0.0-10.0","86265348","wem/bandit_party_2","A39PKC5DMX5FJN","either","5","1817","","","32","","","","","","","","","","","","","","","","","","","","","","","","","","","","","","","","","","","","",""
"","text-replacement","11","99627","0.0-11.0","86265348","wem/bandit_party_2","A39PKC5DMX5FJN","either","5","3498","","","32","","","","","","","","","","","","","","","","","","","","","","","","","","","","","","","","","","","","",""
"","bandit","12","103667","0.0-12.0-0.0","86265348","wem/bandit_party_2","A39PKC5DMX5FJN","either","5","2532","","","","","","","0","0","1","0","0","","","","","0","","","","0","","","","","","","","","","","","","74","J","0","img/none_selected_demo.jpg","true","0","",""
"","bandit","13","106626","0.0-13.0-0.0","86265348","wem/bandit_party_2","A39PKC5DMX5FJN","either","5","1455","","","","","","","0","0","1","0","0","","","","","0","","","","0","","","","","","","","","","","","","75","K","0","img/none_selected_demo.jpg","true","0","",""
"","text-replacement","14","112111","0.0-14.0","86265348","wem/bandit_party_2","A39PKC5DMX5FJN","either","5","5481","","","32","","","","","","","","","","","","","","","","","","","","","","","","","","","","","","","","","","","","",""
"","text-replacement","15","115871","0.0-15.0","86265348","wem/bandit_party_2","A39PKC5DMX5FJN","either","5","3758","","","32","","","","","","","","","","","","","","","","","","","","","","","","","","","","","","","","","","","","",""
"","text-replacement","16","118717","0.0-16.0","86265348","wem/bandit_party_2","A39PKC5DMX5FJN","either","5","2844","","","32","","","","","","","","","","","","","","","","","","","","","","","","","","","","","","","","","","","","",""
"","text-replacement","17","121145","0.0-17.0","86265348","wem/bandit_party_2","A39PKC5DMX5FJN","either","5","2427","","","32","","","","","","","","","","","","","","","","","","","","","","","","","","","","","","","","","","","","",""
"","bandit","18","124128","0.0-18.0-0.0","86265348","wem/bandit_party_2","A39PKC5DMX5FJN","either","5","1477","","","","","","","1","0","0","0.8","","0.5","0.5","","","","","","","0.8","0.2","","","","","","","","","","","","74","J","0","img/none_selected_demo.jpg","true","0","80_20_practice",""
"","bandit","19","126188","0.0-18.0-1.0","86265348","wem/bandit_party_2","A39PKC5DMX5FJN","either","5","555","","","","","","","1","0","0","0.8","","0.5","0.5","","","","","","","0.8","0.2","","","","","","","","","","","","74","J","0","img/none_selected_demo.jpg","true","0","80_20_practice",""
"","bandit","20","128042","0.0-18.0-2.0","86265348","wem/bandit_party_2","A39PKC5DMX5FJN","either","5","347","","","","","","","0","1","0","","0.8","0.5","0.5","","","0.8","0.2","","","","","","","","","","","","","","","","74","J","0","img/none_selected_demo.jpg","true","0","80_20_practice",""
"","bandit","21","129915","0.0-18.0-3.0","86265348","wem/bandit_party_2","A39PKC5DMX5FJN","either","5","367","","","","","","","0","1","0","","0.8","0.5","0.5","","","0.8","0.2","","","","","","","","","","","","","","","","74","J","0","img/none_selected_demo.jpg","true","0","80_20_practice",""
"","bandit","22","131713","0.0-18.0-4.0","86265348","wem/bandit_party_2","A39PKC5DMX5FJN","either","5","294","","","","","","","0","1","0","","0.8","0.5","0.5","","","0.8","0.2","","","","","","","","","","","","","","","","74","J","0","img/none_selected_demo.jpg","true","0","80_20_practice",""
"","bandit","23","133540","0.0-18.0-5.0","86265348","wem/bandit_party_2","A39PKC5DMX5FJN","either","5","322","","","","","","","0","1","0","","0.8","0.5","0.5","","","0.8","0.2","","","","","","","","","","","","","","","","74","J","0","img/none_selected_demo.jpg","true","0","80_20_practice",""
"","bandit","24","135123","0.0-18.0-6.0","86265348","wem/bandit_party_2","A39PKC5DMX5FJN","either","5","78","","","","","","","1","0","0","0.8","","0.5","0.5","","","","","","","0.8","0.2","","","","","","","","","","","","74","J","0","img/none_selected_demo.jpg","true","0","80_20_practice",""
"","bandit","25","136847","0.0-18.0-7.0","86265348","wem/bandit_party_2","A39PKC5DMX5FJN","either","5","219","","","","","","","0","0","1","","0.8","0.5","0.5","","","0.8","0.2","","","","","","","","","","","","","","","","74","J","0","img/none_selected_demo.jpg","true","0","80_20_practice",""
"","bandit","26","138479","0.0-18.0-8.0","86265348","wem/bandit_party_2","A39PKC5DMX5FJN","either","5","126","","","","","","","0","1","0","","0.8","0.5","0.5","","","0.8","0.2","","","","","","","","","","","","","","","","74","J","0","img/none_selected_demo.jpg","true","0","80_20_practice",""
"","bandit","27","142298","0.0-18.0-9.0","86265348","wem/bandit_party_2","A39PKC5DMX5FJN","either","5","2313","","","","","","","1","0","0","0.8","","0.5","0.5","","","","","","","0.8","0.2","","","","","","","","","","","","74","J","0","img/none_selected_demo.jpg","true","0","80_20_practice",""
"","bandit","28","144255","0.0-18.0-10.0","86265348","wem/bandit_party_2","A39PKC5DMX5FJN","either","5","451","","","","","","","1","0","0","0.8","","0.5","0.5","","","","","","","0.8","0.2","","","","","","","","","","","","74","J","0","img/none_selected_demo.jpg","true","0","80_20_practice",""
"","bandit","29","145814","0.0-18.0-11.0","86265348","wem/bandit_party_2","A39PKC5DMX5FJN","either","5","53","","","","","","","0","0","1","0.8","","0.5","0.5","","","","","","","0.8","0.2","","","","","","","","","","","","74","J","0","img/none_selected_demo.jpg","true","0","80_20_practice",""
"","bandit","30","147686","0.0-18.0-12.0","86265348","wem/bandit_party_2","A39PKC5DMX5FJN","either","5","367","","","","","","","0","1","0","","0.8","0.5","0.5","","","0.8","0.2","","","","","","","","","","","","","","","","74","J","0","img/none_selected_demo.jpg","true","0","80_20_practice",""
"","bandit","31","149412","0.0-18.0-13.0","86265348","wem/bandit_party_2","A39PKC5DMX5FJN","either","5","222","","","","","","","0","1","0","","0.8","0.5","0.5","","","0.8","0.2","","","","","","","","","","","","","","","","74","J","0","img/none_selected_demo.jpg","true","0","80_20_practice",""
"","bandit","32","151208","0.0-18.0-14.0","86265348","wem/bandit_party_2","A39PKC5DMX5FJN","either","5","292","","","","","","","0","1","0","","0.8","0.5","0.5","","","0.8","0.2","","","","","","","","","","","","","","","","74","J","0","img/none_selected_demo.jpg","true","0","80_20_practice",""
"","bandit","33","152963","0.0-18.0-15.0","86265348","wem/bandit_party_2","A39PKC5DMX5FJN","either","5","248","","","","","","","0","0","1","","0.8","0.5","0.5","","","0.8","0.2","","","","","","","","","","","","","","","","74","J","0","img/none_selected_demo.jpg","true","0","80_20_practice",""
"","bandit","34","154578","0.0-18.0-16.0","86265348","wem/bandit_party_2","A39PKC5DMX5FJN","either","5","110","","","","","","","1","0","0","0.8","","0.5","0.5","","","","","","","0.8","0.2","","","","","","","","","","","","74","J","0","img/none_selected_demo.jpg","true","0","80_20_practice",""
"","bandit","35","156350","0.0-18.0-17.0","86265348","wem/bandit_party_2","A39PKC5DMX5FJN","either","5","268","","","","","","","1","0","0","0.8","","0.5","0.5","","","","","","","0.8","0.2","","","","","","","","","","","","74","J","0","img/none_selected_demo.jpg","true","0","80_20_practice",""
"","bandit","36","161420","0.0-18.0-18.0","86265348","wem/bandit_party_2","A39PKC5DMX5FJN","either","5","3546","","","","","","","0","1","0","","0.8","0.5","0.5","","","0.8","0.2","","","","","","","","","","","","","","","","74","J","0","img/none_selected_demo.jpg","true","0","80_20_practice",""
"","bandit","37","163319","0.0-18.0-19.0","86265348","wem/bandit_party_2","A39PKC5DMX5FJN","either","5","387","","","","","","","0","1","0","","0.8","0.5","0.5","","","0.8","0.2","","","","","","","","","","","","","","","","74","J","0","img/none_selected_demo.jpg","true","0","80_20_practice",""
"","text-replacement","38","184021","0.0-19.0","86265348","wem/bandit_party_2","A39PKC5DMX5FJN","either","5","20702","","","32","","","","","","","","","","","","","","","","","","","","","","","","","","","","","","","","","","","","",""
"","bandit","39","187459","0.0-20.0-0.0","86265348","wem/bandit_party_2","A39PKC5DMX5FJN","either","5","1920","","","","","","","1","0","0","1","0","","","","","0","1","","","1","0","","","","","","","","","","","","74","J","0","img/none_selected_demo.jpg","true","0","",""
"","text-replacement","40","190505","0.0-21.0","86265348","wem/bandit_party_2","A39PKC5DMX5FJN","either","5","3046","","","32","","","","","","","","","","","","","","","","","","","","","","","","","","","","","","","","","","","","",""
"","text-replacement","41","192277","0.0-22.0","86265348","wem/bandit_party_2","A39PKC5DMX5FJN","either","5","1772","","","32","","","","","","","","","","","","","","","","","","","","","","","","","","","","","","","","","","","","",""
"","text-replacement","42","193801","0.0-23.0","86265348","wem/bandit_party_2","A39PKC5DMX5FJN","either","5","1524","","","32","","","","","","","","","","","","","","","","","","","","","","","","","","","","","","","","","","","","",""
"","text-replacement","43","196549","0.0-24.0","86265348","wem/bandit_party_2","A39PKC5DMX5FJN","either","5","2738","","","32","","","","","","","","","","","","","","","","","","","","","","","","","","","","","","","","","","","","",""
"","text-replacement","44","201249","0.0-25.0","86265348","wem/bandit_party_2","A39PKC5DMX5FJN","either","5","4700","","","32","","","","","","","","","","","","","","","","","","","","","","","","","","","","","","","","","","","","",""
"","text-replacement","45","203104","0.0-26.0","86265348","wem/bandit_party_2","A39PKC5DMX5FJN","either","5","1855","","","32","","","","","","","","","","","","","","","","","","","","","","","","","","","","","","","","","","","","",""
"","text-replacement","46","205586","0.0-27.0","86265348","wem/bandit_party_2","A39PKC5DMX5FJN","either","5","2472","","","32","","","","","","","","","","","","","","","","","","","","","","","","","","","","","","","","","","","","",""
"","text-replacement","47","208884","0.0-28.0","86265348","wem/bandit_party_2","A39PKC5DMX5FJN","either","5","3298","","","32","","","","","","","","","","","","","","","","","","","","","","","","","","","","","","","","","","","","",""
"","text-replacement","48","211288","0.0-29.0","86265348","wem/bandit_party_2","A39PKC5DMX5FJN","either","5","2404","","","32","","","","","","","","","","","","","","","","","","","","","","","","","","","","","","","","","","","","",""
"","text-replacement","49","212972","0.0-30.0","86265348","wem/bandit_party_2","A39PKC5DMX5FJN","either","5","1684","","","32","","","","","","","","","","","","","","","","","","","","","","","","","","","","","","","","","","","","",""
"","text-replacement","50","264754","0.0-31.0","86265348","wem/bandit_party_2","A39PKC5DMX5FJN","either","5","51772","","","32","","","","","","","","","","","","","","","","","","","","","","","","","","","","","","","","","","","","",""
"","bandit","51","268680","0.0-32.0-0.0","86265348","wem/bandit_party_2","A39PKC5DMX5FJN","either","5","2409","","","","","","","1","0","0","0.2","","0.5","0.5","0.5","0.5","","","","","0.8","0.2","0.6","0.2","","","","","","","","","","74","J","1","","true","0","full_practice",""
"","bandit","52","270631","0.0-32.0-1.0","86265348","wem/bandit_party_2","A39PKC5DMX5FJN","either","5","426","","","","","","","0","0","1","","0.2","0.5","0.5","0.5","0.5","0.8","0.2","0.6","0.2","","","","","","","","","","","","","","74","J","1","","true","0","full_practice",""
"","bandit","53","272695","0.0-32.0-2.0","86265348","wem/bandit_party_2","A39PKC5DMX5FJN","either","5","536","","","","","","","0","0","1","0.2","","0.5","0.5","0.5","0.5","","","","","0.8","0.2","0.6","0.2","","","","","","","","","","74","J","1","","true","0","full_practice",""
"","bandit","54","274490","0.0-32.0-3.0","86265348","wem/bandit_party_2","A39PKC5DMX5FJN","either","5","278","","","","","","","0","1","0","","0.8","0.5","0.5","0.5","0.5","0.8","0.2","0.6","0.2","","","","","","","","","","","","","","72","H","0","img/none_selected.jpg","true","0","full_practice",""
"","bandit","55","276381","0.0-32.0-4.0","86265348","wem/bandit_party_2","A39PKC5DMX5FJN","either","5","372","","","","","","","0","1","0","","0.8","0.5","0.5","0.5","0.5","0.8","0.2","0.6","0.2","","","","","","","","","","","","","","72","H","0","img/none_selected.jpg","true","0","full_practice",""
"","bandit","56","278219","0.0-32.0-5.0","86265348","wem/bandit_party_2","A39PKC5DMX5FJN","either","5","333","","","","","","","1","0","0","0.8","","0.5","0.5","0.5","0.5","","","","","0.8","0.2","0.6","0.2","","","","","","","","","","72","H","0","img/none_selected.jpg","true","0","full_practice",""
"","bandit","57","280073","0.0-32.0-6.0","86265348","wem/bandit_party_2","A39PKC5DMX5FJN","either","5","336","","","","","","","0","1","0","","0.8","0.5","0.5","0.5","0.5","0.8","0.2","0.6","0.2","","","","","","","","","","","","","","72","H","0","img/none_selected.jpg","true","0","full_practice",""
"","bandit","58","281862","0.0-32.0-7.0","86265348","wem/bandit_party_2","A39PKC5DMX5FJN","either","5","285","","","","","","","1","0","0","0.8","","0.5","0.5","0.5","0.5","","","","","0.8","0.2","0.6","0.2","","","","","","","","","","72","H","0","img/none_selected.jpg","true","0","full_practice",""
"","bandit","59","283594","0.0-32.0-8.0","86265348","wem/bandit_party_2","A39PKC5DMX5FJN","either","5","227","","","","","","","1","0","0","0.8","","0.5","0.5","0.5","0.5","","","","","0.8","0.2","0.6","0.2","","","","","","","","","","72","H","0","img/none_selected.jpg","true","0","full_practice",""
"","bandit","60","285321","0.0-32.0-9.0","86265348","wem/bandit_party_2","A39PKC5DMX5FJN","either","5","221","","","","","","","1","0","0","0.8","","0.5","0.5","0.5","0.5","","","","","0.8","0.2","0.6","0.2","","","","","","","","","","72","H","0","img/none_selected.jpg","true","0","full_practice",""
"","bandit","61","287029","0.0-32.0-10.0","86265348","wem/bandit_party_2","A39PKC5DMX5FJN","either","5","197","","","","","","","0","1","0","","0.8","0.5","0.5","0.5","0.5","0.8","0.2","0.6","0.2","","","","","","","","","","","","","","72","H","0","img/none_selected.jpg","true","0","full_practice",""
"","bandit","62","288826","0.0-32.0-11.0","86265348","wem/bandit_party_2","A39PKC5DMX5FJN","either","5","274","","","","","","","0","0","1","","0.8","0.5","0.5","0.5","0.5","0.8","0.2","0.6","0.2","","","","","","","","","","","","","","72","H","0","img/none_selected.jpg","true","0","full_practice",""
"","bandit","63","290718","0.0-32.0-12.0","86265348","wem/bandit_party_2","A39PKC5DMX5FJN","either","5","388","","","","","","","0","0","1","","0.8","0.5","0.5","0.5","0.5","0.8","0.2","0.6","0.2","","","","","","","","","","","","","","72","H","0","img/none_selected.jpg","true","0","full_practice",""
"","bandit","64","292536","0.0-32.0-13.0","86265348","wem/bandit_party_2","A39PKC5DMX5FJN","either","5","314","","","","","","","0","0","1","","0.2","0.5","0.5","0.5","0.5","0.8","0.2","0.6","0.2","","","","","","","","","","","","","","74","J","1","","true","0","full_practice",""
"","bandit","65","294342","0.0-32.0-14.0","86265348","wem/bandit_party_2","A39PKC5DMX5FJN","either","5","300","","","","","","","1","0","0","0.2","","0.5","0.5","0.5","0.5","","","","","0.8","0.2","0.6","0.2","","","","","","","","","","74","J","1","","true","0","full_practice",""
"","bandit","66","296264","0.0-32.0-15.0","86265348","wem/bandit_party_2","A39PKC5DMX5FJN","either","5","416","","","","","","","0","0","1","0.2","","0.5","0.5","0.5","0.5","","","","","0.8","0.2","0.6","0.2","","","","","","","","","","74","J","1","","true","0","full_practice",""
"","bandit","67","298052","0.0-32.0-16.0","86265348","wem/bandit_party_2","A39PKC5DMX5FJN","either","5","283","","","","","","","0","0","1","0.2","","0.5","0.5","0.5","0.5","","","","","0.8","0.2","0.6","0.2","","","","","","","","","","74","J","1","","true","0","full_practice",""
"","bandit","68","300022","0.0-32.0-17.0","86265348","wem/bandit_party_2","A39PKC5DMX5FJN","either","5","465","","","","","","","1","0","0","0.6","","0.5","0.5","0.5","0.5","","","","","0.8","0.2","0.6","0.2","","","","","","","","","","75","K","2","","true","0","full_practice",""
"","bandit","69","301885","0.0-32.0-18.0","86265348","wem/bandit_party_2","A39PKC5DMX5FJN","either","5","357","","","","","","","0","1","0","","0.6","0.5","0.5","0.5","0.5","0.8","0.2","0.6","0.2","","","","","","","","","","","","","","75","K","2","","true","0","full_practice",""
"","bandit","70","303692","0.0-32.0-19.0","86265348","wem/bandit_party_2","A39PKC5DMX5FJN","either","5","299","","","","","","","0","1","0","","0.6","0.5","0.5","0.5","0.5","0.8","0.2","0.6","0.2","","","","","","","","","","","","","","75","K","2","","true","0","full_practice",""
"","text","71","320108","0.0-33.0","86265348","wem/bandit_party_2","A39PKC5DMX5FJN","either","5","16410","","","32","","","","","","","","","","","","","","","","","","","","","","","","","","","","","","","","","","","","",""
"","text-replacement","72","330974","0.0-34.0","86265348","wem/bandit_party_2","A39PKC5DMX5FJN","either","5","9862","","","32","","","","","","","","","","","","","","","","","","","","","","","","","","","","","","","","","","","","",""
"","text-replacement","73","338153","0.0-35.0","86265348","wem/bandit_party_2","A39PKC5DMX5FJN","either","5","7178","","","32","","","","","","","","","","","","","","","","","","","","","","","","","","","","","","","","","","","","",""
"","text-replacement","74","341589","0.0-36.0","86265348","wem/bandit_party_2","A39PKC5DMX5FJN","either","5","3435","","","32","","","","","","","","","","","","","","","","","","","","","","","","","","","","","","","","","","","","",""
"","text-replacement","75","345216","0.0-37.0","86265348","wem/bandit_party_2","A39PKC5DMX5FJN","either","5","3625","","","32","","","","","","","","","","","","","","","","","","","","","","","","","","","","","","","","","","","","",""
"","text-replacement","76","347947","0.0-38.0","86265348","wem/bandit_party_2","A39PKC5DMX5FJN","either","5","2729","","","32","","","","","","","","","","","","","","","","","","","","","","","","","","","","","","","","","","","","",""
"","survey-multi-choice-replacement","77","354279","0.0-39.0-0.0","86265348","wem/bandit_party_2","A39PKC5DMX5FJN","either","5","6326","","","","","","","","","","","","","","","","","","","","","","","","Money will be added to the pool for <span style='color:blue;'>DEMOCRATS</span>","","","","","","","attn_check","","","","","","","","","0"
"","survey-multi-choice-replacement","78","361406","0.0-40.0-0.0","86265348","wem/bandit_party_2","A39PKC5DMX5FJN","either","5","6119","","","","","","","","","","","","","","","","","","","","","","","","Equal amounts of money will be added to the pool for <span style='color:blue;'>DEMOCRATS</span> and subtracted from the pool for <span style='color:red;'>REPUBLICANS</span>","","","","","","","attn_check","","","","","","","","","2"
"","survey-multi-choice-replacement","79","366738","0.0-41.0-0.0","86265348","wem/bandit_party_2","A39PKC5DMX5FJN","either","5","4325","","","","","","","","","","","","","","","","","","","","","","","","No money will be added to either pool","","","","","","","attn_check","","","","","","","","","3"
"","bandit","80","371823","0.0-42.0-0.0","86265348","wem/bandit_party_2","A39PKC5DMX5FJN","either","5","2577","","","","","","","0","0","1","0.32692793","","0.6","0.2","0.4","0.8","","","","","0.32692793","0.4253928501","0.6131215568","0.4909711759","","","","","","","","","","72","H","0","img/none_selected.jpg","","1","main_expt",""
"","bandit","81","373929","0.0-43.0-0.0","86265348","wem/bandit_party_2","A39PKC5DMX5FJN","either","5","591","","","","","","","0","0","1","0.3068321923","","0.6","0.2","0.4","0.8","","","","","0.3068321923","0.5447097682","0.6783759564","0.5514346198","","","","","","","","","","72","H","0","img/none_selected.jpg","","2","main_expt",""
"","bandit","82","375765","0.0-44.0-0.0","86265348","wem/bandit_party_2","A39PKC5DMX5FJN","either","5","331","","","","","","","0","1","0","","0.5631376832","0.6","0.2","0.4","0.8","0.2871808385","0.5631376832","0.6535049038","0.5966913043","","","","","","","","","","","","","","74","J","1","","","3","main_expt",""
"","bandit","83","377971","0.0-45.0-0.0","86265348","wem/bandit_party_2","A39PKC5DMX5FJN","either","5","701","","","","","","","0","1","0","","0.5889355808","0.6","0.2","0.4","0.8","0.3062311279","0.5889355808","0.5433476707","0.6236804691","","","","","","","","","","","","","","74","J","1","","","4","main_expt",""
"","bandit","84","379782","0.0-46.0-0.0","86265348","wem/bandit_party_2","A39PKC5DMX5FJN","either","5","303","","","","","","","0","0","1","","0.6125363118","0.6","0.2","0.4","0.8","0.2453374439","0.6125363118","0.4256320799","0.5844938386","","","","","","","","","","","","","","74","J","1","","","5","main_expt",""
"","bandit","85","381909","0.0-47.0-0.0","86265348","wem/bandit_party_2","A39PKC5DMX5FJN","either","5","621","","","","","","","0","0","1","","0.5204159956","0.6","0.2","0.4","0.8","0.2258644136","0.5204159956","0.4097031487","0.4929788692","","","","","","","","","","","","","","74","J","1","","","6","main_expt",""
"","bandit","86","384224","0.0-48.0-0.0","86265348","wem/bandit_party_2","A39PKC5DMX5FJN","either","5","807","","","","","","","0","1","0","","0.4614862243","0.6","0.2","0.4","0.8","0.2251512132","0.5949894572","0.4614862243","0.3978044106","","","","","","","","","","","","","","75","K","2","","","7","main_expt",""
"","bandit","87","386190","0.0-49.0-0.0","86265348","wem/bandit_party_2","A39PKC5DMX5FJN","either","5","461","","","","","","","0","1","0","","0.4305419438","0.6","0.2","0.4","0.8","0.1597376121","0.7043393759","0.4305419438","0.5080346622","","","","","","","","","","","","","","75","K","2","","","8","main_expt",""
"","bandit","88","388210","0.0-50.0-0.0","86265348","wem/bandit_party_2","A39PKC5DMX5FJN","either","5","514","","","","","","","1","0","0","0.6000641755","","0.6","0.2","0.4","0.8","","","","","0.1395884133","0.6866437556","0.6000641755","0.440708512","","","","","","","","","","75","K","2","","","9","main_expt",""
"","bandit","89","390127","0.0-51.0-0.0","86265348","wem/bandit_party_2","A39PKC5DMX5FJN","either","5","407","","","","","","","0","1","0","","0.66675231","0.6","0.2","0.4","0.8","0.1529628815","0.6743415364","0.66675231","0.4862198985","","","","","","","","","","","","","","75","K","2","","","10","main_expt",""
"","bandit","90","391975","0.0-52.0-0.0","86265348","wem/bandit_party_2","A39PKC5DMX5FJN","either","5","342","","","","","","","1","0","0","0.538431352","","0.6","0.2","0.4","0.8","","","","","0.1918890603","0.6907290289","0.538431352","0.4942886423","","","","","","","","","","75","K","2","","","11","main_expt",""
"","bandit","91","393780","0.0-53.0-0.0","86265348","wem/bandit_party_2","A39PKC5DMX5FJN","either","5","299","","","","","","","0","0","1","","0.5683478731","0.6","0.2","0.4","0.8","0.1412308375","0.7254617755","0.5683478731","0.4999864232","","","","","","","","","","","","","","75","K","2","","","12","main_expt",""
"","bandit","92","395646","0.0-54.0-0.0","86265348","wem/bandit_party_2","A39PKC5DMX5FJN","either","5","360","","","","","","","0","0","1","0.5870071372","","0.6","0.2","0.4","0.8","","","","","0.1854965676","0.7533793381","0.5870071372","0.3945724157","","","","","","","","","","75","K","2","","","13","main_expt",""
"","bandit","93","398271","0.0-55.0-0.0","86265348","wem/bandit_party_2","A39PKC5DMX5FJN","either","5","1120","","","","","","","0","0","1","0.458684297","","0.6","0.2","0.4","0.8","","","","","0.2200151947","0.6909187676","0.3389967741","0.458684297","","","","","","","","","","76","L","3","","","14","main_expt",""
"","bandit","94","400143","0.0-56.0-0.0","86265348","wem/bandit_party_2","A39PKC5DMX5FJN","either","5","366","","","","","","","0","0","1","0.5338449271","","0.6","0.2","0.4","0.8","","","","","0.1497743902","0.7916820586","0.2927381815","0.5338449271","","","","","","","","","","76","L","3","","","15","main_expt",""
"","bandit","95","402154","0.0-57.0-0.0","86265348","wem/bandit_party_2","A39PKC5DMX5FJN","either","5","506","","","","","","","0","0","1","0.1767244745","","0.6","0.2","0.4","0.8","","","","","0.1767244745","0.7991661796","0.2268478953","0.6821016448","","","","","","","","","","72","H","0","img/none_selected.jpg","","16","main_expt",""
"","bandit","96","404098","0.0-58.0-0.0","86265348","wem/bandit_party_2","A39PKC5DMX5FJN","either","5","437","","","","","","","0","0","1","0.1953364786","","0.6","0.2","0.4","0.8","","","","","0.1953364786","0.7352739439","0.2364877179","0.6963612506","","","","","","","","","","72","H","0","img/none_selected.jpg","","17","main_expt",""
"","bandit","97","405987","0.0-59.0-0.0","86265348","wem/bandit_party_2","A39PKC5DMX5FJN","either","5","380","","","","","","","0","1","0","","0.6911569498","0.6","0.2","0.4","0.8","0.139355503","0.6911569498","0.280777314","0.7035779666","","","","","","","","","","","","","","74","J","1","","","18","main_expt",""
"","bandit","98","407840","0.0-60.0-0.0","86265348","wem/bandit_party_2","A39PKC5DMX5FJN","either","5","346","","","","","","","0","1","0","","0.6372159304","0.6","0.2","0.4","0.8","0.129677489","0.6372159304","0.3280428268","0.677086514","","","","","","","","","","","","","","74","J","1","","","19","main_expt",""
"","bandit","99","409801","0.0-61.0-0.0","86265348","wem/bandit_party_2","A39PKC5DMX5FJN","either","5","454","","","","","","","0","0","1","","0.5917564331","0.6","0.2","0.4","0.8","0.1584506979","0.5917564331","0.213865824","0.5211019236","","","","","","","","","","","","","","74","J","1","","","20","main_expt",""
"","bandit","100","411684","0.0-62.0-0.0","86265348","wem/bandit_party_2","A39PKC5DMX5FJN","either","5","377","","","","","","","0","1","0","","0.6351733259","0.6","0.2","0.4","0.8","0.1934985877","0.6351733259","0.2755747612","0.6040081297","","","","","","","","","","","","","","74","J","1","","","21","main_expt",""
"","bandit","101","413784","0.0-63.0-0.0","86265348","wem/bandit_party_2","A39PKC5DMX5FJN","either","5","591","","","","","","","0","0","1","","0.57448168","0.6","0.2","0.4","0.8","0.1184813826","0.57448168","0.3096891892","0.5276460007","","","","","","","","","","","","","","74","J","1","","","22","main_expt",""
"","bandit","102","415676","0.0-64.0-0.0","86265348","wem/bandit_party_2","A39PKC5DMX5FJN","either","5","387","","","","","","","0","1","0","","0.532235281","0.6","0.2","0.4","0.8","0.1387482349","0.532235281","0.1855444332","0.4373756081","","","","","","","","","","","","","","74","J","1","","","23","main_expt",""
"","bandit","103","417520","0.0-65.0-0.0","86265348","wem/bandit_party_2","A39PKC5DMX5FJN","either","5","339","","","","","","","0","0","1","","0.4695599312","0.6","0.2","0.4","0.8","0.1275075135","0.4695599312","0.2026045625","0.4051577966","","","","","","","","","","","","","","74","J","1","","","24","main_expt",""
"","bandit","104","419372","0.0-66.0-0.0","86265348","wem/bandit_party_2","A39PKC5DMX5FJN","either","5","345","","","","","","","0","1","0","","0.3710761786","0.6","0.2","0.4","0.8","0.1324238285","0.3710761786","0.2610081957","0.3583026632","","","","","","","","","","","","","","74","J","1","","","25","main_expt",""
"","bandit","105","421220","0.0-67.0-0.0","86265348","wem/bandit_party_2","A39PKC5DMX5FJN","either","5","342","","","","","","","0","0","1","","0.3104834237","0.6","0.2","0.4","0.8","0.2222282692","0.3104834237","0.2068764453","0.4070676783","","","","","","","","","","","","","","74","J","1","","","26","main_expt",""
"","bandit","106","423095","0.0-68.0-0.0","86265348","wem/bandit_party_2","A39PKC5DMX5FJN","either","5","367","","","","","","","0","0","1","0.4250638914","","0.6","0.2","0.4","0.8","","","","","0.2367528544","0.4250638914","0.1387354037","0.3962805628","","","","","","","","","","74","J","1","","","27","main_expt",""
"","bandit","107","425762","0.0-69.0-0.0","86265348","wem/bandit_party_2","A39PKC5DMX5FJN","either","5","1161","","","","","","","0","0","1","","0.2065421522","0.6","0.2","0.4","0.8","0.1581712713","0.3738912408","0.2065421522","0.3381264529","","","","","","","","","","","","","","75","K","2","","","28","main_expt",""
"","bandit","108","427652","0.0-70.0-0.0","86265348","wem/bandit_party_2","A39PKC5DMX5FJN","either","5","384","","","","","","","0","0","1","","0.2452437498","0.6","0.2","0.4","0.8","0.2361440946","0.411092256","0.2452437498","0.3405446746","","","","","","","","","","","","","","75","K","2","","","29","main_expt",""
"","bandit","109","429588","0.0-71.0-0.0","86265348","wem/bandit_party_2","A39PKC5DMX5FJN","either","5","429","","","","","","","0","0","1","","0.3076129501","0.6","0.2","0.4","0.8","0.3051502752","0.306262239","0.3076129501","0.3536414415","","","","","","","","","","","","","","75","K","2","","","30","main_expt",""
"","bandit","110","431461","0.0-72.0-0.0","86265348","wem/bandit_party_2","A39PKC5DMX5FJN","either","5","367","","","","","","","0","1","0","","0.3201297868","0.6","0.2","0.4","0.8","0.3588845582","0.2846857217","0.275744379","0.3201297868","","","","","","","","","","","","","","76","L","3","","","31","main_expt",""
"","bandit","111","433265","0.0-73.0-0.0","86265348","wem/bandit_party_2","A39PKC5DMX5FJN","either","5","299","","","","","","","0","0","1","","0.414050106","0.6","0.2","0.4","0.8","0.3351264969","0.260797537","0.1582224348","0.414050106","","","","","","","","","","","","","","76","L","3","","","32","main_expt",""
"","bandit","112","435142","0.0-74.0-0.0","86265348","wem/bandit_party_2","A39PKC5DMX5FJN","either","5","372","","","","","","","1","0","0","0.4846208784","","0.6","0.2","0.4","0.8","","","","","0.3369799553","0.3108282978","0.07234251762","0.4846208784","","","","","","","","","","76","L","3","","","33","main_expt",""
"","bandit","113","436955","0.0-75.0-0.0","86265348","wem/bandit_party_2","A39PKC5DMX5FJN","either","5","304","","","","","","","0","1","0","","0.4250330595","0.6","0.2","0.4","0.8","0.3040676539","0.3996464291","0.07244310326","0.4250330595","","","","","","","","","","","","","","76","L","3","","","34","main_expt",""
"","bandit","114","438906","0.0-76.0-0.0","86265348","wem/bandit_party_2","A39PKC5DMX5FJN","either","5","445","","","","","","","0","0","1","","0.499329675","0.6","0.2","0.4","0.8","0.2974236485","0.4368131495","0.07140094546","0.499329675","","","","","","","","","","","","","","76","L","3","","","35","main_expt",""
"","bandit","115","440749","0.0-77.0-0.0","86265348","wem/bandit_party_2","A39PKC5DMX5FJN","either","5","338","","","","","","","1","0","0","0.3892953339","","0.6","0.2","0.4","0.8","","","","","0.310238309","0.3396719642","0.08624361683","0.3892953339","","","","","","","","","","76","L","3","","","36","main_expt",""
"","bandit","116","442620","0.0-78.0-0.0","86265348","wem/bandit_party_2","A39PKC5DMX5FJN","either","5","364","","","","","","","0","0","1","0.3680424748","","0.6","0.2","0.4","0.8","","","","","0.2818719109","0.4409026667","0.07543251018","0.3680424748","","","","","","","","","","76","L","3","","","37","main_expt",""
"","bandit","117","444667","0.0-79.0-0.0","86265348","wem/bandit_party_2","A39PKC5DMX5FJN","either","5","542","","","","","","","0","0","1","0.4909804269","","0.6","0.2","0.4","0.8","","","","","0.2925765749","0.489392614","0.1324785543","0.4909804269","","","","","","","","","","76","L","3","","","38","main_expt",""
"","bandit","118","447884","0.0-80.0-0.0","86265348","wem/bandit_party_2","A39PKC5DMX5FJN","either","5","1710","","","","","","","0","0","1","0.3033582507","","0.6","0.2","0.4","0.8","","","","","0.3033582507","0.4403114744","0.1824024676","0.5165168671","","","","","","","","","","72","H","0","img/none_selected.jpg","","39","main_expt",""
"","bandit","119","449766","0.0-81.0-0.0","86265348","wem/bandit_party_2","A39PKC5DMX5FJN","either","5","377","","","","","","","0","0","1","0.2371445562","","0.6","0.2","0.4","0.8","","","","","0.2371445562","0.343221944","0.09861269436","0.6036007873","","","","","","","","","","72","H","0","img/none_selected.jpg","","40","main_expt",""
"","bandit","120","452404","0.0-82.0-0.0","86265348","wem/bandit_party_2","A39PKC5DMX5FJN","either","5","1132","","","","","","","0","1","0","","0.450343793","0.6","0.2","0.4","0.8","0.2072661203","0.450343793","0.1028082326","0.6078828369","","","","","","","","","","","","","","74","J","1","","","41","main_expt",""
"","bandit","121","454360","0.0-83.0-0.0","86265348","wem/bandit_party_2","A39PKC5DMX5FJN","either","5","451","","","","","","","0","1","0","","0.4422822993","0.6","0.2","0.4","0.8","0.1850700716","0.4422822993","0.1326350751","0.5757077757","","","","","","","","","","","","","","74","J","1","","","42","main_expt",""
"","bandit","122","456273","0.0-84.0-0.0","86265348","wem/bandit_party_2","A39PKC5DMX5FJN","either","5","406","","","","","","","0","1","0","","0.4755437476","0.6","0.2","0.4","0.8","0.1700345657","0.4755437476","0.1591685393","0.504524575","","","","","","","","","","","","","","74","J","1","","","43","main_expt",""
"","bandit","123","458428","0.0-85.0-0.0","86265348","wem/bandit_party_2","A39PKC5DMX5FJN","either","5","649","","","","","","","0","0","1","","0.6211160782","0.6","0.2","0.4","0.8","0.150922449","0.6211160782","0.1558361793","0.3354744533","","","","","","","","","","","","","","74","J","1","","","44","main_expt",""
"","bandit","124","460356","0.0-86.0-0.0","86265348","wem/bandit_party_2","A39PKC5DMX5FJN","either","5","422","","","","","","","0","1","0","","0.5950963145","0.6","0.2","0.4","0.8","0.08792573626","0.5950963145","0.08224127908","0.2259933845","","","","","","","","","","","","","","74","J","1","","","45","main_expt",""
"","bandit","125","462274","0.0-87.0-0.0","86265348","wem/bandit_party_2","A39PKC5DMX5FJN","either","5","411","","","","","","","0","1","0","","0.600883672","0.6","0.2","0.4","0.8","0.05210962111","0.600883672","0.05681632526","0.1991815266","","","","","","","","","","","","","","74","J","1","","","46","main_expt",""
"","bandit","126","464191","0.0-88.0-0.0","86265348","wem/bandit_party_2","A39PKC5DMX5FJN","either","5","410","","","","","","","0","1","0","","0.6018426621","0.6","0.2","0.4","0.8","0.1658512007","0.6018426621","0.02046531905","0.1821259253","","","","","","","","","","","","","","74","J","1","","","47","main_expt",""
"","bandit","127","466163","0.0-89.0-0.0","86265348","wem/bandit_party_2","A39PKC5DMX5FJN","either","5","467","","","","","","","1","0","0","0.6719149388","","0.6","0.2","0.4","0.8","","","","","0.2171730843","0.6719149388","0.02793369594","0.1850219792","","","","","","","","","","74","J","1","","","48","main_expt",""
"","bandit","128","468427","0.0-90.0-0.0","86265348","wem/bandit_party_2","A39PKC5DMX5FJN","either","5","756","","","","","","","0","0","1","","0.5824093935","0.6","0.2","0.4","0.8","0.2545874694","0.5824093935","0.01520235592","0.2843491098","","","","","","","","","","","","","","74","J","1","","","49","main_expt",""
"","bandit","129","470545","0.0-91.0-0.0","86265348","wem/bandit_party_2","A39PKC5DMX5FJN","either","5","613","","","","","","","0","1","0","","0.5697547833","0.6","0.2","0.4","0.8","0.1971443839","0.5697547833","0.008868670712","0.2385085868","","","","","","","","","","","","","","74","J","1","","","50","main_expt",""
"","bandit","130","472444","0.0-92.0-0.0","86265348","wem/bandit_party_2","A39PKC5DMX5FJN","either","5","394","","","","","","","0","1","0","","0.5875551098","0.6","0.2","0.4","0.8","0.1743954459","0.5875551098","0.004668439046","0.2762119933","","","","","","","","","","","","","","74","J","1","","","51","main_expt",""
"","bandit","131","474449","0.0-93.0-0.0","86265348","wem/bandit_party_2","A39PKC5DMX5FJN","either","5","498","","","","","","","0","1","0","","0.691822337","0.6","0.2","0.4","0.8","0.1007451992","0.691822337","0.003090075005","0.2350807626","","","","","","","","","","","","","","74","J","1","","","52","main_expt",""
"","bandit","132","476549","0.0-94.0-0.0","86265348","wem/bandit_party_2","A39PKC5DMX5FJN","either","5","593","","","","","","","0","1","0","","0.7363191169","0.6","0.2","0.4","0.8","0.1648918076","0.7363191169","0.003474758773","0.2301492847","","","","","","","","","","","","","","74","J","1","","","53","main_expt",""
"","bandit","133","478667","0.0-95.0-0.0","86265348","wem/bandit_party_2","A39PKC5DMX5FJN","either","5","612","","","","","","","0","1","0","","0.7639548597","0.6","0.2","0.4","0.8","0.1761014763","0.7639548597","0.003279238457","0.2779325162","","","","","","","","","","","","","","74","J","1","","","54","main_expt",""
"","bandit","134","480579","0.0-96.0-0.0","86265348","wem/bandit_party_2","A39PKC5DMX5FJN","either","5","405","","","","","","","0","1","0","","0.7264154962","0.6","0.2","0.4","0.8","0.1460392243","0.7264154962","0.001847339967","0.2882189161","","","","","","","","","","","","","","74","J","1","","","55","main_expt",""
"","bandit","135","482558","0.0-97.0-0.0","86265348","wem/bandit_party_2","A39PKC5DMX5FJN","either","5","473","","","","","","","0","1","0","","0.7511403137","0.6","0.2","0.4","0.8","0.1882527018","0.7511403137","0.001186331615","0.2646822794","","","","","","","","","","","","","","74","J","1","","","56","main_expt",""
"","bandit","136","484435","0.0-98.0-0.0","86265348","wem/bandit_party_2","A39PKC5DMX5FJN","either","5","371","","","","","","","0","1","0","","0.6292194553","0.6","0.2","0.4","0.8","0.1836596221","0.6292194553","0.001917609755","0.3080117871","","","","","","","","","","","","","","74","J","1","","","57","main_expt",""
"","bandit","137","486272","0.0-99.0-0.0","86265348","wem/bandit_party_2","A39PKC5DMX5FJN","either","5","332","","","","","","","1","0","0","0.5622591622","","0.6","0.2","0.4","0.8","","","","","0.2259562874","0.5622591622","0.004115025419","0.2609020091","","","","","","","","","","74","J","1","","","58","main_expt",""
"","bandit","138","488359","0.0-100.0-0.0","86265348","wem/bandit_party_2","A39PKC5DMX5FJN","either","5","580","","","","","","","0","1","0","","0.6394190939","0.6","0.2","0.4","0.8","0.1673227733","0.6394190939","0.007083433589","0.3014652953","","","","","","","","","","","","","","74","J","1","","","59","main_expt",""
"","bandit","139","490354","0.0-101.0-0.0","86265348","wem/bandit_party_2","A39PKC5DMX5FJN","either","5","487","","","","","","","0","0","1","","0.502148976","0.6","0.2","0.4","0.8","0.1404143731","0.502148976","0.0100473459","0.2872544729","","","","","","","","","","","","","","74","J","1","","","60","main_expt",""
"","bandit","140","492232","0.0-102.0-0.0","86265348","wem/bandit_party_2","A39PKC5DMX5FJN","either","5","372","","","","","","","1","0","0","0.5541662771","","0.6","0.2","0.4","0.8","","","","","0.1087230511","0.5541662771","0.02288810402","0.2347068593","","","","","","","","","","74","J","1","","","61","main_expt",""
"","bandit","141","494094","0.0-103.0-0.0","86265348","wem/bandit_party_2","A39PKC5DMX5FJN","either","5","356","","","","","","","0","1","0","","0.6016144889","0.6","0.2","0.4","0.8","0.1173770395","0.6016144889","0.04890713094","0.1786743828","","","","","","","","","","","","","","74","J","1","","","62","main_expt",""
"","bandit","142","495951","0.0-104.0-0.0","86265348","wem/bandit_party_2","A39PKC5DMX5FJN","either","5","351","","","","","","","0","1","0","","0.6306423252","0.6","0.2","0.4","0.8","0.1173961002","0.6306423252","0.06015841579","0.1627017484","","","","","","","","","","","","","","74","J","1","","","63","main_expt",""
"","bandit","143","497923","0.0-105.0-0.0","86265348","wem/bandit_party_2","A39PKC5DMX5FJN","either","5","466","","","","","","","0","0","1","","0.5963496952","0.6","0.2","0.4","0.8","0.1093057248","0.5963496952","0.0697324588","0.2220220934","","","","","","","","","","","","","","74","J","1","","","64","main_expt",""
"","bandit","144","499814","0.0-106.0-0.0","86265348","wem/bandit_party_2","A39PKC5DMX5FJN","either","5","386","","","","","","","0","1","0","","0.5835424673","0.6","0.2","0.4","0.8","0.1437581537","0.5835424673","0.03955641554","0.1387290973","","","","","","","","","","","","","","74","J","1","","","65","main_expt",""
"","bandit","145","501623","0.0-107.0-0.0","86265348","wem/bandit_party_2","A39PKC5DMX5FJN","either","5","301","","","","","","","0","1","0","","0.5789137396","0.6","0.2","0.4","0.8","0.1321246006","0.5789137396","0.04104317144","0.1481952943","","","","","","","","","","","","","","74","J","1","","","66","main_expt",""
"","bandit","146","503427","0.0-108.0-0.0","86265348","wem/bandit_party_2","A39PKC5DMX5FJN","either","5","298","","","","","","","0","1","0","","0.6503196648","0.6","0.2","0.4","0.8","0.1441415222","0.6503196648","0.07749417123","0.1354395346","","","","","","","","","","","","","","74","J","1","","","67","main_expt",""
"","bandit","147","505304","0.0-109.0-0.0","86265348","wem/bandit_party_2","A39PKC5DMX5FJN","either","5","371","","","","","","","0","1","0","","0.7295955131","0.6","0.2","0.4","0.8","0.1794787892","0.7295955131","0.1606162296","0.09431815687","","","","","","","","","","","","","","74","J","1","","","68","main_expt",""
"","bandit","148","507160","0.0-110.0-0.0","86265348","wem/bandit_party_2","A39PKC5DMX5FJN","either","5","350","","","","","","","0","1","0","","0.7924649224","0.6","0.2","0.4","0.8","0.2467892919","0.7924649224","0.1458723802","0.09491494314","","","","","","","","","","","","","","74","J","1","","","69","main_expt",""
"","bandit","149","509014","0.0-111.0-0.0","86265348","wem/bandit_party_2","A39PKC5DMX5FJN","either","5","347","","","","","","","0","1","0","","0.7104550926","0.6","0.2","0.4","0.8","0.2683381141","0.7104550926","0.09936082334","0.144379617","","","","","","","","","","","","","","74","J","1","","","70","main_expt",""
"","bandit","150","510898","0.0-112.0-0.0","86265348","wem/bandit_party_2","A39PKC5DMX5FJN","either","5","378","","","","","","","1","0","0","0.6350436987","","0.6","0.2","0.4","0.8","","","","","0.3513633517","0.6350436987","0.08487306657","0.1522740794","","","","","","","","","","74","J","1","","","71","main_expt",""
"","bandit","151","512864","0.0-113.0-0.0","86265348","wem/bandit_party_2","A39PKC5DMX5FJN","either","5","458","","","","","","","0","1","0","","0.5987872161","0.6","0.2","0.4","0.8","0.2914052368","0.5987872161","0.08819471669","0.1668466162","","","","","","","","","","","","","","74","J","1","","","72","main_expt",""
"","bandit","152","514748","0.0-114.0-0.0","86265348","wem/bandit_party_2","A39PKC5DMX5FJN","either","5","378","","","","","","","0","0","1","","0.5985066563","0.6","0.2","0.4","0.8","0.2877488323","0.5985066563","0.1283432424","0.1896474075","","","","","","","","","","","","","","74","J","1","","","73","main_expt",""
"","bandit","153","516823","0.0-115.0-0.0","86265348","wem/bandit_party_2","A39PKC5DMX5FJN","either","5","567","","","","","","","0","0","1","","0.6384302553","0.6","0.2","0.4","0.8","0.2562899571","0.6384302553","0.09379917772","0.2374421278","","","","","","","","","","","","","","74","J","1","","","74","main_expt",""
"","bandit","154","520470","0.0-116.0-0.0","86265348","wem/bandit_party_2","A39PKC5DMX5FJN","either","5","2141","","","","","","","0","0","1","","0.09049970266","0.6","0.2","0.4","0.8","0.2733605005","0.5658832615","0.09049970266","0.2083661751","","","","","","","","","","","","","","75","K","2","","","75","main_expt",""
"","bandit","155","522428","0.0-117.0-0.0","86265348","wem/bandit_party_2","A39PKC5DMX5FJN","either","5","452","","","","","","","0","0","1","","0.08721668036","0.6","0.2","0.4","0.8","0.3937912108","0.6242699585","0.08721668036","0.2438220339","","","","","","","","","","","","","","75","K","2","","","76","main_expt",""
"","bandit","156","524775","0.0-118.0-0.0","86265348","wem/bandit_party_2","A39PKC5DMX5FJN","either","5","840","","","","","","","1","0","0","0.2688374605","","0.6","0.2","0.4","0.8","","","","","0.2317864895","0.5744400186","0.06435523183","0.2688374605","","","","","","","","","","76","L","3","","","77","main_expt",""
"","bandit","157","526726","0.0-119.0-0.0","86265348","wem/bandit_party_2","A39PKC5DMX5FJN","either","5","445","","","","","","","0","0","1","0.354885782","","0.6","0.2","0.4","0.8","","","","","0.1809738678","0.5888420407","0.0482567949","0.354885782","","","","","","","","","","76","L","3","","","78","main_expt",""
"","bandit","158","528600","0.0-120.0-0.0","86265348","wem/bandit_party_2","A39PKC5DMX5FJN","either","5","368","","","","","","","1","0","0","0.3618930149","","0.6","0.2","0.4","0.8","","","","","0.1139783564","0.6367332082","0.0437210955","0.3618930149","","","","","","","","","","76","L","3","","","79","main_expt",""
"","bandit","159","530499","0.0-121.0-0.0","86265348","wem/bandit_party_2","A39PKC5DMX5FJN","either","5","393","","","","","","","0","0","1","0.2656346555","","0.6","0.2","0.4","0.8","","","","","0.08785846653","0.6870764151","0.02877808334","0.2656346555","","","","","","","","","","76","L","3","","","80","main_expt",""
"","bandit","160","532375","0.0-122.0-0.0","86265348","wem/bandit_party_2","A39PKC5DMX5FJN","either","5","370","","","","","","","0","0","1","0.4245431589","","0.6","0.2","0.4","0.8","","","","","0.09113866108","0.594282643","0.01921293631","0.4245431589","","","","","","","","","","76","L","3","","","81","main_expt",""
"","bandit","161","535146","0.0-123.0-0.0","86265348","wem/bandit_party_2","A39PKC5DMX5FJN","either","5","1264","","","","","","","0","0","1","0.1055231707","","0.6","0.2","0.4","0.8","","","","","0.1055231707","0.6134463007","0.04933803159","0.4469352605","","","","","","","","","","72","H","0","img/none_selected.jpg","","82","main_expt",""
"","bandit","162","537083","0.0-124.0-0.0","86265348","wem/bandit_party_2","A39PKC5DMX5FJN","either","5","430","","","","","","","0","0","1","","0.09865920741","0.6","0.2","0.4","0.8","0.09865920741","0.573719985","0.03134335394","0.4492602846","","","","","","","","","","","","","","72","H","0","img/none_selected.jpg","","83","main_expt",""
"","bandit","163","539086","0.0-125.0-0.0","86265348","wem/bandit_party_2","A39PKC5DMX5FJN","either","5","496","","","","","","","0","1","0","","0.5666188995","0.6","0.2","0.4","0.8","0.06745845416","0.5666188995","0.08181594064","0.4800113203","","","","","","","","","","","","","","74","J","1","","","84","main_expt",""
"","bandit","164","541028","0.0-126.0-0.0","86265348","wem/bandit_party_2","A39PKC5DMX5FJN","either","5","435","","","","","","","0","0","1","","0.5161506384","0.6","0.2","0.4","0.8","0.05723787215","0.5161506384","0.09326949564","0.53417275","","","","","","","","","","","","","","74","J","1","","","85","main_expt",""
"","bandit","165","542978","0.0-127.0-0.0","86265348","wem/bandit_party_2","A39PKC5DMX5FJN","either","5","444","","","","","","","0","0","1","","0.4408304524","0.6","0.2","0.4","0.8","0.04283717318","0.4408304524","0.1365856799","0.4431594274","","","","","","","","","","","","","","74","J","1","","","86","main_expt",""
"","bandit","166","544977","0.0-128.0-0.0","86265348","wem/bandit_party_2","A39PKC5DMX5FJN","either","5","491","","","","","","","0","0","1","","0.4926691315","0.6","0.2","0.4","0.8","0.04801612347","0.4926691315","0.1845868617","0.4135642243","","","","","","","","","","","","","","74","J","1","","","87","main_expt",""
"","bandit","167","547401","0.0-129.0-0.0","86265348","wem/bandit_party_2","A39PKC5DMX5FJN","either","5","918","","","","","","","0","0","1","0.2304222619","","0.6","0.2","0.4","0.8","","","","","0.1154775412","0.6047228172","0.2304222619","0.4785462387","","","","","","","","","","75","K","2","","","88","main_expt",""
"","bandit","168","549388","0.0-130.0-0.0","86265348","wem/bandit_party_2","A39PKC5DMX5FJN","either","5","480","","","","","","","0","0","1","","0.1408060154","0.6","0.2","0.4","0.8","0.1308375778","0.5311406509","0.1408060154","0.6395163219","","","","","","","","","","","","","","75","K","2","","","89","main_expt",""
"","bandit","169","551391","0.0-131.0-0.0","86265348","wem/bandit_party_2","A39PKC5DMX5FJN","either","5","497","","","","","","","0","0","1","","0.1870966622","0.6","0.2","0.4","0.8","0.07282967421","0.6262376813","0.1870966622","0.6143207643","","","","","","","","","","","","","","75","K","2","","","90","main_expt",""
"","bandit","170","553653","0.0-132.0-0.0","86265348","wem/bandit_party_2","A39PKC5DMX5FJN","either","5","756","","","","","","","1","0","0","0.446485487","","0.6","0.2","0.4","0.8","","","","","0.07599207753","0.690423555","0.192698437","0.446485487","","","","","","","","","","76","L","3","","","91","main_expt",""
"","bandit","171","555675","0.0-133.0-0.0","86265348","wem/bandit_party_2","A39PKC5DMX5FJN","either","5","515","","","","","","","1","0","0","0.5169677416","","0.6","0.2","0.4","0.8","","","","","0.04323911508","0.6517149298","0.1683480261","0.5169677416","","","","","","","","","","76","L","3","","","92","main_expt",""
"","bandit","172","557660","0.0-134.0-0.0","86265348","wem/bandit_party_2","A39PKC5DMX5FJN","either","5","476","","","","","","","0","0","1","0.4242737166","","0.6","0.2","0.4","0.8","","","","","0.04253576945","0.5656193004","0.1330499919","0.4242737166","","","","","","","","","","76","L","3","","","93","main_expt",""
"","bandit","173","559521","0.0-135.0-0.0","86265348","wem/bandit_party_2","A39PKC5DMX5FJN","either","5","352","","","","","","","0","0","1","0.3479993201","","0.6","0.2","0.4","0.8","","","","","0.04534385772","0.4344563295","0.1880917327","0.3479993201","","","","","","","","","","76","L","3","","","94","main_expt",""
"","bandit","174","561957","0.0-136.0-0.0","86265348","wem/bandit_party_2","A39PKC5DMX5FJN","either","5","929","","","","","","","0","0","1","0.3701135783","","0.6","0.2","0.4","0.8","","","","","0.03318992591","0.5651083109","0.1867575465","0.3701135783","","","","","","","","","","76","L","3","","","95","main_expt",""
"","bandit","175","564681","0.0-137.0-0.0","86265348","wem/bandit_party_2","A39PKC5DMX5FJN","either","5","1218","","","","","","","0","0","1","","0.03408771876","0.6","0.2","0.4","0.8","0.03408771876","0.5348041914","0.2231999883","0.3430407586","","","","","","","","","","","","","","72","H","0","img/none_selected.jpg","","96","main_expt",""
"","bandit","176","566609","0.0-138.0-0.0","86265348","wem/bandit_party_2","A39PKC5DMX5FJN","either","5","421","","","","","","","0","0","1","","0.05013144164","0.6","0.2","0.4","0.8","0.05013144164","0.5627844697","0.2149045243","0.2876443713","","","","","","","","","","","","","","72","H","0","img/none_selected.jpg","","97","main_expt",""
"","bandit","177","568519","0.0-139.0-0.0","86265348","wem/bandit_party_2","A39PKC5DMX5FJN","either","5","402","","","","","","","0","0","1","","0.6177525637","0.6","0.2","0.4","0.8","0.03739082544","0.6177525637","0.1963416079","0.3310412313","","","","","","","","","","","","","","74","J","1","","","98","main_expt",""
"","bandit","178","570445","0.0-140.0-0.0","86265348","wem/bandit_party_2","A39PKC5DMX5FJN","either","5","419","","","","","","","0","1","0","","0.7429557604","0.6","0.2","0.4","0.8","0.1018336486","0.7429557604","0.1659387142","0.3893078888","","","","","","","","","","","","","","74","J","1","","","99","main_expt",""
"","bandit","179","572433","0.0-141.0-0.0","86265348","wem/bandit_party_2","A39PKC5DMX5FJN","either","5","481","","","","","","","0","0","1","","0.6717563967","0.6","0.2","0.4","0.8","0.1398961818","0.6717563967","0.145948344","0.4049224607","","","","","","","","","","","","","","74","J","1","","","100","main_expt",""
"","bandit","180","574271","0.0-142.0-0.0","86265348","wem/bandit_party_2","A39PKC5DMX5FJN","either","5","331","","","","","","","0","1","0","","0.6929666651","0.6","0.2","0.4","0.8","0.1830356504","0.6929666651","0.1366695263","0.3259939159","","","","","","","","","","","","","","74","J","1","","","101","main_expt",""
"","bandit","181","576163","0.0-143.0-0.0","86265348","wem/bandit_party_2","A39PKC5DMX5FJN","either","5","385","","","","","","","0","1","0","","0.6827494989","0.6","0.2","0.4","0.8","0.1396005595","0.6827494989","0.1543059156","0.3598161211","","","","","","","","","","","","","","74","J","1","","","102","main_expt",""
"","bandit","182","578033","0.0-144.0-0.0","86265348","wem/bandit_party_2","A39PKC5DMX5FJN","either","5","364","","","","","","","0","0","1","","0.7315485361","0.6","0.2","0.4","0.8","0.0853830874","0.7315485361","0.1484193465","0.3385951472","","","","","","","","","","","","","","74","J","1","","","103","main_expt",""
"","bandit","183","579899","0.0-145.0-0.0","86265348","wem/bandit_party_2","A39PKC5DMX5FJN","either","5","354","","","","","","","0","0","1","","0.6852971926","0.6","0.2","0.4","0.8","0.09317924201","0.6852971926","0.1516288854","0.4881545817","","","","","","","","","","","","","","74","J","1","","","104","main_expt",""
"","bandit","184","581827","0.0-146.0-0.0","86265348","wem/bandit_party_2","A39PKC5DMX5FJN","either","5","421","","","","","","","0","1","0","","0.693594393","0.6","0.2","0.4","0.8","0.08203708102","0.693594393","0.1283123627","0.4790883063","","","","","","","","","","","","","","74","J","1","","","105","main_expt",""
"","bandit","185","583808","0.0-147.0-0.0","86265348","wem/bandit_party_2","A39PKC5DMX5FJN","either","5","474","","","","","","","0","0","1","","0.6101065231","0.6","0.2","0.4","0.8","0.07160056992","0.6101065231","0.2016068708","0.4354998123","","","","","","","","","","","","","","74","J","1","","","106","main_expt",""
"","bandit","186","585787","0.0-148.0-0.0","86265348","wem/bandit_party_2","A39PKC5DMX5FJN","either","5","473","","","","","","","0","0","1","0.5549317608","","0.6","0.2","0.4","0.8","","","","","0.09799112372","0.5549317608","0.2344181992","0.4789065637","","","","","","","","","","74","J","1","","","107","main_expt",""
"","bandit","187","587705","0.0-149.0-0.0","86265348","wem/bandit_party_2","A39PKC5DMX5FJN","either","5","411","","","","","","","0","1","0","","0.5753690117","0.6","0.2","0.4","0.8","0.1101799882","0.5753690117","0.2234564856","0.2921896665","","","","","","","","","","","","","","74","J","1","","","108","main_expt",""
"","bandit","188","589536","0.0-150.0-0.0","86265348","wem/bandit_party_2","A39PKC5DMX5FJN","either","5","324","","","","","","","0","1","0","","0.5748544728","0.6","0.2","0.4","0.8","0.07189968831","0.5748544728","0.2494485671","0.3545905428","","","","","","","","","","","","","","74","J","1","","","109","main_expt",""
"","bandit","189","591420","0.0-151.0-0.0","86265348","wem/bandit_party_2","A39PKC5DMX5FJN","either","5","378","","","","","","","0","0","1","","0.6473038793","0.6","0.2","0.4","0.8","0.06101418375","0.6473038793","0.2804015825","0.3110769573","","","","","","","","","","","","","","74","J","1","","","110","main_expt",""
"","bandit","190","594407","0.0-152.0-0.0","86265348","wem/bandit_party_2","A39PKC5DMX5FJN","either","5","1479","","","","","","","0","0","1","","0.254644275","0.6","0.2","0.4","0.8","0.1032726654","0.6296147118","0.254644275","0.3673577619","","","","","","","","","","","","","","75","K","2","","","111","main_expt",""
"","bandit","191","596189","0.0-153.0-0.0","86265348","wem/bandit_party_2","A39PKC5DMX5FJN","either","5","276","","","","","","","0","0","1","0.2686709136","","0.6","0.2","0.4","0.8","","","","","0.1061240248","0.6174722021","0.2686709136","0.3439961468","","","","","","","","","","75","K","2","","","112","main_expt",""
"","bandit","192","598404","0.0-154.0-0.0","86265348","wem/bandit_party_2","A39PKC5DMX5FJN","either","5","709","","","","","","","0","0","1","0.3389202036","","0.6","0.2","0.4","0.8","","","","","0.1150632514","0.7467975424","0.3211503982","0.3389202036","","","","","","","","","","76","L","3","","","113","main_expt",""
"","bandit","193","600413","0.0-155.0-0.0","86265348","wem/bandit_party_2","A39PKC5DMX5FJN","either","5","503","","","","","","","0","0","1","0.3122185675","","0.6","0.2","0.4","0.8","","","","","0.1491479201","0.7797220863","0.3067152309","0.3122185675","","","","","","","","","","76","L","3","","","114","main_expt",""
"","bandit","194","602332","0.0-156.0-0.0","86265348","wem/bandit_party_2","A39PKC5DMX5FJN","either","5","412","","","","","","","1","0","0","0.2431064996","","0.6","0.2","0.4","0.8","","","","","0.08304421353","0.8152411921","0.3274584286","0.2431064996","","","","","","","","","","76","L","3","","","115","main_expt",""
"","bandit","195","604268","0.0-157.0-0.0","86265348","wem/bandit_party_2","A39PKC5DMX5FJN","either","5","428","","","","","","","1","0","0","0.2225404561","","0.6","0.2","0.4","0.8","","","","","0.1391191417","0.7362727539","0.2491959293","0.2225404561","","","","","","","","","","76","L","3","","","116","main_expt",""
"","bandit","196","606329","0.0-158.0-0.0","86265348","wem/bandit_party_2","A39PKC5DMX5FJN","either","5","555","","","","","","","0","0","1","0.2891792411","","0.6","0.2","0.4","0.8","","","","","0.1689833708","0.7051771602","0.1425156065","0.2891792411","","","","","","","","","","76","L","3","","","117","main_expt",""
"","bandit","197","608283","0.0-159.0-0.0","86265348","wem/bandit_party_2","A39PKC5DMX5FJN","either","5","446","","","","","","","0","0","1","","0.1341186766","0.6","0.2","0.4","0.8","0.1341186766","0.7099604309","0.1550025764","0.3147139712","","","","","","","","","","","","","","72","H","0","img/none_selected.jpg","","118","main_expt",""
"","bandit","198","610044","0.0-160.0-0.0","86265348","wem/bandit_party_2","A39PKC5DMX5FJN","either","5","253","","","","","","","0","0","1","0.1211065448","","0.6","0.2","0.4","0.8","","","","","0.1211065448","0.6633752461","0.1733664784","0.4890071061","","","","","","","","","","72","H","0","img/none_selected.jpg","","119","main_expt",""
"","bandit","199","612004","0.0-161.0-0.0","86265348","wem/bandit_party_2","A39PKC5DMX5FJN","either","5","451","","","","","","","0","0","1","0.1317257861","","0.6","0.2","0.4","0.8","","","","","0.1317257861","0.6748815414","0.2091577514","0.5238994176","","","","","","","","","","72","H","0","img/none_selected.jpg","","120","main_expt",""
"","bandit","200","614547","0.0-162.0-0.0","86265348","wem/bandit_party_2","A39PKC5DMX5FJN","either","5","1036","","","","","","","0","1","0","","0.694041989","0.6","0.2","0.4","0.8","0.08851148741","0.694041989","0.2038206067","0.4821854017","","","","","","","","","","","","","","74","J","1","","","121","main_expt",""
"","bandit","201","616459","0.0-163.0-0.0","86265348","wem/bandit_party_2","A39PKC5DMX5FJN","either","5","404","","","","","","","1","0","0","0.7808088803","","0.6","0.2","0.4","0.8","","","","","0.1313095228","0.7808088803","0.1646827865","0.5695824443","","","","","","","","","","74","J","1","","","122","main_expt",""
"","bandit","202","618334","0.0-164.0-0.0","86265348","wem/bandit_party_2","A39PKC5DMX5FJN","either","5","367","","","","","","","1","0","0","0.7513243775","","0.6","0.2","0.4","0.8","","","","","0.1990721176","0.7513243775","0.08951947698","0.5884468641","","","","","","","","","","74","J","1","","","123","main_expt",""
"","bandit","203","620179","0.0-165.0-0.0","86265348","wem/bandit_party_2","A39PKC5DMX5FJN","either","5","336","","","","","","","0","0","1","","0.7095593687","0.6","0.2","0.4","0.8","0.3510587203","0.7095593687","0.09676311751","0.6578864121","","","","","","","","","","","","","","74","J","1","","","124","main_expt",""
"","bandit","204","622120","0.0-166.0-0.0","86265348","wem/bandit_party_2","A39PKC5DMX5FJN","either","5","433","","","","","","","0","1","0","","0.6464373278","0.6","0.2","0.4","0.8","0.2829787335","0.6464373278","0.08914634913","0.6610648035","","","","","","","","","","","","","","74","J","1","","","125","main_expt",""
"","bandit","205","624004","0.0-167.0-0.0","86265348","wem/bandit_party_2","A39PKC5DMX5FJN","either","5","375","","","","","","","0","1","0","","0.69855693","0.6","0.2","0.4","0.8","0.3253732313","0.69855693","0.1104844084","0.6745370829","","","","","","","","","","","","","","74","J","1","","","126","main_expt",""
"","bandit","206","625887","0.0-168.0-0.0","86265348","wem/bandit_party_2","A39PKC5DMX5FJN","either","5","377","","","","","","","0","0","1","","0.6394960802","0.6","0.2","0.4","0.8","0.2969307539","0.6394960802","0.1302598269","0.6357656308","","","","","","","","","","","","","","74","J","1","","","127","main_expt",""
"","bandit","207","627680","0.0-169.0-0.0","86265348","wem/bandit_party_2","A39PKC5DMX5FJN","either","5","286","","","","","","","0","0","1","","0.5912569563","0.6","0.2","0.4","0.8","0.3862322559","0.5912569563","0.1739983423","0.6746479632","","","","","","","","","","","","","","74","J","1","","","128","main_expt",""
"","bandit","208","629548","0.0-170.0-0.0","86265348","wem/bandit_party_2","A39PKC5DMX5FJN","either","5","362","","","","","","","0","0","1","0.2144078185","","0.6","0.2","0.4","0.8","","","","","0.3399993615","0.6408154383","0.2144078185","0.609360971","","","","","","","","","","75","K","2","","","129","main_expt",""
"","bandit","209","631522","0.0-171.0-0.0","86265348","wem/bandit_party_2","A39PKC5DMX5FJN","either","5","466","","","","","","","0","1","0","","0.2133227205","0.6","0.2","0.4","0.8","0.4343217783","0.6160079471","0.2133227205","0.5791775941","","","","","","","","","","","","","","75","K","2","","","130","main_expt",""
"","bandit","210","633438","0.0-172.0-0.0","86265348","wem/bandit_party_2","A39PKC5DMX5FJN","either","5","409","","","","","","","0","1","0","","0.3009586135","0.6","0.2","0.4","0.8","0.4116870082","0.6639311205","0.3009586135","0.6039133906","","","","","","","","","","","","","","75","K","2","","","131","main_expt",""
"","bandit","211","635303","0.0-173.0-0.0","86265348","wem/bandit_party_2","A39PKC5DMX5FJN","either","5","357","","","","","","","0","0","1","","0.3257006372","0.6","0.2","0.4","0.8","0.3235444519","0.7314418876","0.3257006372","0.5564977279","","","","","","","","","","","","","","75","K","2","","","132","main_expt",""
"","bandit","212","638627","0.0-174.0-0.0","86265348","wem/bandit_party_2","A39PKC5DMX5FJN","either","5","1817","","","","","","","1","0","0","0.5453182718","","0.6","0.2","0.4","0.8","","","","","0.4204005917","0.7343064015","0.3286432436","0.5453182718","","","","","","","","","","76","L","3","","","133","main_expt",""
"","bandit","213","640571","0.0-175.0-0.0","86265348","wem/bandit_party_2","A39PKC5DMX5FJN","either","5","435","","","","","","","0","0","1","0.5557967555","","0.6","0.2","0.4","0.8","","","","","0.5326734174","0.6345074403","0.3343575241","0.5557967555","","","","","","","","","","76","L","3","","","134","main_expt",""
"","bandit","214","642518","0.0-176.0-0.0","86265348","wem/bandit_party_2","A39PKC5DMX5FJN","either","5","441","","","","","","","0","0","1","0.5719827955","","0.6","0.2","0.4","0.8","","","","","0.6096825818","0.752921597","0.2917270645","0.5719827955","","","","","","","","","","76","L","3","","","135","main_expt",""
"","bandit","215","644515","0.0-177.0-0.0","86265348","wem/bandit_party_2","A39PKC5DMX5FJN","either","5","490","","","","","","","1","0","0","0.6827328332","","0.6","0.2","0.4","0.8","","","","","0.6827328332","0.7642539739","0.3972485531","0.4756276611","","","","","","","","","","72","H","0","img/none_selected.jpg","","136","main_expt",""
"","bandit","216","646467","0.0-178.0-0.0","86265348","wem/bandit_party_2","A39PKC5DMX5FJN","either","5","445","","","","","","","1","0","0","0.6604068036","","0.6","0.2","0.4","0.8","","","","","0.6604068036","0.7166238274","0.4294090248","0.5078949877","","","","","","","","","","72","H","0","img/none_selected.jpg","","137","main_expt",""
"","bandit","217","648404","0.0-179.0-0.0","86265348","wem/bandit_party_2","A39PKC5DMX5FJN","either","5","429","","","","","","","0","1","0","","0.653661868","0.6","0.2","0.4","0.8","0.653661868","0.713549589","0.5009988565","0.4938131475","","","","","","","","","","","","","","72","H","0","img/none_selected.jpg","","138","main_expt",""
"","bandit","218","650425","0.0-180.0-0.0","86265348","wem/bandit_party_2","A39PKC5DMX5FJN","either","5","514","","","","","","","0","0","1","0.6169918179","","0.6","0.2","0.4","0.8","","","","","0.6169918179","0.6905374229","0.4993746949","0.654612375","","","","","","","","","","72","H","0","img/none_selected.jpg","","139","main_expt",""
"","bandit","219","652505","0.0-181.0-0.0","86265348","wem/bandit_party_2","A39PKC5DMX5FJN","either","5","573","","","","","","","0","0","1","","0.6657435074","0.6","0.2","0.4","0.8","0.6657435074","0.6614813372","0.5448973659","0.52663091","","","","","","","","","","","","","","72","H","0","img/none_selected.jpg","","140","main_expt",""
"","bandit","220","654494","0.0-182.0-0.0","86265348","wem/bandit_party_2","A39PKC5DMX5FJN","either","5","481","","","","","","","0","1","0","","0.7024355817","0.6","0.2","0.4","0.8","0.6349341703","0.7024355817","0.4829720837","0.5976356642","","","","","","","","","","","","","","74","J","1","","","141","main_expt",""
"","bandit","221","656404","0.0-183.0-0.0","86265348","wem/bandit_party_2","A39PKC5DMX5FJN","either","5","402","","","","","","","0","0","1","","0.7185929435","0.6","0.2","0.4","0.8","0.6379356982","0.7185929435","0.5402580016","0.5956183516","","","","","","","","","","","","","","74","J","1","","","142","main_expt",""
"","bandit","222","658300","0.0-184.0-0.0","86265348","wem/bandit_party_2","A39PKC5DMX5FJN","either","5","388","","","","","","","0","1","0","","0.6240660549","0.6","0.2","0.4","0.8","0.6022688156","0.6240660549","0.5478015274","0.6432894639","","","","","","","","","","","","","","74","J","1","","","143","main_expt",""
"","bandit","223","660256","0.0-185.0-0.0","86265348","wem/bandit_party_2","A39PKC5DMX5FJN","either","5","449","","","","","","","0","0","1","","0.5797935966","0.6","0.2","0.4","0.8","0.5806731621","0.5797935966","0.5189832842","0.6691106198","","","","","","","","","","","","","","74","J","1","","","144","main_expt",""
"","bandit","224","662107","0.0-186.0-0.0","86265348","wem/bandit_party_2","A39PKC5DMX5FJN","either","5","343","","","","","","","0","1","0","","0.520403766","0.6","0.2","0.4","0.8","0.5512406412","0.520403766","0.4556604905","0.677031803","","","","","","","","","","","","","","74","J","1","","","145","main_expt",""
"","bandit","225","663939","0.0-187.0-0.0","86265348","wem/bandit_party_2","A39PKC5DMX5FJN","either","5","324","","","","","","","0","1","0","","0.5330345992","0.6","0.2","0.4","0.8","0.6055708535","0.5330345992","0.48011385","0.6697886415","","","","","","","","","","","","","","74","J","1","","","146","main_expt",""
"","bandit","226","665810","0.0-188.0-0.0","86265348","wem/bandit_party_2","A39PKC5DMX5FJN","either","5","364","","","","","","","0","1","0","","0.5692896821","0.6","0.2","0.4","0.8","0.5711328773","0.5692896821","0.5363471167","0.7101623398","","","","","","","","","","","","","","74","J","1","","","147","main_expt",""
"","bandit","227","667825","0.0-189.0-0.0","86265348","wem/bandit_party_2","A39PKC5DMX5FJN","either","5","507","","","","","","","1","0","0","0.4877368026","","0.6","0.2","0.4","0.8","","","","","0.4258462921","0.4877368026","0.4929714004","0.733230793","","","","","","","","","","74","J","1","","","148","main_expt",""
"","bandit","228","670021","0.0-190.0-0.0","86265348","wem/bandit_party_2","A39PKC5DMX5FJN","either","5","689","","","","","","","0","1","0","","0.5936336812","0.6","0.2","0.4","0.8","0.327967402","0.5936336812","0.4356177925","0.7010449773","","","","","","","","","","","","","","74","J","1","","","149","main_expt",""
"","bandit","229","671992","0.0-191.0-0.0","86265348","wem/bandit_party_2","A39PKC5DMX5FJN","either","5","462","","","","","","","1","0","0","0.7027445866","","0.6","0.2","0.4","0.8","","","","","0.4343474627","0.7027445866","0.4054894896","0.6668672445","","","","","","","","","","74","J","1","","","150","main_expt",""
"","bandit","230","673859","0.0-192.0-0.0","86265348","wem/bandit_party_2","A39PKC5DMX5FJN","either","5","360","","","","","","","0","1","0","","0.7690633033","0.6","0.2","0.4","0.8","0.5382828223","0.7690633033","0.5283130311","0.5612636021","","","","","","","","","","","","","","74","J","1","","","151","main_expt",""
"","bandit","231","675749","0.0-193.0-0.0","86265348","wem/bandit_party_2","A39PKC5DMX5FJN","either","5","382","","","","","","","0","0","1","","0.5989969619","0.6","0.2","0.4","0.8","0.6572277468","0.5989969619","0.6323123958","0.7032448324","","","","","","","","","","","","","","74","J","1","","","152","main_expt",""
"","bandit","232","678243","0.0-194.0-0.0","86265348","wem/bandit_party_2","A39PKC5DMX5FJN","either","5","984","","","","","","","0","1","0","","0.6126787421","0.6","0.2","0.4","0.8","0.668560183","0.6126787421","0.5847243132","0.6918543646","","","","","","","","","","","","","","74","J","1","","","153","main_expt",""
"","bandit","233","680179","0.0-195.0-0.0","86265348","wem/bandit_party_2","A39PKC5DMX5FJN","either","5","429","","","","","","","0","0","1","","0.5461115941","0.6","0.2","0.4","0.8","0.6954524596","0.5461115941","0.4285456013","0.647195156","","","","","","","","","","","","","","74","J","1","","","154","main_expt",""
"","bandit","234","682060","0.0-196.0-0.0","86265348","wem/bandit_party_2","A39PKC5DMX5FJN","either","5","374","","","","","","","0","1","0","","0.5456348337","0.6","0.2","0.4","0.8","0.5684527538","0.5456348337","0.4772645207","0.6135998722","","","","","","","","","","","","","","74","J","1","","","155","main_expt",""
"","bandit","235","684283","0.0-197.0-0.0","86265348","wem/bandit_party_2","A39PKC5DMX5FJN","either","5","715","","","","","","","0","1","0","","0.4782917504","0.6","0.2","0.4","0.8","0.6034375159","0.4782917504","0.4982711843","0.5591033916","","","","","","","","","","","","","","74","J","1","","","156","main_expt",""
"","bandit","236","686216","0.0-198.0-0.0","86265348","wem/bandit_party_2","A39PKC5DMX5FJN","either","5","424","","","","","","","0","0","1","","0.4868537485","0.6","0.2","0.4","0.8","0.5835723018","0.4868537485","0.5275183668","0.5090787948","","","","","","","","","","","","","","74","J","1","","","157","main_expt",""
"","bandit","237","688388","0.0-199.0-0.0","86265348","wem/bandit_party_2","A39PKC5DMX5FJN","either","5","664","","","","","","","0","1","0","","0.5361642224","0.6","0.2","0.4","0.8","0.5234712835","0.5361642224","0.4489423754","0.6087372924","","","","","","","","","","","","","","74","J","1","","","158","main_expt",""
"","bandit","238","690323","0.0-200.0-0.0","86265348","wem/bandit_party_2","A39PKC5DMX5FJN","either","5","427","","","","","","","0","0","1","0.4947944436","","0.6","0.2","0.4","0.8","","","","","0.5636881177","0.4947944436","0.4933275403","0.6064578463","","","","","","","","","","74","J","1","","","159","main_expt",""
"","bandit","239","692332","0.0-201.0-0.0","86265348","wem/bandit_party_2","A39PKC5DMX5FJN","either","5","501","","","","","","","0","1","0","","0.5106889885","0.6","0.2","0.4","0.8","0.4785340868","0.5106889885","0.4521998099","0.6951258233","","","","","","","","","","","","","","74","J","1","","","160","main_expt",""
"","bandit","240","694216","0.0-202.0-0.0","86265348","wem/bandit_party_2","A39PKC5DMX5FJN","either","5","376","","","","","","","0","0","1","","0.4566704777","0.6","0.2","0.4","0.8","0.5038962889","0.4566704777","0.5114636712","0.7129510734","","","","","","","","","","","","","","74","J","1","","","161","main_expt",""
"","bandit","241","696111","0.0-203.0-0.0","86265348","wem/bandit_party_2","A39PKC5DMX5FJN","either","5","387","","","","","","","0","0","1","","0.3259271754","0.6","0.2","0.4","0.8","0.4448395692","0.3259271754","0.5242674757","0.7028034005","","","","","","","","","","","","","","74","J","1","","","162","main_expt",""
"","bandit","242","698326","0.0-204.0-0.0","86265348","wem/bandit_party_2","A39PKC5DMX5FJN","either","5","707","","","","","","","1","0","0","0.5687322637","","0.6","0.2","0.4","0.8","","","","","0.471982621","0.2806734392","0.5687322637","0.6293758899","","","","","","","","","","75","K","2","","","163","main_expt",""
"","bandit","243","700241","0.0-205.0-0.0","86265348","wem/bandit_party_2","A39PKC5DMX5FJN","either","5","407","","","","","","","1","0","0","0.5635146256","","0.6","0.2","0.4","0.8","","","","","0.6517066897","0.2973163189","0.5635146256","0.6813427096","","","","","","","","","","75","K","2","","","164","main_expt",""
"","bandit","244","702596","0.0-206.0-0.0","86265348","wem/bandit_party_2","A39PKC5DMX5FJN","either","5","846","","","","","","","0","1","0","","0.6588968294","0.6","0.2","0.4","0.8","0.6339143586","0.2872552927","0.6588968294","0.7231406025","","","","","","","","","","","","","","75","K","2","","","165","main_expt",""
"","bandit","245","705034","0.0-207.0-0.0","86265348","wem/bandit_party_2","A39PKC5DMX5FJN","either","5","931","","","","","","","1","0","0","0.74872254","","0.6","0.2","0.4","0.8","","","","","0.6507743373","0.325395791","0.74872254","0.6274448994","","","","","","","","","","75","K","2","","","166","main_expt",""
"","bandit","246","707302","0.0-208.0-0.0","86265348","wem/bandit_party_2","A39PKC5DMX5FJN","either","5","761","","","","","","","0","1","0","","0.7741304825","0.6","0.2","0.4","0.8","0.6753437353","0.3307719744","0.7741304825","0.6778384319","","","","","","","","","","","","","","75","K","2","","","167","main_expt",""
"","bandit","247","709385","0.0-209.0-0.0","86265348","wem/bandit_party_2","A39PKC5DMX5FJN","either","5","575","","","","","","","0","1","0","","0.8873722237","0.6","0.2","0.4","0.8","0.6308788189","0.4033689778","0.8873722237","0.6928942004","","","","","","","","","","","","","","75","K","2","","","168","main_expt",""
"","bandit","248","711389","0.0-210.0-0.0","86265348","wem/bandit_party_2","A39PKC5DMX5FJN","either","5","497","","","","","","","0","1","0","","0.8649989169","0.6","0.2","0.4","0.8","0.6289357746","0.4089274666","0.8649989169","0.6181376835","","","","","","","","","","","","","","75","K","2","","","169","main_expt",""
"","bandit","249","713813","0.0-211.0-0.0","86265348","wem/bandit_party_2","A39PKC5DMX5FJN","either","5","915","","","","","","","1","0","0","0.8634323334","","0.6","0.2","0.4","0.8","","","","","0.6308829817","0.4033631647","0.8634323334","0.6539136718","","","","","","","","","","75","K","2","","","170","main_expt",""
"","bandit","250","715881","0.0-212.0-0.0","86265348","wem/bandit_party_2","A39PKC5DMX5FJN","either","5","560","","","","","","","0","0","1","","0.8050812792","0.6","0.2","0.4","0.8","0.6008061885","0.3743415885","0.8050812792","0.7935188527","","","","","","","","","","","","","","75","K","2","","","171","main_expt",""
"","bandit","251","717857","0.0-213.0-0.0","86265348","wem/bandit_party_2","A39PKC5DMX5FJN","either","5","467","","","","","","","1","0","0","0.7635000848","","0.6","0.2","0.4","0.8","","","","","0.6498855282","0.4145867416","0.7635000848","0.7959482017","","","","","","","","","","75","K","2","","","172","main_expt",""
"","bandit","252","720220","0.0-214.0-0.0","86265348","wem/bandit_party_2","A39PKC5DMX5FJN","either","5","856","","","","","","","1","0","0","0.7793560846","","0.6","0.2","0.4","0.8","","","","","0.6361658802","0.4421490518","0.7793560846","0.7720377381","","","","","","","","","","75","K","2","","","173","main_expt",""
"","bandit","253","722656","0.0-215.0-0.0","86265348","wem/bandit_party_2","A39PKC5DMX5FJN","either","5","928","","","","","","","0","0","1","","0.7290013271","0.6","0.2","0.4","0.8","0.5494915933","0.373112653","0.7290013271","0.7751150559","","","","","","","","","","","","","","75","K","2","","","174","main_expt",""
"","bandit","254","724870","0.0-216.0-0.0","86265348","wem/bandit_party_2","A39PKC5DMX5FJN","either","5","706","","","","","","","0","1","0","","0.8353873757","0.6","0.2","0.4","0.8","0.6292002022","0.372221374","0.8353873757","0.7699246652","","","","","","","","","","","","","","75","K","2","","","175","main_expt",""
"","bandit","255","727210","0.0-217.0-0.0","86265348","wem/bandit_party_2","A39PKC5DMX5FJN","either","5","831","","","","","","","0","1","0","","0.8589437223","0.6","0.2","0.4","0.8","0.4999600136","0.3594456443","0.8589437223","0.8092821718","","","","","","","","","","","","","","75","K","2","","","176","main_expt",""
"","bandit","256","730141","0.0-218.0-0.0","86265348","wem/bandit_party_2","A39PKC5DMX5FJN","either","5","1422","","","","","","","0","1","0","","0.8824379228","0.6","0.2","0.4","0.8","0.4500304274","0.3705823864","0.8824379228","0.7728258073","","","","","","","","","","","","","","75","K","2","","","177","main_expt",""
"","bandit","257","732452","0.0-219.0-0.0","86265348","wem/bandit_party_2","A39PKC5DMX5FJN","either","5","803","","","","","","","1","0","0","0.8862787626","","0.6","0.2","0.4","0.8","","","","","0.4626099748","0.3042584581","0.8862787626","0.8128952128","","","","","","","","","","75","K","2","","","178","main_expt",""
"","bandit","258","734390","0.0-220.0-0.0","86265348","wem/bandit_party_2","A39PKC5DMX5FJN","either","5","429","","","","","","","0","1","0","","0.8851661012","0.6","0.2","0.4","0.8","0.3074659707","0.3056645996","0.8851661012","0.7878088044","","","","","","","","","","","","","","75","K","2","","","179","main_expt",""
"","bandit","259","740341","0.0-221.0-0.0","86265348","wem/bandit_party_2","A39PKC5DMX5FJN","either","5","4442","","","","","","","0","1","0","","0.8623840347","0.6","0.2","0.4","0.8","0.2445312817","0.3124458775","0.8623840347","0.7626215198","","","","","","","","","","","","","","75","K","2","","","180","main_expt",""
"","bandit","260","742428","0.0-222.0-0.0","86265348","wem/bandit_party_2","A39PKC5DMX5FJN","either","5","580","","","","","","","0","1","0","","0.8815853427","0.6","0.2","0.4","0.8","0.2284870313","0.2597333415","0.8815853427","0.7059637017","","","","","","","","","","","","","","75","K","2","","","181","main_expt",""
"","bandit","261","745201","0.0-223.0-0.0","86265348","wem/bandit_party_2","A39PKC5DMX5FJN","either","5","1264","","","","","","","0","1","0","","0.8955826305","0.6","0.2","0.4","0.8","0.2195648065","0.2117009826","0.8955826305","0.6691747745","","","","","","","","","","","","","","75","K","2","","","182","main_expt",""
"","bandit","262","747257","0.0-224.0-0.0","86265348","wem/bandit_party_2","A39PKC5DMX5FJN","either","5","547","","","","","","","0","1","0","","0.9362873759","0.6","0.2","0.4","0.8","0.2327716204","0.2327762041","0.9362873759","0.5523838876","","","","","","","","","","","","","","75","K","2","","","183","main_expt",""
"","bandit","263","749386","0.0-225.0-0.0","86265348","wem/bandit_party_2","A39PKC5DMX5FJN","either","5","620","","","","","","","0","1","0","","0.9484326647","0.6","0.2","0.4","0.8","0.3207903029","0.2750618684","0.9484326647","0.5451875246","","","","","","","","","","","","","","75","K","2","","","184","main_expt",""
"","bandit","264","751414","0.0-226.0-0.0","86265348","wem/bandit_party_2","A39PKC5DMX5FJN","either","5","519","","","","","","","0","0","1","","0.9660783121","0.6","0.2","0.4","0.8","0.3609723674","0.2305846964","0.9660783121","0.6090771744","","","","","","","","","","","","","","75","K","2","","","185","main_expt",""
"","bandit","265","753382","0.0-227.0-0.0","86265348","wem/bandit_party_2","A39PKC5DMX5FJN","either","5","458","","","","","","","1","0","0","0.9665376101","","0.6","0.2","0.4","0.8","","","","","0.4442397518","0.2597669424","0.9665376101","0.5810996076","","","","","","","","","","75","K","2","","","186","main_expt",""
"","bandit","266","755308","0.0-228.0-0.0","86265348","wem/bandit_party_2","A39PKC5DMX5FJN","either","5","416","","","","","","","0","1","0","","0.9644184371","0.6","0.2","0.4","0.8","0.4478442549","0.2143742246","0.9644184371","0.4445572548","","","","","","","","","","","","","","75","K","2","","","187","main_expt",""
"","bandit","267","757331","0.0-229.0-0.0","86265348","wem/bandit_party_2","A39PKC5DMX5FJN","either","5","515","","","","","","","0","1","0","","0.9731237162","0.6","0.2","0.4","0.8","0.4026396634","0.2294707647","0.9731237162","0.4113554433","","","","","","","","","","","","","","75","K","2","","","188","main_expt",""
"","bandit","268","759311","0.0-230.0-0.0","86265348","wem/bandit_party_2","A39PKC5DMX5FJN","either","5","472","","","","","","","0","1","0","","0.9787475226","0.6","0.2","0.4","0.8","0.5072589837","0.2469430613","0.9787475226","0.4053553249","","","","","","","","","","","","","","75","K","2","","","189","main_expt",""
"","bandit","269","761265","0.0-231.0-0.0","86265348","wem/bandit_party_2","A39PKC5DMX5FJN","either","5","445","","","","","","","0","1","0","","0.9847816181","0.6","0.2","0.4","0.8","0.5234843415","0.2437728268","0.9847816181","0.4927633492","","","","","","","","","","","","","","75","K","2","","","190","main_expt",""
"","bandit","270","763224","0.0-232.0-0.0","86265348","wem/bandit_party_2","A39PKC5DMX5FJN","either","5","450","","","","","","","1","0","0","0.9713064587","","0.6","0.2","0.4","0.8","","","","","0.5054414672","0.1655579887","0.9713064587","0.428678546","","","","","","","","","","75","K","2","","","191","main_expt",""
"","bandit","271","765141","0.0-233.0-0.0","86265348","wem/bandit_party_2","A39PKC5DMX5FJN","either","5","409","","","","","","","0","1","0","","0.9558555722","0.6","0.2","0.4","0.8","0.7037613703","0.1501427492","0.9558555722","0.3358015867","","","","","","","","","","","","","","75","K","2","","","192","main_expt",""
"","bandit","272","767128","0.0-234.0-0.0","86265348","wem/bandit_party_2","A39PKC5DMX5FJN","either","5","478","","","","","","","0","1","0","","0.9443800135","0.6","0.2","0.4","0.8","0.5980286963","0.2062706367","0.9443800135","0.2816430679","","","","","","","","","","","","","","75","K","2","","","193","main_expt",""
"","bandit","273","768984","0.0-235.0-0.0","86265348","wem/bandit_party_2","A39PKC5DMX5FJN","either","5","347","","","","","","","0","1","0","","0.947825408","0.6","0.2","0.4","0.8","0.5607231578","0.2782937815","0.947825408","0.2951519504","","","","","","","","","","","","","","75","K","2","","","194","main_expt",""
"","bandit","274","770801","0.0-236.0-0.0","86265348","wem/bandit_party_2","A39PKC5DMX5FJN","either","5","308","","","","","","","0","1","0","","0.9531013361","0.6","0.2","0.4","0.8","0.6222063369","0.2393938873","0.9531013361","0.2482291913","","","","","","","","","","","","","","75","K","2","","","195","main_expt",""
"","bandit","275","772642","0.0-237.0-0.0","86265348","wem/bandit_party_2","A39PKC5DMX5FJN","either","5","332","","","","","","","0","1","0","","0.9653581558","0.6","0.2","0.4","0.8","0.7092042058","0.3385483064","0.9653581558","0.2548661126","","","","","","","","","","","","","","75","K","2","","","196","main_expt",""
"","bandit","276","774497","0.0-238.0-0.0","86265348","wem/bandit_party_2","A39PKC5DMX5FJN","either","5","347","","","","","","","1","0","0","0.9774234012","","0.6","0.2","0.4","0.8","","","","","0.7397780251","0.3474357388","0.9774234012","0.2789697966","","","","","","","","","","75","K","2","","","197","main_expt",""
"","bandit","277","776356","0.0-239.0-0.0","86265348","wem/bandit_party_2","A39PKC5DMX5FJN","either","5","350","","","","","","","1","0","0","0.9866112083","","0.6","0.2","0.4","0.8","","","","","0.6977166648","0.4511600961","0.9866112083","0.2893473624","","","","","","","","","","75","K","2","","","198","main_expt",""
"","bandit","278","778234","0.0-240.0-0.0","86265348","wem/bandit_party_2","A39PKC5DMX5FJN","either","5","370","","","","","","","1","0","0","0.9889390623","","0.6","0.2","0.4","0.8","","","","","0.591703898","0.4387406867","0.9889390623","0.2499124536","","","","","","","","","","75","K","2","","","199","main_expt",""
"","bandit","279","780053","0.0-241.0-0.0","86265348","wem/bandit_party_2","A39PKC5DMX5FJN","either","5","309","","","","","","","0","1","0","","0.9894921125","0.6","0.2","0.4","0.8","0.5107967375","0.4368135332","0.9894921125","0.2643429758","","","","","","","","","","","","","","75","K","2","","","200","main_expt",""
"","bandit","280","781878","0.0-242.0-0.0","86265348","wem/bandit_party_2","A39PKC5DMX5FJN","either","5","317","","","","","","","0","1","0","","0.989248002","0.6","0.2","0.4","0.8","0.6528148869","0.3070084091","0.989248002","0.2382870841","","","","","","","","","","","","","","75","K","2","","","201","main_expt",""
"","bandit","281","783709","0.0-243.0-0.0","86265348","wem/bandit_party_2","A39PKC5DMX5FJN","either","5","323","","","","","","","1","0","0","0.9957983392","","0.6","0.2","0.4","0.8","","","","","0.6892998309","0.3603585946","0.9957983392","0.1604624283","","","","","","","","","","75","K","2","","","202","main_expt",""
"","bandit","282","785491","0.0-244.0-0.0","86265348","wem/bandit_party_2","A39PKC5DMX5FJN","either","5","274","","","","","","","1","0","0","0.9958893","","0.6","0.2","0.4","0.8","","","","","0.6989476798","0.260320329","0.9958893","0.1407610566","","","","","","","","","","75","K","2","","","203","main_expt",""
"","bandit","283","787344","0.0-245.0-0.0","86265348","wem/bandit_party_2","A39PKC5DMX5FJN","either","5","344","","","","","","","0","1","0","","0.9955962674","0.6","0.2","0.4","0.8","0.772264117","0.2003029851","0.9955962674","0.1343245238","","","","","","","","","","","","","","75","K","2","","","204","main_expt",""
"","bandit","284","789193","0.0-246.0-0.0","86265348","wem/bandit_party_2","A39PKC5DMX5FJN","either","5","340","","","","","","","0","1","0","","0.9943432705","0.6","0.2","0.4","0.8","0.7366863645","0.1922312923","0.9943432705","0.1715400642","","","","","","","","","","","","","","75","K","2","","","205","main_expt",""
"","bandit","285","791033","0.0-247.0-0.0","86265348","wem/bandit_party_2","A39PKC5DMX5FJN","either","5","331","","","","","","","0","1","0","","0.9982320458","0.6","0.2","0.4","0.8","0.7477287432","0.1936085521","0.9982320458","0.117617648","","","","","","","","","","","","","","75","K","2","","","206","main_expt",""
"","bandit","286","792931","0.0-248.0-0.0","86265348","wem/bandit_party_2","A39PKC5DMX5FJN","either","5","390","","","","","","","1","0","0","0.9976530308","","0.6","0.2","0.4","0.8","","","","","0.8185776196","0.1821705986","0.9976530308","0.1182717864","","","","","","","","","","75","K","2","","","207","main_expt",""
"","bandit","287","794890","0.0-249.0-0.0","86265348","wem/bandit_party_2","A39PKC5DMX5FJN","either","5","450","","","","","","","1","0","0","0.9961811318","","0.6","0.2","0.4","0.8","","","","","0.8161769506","0.1145050302","0.9961811318","0.1445047472","","","","","","","","","","75","K","2","","","208","main_expt",""
"","bandit","288","796979","0.0-250.0-0.0","86265348","wem/bandit_party_2","A39PKC5DMX5FJN","either","5","579","","","","","","","1","0","0","0.9977639941","","0.6","0.2","0.4","0.8","","","","","0.8224464957","0.1206637037","0.9977639941","0.1264159314","","","","","","","","","","75","K","2","","","209","main_expt",""
"","bandit","289","798948","0.0-251.0-0.0","86265348","wem/bandit_party_2","A39PKC5DMX5FJN","either","5","460","","","","","","","1","0","0","0.9953783407","","0.6","0.2","0.4","0.8","","","","","0.7392866018","0.1422927172","0.9953783407","0.1208777168","","","","","","","","","","75","K","2","","","210","main_expt",""
"","bandit","290","801167","0.0-252.0-0.0","86265348","wem/bandit_party_2","A39PKC5DMX5FJN","either","5","710","","","","","","","1","0","0","0.9976351195","","0.6","0.2","0.4","0.8","","","","","0.7125411919","0.1811219169","0.9976351195","0.1733448518","","","","","","","","","","75","K","2","","","211","main_expt",""
"","bandit","291","805740","0.0-253.0-0.0","86265348","wem/bandit_party_2","A39PKC5DMX5FJN","either","5","3064","","","","","","","1","0","0","0.9983589292","","0.6","0.2","0.4","0.8","","","","","0.7191881067","0.1982527665","0.9983589292","0.1085262221","","","","","","","","","","75","K","2","","","212","main_expt",""
"","bandit","292","809006","0.0-254.0-0.0","86265348","wem/bandit_party_2","A39PKC5DMX5FJN","either","5","1757","","","","","","","0","1","0","","0.9960427138","0.6","0.2","0.4","0.8","0.7523845147","0.124448309","0.9960427138","0.08145678985","","","","","","","","","","","","","","75","K","2","","","213","main_expt",""
"","bandit","293","811530","0.0-255.0-0.0","86265348","wem/bandit_party_2","A39PKC5DMX5FJN","either","5","1016","","","","","","","1","0","0","0.9924650588","","0.6","0.2","0.4","0.8","","","","","0.7193420906","0.1036015692","0.9924650588","0.05725631888","","","","","","","","","","75","K","2","","","214","main_expt",""
"","bandit","294","813483","0.0-256.0-0.0","86265348","wem/bandit_party_2","A39PKC5DMX5FJN","either","5","444","","","","","","","0","1","0","","0.9858211903","0.6","0.2","0.4","0.8","0.6784461291","0.14458031","0.9858211903","0.04356988172","","","","","","","","","","","","","","75","K","2","","","215","main_expt",""
"","bandit","295","815867","0.0-257.0-0.0","86265348","wem/bandit_party_2","A39PKC5DMX5FJN","either","5","875","","","","","","","0","1","0","","0.9915289077","0.6","0.2","0.4","0.8","0.5658185063","0.2094876981","0.9915289077","0.04316154837","","","","","","","","","","","","","","75","K","2","","","216","main_expt",""
"","bandit","296","818075","0.0-258.0-0.0","86265348","wem/bandit_party_2","A39PKC5DMX5FJN","either","5","700","","","","","","","1","0","0","0.9929544916","","0.6","0.2","0.4","0.8","","","","","0.4886301847","0.24936904","0.9929544916","0.03453558383","","","","","","","","","","75","K","2","","","217","main_expt",""
"","bandit","297","820993","0.0-259.0-0.0","86265348","wem/bandit_party_2","A39PKC5DMX5FJN","either","5","1405","","","","","","","0","1","0","","0.9741721496","0.6","0.2","0.4","0.8","0.5674985979","0.2006789107","0.9741721496","0.03800932399","","","","","","","","","","","","","","75","K","2","","","218","main_expt",""
"","bandit","298","822925","0.0-260.0-0.0","86265348","wem/bandit_party_2","A39PKC5DMX5FJN","either","5","422","","","","","","","1","0","0","0.9413517393","","0.6","0.2","0.4","0.8","","","","","0.6088772151","0.2118480588","0.9413517393","0.07914639327","","","","","","","","","","75","K","2","","","219","main_expt",""
"","bandit","299","824852","0.0-261.0-0.0","86265348","wem/bandit_party_2","A39PKC5DMX5FJN","either","5","418","","","","","","","0","1","0","","0.9230346446","0.6","0.2","0.4","0.8","0.5856238885","0.2159213458","0.9230346446","0.07044987786","","","","","","","","","","","","","","75","K","2","","","220","main_expt",""
"","bandit","300","826831","0.0-262.0-0.0","86265348","wem/bandit_party_2","A39PKC5DMX5FJN","either","5","470","","","","","","","0","1","0","","0.9216350241","0.6","0.2","0.4","0.8","0.6601978635","0.2097338805","0.9216350241","0.1351506501","","","","","","","","","","","","","","75","K","2","","","221","main_expt",""
"","bandit","301","829134","0.0-263.0-0.0","86265348","wem/bandit_party_2","A39PKC5DMX5FJN","either","5","793","","","","","","","1","0","0","0.9093406134","","0.6","0.2","0.4","0.8","","","","","0.6540659739","0.1468233299","0.9093406134","0.2099108548","","","","","","","","","","75","K","2","","","222","main_expt",""
"","bandit","302","836619","0.0-264.0-0.0","86265348","wem/bandit_party_2","A39PKC5DMX5FJN","either","5","5975","","","","","","","0","0","1","0.8361447498","","0.6","0.2","0.4","0.8","","","","","0.7010542315","0.1379540926","0.8361447498","0.2971693323","","","","","","","","","","75","K","2","","","223","main_expt",""
"","bandit","303","838544","0.0-265.0-0.0","86265348","wem/bandit_party_2","A39PKC5DMX5FJN","either","5","415","","","","","","","0","0","1","","0.8626161161","0.6","0.2","0.4","0.8","0.7972730751","0.1943723139","0.8626161161","0.2754671199","","","","","","","","","","","","","","75","K","2","","","224","main_expt",""
"","bandit","304","840620","0.0-266.0-0.0","86265348","wem/bandit_party_2","A39PKC5DMX5FJN","either","5","568","","","","","","","1","0","0","0.2483133052","","0.6","0.2","0.4","0.8","","","","","0.8726314772","0.2949344278","0.9176165053","0.2483133052","","","","","","","","","","76","L","3","","","225","main_expt",""
"","bandit","305","842587","0.0-267.0-0.0","86265348","wem/bandit_party_2","A39PKC5DMX5FJN","either","5","457","","","","","","","0","0","1","0.2945032007","","0.6","0.2","0.4","0.8","","","","","0.8569150835","0.4040967375","0.9516545376","0.2945032007","","","","","","","","","","76","L","3","","","226","main_expt",""
"","bandit","306","844472","0.0-268.0-0.0","86265348","wem/bandit_party_2","A39PKC5DMX5FJN","either","5","377","","","","","","","1","0","0","0.2544933329","","0.6","0.2","0.4","0.8","","","","","0.8773762417","0.4369809926","0.9448551655","0.2544933329","","","","","","","","","","76","L","3","","","227","main_expt",""
"","bandit","307","846470","0.0-269.0-0.0","86265348","wem/bandit_party_2","A39PKC5DMX5FJN","either","5","490","","","","","","","1","0","0","0.22227057","","0.6","0.2","0.4","0.8","","","","","0.8514828757","0.4228749262","0.9298030406","0.22227057","","","","","","","","","","76","L","3","","","228","main_expt",""
"","bandit","308","848436","0.0-270.0-0.0","86265348","wem/bandit_party_2","A39PKC5DMX5FJN","either","5","456","","","","","","","0","0","1","0.2319557967","","0.6","0.2","0.4","0.8","","","","","0.893786405","0.4953143479","0.9022116856","0.2319557967","","","","","","","","","","76","L","3","","","229","main_expt",""
"","bandit","309","850333","0.0-271.0-0.0","86265348","wem/bandit_party_2","A39PKC5DMX5FJN","either","5","388","","","","","","","1","0","0","0.3107577299","","0.6","0.2","0.4","0.8","","","","","0.9350514117","0.4752889979","0.8934587516","0.3107577299","","","","","","","","","","76","L","3","","","230","main_expt",""
"","bandit","310","852367","0.0-272.0-0.0","86265348","wem/bandit_party_2","A39PKC5DMX5FJN","either","5","523","","","","","","","0","1","0","","0.3046703461","0.6","0.2","0.4","0.8","0.9139197991","0.4887049862","0.8403693225","0.3046703461","","","","","","","","","","","","","","76","L","3","","","231","main_expt",""
"","bandit","311","854311","0.0-273.0-0.0","86265348","wem/bandit_party_2","A39PKC5DMX5FJN","either","5","436","","","","","","","0","0","1","0.4259459217","","0.6","0.2","0.4","0.8","","","","","0.8753904063","0.6065944358","0.7373772703","0.4259459217","","","","","","","","","","76","L","3","","","232","main_expt",""
"","bandit","312","856413","0.0-274.0-0.0","86265348","wem/bandit_party_2","A39PKC5DMX5FJN","either","5","593","","","","","","","1","0","0","0.3391655585","","0.6","0.2","0.4","0.8","","","","","0.807664976","0.5320380184","0.7275490615","0.3391655585","","","","","","","","","","76","L","3","","","233","main_expt",""
"","bandit","313","858324","0.0-275.0-0.0","86265348","wem/bandit_party_2","A39PKC5DMX5FJN","either","5","402","","","","","","","1","0","0","0.3380141995","","0.6","0.2","0.4","0.8","","","","","0.817303243","0.5845689413","0.6910989812","0.3380141995","","","","","","","","","","76","L","3","","","234","main_expt",""
"","bandit","314","860519","0.0-276.0-0.0","86265348","wem/bandit_party_2","A39PKC5DMX5FJN","either","5","687","","","","","","","0","0","1","0.2949514339","","0.6","0.2","0.4","0.8","","","","","0.8320050337","0.4424117598","0.6506848601","0.2949514339","","","","","","","","","","76","L","3","","","235","main_expt",""
"","bandit","315","863995","0.0-277.0-0.0","86265348","wem/bandit_party_2","A39PKC5DMX5FJN","either","5","1966","","","","","","","1","0","0","0.8539654836","","0.6","0.2","0.4","0.8","","","","","0.8539654836","0.4411324282","0.589166471","0.2575094814","","","","","","","","","","72","H","0","img/none_selected.jpg","","236","main_expt",""
"","bandit","316","865856","0.0-278.0-0.0","86265348","wem/bandit_party_2","A39PKC5DMX5FJN","either","5","351","","","","","","","1","0","0","0.8151920012","","0.6","0.2","0.4","0.8","","","","","0.8151920012","0.5792865955","0.5475273787","0.3298960346","","","","","","","","","","72","H","0","img/none_selected.jpg","","237","main_expt",""
"","bandit","317","867717","0.0-279.0-0.0","86265348","wem/bandit_party_2","A39PKC5DMX5FJN","either","5","351","","","","","","","1","0","0","0.8724257749","","0.6","0.2","0.4","0.8","","","","","0.8724257749","0.6435093149","0.5644141111","0.3922637729","","","","","","","","","","72","H","0","img/none_selected.jpg","","238","main_expt",""
"","bandit","318","869691","0.0-280.0-0.0","86265348","wem/bandit_party_2","A39PKC5DMX5FJN","either","5","464","","","","","","","0","1","0","","0.8232187668","0.6","0.2","0.4","0.8","0.8232187668","0.571754567","0.557522906","0.3200188668","","","","","","","","","","","","","","72","H","0","img/none_selected.jpg","","239","main_expt",""
