"consent","trial_type","trial_index","time_elapsed","internal_node_id","subjID","study","MID","cond","drift","rt","responses","button_pressed","key_press","like","value","connected","gems","bombs","no_reward","GemPrChosen","BombPrChosen","GainOverPainPr_0","GainOverPainPr_1","GainOverPainPr_2","GainOverPainPr_3","LosePr_0","LosePr_1","LosePr_2","LosePr_3","WinPr_0","WinPr_1","WinPr_2","WinPr_3","Q0","Q1","Q2","gender","age","ethnicity","label","expt_phase","target","respCharCode","respKey","respChoiceNum","respChoice","practice","trial_counter","trial_label","Q0_index"
"GDM/GDM_behavioral_consent_30min_online.html","consent","0","23692","0.0-0.0","86433628","wem/bandit_party_2","A2QYTNTTER3YDI","either","1","","","","","","","","","","","","","","","","","","","","","","","","","","","","","","","","","","","","","","","","",""
"","survey-text","1","30086","0.0-1.0","86433628","wem/bandit_party_2","A2QYTNTTER3YDI","either","1","5340","{""Q0"":""A2QYTNTTER3YDI""}","","","","","","","","","","","","","","","","","","","","","","","","","","","","","","","","","","","","","","",""
"","button-response","2","33639","0.0-2.0","86433628","wem/bandit_party_2","A2QYTNTTER3YDI","either","1","2525","","2","","","","","","","","","","","","","","","","","","","","","","","","","","","","","","","","","","","","","",""
"","text-replacement","3","45654","0.0-3.0","86433628","wem/bandit_party_2","A2QYTNTTER3YDI","either","1","10995","","","32","","","","","","","","","","","","","","","","","","","","","","","","","","","","","","","","","","","","",""
"","text-replacement","4","66632","0.0-4.0","86433628","wem/bandit_party_2","A2QYTNTTER3YDI","either","1","20962","","","32","","","","","","","","","","","","","","","","","","","","","","","","","","","","","","","","","","","","",""
"","text-replacement","5","118422","0.0-5.0-0.0","86433628","wem/bandit_party_2","A2QYTNTTER3YDI","either","1","51773","","","32","","","","","","","","","","","","","","","","","","","","","","","","","","","","","","","","","","","","",""
"","identification","6","136429","0.0-6.0-0.0","86433628","wem/bandit_party_2","A2QYTNTTER3YDI","either","1","17863","","","","1","1","1","","","","","","","","","","","","","","","","","","","","","","","","pre","identification_pre","the Republican Party","","","","","","","",""
"","identification","7","143113","0.0-6.0-1.0","86433628","wem/bandit_party_2","A2QYTNTTER3YDI","either","1","5531","","","","0","0","0","","","","","","","","","","","","","","","","","","","","","","","","pre","identification_pre","the Democratic Party","","","","","","","",""
"","text-replacement","8","156562","0.0-7.0","86433628","wem/bandit_party_2","A2QYTNTTER3YDI","either","1","12433","","","32","","","","","","","","","","","","","","","","","","","","","","","","","","","","","","","","","","","","",""
"","text-replacement","9","164682","0.0-8.0","86433628","wem/bandit_party_2","A2QYTNTTER3YDI","either","1","8101","","","32","","","","","","","","","","","","","","","","","","","","","","","","","","","","","","","","","","","","",""
"","text-replacement","10","187965","0.0-9.0","86433628","wem/bandit_party_2","A2QYTNTTER3YDI","either","1","23264","","","32","","","","","","","","","","","","","","","","","","","","","","","","","","","","","","","","","","","","",""
"","text-replacement","11","193659","0.0-10.0","86433628","wem/bandit_party_2","A2QYTNTTER3YDI","either","1","5681","","","32","","","","","","","","","","","","","","","","","","","","","","","","","","","","","","","","","","","","",""
"","text-replacement","12","199443","0.0-11.0","86433628","wem/bandit_party_2","A2QYTNTTER3YDI","either","1","5773","","","32","","","","","","","","","","","","","","","","","","","","","","","","","","","","","","","","","","","","",""
"","bandit","13","203260","0.0-12.0-0.0","86433628","wem/bandit_party_2","A2QYTNTTER3YDI","either","1","2270","","","","","","","0","0","1","0","0","","","","","0","","","","0","","","","","","","","","","","","","74","J","0","img/none_selected_demo.jpg","true","0","",""
"","bandit","14","209468","0.0-13.0-0.0","86433628","wem/bandit_party_2","A2QYTNTTER3YDI","either","1","4667","","","","","","","0","0","1","0","0","","","","","0","","","","0","","","","","","","","","","","","","75","K","0","img/none_selected_demo.jpg","true","0","",""
"","text-replacement","15","220340","0.0-14.0","86433628","wem/bandit_party_2","A2QYTNTTER3YDI","either","1","10863","","","32","","","","","","","","","","","","","","","","","","","","","","","","","","","","","","","","","","","","",""
"","text-replacement","16","230698","0.0-15.0","86433628","wem/bandit_party_2","A2QYTNTTER3YDI","either","1","10343","","","32","","","","","","","","","","","","","","","","","","","","","","","","","","","","","","","","","","","","",""
"","text-replacement","17","262141","0.0-16.0","86433628","wem/bandit_party_2","A2QYTNTTER3YDI","either","1","31420","","","32","","","","","","","","","","","","","","","","","","","","","","","","","","","","","","","","","","","","",""
"","text-replacement","18","267494","0.0-17.0","86433628","wem/bandit_party_2","A2QYTNTTER3YDI","either","1","5340","","","32","","","","","","","","","","","","","","","","","","","","","","","","","","","","","","","","","","","","",""
"","bandit","19","270461","0.0-18.0-0.0","86433628","wem/bandit_party_2","A2QYTNTTER3YDI","either","1","1437","","","","","","","1","0","0","0.8","","0.5","0.5","","","","","","","0.8","0.2","","","","","","","","","","","","74","J","0","img/none_selected_demo.jpg","true","0","80_20_practice",""
"","bandit","20","272860","0.0-18.0-1.0","86433628","wem/bandit_party_2","A2QYTNTTER3YDI","either","1","859","","","","","","","0","1","0","","0.8","0.5","0.5","","","0.8","0.2","","","","","","","","","","","","","","","","74","J","0","img/none_selected_demo.jpg","true","0","80_20_practice",""
"","bandit","21","275284","0.0-18.0-2.0","86433628","wem/bandit_party_2","A2QYTNTTER3YDI","either","1","883","","","","","","","0","1","0","","0.8","0.5","0.5","","","0.8","0.2","","","","","","","","","","","","","","","","74","J","0","img/none_selected_demo.jpg","true","0","80_20_practice",""
"","bandit","22","277400","0.0-18.0-3.0","86433628","wem/bandit_party_2","A2QYTNTTER3YDI","either","1","588","","","","","","","0","1","0","","0.8","0.5","0.5","","","0.8","0.2","","","","","","","","","","","","","","","","74","J","0","img/none_selected_demo.jpg","true","0","80_20_practice",""
"","bandit","23","280209","0.0-18.0-4.0","86433628","wem/bandit_party_2","A2QYTNTTER3YDI","either","1","1265","","","","","","","0","1","0","","0.8","0.5","0.5","","","0.8","0.2","","","","","","","","","","","","","","","","74","J","0","img/none_selected_demo.jpg","true","0","80_20_practice",""
"","bandit","24","282199","0.0-18.0-5.0","86433628","wem/bandit_party_2","A2QYTNTTER3YDI","either","1","448","","","","","","","1","0","0","0.8","","0.5","0.5","","","","","","","0.8","0.2","","","","","","","","","","","","74","J","0","img/none_selected_demo.jpg","true","0","80_20_practice",""
"","bandit","25","284408","0.0-18.0-6.0","86433628","wem/bandit_party_2","A2QYTNTTER3YDI","either","1","658","","","","","","","0","1","0","","0.8","0.5","0.5","","","0.8","0.2","","","","","","","","","","","","","","","","74","J","0","img/none_selected_demo.jpg","true","0","80_20_practice",""
"","bandit","26","286440","0.0-18.0-7.0","86433628","wem/bandit_party_2","A2QYTNTTER3YDI","either","1","469","","","","","","","0","0","1","","0.8","0.5","0.5","","","0.8","0.2","","","","","","","","","","","","","","","","74","J","0","img/none_selected_demo.jpg","true","0","80_20_practice",""
"","bandit","27","288658","0.0-18.0-8.0","86433628","wem/bandit_party_2","A2QYTNTTER3YDI","either","1","667","","","","","","","1","0","0","0.8","","0.5","0.5","","","","","","","0.8","0.2","","","","","","","","","","","","74","J","0","img/none_selected_demo.jpg","true","0","80_20_practice",""
"","bandit","28","290588","0.0-18.0-9.0","86433628","wem/bandit_party_2","A2QYTNTTER3YDI","either","1","388","","","","","","","0","1","0","","0.8","0.5","0.5","","","0.8","0.2","","","","","","","","","","","","","","","","74","J","0","img/none_selected_demo.jpg","true","0","80_20_practice",""
"","bandit","29","292517","0.0-18.0-10.0","86433628","wem/bandit_party_2","A2QYTNTTER3YDI","either","1","388","","","","","","","0","0","1","","0.8","0.5","0.5","","","0.8","0.2","","","","","","","","","","","","","","","","74","J","0","img/none_selected_demo.jpg","true","0","80_20_practice",""
"","bandit","30","294590","0.0-18.0-11.0","86433628","wem/bandit_party_2","A2QYTNTTER3YDI","either","1","530","","","","","","","1","0","0","0.8","","0.5","0.5","","","","","","","0.8","0.2","","","","","","","","","","","","74","J","0","img/none_selected_demo.jpg","true","0","80_20_practice",""
"","bandit","31","296588","0.0-18.0-12.0","86433628","wem/bandit_party_2","A2QYTNTTER3YDI","either","1","465","","","","","","","0","0","1","0.8","","0.5","0.5","","","","","","","0.8","0.2","","","","","","","","","","","","74","J","0","img/none_selected_demo.jpg","true","0","80_20_practice",""
"","bandit","32","298849","0.0-18.0-13.0","86433628","wem/bandit_party_2","A2QYTNTTER3YDI","either","1","719","","","","","","","0","0","1","","0.8","0.5","0.5","","","0.8","0.2","","","","","","","","","","","","","","","","74","J","0","img/none_selected_demo.jpg","true","0","80_20_practice",""
"","bandit","33","300879","0.0-18.0-14.0","86433628","wem/bandit_party_2","A2QYTNTTER3YDI","either","1","484","","","","","","","1","0","0","0.8","","0.5","0.5","","","","","","","0.8","0.2","","","","","","","","","","","","74","J","0","img/none_selected_demo.jpg","true","0","80_20_practice",""
"","bandit","34","302997","0.0-18.0-15.0","86433628","wem/bandit_party_2","A2QYTNTTER3YDI","either","1","578","","","","","","","0","1","0","","0.8","0.5","0.5","","","0.8","0.2","","","","","","","","","","","","","","","","74","J","0","img/none_selected_demo.jpg","true","0","80_20_practice",""
"","bandit","35","305040","0.0-18.0-16.0","86433628","wem/bandit_party_2","A2QYTNTTER3YDI","either","1","499","","","","","","","0","1","0","","0.8","0.5","0.5","","","0.8","0.2","","","","","","","","","","","","","","","","74","J","0","img/none_selected_demo.jpg","true","0","80_20_practice",""
"","bandit","36","307826","0.0-18.0-17.0","86433628","wem/bandit_party_2","A2QYTNTTER3YDI","either","1","1241","","","","","","","0","0","1","","0.8","0.5","0.5","","","0.8","0.2","","","","","","","","","","","","","","","","74","J","0","img/none_selected_demo.jpg","true","0","80_20_practice",""
"","bandit","37","309500","0.0-18.0-18.0","86433628","wem/bandit_party_2","A2QYTNTTER3YDI","either","1","129","","","","","","","1","0","0","0.8","","0.5","0.5","","","","","","","0.8","0.2","","","","","","","","","","","","74","J","0","img/none_selected_demo.jpg","true","0","80_20_practice",""
"","bandit","38","313520","0.0-18.0-19.0","86433628","wem/bandit_party_2","A2QYTNTTER3YDI","either","1","2472","","","","","","","0","1","0","","0.8","0.5","0.5","","","0.8","0.2","","","","","","","","","","","","","","","","74","J","0","img/none_selected_demo.jpg","true","0","80_20_practice",""
"","text-replacement","39","320747","0.0-19.0","86433628","wem/bandit_party_2","A2QYTNTTER3YDI","either","1","7207","","","32","","","","","","","","","","","","","","","","","","","","","","","","","","","","","","","","","","","","",""
"","bandit","40","323269","0.0-20.0-0.0","86433628","wem/bandit_party_2","A2QYTNTTER3YDI","either","1","979","","","","","","","1","0","0","1","0","","","","","0","1","","","1","0","","","","","","","","","","","","74","J","0","img/none_selected_demo.jpg","true","0","",""
"","text-replacement","41","327002","0.0-21.0","86433628","wem/bandit_party_2","A2QYTNTTER3YDI","either","1","3717","","","32","","","","","","","","","","","","","","","","","","","","","","","","","","","","","","","","","","","","",""
"","text-replacement","42","330066","0.0-22.0","86433628","wem/bandit_party_2","A2QYTNTTER3YDI","either","1","3043","","","32","","","","","","","","","","","","","","","","","","","","","","","","","","","","","","","","","","","","",""
"","text-replacement","43","332860","0.0-23.0","86433628","wem/bandit_party_2","A2QYTNTTER3YDI","either","1","2775","","","32","","","","","","","","","","","","","","","","","","","","","","","","","","","","","","","","","","","","",""
"","text-replacement","44","336221","0.0-24.0","86433628","wem/bandit_party_2","A2QYTNTTER3YDI","either","1","3346","","","32","","","","","","","","","","","","","","","","","","","","","","","","","","","","","","","","","","","","",""
"","text-replacement","45","343428","0.0-25.0","86433628","wem/bandit_party_2","A2QYTNTTER3YDI","either","1","7190","","","32","","","","","","","","","","","","","","","","","","","","","","","","","","","","","","","","","","","","",""
"","text-replacement","46","348260","0.0-26.0","86433628","wem/bandit_party_2","A2QYTNTTER3YDI","either","1","4804","","","32","","","","","","","","","","","","","","","","","","","","","","","","","","","","","","","","","","","","",""
"","text-replacement","47","353990","0.0-27.0","86433628","wem/bandit_party_2","A2QYTNTTER3YDI","either","1","5714","","","32","","","","","","","","","","","","","","","","","","","","","","","","","","","","","","","","","","","","",""
"","text-replacement","48","358951","0.0-28.0","86433628","wem/bandit_party_2","A2QYTNTTER3YDI","either","1","4945","","","32","","","","","","","","","","","","","","","","","","","","","","","","","","","","","","","","","","","","",""
"","text-replacement","49","363032","0.0-29.0","86433628","wem/bandit_party_2","A2QYTNTTER3YDI","either","1","4066","","","32","","","","","","","","","","","","","","","","","","","","","","","","","","","","","","","","","","","","",""
"","text-replacement","50","366758","0.0-30.0","86433628","wem/bandit_party_2","A2QYTNTTER3YDI","either","1","3705","","","32","","","","","","","","","","","","","","","","","","","","","","","","","","","","","","","","","","","","",""
"","text-replacement","51","369733","0.0-31.0","86433628","wem/bandit_party_2","A2QYTNTTER3YDI","either","1","2959","","","32","","","","","","","","","","","","","","","","","","","","","","","","","","","","","","","","","","","","",""
"","bandit","52","372402","0.0-32.0-0.0","86433628","wem/bandit_party_2","A2QYTNTTER3YDI","either","1","1123","","","","","","","0","0","1","0.8","","0.5","0.5","0.5","0.5","","","","","0.8","0.2","0.6","0.2","","","","","","","","","","72","H","0","img/none_selected.jpg","true","0","full_practice",""
"","bandit","53","374364","0.0-32.0-1.0","86433628","wem/bandit_party_2","A2QYTNTTER3YDI","either","1","420","","","","","","","1","0","0","0.8","","0.5","0.5","0.5","0.5","","","","","0.8","0.2","0.6","0.2","","","","","","","","","","72","H","0","img/none_selected.jpg","true","0","full_practice",""
"","bandit","54","376261","0.0-32.0-2.0","86433628","wem/bandit_party_2","A2QYTNTTER3YDI","either","1","340","","","","","","","0","1","0","","0.8","0.5","0.5","0.5","0.5","0.8","0.2","0.6","0.2","","","","","","","","","","","","","","72","H","0","img/none_selected.jpg","true","0","full_practice",""
"","bandit","55","378208","0.0-32.0-3.0","86433628","wem/bandit_party_2","A2QYTNTTER3YDI","either","1","404","","","","","","","1","0","0","0.8","","0.5","0.5","0.5","0.5","","","","","0.8","0.2","0.6","0.2","","","","","","","","","","72","H","0","img/none_selected.jpg","true","0","full_practice",""
"","bandit","56","380230","0.0-32.0-4.0","86433628","wem/bandit_party_2","A2QYTNTTER3YDI","either","1","477","","","","","","","0","1","0","","0.8","0.5","0.5","0.5","0.5","0.8","0.2","0.6","0.2","","","","","","","","","","","","","","72","H","0","img/none_selected.jpg","true","0","full_practice",""
"","bandit","57","382150","0.0-32.0-5.0","86433628","wem/bandit_party_2","A2QYTNTTER3YDI","either","1","369","","","","","","","0","1","0","","0.8","0.5","0.5","0.5","0.5","0.8","0.2","0.6","0.2","","","","","","","","","","","","","","72","H","0","img/none_selected.jpg","true","0","full_practice",""
"","bandit","58","384084","0.0-32.0-6.0","86433628","wem/bandit_party_2","A2QYTNTTER3YDI","either","1","393","","","","","","","0","1","0","","0.8","0.5","0.5","0.5","0.5","0.8","0.2","0.6","0.2","","","","","","","","","","","","","","72","H","0","img/none_selected.jpg","true","0","full_practice",""
"","bandit","59","386130","0.0-32.0-7.0","86433628","wem/bandit_party_2","A2QYTNTTER3YDI","either","1","498","","","","","","","1","0","0","0.8","","0.5","0.5","0.5","0.5","","","","","0.8","0.2","0.6","0.2","","","","","","","","","","72","H","0","img/none_selected.jpg","true","0","full_practice",""
"","bandit","60","388084","0.0-32.0-8.0","86433628","wem/bandit_party_2","A2QYTNTTER3YDI","either","1","409","","","","","","","0","1","0","","0.8","0.5","0.5","0.5","0.5","0.8","0.2","0.6","0.2","","","","","","","","","","","","","","72","H","0","img/none_selected.jpg","true","0","full_practice",""
"","bandit","61","390033","0.0-32.0-9.0","86433628","wem/bandit_party_2","A2QYTNTTER3YDI","either","1","388","","","","","","","1","0","0","0.8","","0.5","0.5","0.5","0.5","","","","","0.8","0.2","0.6","0.2","","","","","","","","","","72","H","0","img/none_selected.jpg","true","0","full_practice",""
"","bandit","62","391979","0.0-32.0-10.0","86433628","wem/bandit_party_2","A2QYTNTTER3YDI","either","1","409","","","","","","","1","0","0","0.8","","0.5","0.5","0.5","0.5","","","","","0.8","0.2","0.6","0.2","","","","","","","","","","72","H","0","img/none_selected.jpg","true","0","full_practice",""
"","bandit","63","393841","0.0-32.0-11.0","86433628","wem/bandit_party_2","A2QYTNTTER3YDI","either","1","316","","","","","","","0","1","0","","0.8","0.5","0.5","0.5","0.5","0.8","0.2","0.6","0.2","","","","","","","","","","","","","","72","H","0","img/none_selected.jpg","true","0","full_practice",""
"","bandit","64","395934","0.0-32.0-12.0","86433628","wem/bandit_party_2","A2QYTNTTER3YDI","either","1","543","","","","","","","0","0","1","","0.8","0.5","0.5","0.5","0.5","0.8","0.2","0.6","0.2","","","","","","","","","","","","","","72","H","0","img/none_selected.jpg","true","0","full_practice",""
"","bandit","65","397911","0.0-32.0-13.0","86433628","wem/bandit_party_2","A2QYTNTTER3YDI","either","1","421","","","","","","","0","0","1","0.8","","0.5","0.5","0.5","0.5","","","","","0.8","0.2","0.6","0.2","","","","","","","","","","72","H","0","img/none_selected.jpg","true","0","full_practice",""
"","bandit","66","400062","0.0-32.0-14.0","86433628","wem/bandit_party_2","A2QYTNTTER3YDI","either","1","601","","","","","","","0","1","0","","0.8","0.5","0.5","0.5","0.5","0.8","0.2","0.6","0.2","","","","","","","","","","","","","","72","H","0","img/none_selected.jpg","true","0","full_practice",""
"","bandit","67","401973","0.0-32.0-15.0","86433628","wem/bandit_party_2","A2QYTNTTER3YDI","either","1","361","","","","","","","0","1","0","","0.8","0.5","0.5","0.5","0.5","0.8","0.2","0.6","0.2","","","","","","","","","","","","","","72","H","0","img/none_selected.jpg","true","0","full_practice",""
"","bandit","68","403860","0.0-32.0-16.0","86433628","wem/bandit_party_2","A2QYTNTTER3YDI","either","1","337","","","","","","","0","0","1","","0.8","0.5","0.5","0.5","0.5","0.8","0.2","0.6","0.2","","","","","","","","","","","","","","72","H","0","img/none_selected.jpg","true","0","full_practice",""
"","bandit","69","405721","0.0-32.0-17.0","86433628","wem/bandit_party_2","A2QYTNTTER3YDI","either","1","301","","","","","","","0","1","0","","0.8","0.5","0.5","0.5","0.5","0.8","0.2","0.6","0.2","","","","","","","","","","","","","","72","H","0","img/none_selected.jpg","true","0","full_practice",""
"","bandit","70","407601","0.0-32.0-18.0","86433628","wem/bandit_party_2","A2QYTNTTER3YDI","either","1","330","","","","","","","1","0","0","0.8","","0.5","0.5","0.5","0.5","","","","","0.8","0.2","0.6","0.2","","","","","","","","","","72","H","0","img/none_selected.jpg","true","0","full_practice",""
"","bandit","71","410013","0.0-32.0-19.0","86433628","wem/bandit_party_2","A2QYTNTTER3YDI","either","1","832","","","","","","","0","0","1","0.8","","0.5","0.5","0.5","0.5","","","","","0.8","0.2","0.6","0.2","","","","","","","","","","72","H","0","img/none_selected.jpg","true","0","full_practice",""
"","text","72","414264","0.0-33.0","86433628","wem/bandit_party_2","A2QYTNTTER3YDI","either","1","4181","","","32","","","","","","","","","","","","","","","","","","","","","","","","","","","","","","","","","","","","",""
"","text-replacement","73","428325","0.0-34.0","86433628","wem/bandit_party_2","A2QYTNTTER3YDI","either","1","13038","","","32","","","","","","","","","","","","","","","","","","","","","","","","","","","","","","","","","","","","",""
"","text-replacement","74","442933","0.0-35.0","86433628","wem/bandit_party_2","A2QYTNTTER3YDI","either","1","14586","","","32","","","","","","","","","","","","","","","","","","","","","","","","","","","","","","","","","","","","",""
"","text-replacement","75","448905","0.0-36.0","86433628","wem/bandit_party_2","A2QYTNTTER3YDI","either","1","5942","","","32","","","","","","","","","","","","","","","","","","","","","","","","","","","","","","","","","","","","",""
"","text-replacement","76","453813","0.0-37.0","86433628","wem/bandit_party_2","A2QYTNTTER3YDI","either","1","4884","","","32","","","","","","","","","","","","","","","","","","","","","","","","","","","","","","","","","","","","",""
"","text-replacement","77","460063","0.0-38.0","86433628","wem/bandit_party_2","A2QYTNTTER3YDI","either","1","6228","","","32","","","","","","","","","","","","","","","","","","","","","","","","","","","","","","","","","","","","",""
"","survey-multi-choice-replacement","78","470505","0.0-39.0-0.0","86433628","wem/bandit_party_2","A2QYTNTTER3YDI","either","1","10373","","","","","","","","","","","","","","","","","","","","","","","","Money will be added to the pool for <span style='color:red;'>REPUBLICANS</span>","","","","","","","attn_check","","","","","","","","","0"
"","survey-multi-choice-replacement","79","478283","0.0-40.0-0.0","86433628","wem/bandit_party_2","A2QYTNTTER3YDI","either","1","6701","","","","","","","","","","","","","","","","","","","","","","","","Equal amounts of money will be added to the pool for <span style='color:red;'>REPUBLICANS</span> and subtracted from the pool for <span style='color:blue;'>DEMOCRATS</span>","","","","","","","attn_check","","","","","","","","","2"
"","survey-multi-choice-replacement","80","484442","0.0-41.0-0.0","86433628","wem/bandit_party_2","A2QYTNTTER3YDI","either","1","5074","","","","","","","","","","","","","","","","","","","","","","","","No money will be added to either pool","","","","","","","attn_check","","","","","","","","","3"
"","bandit","81","489295","0.0-42.0-0.0","86433628","wem/bandit_party_2","A2QYTNTTER3YDI","either","1","2290","","","","","","","1","0","0","0.8101107889","","0.8","0.4","0.6","0.2","","","","","0.7674833066","0.4995060561","0.8101107889","0.5202783506","","","","","","","","","","75","K","2","","","1","main_expt",""
"","bandit","82","491214","0.0-43.0-0.0","86433628","wem/bandit_party_2","A2QYTNTTER3YDI","either","1","365","","","","","","","1","0","0","0.8827976921","","0.8","0.4","0.6","0.2","","","","","0.7786696111","0.4452888422","0.8827976921","0.4559554218","","","","","","","","","","75","K","2","","","2","main_expt",""
"","bandit","83","493073","0.0-44.0-0.0","86433628","wem/bandit_party_2","A2QYTNTTER3YDI","either","1","303","","","","","","","0","1","0","","0.918633781","0.8","0.4","0.6","0.2","0.7883912796","0.4956599627","0.918633781","0.3791335739","","","","","","","","","","","","","","75","K","2","","","3","main_expt",""
"","bandit","84","495007","0.0-45.0-0.0","86433628","wem/bandit_party_2","A2QYTNTTER3YDI","either","1","369","","","","","","","1","0","0","0.8961075186","","0.8","0.4","0.6","0.2","","","","","0.8311681014","0.3939226057","0.8961075186","0.362446662","","","","","","","","","","75","K","2","","","4","main_expt",""
"","bandit","85","496945","0.0-46.0-0.0","86433628","wem/bandit_party_2","A2QYTNTTER3YDI","either","1","376","","","","","","","1","0","0","0.9065038385","","0.8","0.4","0.6","0.2","","","","","0.706748425","0.4737796053","0.9065038385","0.4337427147","","","","","","","","","","75","K","2","","","5","main_expt",""
"","bandit","86","498958","0.0-47.0-0.0","86433628","wem/bandit_party_2","A2QYTNTTER3YDI","either","1","460","","","","","","","1","0","0","0.9628954729","","0.8","0.4","0.6","0.2","","","","","0.7246132019","0.5798080576","0.9628954729","0.4260566605","","","","","","","","","","75","K","2","","","6","main_expt",""
"","bandit","87","500985","0.0-48.0-0.0","86433628","wem/bandit_party_2","A2QYTNTTER3YDI","either","1","471","","","","","","","1","0","0","0.9244273404","","0.8","0.4","0.6","0.2","","","","","0.822103072","0.6184433593","0.9244273404","0.5595739282","","","","","","","","","","75","K","2","","","7","main_expt",""
"","bandit","88","502957","0.0-49.0-0.0","86433628","wem/bandit_party_2","A2QYTNTTER3YDI","either","1","411","","","","","","","1","0","0","0.9214665689","","0.8","0.4","0.6","0.2","","","","","0.8176183596","0.5380809204","0.9214665689","0.5757792393","","","","","","","","","","75","K","2","","","8","main_expt",""
"","bandit","89","505026","0.0-50.0-0.0","86433628","wem/bandit_party_2","A2QYTNTTER3YDI","either","1","512","","","","","","","0","1","0","","0.9604963414","0.8","0.4","0.6","0.2","0.7421782695","0.4884558296","0.9604963414","0.5508288143","","","","","","","","","","","","","","75","K","2","","","9","main_expt",""
"","bandit","90","507094","0.0-51.0-0.0","86433628","wem/bandit_party_2","A2QYTNTTER3YDI","either","1","507","","","","","","","1","0","0","0.973544224","","0.8","0.4","0.6","0.2","","","","","0.7112185725","0.6062827564","0.973544224","0.4615344473","","","","","","","","","","75","K","2","","","10","main_expt",""
"","bandit","91","509112","0.0-52.0-0.0","86433628","wem/bandit_party_2","A2QYTNTTER3YDI","either","1","454","","","","","","","1","0","0","0.9756729976","","0.8","0.4","0.6","0.2","","","","","0.6656122322","0.6618996933","0.9756729976","0.4731032433","","","","","","","","","","75","K","2","","","11","main_expt",""
"","bandit","92","511136","0.0-53.0-0.0","86433628","wem/bandit_party_2","A2QYTNTTER3YDI","either","1","469","","","","","","","1","0","0","0.9824084628","","0.8","0.4","0.6","0.2","","","","","0.632951522","0.6589688621","0.9824084628","0.5028989732","","","","","","","","","","75","K","2","","","12","main_expt",""
"","bandit","93","513108","0.0-54.0-0.0","86433628","wem/bandit_party_2","A2QYTNTTER3YDI","either","1","419","","","","","","","0","1","0","","0.9852841122","0.8","0.4","0.6","0.2","0.6428643634","0.7483501345","0.9852841122","0.5252386458","","","","","","","","","","","","","","75","K","2","","","13","main_expt",""
"","bandit","94","514935","0.0-55.0-0.0","86433628","wem/bandit_party_2","A2QYTNTTER3YDI","either","1","265","","","","","","","1","0","0","0.9844185579","","0.8","0.4","0.6","0.2","","","","","0.5693663763","0.7642220585","0.9844185579","0.4883642101","","","","","","","","","","75","K","2","","","14","main_expt",""
"","bandit","95","516816","0.0-56.0-0.0","86433628","wem/bandit_party_2","A2QYTNTTER3YDI","either","1","321","","","","","","","1","0","0","0.9716790186","","0.8","0.4","0.6","0.2","","","","","0.6354763258","0.8255663415","0.9716790186","0.5125695872","","","","","","","","","","75","K","2","","","15","main_expt",""
"","bandit","96","518679","0.0-57.0-0.0","86433628","wem/bandit_party_2","A2QYTNTTER3YDI","either","1","295","","","","","","","1","0","0","0.9724226268","","0.8","0.4","0.6","0.2","","","","","0.6074668868","0.8262734196","0.9724226268","0.483313844","","","","","","","","","","75","K","2","","","16","main_expt",""
"","bandit","97","520797","0.0-58.0-0.0","86433628","wem/bandit_party_2","A2QYTNTTER3YDI","either","1","548","","","","","","","0","0","1","","0.969397438","0.8","0.4","0.6","0.2","0.634379517","0.8957105494","0.969397438","0.4764119597","","","","","","","","","","","","","","75","K","2","","","17","main_expt",""
"","bandit","98","522789","0.0-59.0-0.0","86433628","wem/bandit_party_2","A2QYTNTTER3YDI","either","1","442","","","","","","","1","0","0","0.9487821198","","0.8","0.4","0.6","0.2","","","","","0.7399013172","0.8243017832","0.9487821198","0.4742144938","","","","","","","","","","75","K","2","","","18","main_expt",""
"","bandit","99","524789","0.0-60.0-0.0","86433628","wem/bandit_party_2","A2QYTNTTER3YDI","either","1","452","","","","","","","0","0","1","","0.8822386923","0.8","0.4","0.6","0.2","0.6892422428","0.8174393347","0.8822386923","0.5445729057","","","","","","","","","","","","","","75","K","2","","","19","main_expt",""
"","bandit","100","526707","0.0-61.0-0.0","86433628","wem/bandit_party_2","A2QYTNTTER3YDI","either","1","379","","","","","","","1","0","0","0.8658452863","","0.8","0.4","0.6","0.2","","","","","0.5544472153","0.8457625901","0.8658452863","0.5114357523","","","","","","","","","","75","K","2","","","20","main_expt",""
"","bandit","101","528552","0.0-62.0-0.0","86433628","wem/bandit_party_2","A2QYTNTTER3YDI","either","1","293","","","","","","","0","1","0","","0.8597265301","0.8","0.4","0.6","0.2","0.4705077418","0.8565453533","0.8597265301","0.4948626968","","","","","","","","","","","","","","75","K","2","","","21","main_expt",""
"","bandit","102","530478","0.0-63.0-0.0","86433628","wem/bandit_party_2","A2QYTNTTER3YDI","either","1","371","","","","","","","1","0","0","0.929530396","","0.8","0.4","0.6","0.2","","","","","0.5364913494","0.8821281293","0.929530396","0.3750889156","","","","","","","","","","75","K","2","","","22","main_expt",""
"","bandit","103","532327","0.0-64.0-0.0","86433628","wem/bandit_party_2","A2QYTNTTER3YDI","either","1","308","","","","","","","1","0","0","0.9149061772","","0.8","0.4","0.6","0.2","","","","","0.5450887529","0.8253896901","0.9149061772","0.3874093852","","","","","","","","","","75","K","2","","","23","main_expt",""
"","bandit","104","534176","0.0-65.0-0.0","86433628","wem/bandit_party_2","A2QYTNTTER3YDI","either","1","291","","","","","","","1","0","0","0.9389899916","","0.8","0.4","0.6","0.2","","","","","0.6013055931","0.8682133559","0.9389899916","0.4126546177","","","","","","","","","","75","K","2","","","24","main_expt",""
"","bandit","105","535993","0.0-66.0-0.0","86433628","wem/bandit_party_2","A2QYTNTTER3YDI","either","1","258","","","","","","","1","0","0","0.9583062328","","0.8","0.4","0.6","0.2","","","","","0.7116226269","0.8186134727","0.9583062328","0.3871809826","","","","","","","","","","75","K","2","","","25","main_expt",""
"","bandit","106","537888","0.0-67.0-0.0","86433628","wem/bandit_party_2","A2QYTNTTER3YDI","either","1","348","","","","","","","1","0","0","0.9349434311","","0.8","0.4","0.6","0.2","","","","","0.7284905038","0.841170918","0.9349434311","0.4162773602","","","","","","","","","","75","K","2","","","26","main_expt",""
"","bandit","107","540287","0.0-68.0-0.0","86433628","wem/bandit_party_2","A2QYTNTTER3YDI","either","1","835","","","","","","","0","1","0","","0.9147743466","0.8","0.4","0.6","0.2","0.7007901837","0.8332298301","0.9147743466","0.4153433109","","","","","","","","","","","","","","75","K","2","","","27","main_expt",""
"","bandit","108","542777","0.0-69.0-0.0","86433628","wem/bandit_party_2","A2QYTNTTER3YDI","either","1","943","","","","","","","1","0","0","0.8913744663","","0.8","0.4","0.6","0.2","","","","","0.7197690037","0.8340804883","0.8913744663","0.3083156359","","","","","","","","","","75","K","2","","","28","main_expt",""
"","bandit","109","545327","0.0-70.0-0.0","86433628","wem/bandit_party_2","A2QYTNTTER3YDI","either","1","980","","","","","","","0","1","0","","0.9004815278","0.8","0.4","0.6","0.2","0.7569205749","0.8800986549","0.9004815278","0.4048150761","","","","","","","","","","","","","","75","K","2","","","29","main_expt",""
"","bandit","110","547398","0.0-71.0-0.0","86433628","wem/bandit_party_2","A2QYTNTTER3YDI","either","1","498","","","","","","","0","1","0","","0.8335499875","0.8","0.4","0.6","0.2","0.7007062976","0.800988266","0.8335499875","0.5604470694","","","","","","","","","","","","","","75","K","2","","","30","main_expt",""
"","bandit","111","550958","0.0-72.0-0.0","86433628","wem/bandit_party_2","A2QYTNTTER3YDI","either","1","2000","","","","","","","1","0","0","0.7904098286","","0.8","0.4","0.6","0.2","","","","","0.6218809145","0.8092707987","0.7904098286","0.5114456598","","","","","","","","","","75","K","2","","","31","main_expt",""
"","bandit","112","552949","0.0-73.0-0.0","86433628","wem/bandit_party_2","A2QYTNTTER3YDI","either","1","428","","","","","","","0","1","0","","0.8156470634","0.8","0.4","0.6","0.2","0.5448888872","0.7600689364","0.8156470634","0.5195843055","","","","","","","","","","","","","","75","K","2","","","32","main_expt",""
"","bandit","113","554816","0.0-74.0-0.0","86433628","wem/bandit_party_2","A2QYTNTTER3YDI","either","1","301","","","","","","","1","0","0","0.7458483223","","0.8","0.4","0.6","0.2","","","","","0.4396040002","0.7268405739","0.7458483223","0.4278216128","","","","","","","","","","75","K","2","","","33","main_expt",""
"","bandit","114","556735","0.0-75.0-0.0","86433628","wem/bandit_party_2","A2QYTNTTER3YDI","either","1","327","","","","","","","1","0","0","0.8745519215","","0.8","0.4","0.6","0.2","","","","","0.3418027302","0.7867385379","0.8745519215","0.4581725564","","","","","","","","","","75","K","2","","","34","main_expt",""
"","bandit","115","558640","0.0-76.0-0.0","86433628","wem/bandit_party_2","A2QYTNTTER3YDI","either","1","349","","","","","","","1","0","0","0.8761773117","","0.8","0.4","0.6","0.2","","","","","0.3770378826","0.7776722478","0.8761773117","0.5170179058","","","","","","","","","","75","K","2","","","35","main_expt",""
"","bandit","116","560557","0.0-77.0-0.0","86433628","wem/bandit_party_2","A2QYTNTTER3YDI","either","1","349","","","","","","","0","1","0","","0.8898579413","0.8","0.4","0.6","0.2","0.3264650107","0.8110731924","0.8898579413","0.5761285305","","","","","","","","","","","","","","75","K","2","","","36","main_expt",""
"","bandit","117","562877","0.0-78.0-0.0","86433628","wem/bandit_party_2","A2QYTNTTER3YDI","either","1","760","","","","","","","1","0","0","0.9189960073","","0.8","0.4","0.6","0.2","","","","","0.1696248696","0.8371501114","0.9189960073","0.5824592389","","","","","","","","","","75","K","2","","","37","main_expt",""
"","bandit","118","564806","0.0-79.0-0.0","86433628","wem/bandit_party_2","A2QYTNTTER3YDI","either","1","364","","","","","","","1","0","0","0.9429067042","","0.8","0.4","0.6","0.2","","","","","0.3008725236","0.801984358","0.9429067042","0.5039158184","","","","","","","","","","75","K","2","","","38","main_expt",""
"","bandit","119","566646","0.0-80.0-0.0","86433628","wem/bandit_party_2","A2QYTNTTER3YDI","either","1","268","","","","","","","0","0","1","0.8860185862","","0.8","0.4","0.6","0.2","","","","","0.3612597963","0.836760671","0.8860185862","0.4906961915","","","","","","","","","","75","K","2","","","39","main_expt",""
"","bandit","120","568527","0.0-81.0-0.0","86433628","wem/bandit_party_2","A2QYTNTTER3YDI","either","1","318","","","","","","","1","0","0","0.8958725565","","0.8","0.4","0.6","0.2","","","","","0.3316001813","0.7930168878","0.8958725565","0.5118773476","","","","","","","","","","75","K","2","","","40","main_expt",""
"","bandit","121","570451","0.0-82.0-0.0","86433628","wem/bandit_party_2","A2QYTNTTER3YDI","either","1","339","","","","","","","1","0","0","0.8369757826","","0.8","0.4","0.6","0.2","","","","","0.251761063","0.6758505439","0.8369757826","0.5207000815","","","","","","","","","","75","K","2","","","41","main_expt",""
"","bandit","122","572249","0.0-83.0-0.0","86433628","wem/bandit_party_2","A2QYTNTTER3YDI","either","1","267","","","","","","","1","0","0","0.8724413244","","0.8","0.4","0.6","0.2","","","","","0.3764367217","0.669091732","0.8724413244","0.6208632684","","","","","","","","","","75","K","2","","","42","main_expt",""
"","bandit","123","574098","0.0-84.0-0.0","86433628","wem/bandit_party_2","A2QYTNTTER3YDI","either","1","280","","","","","","","1","0","0","0.8721156492","","0.8","0.4","0.6","0.2","","","","","0.4280411123","0.5774386383","0.8721156492","0.6736877605","","","","","","","","","","75","K","2","","","43","main_expt",""
"","bandit","124","576889","0.0-85.0-0.0","86433628","wem/bandit_party_2","A2QYTNTTER3YDI","either","1","1229","","","","","","","0","1","0","","0.874486911","0.8","0.4","0.6","0.2","0.4250007774","0.5402750746","0.874486911","0.6770598463","","","","","","","","","","","","","","75","K","2","","","44","main_expt",""
"","bandit","125","578779","0.0-86.0-0.0","86433628","wem/bandit_party_2","A2QYTNTTER3YDI","either","1","318","","","","","","","0","0","1","","0.7653026016","0.8","0.4","0.6","0.2","0.3964774122","0.4769525635","0.7653026016","0.6811336834","","","","","","","","","","","","","","75","K","2","","","45","main_expt",""
"","bandit","126","580616","0.0-87.0-0.0","86433628","wem/bandit_party_2","A2QYTNTTER3YDI","either","1","290","","","","","","","1","0","0","0.6884850605","","0.8","0.4","0.6","0.2","","","","","0.3755541509","0.460739512","0.6884850605","0.7409040253","","","","","","","","","","75","K","2","","","46","main_expt",""
"","bandit","127","582527","0.0-88.0-0.0","86433628","wem/bandit_party_2","A2QYTNTTER3YDI","either","1","342","","","","","","","0","1","0","","0.6869729855","0.8","0.4","0.6","0.2","0.3698766084","0.3953603582","0.6869729855","0.8602274841","","","","","","","","","","","","","","75","K","2","","","47","main_expt",""
"","bandit","128","584399","0.0-89.0-0.0","86433628","wem/bandit_party_2","A2QYTNTTER3YDI","either","1","306","","","","","","","1","0","0","0.624749708","","0.8","0.4","0.6","0.2","","","","","0.2924141828","0.5194217752","0.624749708","0.8947369126","","","","","","","","","","75","K","2","","","48","main_expt",""
"","bandit","129","586219","0.0-90.0-0.0","86433628","wem/bandit_party_2","A2QYTNTTER3YDI","either","1","264","","","","","","","0","0","1","","0.6269608649","0.8","0.4","0.6","0.2","0.2506794134","0.5015721984","0.6269608649","0.9071052574","","","","","","","","","","","","","","75","K","2","","","49","main_expt",""
"","bandit","130","588115","0.0-91.0-0.0","86433628","wem/bandit_party_2","A2QYTNTTER3YDI","either","1","329","","","","","","","1","0","0","0.5394470416","","0.8","0.4","0.6","0.2","","","","","0.2200095001","0.4427204185","0.5394470416","0.8569531155","","","","","","","","","","75","K","2","","","50","main_expt",""
"","bandit","131","589698","0.0-92.0-0.0","86433628","wem/bandit_party_2","A2QYTNTTER3YDI","either","1","16","","","","","","","0","1","0","","0.4991806479","0.8","0.4","0.6","0.2","0.2703780474","0.5194544998","0.4991806479","0.8728609703","","","","","","","","","","","","","","75","K","2","","","51","main_expt",""
"","bandit","132","591678","0.0-93.0-0.0","86433628","wem/bandit_party_2","A2QYTNTTER3YDI","either","1","418","","","","","","","0","0","1","0.5431464126","","0.8","0.4","0.6","0.2","","","","","0.3215640211","0.4420680866","0.5431464126","0.902184381","","","","","","","","","","75","K","2","","","52","main_expt",""
"","bandit","133","593650","0.0-94.0-0.0","86433628","wem/bandit_party_2","A2QYTNTTER3YDI","either","1","400","","","","","","","0","0","1","0.8975054296","","0.8","0.4","0.6","0.2","","","","","0.2918797996","0.5541791803","0.4799783957","0.8975054296","","","","","","","","","","76","L","3","","","53","main_expt",""
"","bandit","134","595539","0.0-95.0-0.0","86433628","wem/bandit_party_2","A2QYTNTTER3YDI","either","1","352","","","","","","","0","1","0","","0.9436546011","0.8","0.4","0.6","0.2","0.2432815539","0.6187664305","0.3946877269","0.9436546011","","","","","","","","","","","","","","76","L","3","","","54","main_expt",""
"","bandit","135","597467","0.0-96.0-0.0","86433628","wem/bandit_party_2","A2QYTNTTER3YDI","either","1","358","","","","","","","0","1","0","","0.9411334538","0.8","0.4","0.6","0.2","0.1993500609","0.538030076","0.3892466866","0.9411334538","","","","","","","","","","","","","","76","L","3","","","55","main_expt",""
"","bandit","136","599380","0.0-97.0-0.0","86433628","wem/bandit_party_2","A2QYTNTTER3YDI","either","1","349","","","","","","","0","1","0","","0.862285227","0.8","0.4","0.6","0.2","0.1832364248","0.5137881872","0.347268188","0.862285227","","","","","","","","","","","","","","76","L","3","","","56","main_expt",""
"","bandit","137","601279","0.0-98.0-0.0","86433628","wem/bandit_party_2","A2QYTNTTER3YDI","either","1","331","","","","","","","0","1","0","","0.9034803314","0.8","0.4","0.6","0.2","0.1703919496","0.6274604021","0.3462231845","0.9034803314","","","","","","","","","","","","","","76","L","3","","","57","main_expt",""
"","bandit","138","603141","0.0-99.0-0.0","86433628","wem/bandit_party_2","A2QYTNTTER3YDI","either","1","307","","","","","","","0","1","0","","0.9062052911","0.8","0.4","0.6","0.2","0.2146973212","0.5636132077","0.3707442777","0.9062052911","","","","","","","","","","","","","","76","L","3","","","58","main_expt",""
"","bandit","139","605269","0.0-100.0-0.0","86433628","wem/bandit_party_2","A2QYTNTTER3YDI","either","1","552","","","","","","","0","1","0","","0.9169546289","0.8","0.4","0.6","0.2","0.2118107272","0.6555757088","0.4530366532","0.9169546289","","","","","","","","","","","","","","76","L","3","","","59","main_expt",""
"","bandit","140","607179","0.0-101.0-0.0","86433628","wem/bandit_party_2","A2QYTNTTER3YDI","either","1","336","","","","","","","0","1","0","","0.9048679239","0.8","0.4","0.6","0.2","0.2096036334","0.6555481193","0.4335409142","0.9048679239","","","","","","","","","","","","","","76","L","3","","","60","main_expt",""
"","bandit","141","609081","0.0-102.0-0.0","86433628","wem/bandit_party_2","A2QYTNTTER3YDI","either","1","340","","","","","","","0","1","0","","0.9346572725","0.8","0.4","0.6","0.2","0.1985607356","0.6988977931","0.3601573371","0.9346572725","","","","","","","","","","","","","","76","L","3","","","61","main_expt",""
"","bandit","142","610959","0.0-103.0-0.0","86433628","wem/bandit_party_2","A2QYTNTTER3YDI","either","1","331","","","","","","","0","1","0","","0.9332729597","0.8","0.4","0.6","0.2","0.2352246004","0.6124712875","0.3187004912","0.9332729597","","","","","","","","","","","","","","76","L","3","","","62","main_expt",""
"","bandit","143","612892","0.0-104.0-0.0","86433628","wem/bandit_party_2","A2QYTNTTER3YDI","either","1","363","","","","","","","0","0","1","","0.9300142507","0.8","0.4","0.6","0.2","0.1989126294","0.4881994696","0.331276396","0.9300142507","","","","","","","","","","","","","","76","L","3","","","63","main_expt",""
"","bandit","144","615009","0.0-105.0-0.0","86433628","wem/bandit_party_2","A2QYTNTTER3YDI","either","1","563","","","","","","","0","0","1","","0.8992917639","0.8","0.4","0.6","0.2","0.2231035509","0.5007509184","0.3984677","0.8992917639","","","","","","","","","","","","","","76","L","3","","","64","main_expt",""
"","bandit","145","617048","0.0-106.0-0.0","86433628","wem/bandit_party_2","A2QYTNTTER3YDI","either","1","465","","","","","","","0","0","1","","0.7939475476","0.8","0.4","0.6","0.2","0.174077904","0.6077525222","0.3012021372","0.7939475476","","","","","","","","","","","","","","76","L","3","","","65","main_expt",""
"","bandit","146","619749","0.0-107.0-0.0","86433628","wem/bandit_party_2","A2QYTNTTER3YDI","either","1","1128","","","","","","","0","1","0","","0.4876759876","0.8","0.4","0.6","0.2","0.1505104035","0.4876759876","0.2848395029","0.7848839068","","","","","","","","","","","","","","74","J","1","","","66","main_expt",""
"","bandit","147","621880","0.0-108.0-0.0","86433628","wem/bandit_party_2","A2QYTNTTER3YDI","either","1","555","","","","","","","1","0","0","0.4705728971","","0.8","0.4","0.6","0.2","","","","","0.1706094741","0.4705728971","0.2908363747","0.7712869283","","","","","","","","","","74","J","1","","","67","main_expt",""
"","bandit","148","623772","0.0-109.0-0.0","86433628","wem/bandit_party_2","A2QYTNTTER3YDI","either","1","349","","","","","","","0","1","0","","0.5822594153","0.8","0.4","0.6","0.2","0.193375558","0.5822594153","0.3226378352","0.7426915226","","","","","","","","","","","","","","74","J","1","","","68","main_expt",""
"","bandit","149","625793","0.0-110.0-0.0","86433628","wem/bandit_party_2","A2QYTNTTER3YDI","either","1","428","","","","","","","0","0","1","0.6189715015","","0.8","0.4","0.6","0.2","","","","","0.226811003","0.6189715015","0.4490581071","0.592712881","","","","","","","","","","74","J","1","","","69","main_expt",""
"","bandit","150","627691","0.0-111.0-0.0","86433628","wem/bandit_party_2","A2QYTNTTER3YDI","either","1","331","","","","","","","1","0","0","0.42365523","","0.8","0.4","0.6","0.2","","","","","0.191142909","0.5307799745","0.42365523","0.6587085967","","","","","","","","","","75","K","2","","","70","main_expt",""
"","bandit","151","629667","0.0-112.0-0.0","86433628","wem/bandit_party_2","A2QYTNTTER3YDI","either","1","419","","","","","","","0","0","1","0.427101634","","0.8","0.4","0.6","0.2","","","","","0.2371486809","0.5205551237","0.427101634","0.7562029562","","","","","","","","","","75","K","2","","","71","main_expt",""
"","bandit","152","631493","0.0-113.0-0.0","86433628","wem/bandit_party_2","A2QYTNTTER3YDI","either","1","286","","","","","","","1","0","0","0.5913901284","","0.8","0.4","0.6","0.2","","","","","0.2602117984","0.5913901284","0.5387899421","0.670676276","","","","","","","","","","74","J","1","","","72","main_expt",""
"","bandit","153","633510","0.0-114.0-0.0","86433628","wem/bandit_party_2","A2QYTNTTER3YDI","either","1","450","","","","","","","0","1","0","","0.7127465592","0.8","0.4","0.6","0.2","0.1837165363","0.7127465592","0.4931252492","0.6870219419","","","","","","","","","","","","","","74","J","1","","","73","main_expt",""
"","bandit","154","635436","0.0-115.0-0.0","86433628","wem/bandit_party_2","A2QYTNTTER3YDI","either","1","348","","","","","","","1","0","0","0.7804212289","","0.8","0.4","0.6","0.2","","","","","0.2032334464","0.7804212289","0.3888626504","0.582898469","","","","","","","","","","74","J","1","","","74","main_expt",""
"","bandit","155","637263","0.0-116.0-0.0","86433628","wem/bandit_party_2","A2QYTNTTER3YDI","either","1","298","","","","","","","0","0","1","","0.7966502287","0.8","0.4","0.6","0.2","0.2782751631","0.7966502287","0.3866429177","0.6452442043","","","","","","","","","","","","","","74","J","1","","","75","main_expt",""
"","bandit","156","640016","0.0-117.0-0.0","86433628","wem/bandit_party_2","A2QYTNTTER3YDI","either","1","1186","","","","","","","0","0","1","0.3318782676","","0.8","0.4","0.6","0.2","","","","","0.3318782676","0.7775959854","0.3948468247","0.7031137023","","","","","","","","","","72","H","0","img/none_selected.jpg","","76","main_expt",""
"","bandit","157","641871","0.0-118.0-0.0","86433628","wem/bandit_party_2","A2QYTNTTER3YDI","either","1","334","","","","","","","0","0","1","0.312607664","","0.8","0.4","0.6","0.2","","","","","0.312607664","0.8523583745","0.4853082722","0.6096498107","","","","","","","","","","72","H","0","img/none_selected.jpg","","77","main_expt",""
"","bandit","158","643710","0.0-119.0-0.0","86433628","wem/bandit_party_2","A2QYTNTTER3YDI","either","1","260","","","","","","","1","0","0","0.532302087","","0.8","0.4","0.6","0.2","","","","","0.3250695504","0.7707034136","0.4971609959","0.532302087","","","","","","","","","","76","L","3","","","78","main_expt",""
"","bandit","159","645621","0.0-120.0-0.0","86433628","wem/bandit_party_2","A2QYTNTTER3YDI","either","1","329","","","","","","","0","1","0","","0.4448734945","0.8","0.4","0.6","0.2","0.277144637","0.7919080975","0.5349041547","0.4448734945","","","","","","","","","","","","","","76","L","3","","","79","main_expt",""
"","bandit","160","647510","0.0-121.0-0.0","86433628","wem/bandit_party_2","A2QYTNTTER3YDI","either","1","310","","","","","","","0","0","1","0.34513516","","0.8","0.4","0.6","0.2","","","","","0.293018971","0.8107458935","0.4713204996","0.34513516","","","","","","","","","","76","L","3","","","80","main_expt",""
"","bandit","161","649341","0.0-122.0-0.0","86433628","wem/bandit_party_2","A2QYTNTTER3YDI","either","1","259","","","","","","","0","0","1","","0.406584365","0.8","0.4","0.6","0.2","0.2730851157","0.7851591746","0.4132476049","0.406584365","","","","","","","","","","","","","","76","L","3","","","81","main_expt",""
"","bandit","162","652279","0.0-123.0-0.0","86433628","wem/bandit_party_2","A2QYTNTTER3YDI","either","1","1361","","","","","","","1","0","0","0.5068312928","","0.8","0.4","0.6","0.2","","","","","0.2436011542","0.8067558171","0.4640808921","0.5068312928","","","","","","","","","","76","L","3","","","82","main_expt",""
"","bandit","163","654769","0.0-124.0-0.0","86433628","wem/bandit_party_2","A2QYTNTTER3YDI","either","1","916","","","","","","","0","1","0","","0.5209063211","0.8","0.4","0.6","0.2","0.2009218657","0.7777816444","0.442115463","0.5209063211","","","","","","","","","","","","","","76","L","3","","","83","main_expt",""
"","bandit","164","657198","0.0-125.0-0.0","86433628","wem/bandit_party_2","A2QYTNTTER3YDI","either","1","884","","","","","","","0","1","0","","0.6221591745","0.8","0.4","0.6","0.2","0.1550904625","0.7801041195","0.5117806844","0.6221591745","","","","","","","","","","","","","","76","L","3","","","84","main_expt",""
"","bandit","165","659830","0.0-126.0-0.0","86433628","wem/bandit_party_2","A2QYTNTTER3YDI","either","1","1049","","","","","","","0","1","0","","0.6939346182","0.8","0.4","0.6","0.2","0.1193398435","0.7593249252","0.5309627618","0.6939346182","","","","","","","","","","","","","","76","L","3","","","85","main_expt",""
"","bandit","166","661730","0.0-127.0-0.0","86433628","wem/bandit_party_2","A2QYTNTTER3YDI","either","1","311","","","","","","","0","1","0","","0.7533471596","0.8","0.4","0.6","0.2","0.1398572341","0.7911667705","0.5482659382","0.7533471596","","","","","","","","","","","","","","76","L","3","","","86","main_expt",""
"","bandit","167","664348","0.0-128.0-0.0","86433628","wem/bandit_party_2","A2QYTNTTER3YDI","either","1","1031","","","","","","","0","1","0","","0.8040573679","0.8","0.4","0.6","0.2","0.1941505275","0.8480662183","0.4772076429","0.8040573679","","","","","","","","","","","","","","76","L","3","","","87","main_expt",""
"","bandit","168","667031","0.0-129.0-0.0","86433628","wem/bandit_party_2","A2QYTNTTER3YDI","either","1","1085","","","","","","","0","1","0","","0.7800800897","0.8","0.4","0.6","0.2","0.09645570925","0.8110462569","0.5202977678","0.7800800897","","","","","","","","","","","","","","76","L","3","","","88","main_expt",""
"","bandit","169","668939","0.0-130.0-0.0","86433628","wem/bandit_party_2","A2QYTNTTER3YDI","either","1","352","","","","","","","0","1","0","","0.7329239748","0.8","0.4","0.6","0.2","0.1304326216","0.7924414871","0.4970482359","0.7329239748","","","","","","","","","","","","","","76","L","3","","","89","main_expt",""
"","bandit","170","670781","0.0-131.0-0.0","86433628","wem/bandit_party_2","A2QYTNTTER3YDI","either","1","309","","","","","","","0","0","1","","0.7202813078","0.8","0.4","0.6","0.2","0.1410434261","0.8190855249","0.4671205494","0.7202813078","","","","","","","","","","","","","","76","L","3","","","90","main_expt",""
"","bandit","171","672750","0.0-132.0-0.0","86433628","wem/bandit_party_2","A2QYTNTTER3YDI","either","1","399","","","","","","","1","0","0","0.698586111","","0.8","0.4","0.6","0.2","","","","","0.1277095213","0.858270253","0.5518401665","0.698586111","","","","","","","","","","76","L","3","","","91","main_expt",""
"","bandit","172","674672","0.0-133.0-0.0","86433628","wem/bandit_party_2","A2QYTNTTER3YDI","either","1","341","","","","","","","0","1","0","","0.6054304462","0.8","0.4","0.6","0.2","0.08596821216","0.8583259383","0.620788192","0.6054304462","","","","","","","","","","","","","","76","L","3","","","92","main_expt",""
"","bandit","173","676920","0.0-134.0-0.0","86433628","wem/bandit_party_2","A2QYTNTTER3YDI","either","1","640","","","","","","","0","1","0","","0.6829204303","0.8","0.4","0.6","0.2","0.05652587691","0.8335107661","0.679669404","0.6829204303","","","","","","","","","","","","","","76","L","3","","","93","main_expt",""
"","bandit","174","678801","0.0-135.0-0.0","86433628","wem/bandit_party_2","A2QYTNTTER3YDI","either","1","286","","","","","","","0","1","0","","0.6084783934","0.8","0.4","0.6","0.2","0.07490457358","0.8849423118","0.6726581754","0.6084783934","","","","","","","","","","","","","","76","L","3","","","94","main_expt",""
"","bandit","175","680901","0.0-136.0-0.0","86433628","wem/bandit_party_2","A2QYTNTTER3YDI","either","1","526","","","","","","","0","0","1","","0.51962455","0.8","0.4","0.6","0.2","0.05201682933","0.9175662658","0.5983950962","0.51962455","","","","","","","","","","","","","","76","L","3","","","95","main_expt",""
"","bandit","176","682828","0.0-137.0-0.0","86433628","wem/bandit_party_2","A2QYTNTTER3YDI","either","1","344","","","","","","","0","0","1","0.453067158","","0.8","0.4","0.6","0.2","","","","","0.0353667714","0.8726153548","0.6316158747","0.453067158","","","","","","","","","","76","L","3","","","96","main_expt",""
"","bandit","177","684810","0.0-138.0-0.0","86433628","wem/bandit_party_2","A2QYTNTTER3YDI","either","1","408","","","","","","","0","0","1","","0.4090095009","0.8","0.4","0.6","0.2","0.04301306848","0.7260562137","0.6660601513","0.4090095009","","","","","","","","","","","","","","76","L","3","","","97","main_expt",""
"","bandit","178","686721","0.0-139.0-0.0","86433628","wem/bandit_party_2","A2QYTNTTER3YDI","either","1","332","","","","","","","0","0","1","","0.6506148609","0.8","0.4","0.6","0.2","0.03950067624","0.6506148609","0.6185462561","0.360727585","","","","","","","","","","","","","","74","J","1","","","98","main_expt",""
"","bandit","179","688621","0.0-140.0-0.0","86433628","wem/bandit_party_2","A2QYTNTTER3YDI","either","1","303","","","","","","","0","0","1","0.5816342488","","0.8","0.4","0.6","0.2","","","","","0.03156699585","0.5816342488","0.581128502","0.3351327477","","","","","","","","","","74","J","1","","","99","main_expt",""
"","bandit","180","690419","0.0-141.0-0.0","86433628","wem/bandit_party_2","A2QYTNTTER3YDI","either","1","207","","","","","","","0","0","1","","0.3491912274","0.8","0.4","0.6","0.2","0.0248161238","0.5521464449","0.479775063","0.3491912274","","","","","","","","","","","","","","76","L","3","","","100","main_expt",""
"","bandit","181","692090","0.0-142.0-0.0","86433628","wem/bandit_party_2","A2QYTNTTER3YDI","either","1","131","","","","","","","0","1","0","","0.6063232436","0.8","0.4","0.6","0.2","0.02218075004","0.6063232436","0.5114647241","0.4105375765","","","","","","","","","","","","","","74","J","1","","","101","main_expt",""
"","bandit","182","694091","0.0-143.0-0.0","86433628","wem/bandit_party_2","A2QYTNTTER3YDI","either","1","418","","","","","","","0","1","0","","0.5636213764","0.8","0.4","0.6","0.2","0.01802152149","0.5636213764","0.4718740674","0.438632671","","","","","","","","","","","","","","74","J","1","","","102","main_expt",""
"","bandit","183","696094","0.0-144.0-0.0","86433628","wem/bandit_party_2","A2QYTNTTER3YDI","either","1","456","","","","","","","0","0","1","","0.5370473259","0.8","0.4","0.6","0.2","0.01877214671","0.5370473259","0.5245129891","0.372838406","","","","","","","","","","","","","","74","J","1","","","103","main_expt",""
"","bandit","184","698011","0.0-145.0-0.0","86433628","wem/bandit_party_2","A2QYTNTTER3YDI","either","1","331","","","","","","","0","0","1","","0.01556743346","0.8","0.4","0.6","0.2","0.01556743346","0.549647281","0.5170751474","0.3057692375","","","","","","","","","","","","","","72","H","0","img/none_selected.jpg","","104","main_expt",""
"","bandit","185","699974","0.0-146.0-0.0","86433628","wem/bandit_party_2","A2QYTNTTER3YDI","either","1","375","","","","","","","0","0","1","0.4225976111","","0.8","0.4","0.6","0.2","","","","","0.03717147126","0.4225976111","0.472330124","0.37369274","","","","","","","","","","74","J","1","","","105","main_expt",""
"","bandit","186","701610","0.0-147.0-0.0","86433628","wem/bandit_party_2","A2QYTNTTER3YDI","either","1","57","","","","","","","1","0","0","0.3179799449","","0.8","0.4","0.6","0.2","","","","","0.07687033395","0.5005163425","0.568133852","0.3179799449","","","","","","","","","","76","L","3","","","106","main_expt",""
"","bandit","187","703650","0.0-148.0-0.0","86433628","wem/bandit_party_2","A2QYTNTTER3YDI","either","1","455","","","","","","","0","1","0","","0.3053765494","0.8","0.4","0.6","0.2","0.07659049968","0.3995396385","0.536018559","0.3053765494","","","","","","","","","","","","","","76","L","3","","","107","main_expt",""
"","bandit","188","706078","0.0-149.0-0.0","86433628","wem/bandit_party_2","A2QYTNTTER3YDI","either","1","857","","","","","","","0","1","0","","0.2732860947","0.8","0.4","0.6","0.2","0.07827602418","0.3855926336","0.3880888981","0.2732860947","","","","","","","","","","","","","","76","L","3","","","108","main_expt",""
"","bandit","189","707988","0.0-150.0-0.0","86433628","wem/bandit_party_2","A2QYTNTTER3YDI","either","1","338","","","","","","","0","0","1","","0.2624197952","0.8","0.4","0.6","0.2","0.1352418701","0.3059937163","0.3675045314","0.2624197952","","","","","","","","","","","","","","76","L","3","","","109","main_expt",""
"","bandit","190","710119","0.0-151.0-0.0","86433628","wem/bandit_party_2","A2QYTNTTER3YDI","either","1","549","","","","","","","0","0","1","0.1705666919","","0.8","0.4","0.6","0.2","","","","","0.1705666919","0.2752892785","0.4560700489","0.3303210632","","","","","","","","","","72","H","0","img/none_selected.jpg","","110","main_expt",""
"","bandit","191","712009","0.0-152.0-0.0","86433628","wem/bandit_party_2","A2QYTNTTER3YDI","either","1","319","","","","","","","0","0","1","0.3038626008","","0.8","0.4","0.6","0.2","","","","","0.2202970635","0.3038626008","0.5366389876","0.3541452024","","","","","","","","","","74","J","1","","","111","main_expt",""
"","bandit","192","713922","0.0-153.0-0.0","86433628","wem/bandit_party_2","A2QYTNTTER3YDI","either","1","336","","","","","","","0","0","1","","0.4468573219","0.8","0.4","0.6","0.2","0.2368742277","0.2308866464","0.5742054707","0.4468573219","","","","","","","","","","","","","","76","L","3","","","112","main_expt",""
"","bandit","193","715950","0.0-154.0-0.0","86433628","wem/bandit_party_2","A2QYTNTTER3YDI","either","1","436","","","","","","","0","1","0","","0.6014260319","0.8","0.4","0.6","0.2","0.2487241586","0.2420052043","0.6014260319","0.5163231944","","","","","","","","","","","","","","75","K","2","","","113","main_expt",""
"","bandit","194","717921","0.0-155.0-0.0","86433628","wem/bandit_party_2","A2QYTNTTER3YDI","either","1","422","","","","","","","0","0","1","","0.5398035654","0.8","0.4","0.6","0.2","0.238824581","0.3277817495","0.5398035654","0.4064640458","","","","","","","","","","","","","","75","K","2","","","114","main_expt",""
"","bandit","195","719951","0.0-156.0-0.0","86433628","wem/bandit_party_2","A2QYTNTTER3YDI","either","1","447","","","","","","","0","0","1","0.1480638281","","0.8","0.4","0.6","0.2","","","","","0.1480638281","0.3280884562","0.5008208772","0.4085425191","","","","","","","","","","72","H","0","img/none_selected.jpg","","115","main_expt",""
"","bandit","196","721811","0.0-157.0-0.0","86433628","wem/bandit_party_2","A2QYTNTTER3YDI","either","1","300","","","","","","","0","0","1","","0.4412864427","0.8","0.4","0.6","0.2","0.1246447603","0.4137256642","0.4200837231","0.4412864427","","","","","","","","","","","","","","76","L","3","","","116","main_expt",""
"","bandit","197","723552","0.0-158.0-0.0","86433628","wem/bandit_party_2","A2QYTNTTER3YDI","either","1","161","","","","","","","0","0","1","","0.372751341","0.8","0.4","0.6","0.2","0.1308085784","0.372751341","0.4094987027","0.5188885271","","","","","","","","","","","","","","74","J","1","","","117","main_expt",""
"","bandit","198","725525","0.0-159.0-0.0","86433628","wem/bandit_party_2","A2QYTNTTER3YDI","either","1","393","","","","","","","0","1","0","","0.3862907493","0.8","0.4","0.6","0.2","0.09076242324","0.4225631273","0.3862907493","0.5728151575","","","","","","","","","","","","","","75","K","2","","","118","main_expt",""
"","bandit","199","727431","0.0-160.0-0.0","86433628","wem/bandit_party_2","A2QYTNTTER3YDI","either","1","359","","","","","","","0","0","1","0.4437318585","","0.8","0.4","0.6","0.2","","","","","0.09057925276","0.4188482812","0.4437318585","0.5065624602","","","","","","","","","","75","K","2","","","119","main_expt",""
"","bandit","200","729304","0.0-161.0-0.0","86433628","wem/bandit_party_2","A2QYTNTTER3YDI","either","1","308","","","","","","","0","0","1","","0.4064427813","0.8","0.4","0.6","0.2","0.1288926122","0.3729077829","0.293469011","0.4064427813","","","","","","","","","","","","","","76","L","3","","","120","main_expt",""
"","bandit","201","731319","0.0-162.0-0.0","86433628","wem/bandit_party_2","A2QYTNTTER3YDI","either","1","451","","","","","","","0","0","1","0.1479701512","","0.8","0.4","0.6","0.2","","","","","0.1479701512","0.3817262037","0.2141601759","0.3948988447","","","","","","","","","","72","H","0","img/none_selected.jpg","","121","main_expt",""
"","bandit","202","733184","0.0-163.0-0.0","86433628","wem/bandit_party_2","A2QYTNTTER3YDI","either","1","308","","","","","","","1","0","0","0.3537210734","","0.8","0.4","0.6","0.2","","","","","0.1663524813","0.3537210734","0.2594293103","0.316823658","","","","","","","","","","74","J","1","","","122","main_expt",""
"","bandit","203","735562","0.0-164.0-0.0","86433628","wem/bandit_party_2","A2QYTNTTER3YDI","either","1","818","","","","","","","0","0","1","","0.1519240937","0.8","0.4","0.6","0.2","0.1993917655","0.3633727708","0.1519240937","0.3045978244","","","","","","","","","","","","","","75","K","2","","","123","main_expt",""
"","bandit","204","737530","0.0-165.0-0.0","86433628","wem/bandit_party_2","A2QYTNTTER3YDI","either","1","387","","","","","","","0","0","1","","0.2389028675","0.8","0.4","0.6","0.2","0.2948689786","0.4139908316","0.2311656533","0.2389028675","","","","","","","","","","","","","","76","L","3","","","124","main_expt",""
"","bandit","205","739415","0.0-166.0-0.0","86433628","wem/bandit_party_2","A2QYTNTTER3YDI","either","1","320","","","","","","","0","0","1","","0.3619800754","0.8","0.4","0.6","0.2","0.4054398129","0.3619800754","0.1956748967","0.2166803268","","","","","","","","","","","","","","74","J","1","","","125","main_expt",""
"","bandit","206","741372","0.0-167.0-0.0","86433628","wem/bandit_party_2","A2QYTNTTER3YDI","either","1","401","","","","","","","1","0","0","0.5337661481","","0.8","0.4","0.6","0.2","","","","","0.5337661481","0.353362548","0.1419383156","0.1613674106","","","","","","","","","","72","H","0","img/none_selected.jpg","","126","main_expt",""
"","bandit","207","743503","0.0-168.0-0.0","86433628","wem/bandit_party_2","A2QYTNTTER3YDI","either","1","553","","","","","","","0","0","1","0.5510518781","","0.8","0.4","0.6","0.2","","","","","0.5510518781","0.2888217425","0.1768105291","0.1682412955","","","","","","","","","","72","H","0","img/none_selected.jpg","","127","main_expt",""
"","bandit","208","745600","0.0-169.0-0.0","86433628","wem/bandit_party_2","A2QYTNTTER3YDI","either","1","503","","","","","","","0","0","1","0.4746642732","","0.8","0.4","0.6","0.2","","","","","0.4746642732","0.3131893798","0.1187699492","0.1655910943","","","","","","","","","","72","H","0","img/none_selected.jpg","","128","main_expt",""
"","bandit","209","747414","0.0-170.0-0.0","86433628","wem/bandit_party_2","A2QYTNTTER3YDI","either","1","231","","","","","","","0","0","1","","0.1845506081","0.8","0.4","0.6","0.2","0.5345142674","0.2826861836","0.1860330609","0.1845506081","","","","","","","","","","","","","","76","L","3","","","129","main_expt",""
"","bandit","210","749915","0.0-171.0-0.0","86433628","wem/bandit_party_2","A2QYTNTTER3YDI","either","1","912","","","","","","","0","0","1","0.09722607165","","0.8","0.4","0.6","0.2","","","","","0.6617219445","0.3434973012","0.09722607165","0.1548240476","","","","","","","","","","75","K","2","","","130","main_expt",""
"","bandit","211","751765","0.0-172.0-0.0","86433628","wem/bandit_party_2","A2QYTNTTER3YDI","either","1","267","","","","","","","0","0","1","0.3848082556","","0.8","0.4","0.6","0.2","","","","","0.6183560712","0.3848082556","0.05626421391","0.1503989","","","","","","","","","","74","J","1","","","131","main_expt",""
"","bandit","212","753914","0.0-173.0-0.0","86433628","wem/bandit_party_2","A2QYTNTTER3YDI","either","1","557","","","","","","","0","0","1","0.7009512511","","0.8","0.4","0.6","0.2","","","","","0.7009512511","0.4140069858","0.1149854728","0.1199593994","","","","","","","","","","72","H","0","img/none_selected.jpg","","132","main_expt",""
"","bandit","213","756272","0.0-174.0-0.0","86433628","wem/bandit_party_2","A2QYTNTTER3YDI","either","1","778","","","","","","","1","0","0","0.5838974895","","0.8","0.4","0.6","0.2","","","","","0.5838974895","0.3745017877","0.1698175541","0.1518383839","","","","","","","","","","72","H","0","img/none_selected.jpg","","133","main_expt",""
"","bandit","214","758202","0.0-175.0-0.0","86433628","wem/bandit_party_2","A2QYTNTTER3YDI","either","1","336","","","","","","","1","0","0","0.6628563986","","0.8","0.4","0.6","0.2","","","","","0.6628563986","0.3918835711","0.1925371395","0.1855528241","","","","","","","","","","72","H","0","img/none_selected.jpg","","134","main_expt",""
"","bandit","215","760081","0.0-176.0-0.0","86433628","wem/bandit_party_2","A2QYTNTTER3YDI","either","1","330","","","","","","","0","0","1","0.5610912218","","0.8","0.4","0.6","0.2","","","","","0.5610912218","0.3405764209","0.246136332","0.2187769305","","","","","","","","","","72","H","0","img/none_selected.jpg","","135","main_expt",""
"","bandit","216","762001","0.0-177.0-0.0","86433628","wem/bandit_party_2","A2QYTNTTER3YDI","either","1","351","","","","","","","0","0","1","0.4834649218","","0.8","0.4","0.6","0.2","","","","","0.4834649218","0.4155430462","0.2277518718","0.2001534018","","","","","","","","","","72","H","0","img/none_selected.jpg","","136","main_expt",""
"","bandit","217","763982","0.0-178.0-0.0","86433628","wem/bandit_party_2","A2QYTNTTER3YDI","either","1","397","","","","","","","0","0","1","0.513072369","","0.8","0.4","0.6","0.2","","","","","0.513072369","0.3389252929","0.252962458","0.176995917","","","","","","","","","","72","H","0","img/none_selected.jpg","","137","main_expt",""
"","bandit","218","766082","0.0-179.0-0.0","86433628","wem/bandit_party_2","A2QYTNTTER3YDI","either","1","511","","","","","","","0","1","0","","0.5502636267","0.8","0.4","0.6","0.2","0.5502636267","0.2698753193","0.3018696236","0.1460019238","","","","","","","","","","","","","","72","H","0","img/none_selected.jpg","","138","main_expt",""
"","bandit","219","768014","0.0-180.0-0.0","86433628","wem/bandit_party_2","A2QYTNTTER3YDI","either","1","349","","","","","","","1","0","0","0.4564922144","","0.8","0.4","0.6","0.2","","","","","0.4564922144","0.2821570394","0.347353107","0.06707115951","","","","","","","","","","72","H","0","img/none_selected.jpg","","139","main_expt",""
"","bandit","220","769875","0.0-181.0-0.0","86433628","wem/bandit_party_2","A2QYTNTTER3YDI","either","1","271","","","","","","","1","0","0","0.4116013625","","0.8","0.4","0.6","0.2","","","","","0.4116013625","0.3577533322","0.2477375586","0.1071331831","","","","","","","","","","72","H","0","img/none_selected.jpg","","140","main_expt",""
"","bandit","221","771563","0.0-182.0-0.0","86433628","wem/bandit_party_2","A2QYTNTTER3YDI","either","1","99","","","","","","","1","0","0","0.4498847811","","0.8","0.4","0.6","0.2","","","","","0.4498847811","0.4250900652","0.2880826197","0.1224459691","","","","","","","","","","72","H","0","img/none_selected.jpg","","141","main_expt",""
"","bandit","222","773915","0.0-183.0-0.0","86433628","wem/bandit_party_2","A2QYTNTTER3YDI","either","1","778","","","","","","","1","0","0","0.4822150968","","0.8","0.4","0.6","0.2","","","","","0.4822150968","0.3451055681","0.2287108423","0.1127900777","","","","","","","","","","72","H","0","img/none_selected.jpg","","142","main_expt",""
"","bandit","223","776018","0.0-184.0-0.0","86433628","wem/bandit_party_2","A2QYTNTTER3YDI","either","1","523","","","","","","","0","0","1","","0.4661026996","0.8","0.4","0.6","0.2","0.513506041","0.4661026996","0.2096850542","0.1736101882","","","","","","","","","","","","","","74","J","1","","","143","main_expt",""
"","bandit","224","779174","0.0-185.0-0.0","86433628","wem/bandit_party_2","A2QYTNTTER3YDI","either","1","1559","","","","","","","1","0","0","0.556822441","","0.8","0.4","0.6","0.2","","","","","0.556822441","0.4683168179","0.2214165798","0.1231714597","","","","","","","","","","72","H","0","img/none_selected.jpg","","144","main_expt",""
"","bandit","225","781396","0.0-186.0-0.0","86433628","wem/bandit_party_2","A2QYTNTTER3YDI","either","1","628","","","","","","","1","0","0","0.5633269006","","0.8","0.4","0.6","0.2","","","","","0.5633269006","0.448697065","0.2412424024","0.10514291","","","","","","","","","","72","H","0","img/none_selected.jpg","","145","main_expt",""
"","bandit","226","785448","0.0-187.0-0.0","86433628","wem/bandit_party_2","A2QYTNTTER3YDI","either","1","2452","","","","","","","0","1","0","","0.6482805244","0.8","0.4","0.6","0.2","0.6482805244","0.4560677512","0.1841611904","0.0972381369","","","","","","","","","","","","","","72","H","0","img/none_selected.jpg","","146","main_expt",""
"","bandit","227","787717","0.0-188.0-0.0","86433628","wem/bandit_party_2","A2QYTNTTER3YDI","either","1","720","","","","","","","0","0","1","0.6036290043","","0.8","0.4","0.6","0.2","","","","","0.6036290043","0.513472809","0.1577922033","0.1897119627","","","","","","","","","","72","H","0","img/none_selected.jpg","","147","main_expt",""
"","bandit","228","791151","0.0-189.0-0.0","86433628","wem/bandit_party_2","A2QYTNTTER3YDI","either","1","1901","","","","","","","0","1","0","","0.6110248825","0.8","0.4","0.6","0.2","0.6110248825","0.3820674583","0.1663963597","0.1759094881","","","","","","","","","","","","","","72","H","0","img/none_selected.jpg","","148","main_expt",""
"","bandit","229","794333","0.0-190.0-0.0","86433628","wem/bandit_party_2","A2QYTNTTER3YDI","either","1","1649","","","","","","","1","0","0","0.6453676348","","0.8","0.4","0.6","0.2","","","","","0.6453676348","0.3116557105","0.319747154","0.2204336569","","","","","","","","","","72","H","0","img/none_selected.jpg","","149","main_expt",""
"","bandit","230","796750","0.0-191.0-0.0","86433628","wem/bandit_party_2","A2QYTNTTER3YDI","either","1","822","","","","","","","1","0","0","0.66235511","","0.8","0.4","0.6","0.2","","","","","0.66235511","0.3039338698","0.5410110608","0.2328853871","","","","","","","","","","72","H","0","img/none_selected.jpg","","150","main_expt",""
"","bandit","231","798682","0.0-192.0-0.0","86433628","wem/bandit_party_2","A2QYTNTTER3YDI","either","1","375","","","","","","","1","0","0","0.5547575852","","0.8","0.4","0.6","0.2","","","","","0.5547575852","0.3092958796","0.5584745132","0.2652525627","","","","","","","","","","72","H","0","img/none_selected.jpg","","151","main_expt",""
"","bandit","232","800553","0.0-193.0-0.0","86433628","wem/bandit_party_2","A2QYTNTTER3YDI","either","1","313","","","","","","","1","0","0","0.5223098228","","0.8","0.4","0.6","0.2","","","","","0.5223098228","0.3097370874","0.5709378499","0.2654363334","","","","","","","","","","72","H","0","img/none_selected.jpg","","152","main_expt",""
"","bandit","233","804695","0.0-194.0-0.0","86433628","wem/bandit_party_2","A2QYTNTTER3YDI","either","1","2558","","","","","","","0","0","1","0.5137303037","","0.8","0.4","0.6","0.2","","","","","0.5137303037","0.2955649657","0.6314515046","0.3505589273","","","","","","","","","","72","H","0","img/none_selected.jpg","","153","main_expt",""
"","bandit","234","807377","0.0-195.0-0.0","86433628","wem/bandit_party_2","A2QYTNTTER3YDI","either","1","1094","","","","","","","0","0","1","","0.5193194566","0.8","0.4","0.6","0.2","0.5193194566","0.221553637","0.6734276465","0.39889796","","","","","","","","","","","","","","72","H","0","img/none_selected.jpg","","154","main_expt",""
"","bandit","235","809738","0.0-196.0-0.0","86433628","wem/bandit_party_2","A2QYTNTTER3YDI","either","1","779","","","","","","","0","1","0","","0.4736812385","0.8","0.4","0.6","0.2","0.4736812385","0.2231547498","0.7019144477","0.4202606707","","","","","","","","","","","","","","72","H","0","img/none_selected.jpg","","155","main_expt",""
"","bandit","236","811815","0.0-197.0-0.0","86433628","wem/bandit_party_2","A2QYTNTTER3YDI","either","1","510","","","","","","","0","0","1","0.4616442501","","0.8","0.4","0.6","0.2","","","","","0.4616442501","0.2750957943","0.6695455193","0.4814159609","","","","","","","","","","72","H","0","img/none_selected.jpg","","156","main_expt",""
"","bandit","237","817898","0.0-198.0-0.0","86433628","wem/bandit_party_2","A2QYTNTTER3YDI","either","1","4495","","","","","","","0","0","1","0.5025740222","","0.8","0.4","0.6","0.2","","","","","0.5025740222","0.2005793054","0.6179864128","0.5316807058","","","","","","","","","","72","H","0","img/none_selected.jpg","","157","main_expt",""
"","bandit","238","826034","0.0-199.0-0.0","86433628","wem/bandit_party_2","A2QYTNTTER3YDI","either","1","6539","","","","","","","1","0","0","0.4548105643","","0.8","0.4","0.6","0.2","","","","","0.4548105643","0.2502080146","0.7380689997","0.5429668589","","","","","","","","","","72","H","0","img/none_selected.jpg","","158","main_expt",""
"","bandit","239","828005","0.0-200.0-0.0","86433628","wem/bandit_party_2","A2QYTNTTER3YDI","either","1","416","","","","","","","0","0","1","","0.4622667215","0.8","0.4","0.6","0.2","0.4622667215","0.2729805177","0.7632184112","0.5991419929","","","","","","","","","","","","","","72","H","0","img/none_selected.jpg","","159","main_expt",""
"","bandit","240","831594","0.0-201.0-0.0","86433628","wem/bandit_party_2","A2QYTNTTER3YDI","either","1","1986","","","","","","","0","0","1","0.4600517474","","0.8","0.4","0.6","0.2","","","","","0.4600517474","0.2801697818","0.6917664031","0.6480894682","","","","","","","","","","72","H","0","img/none_selected.jpg","","160","main_expt",""
"","bandit","241","833529","0.0-202.0-0.0","86433628","wem/bandit_party_2","A2QYTNTTER3YDI","either","1","345","","","","","","","1","0","0","0.481388234","","0.8","0.4","0.6","0.2","","","","","0.481388234","0.2437938608","0.7106531984","0.6776161973","","","","","","","","","","72","H","0","img/none_selected.jpg","","161","main_expt",""
"","bandit","242","835864","0.0-203.0-0.0","86433628","wem/bandit_party_2","A2QYTNTTER3YDI","either","1","739","","","","","","","0","0","1","0.3850106192","","0.8","0.4","0.6","0.2","","","","","0.3850106192","0.2687553501","0.809310282","0.7134031715","","","","","","","","","","72","H","0","img/none_selected.jpg","","162","main_expt",""
"","bandit","243","842556","0.0-204.0-0.0","86433628","wem/bandit_party_2","A2QYTNTTER3YDI","either","1","5099","","","","","","","0","0","1","0.3498723973","","0.8","0.4","0.6","0.2","","","","","0.3498723973","0.245991677","0.7492875705","0.6215635068","","","","","","","","","","72","H","0","img/none_selected.jpg","","163","main_expt",""
"","bandit","244","844502","0.0-205.0-0.0","86433628","wem/bandit_party_2","A2QYTNTTER3YDI","either","1","351","","","","","","","1","0","0","0.4287417444","","0.8","0.4","0.6","0.2","","","","","0.4287417444","0.270385563","0.7561394707","0.5219240024","","","","","","","","","","72","H","0","img/none_selected.jpg","","164","main_expt",""
"","bandit","245","846774","0.0-206.0-0.0","86433628","wem/bandit_party_2","A2QYTNTTER3YDI","either","1","735","","","","","","","1","0","0","0.3150145745","","0.8","0.4","0.6","0.2","","","","","0.3150145745","0.3037855967","0.8111415702","0.4727302842","","","","","","","","","","72","H","0","img/none_selected.jpg","","165","main_expt",""
"","bandit","246","851106","0.0-207.0-0.0","86433628","wem/bandit_party_2","A2QYTNTTER3YDI","either","1","2709","","","","","","","0","0","1","0.2927018344","","0.8","0.4","0.6","0.2","","","","","0.2927018344","0.3395577104","0.7759938205","0.5181018645","","","","","","","","","","72","H","0","img/none_selected.jpg","","166","main_expt",""
"","bandit","247","853507","0.0-208.0-0.0","86433628","wem/bandit_party_2","A2QYTNTTER3YDI","either","1","811","","","","","","","0","0","1","0.3610256338","","0.8","0.4","0.6","0.2","","","","","0.3610256338","0.3443901906","0.8267633335","0.5280433419","","","","","","","","","","72","H","0","img/none_selected.jpg","","167","main_expt",""
"","bandit","248","855437","0.0-209.0-0.0","86433628","wem/bandit_party_2","A2QYTNTTER3YDI","either","1","311","","","","","","","0","0","1","0.3137127159","","0.8","0.4","0.6","0.2","","","","","0.3137127159","0.2552323567","0.8136073627","0.5470010145","","","","","","","","","","72","H","0","img/none_selected.jpg","","168","main_expt",""
"","bandit","249","857461","0.0-210.0-0.0","86433628","wem/bandit_party_2","A2QYTNTTER3YDI","either","1","472","","","","","","","0","0","1","0.2292796242","","0.8","0.4","0.6","0.2","","","","","0.2292796242","0.289352286","0.7308533614","0.5558845962","","","","","","","","","","72","H","0","img/none_selected.jpg","","169","main_expt",""
"","bandit","250","869264","0.0-211.0-0.0","86433628","wem/bandit_party_2","A2QYTNTTER3YDI","either","1","10239","","","","","","","0","0","1","0.221948569","","0.8","0.4","0.6","0.2","","","","","0.221948569","0.2262743404","0.7090730391","0.5799309324","","","","","","","","","","72","H","0","img/none_selected.jpg","","170","main_expt",""
"","bandit","251","874938","0.0-212.0-0.0","86433628","wem/bandit_party_2","A2QYTNTTER3YDI","either","1","4081","","","","","","","0","0","1","","0.159615594","0.8","0.4","0.6","0.2","0.159615594","0.2644351609","0.7229684446","0.6643953266","","","","","","","","","","","","","","72","H","0","img/none_selected.jpg","","171","main_expt",""
"","bandit","252","880016","0.0-213.0-0.0","86433628","wem/bandit_party_2","A2QYTNTTER3YDI","either","1","3491","","","","","","","0","0","1","0.1303854457","","0.8","0.4","0.6","0.2","","","","","0.1303854457","0.4136296373","0.6612043244","0.7610666705","","","","","","","","","","72","H","0","img/none_selected.jpg","","172","main_expt",""
"","bandit","253","881914","0.0-214.0-0.0","86433628","wem/bandit_party_2","A2QYTNTTER3YDI","either","1","300","","","","","","","0","0","1","0.07729024622","","0.8","0.4","0.6","0.2","","","","","0.07729024622","0.491318492","0.7669021743","0.8006149786","","","","","","","","","","72","H","0","img/none_selected.jpg","","173","main_expt",""
"","bandit","254","883524","0.0-215.0-0.0","86433628","wem/bandit_party_2","A2QYTNTTER3YDI","either","1","3","","","","","","","0","1","0","","0.791095403","0.8","0.4","0.6","0.2","0.1227026474","0.4966763124","0.8111867287","0.791095403","","","","","","","","","","","","","","76","L","3","","","174","main_expt",""
"","bandit","255","886010","0.0-216.0-0.0","86433628","wem/bandit_party_2","A2QYTNTTER3YDI","either","1","881","","","","","","","0","1","0","","0.8572088762","0.8","0.4","0.6","0.2","0.09483306355","0.5109350621","0.8192498968","0.8572088762","","","","","","","","","","","","","","76","L","3","","","175","main_expt",""
"","bandit","256","888407","0.0-217.0-0.0","86433628","wem/bandit_party_2","A2QYTNTTER3YDI","either","1","789","","","","","","","0","0","1","0.8576080684","","0.8","0.4","0.6","0.2","","","","","0.143069758","0.6321295754","0.8371283275","0.8576080684","","","","","","","","","","76","L","3","","","176","main_expt",""
"","bandit","257","898038","0.0-218.0-0.0","86433628","wem/bandit_party_2","A2QYTNTTER3YDI","either","1","8031","","","","","","","1","0","0","0.8678158231","","0.8","0.4","0.6","0.2","","","","","0.1741656422","0.5515755996","0.8545140947","0.8678158231","","","","","","","","","","76","L","3","","","177","main_expt",""
"","bandit","258","901944","0.0-219.0-0.0","86433628","wem/bandit_party_2","A2QYTNTTER3YDI","either","1","2303","","","","","","","1","0","0","0.8820542777","","0.8","0.4","0.6","0.2","","","","","0.1904086474","0.5086275016","0.8794893657","0.8820542777","","","","","","","","","","76","L","3","","","178","main_expt",""
"","bandit","259","904526","0.0-220.0-0.0","86433628","wem/bandit_party_2","A2QYTNTTER3YDI","either","1","1033","","","","","","","0","1","0","","0.8907334788","0.8","0.4","0.6","0.2","0.1778905233","0.5215192908","0.8939587296","0.8907334788","","","","","","","","","","","","","","76","L","3","","","179","main_expt",""
"","bandit","260","906165","0.0-221.0-0.0","86433628","wem/bandit_party_2","A2QYTNTTER3YDI","either","1","38","","","","","","","0","1","0","","0.9161653667","0.8","0.4","0.6","0.2","0.2112817454","0.5193414217","0.868077767","0.9161653667","","","","","","","","","","","","","","76","L","3","","","180","main_expt",""
"","bandit","261","909321","0.0-222.0-0.0","86433628","wem/bandit_party_2","A2QYTNTTER3YDI","either","1","1551","","","","","","","0","1","0","","0.9327112184","0.8","0.4","0.6","0.2","0.2236312472","0.4613460131","0.9295405476","0.9327112184","","","","","","","","","","","","","","76","L","3","","","181","main_expt",""
"","bandit","262","912527","0.0-223.0-0.0","86433628","wem/bandit_party_2","A2QYTNTTER3YDI","either","1","1635","","","","","","","0","1","0","","0.9284398706","0.8","0.4","0.6","0.2","0.264467441","0.4468633868","0.9213574857","0.9284398706","","","","","","","","","","","","","","76","L","3","","","182","main_expt",""
"","bandit","263","918818","0.0-224.0-0.0","86433628","wem/bandit_party_2","A2QYTNTTER3YDI","either","1","4637","","","","","","","0","1","0","","0.89591471","0.8","0.4","0.6","0.2","0.2240632979","0.4985091709","0.9374560388","0.89591471","","","","","","","","","","","","","","76","L","3","","","183","main_expt",""
"","bandit","264","923738","0.0-225.0-0.0","86433628","wem/bandit_party_2","A2QYTNTTER3YDI","either","1","3379","","","","","","","0","1","0","","0.9146434193","0.8","0.4","0.6","0.2","0.1671404848","0.6057575335","0.9120054929","0.9146434193","","","","","","","","","","","","","","76","L","3","","","184","main_expt",""
"","bandit","265","931489","0.0-226.0-0.0","86433628","wem/bandit_party_2","A2QYTNTTER3YDI","either","1","6149","","","","","","","1","0","0","0.8575823977","","0.8","0.4","0.6","0.2","","","","","0.1932257563","0.4915456485","0.8428471033","0.8575823977","","","","","","","","","","76","L","3","","","185","main_expt",""
"","bandit","266","934477","0.0-227.0-0.0","86433628","wem/bandit_party_2","A2QYTNTTER3YDI","either","1","1382","","","","","","","0","1","0","","0.8487952361","0.8","0.4","0.6","0.2","0.155472597","0.5976273718","0.7734335662","0.8487952361","","","","","","","","","","","","","","76","L","3","","","186","main_expt",""
"","bandit","267","937180","0.0-228.0-0.0","86433628","wem/bandit_party_2","A2QYTNTTER3YDI","either","1","1115","","","","","","","0","1","0","","0.8603972339","0.8","0.4","0.6","0.2","0.1895871356","0.5743595779","0.7667319261","0.8603972339","","","","","","","","","","","","","","76","L","3","","","187","main_expt",""
"","bandit","268","942642","0.0-229.0-0.0","86433628","wem/bandit_party_2","A2QYTNTTER3YDI","either","1","3916","","","","","","","0","1","0","","0.8834510925","0.8","0.4","0.6","0.2","0.2119556673","0.6833173747","0.5945875292","0.8834510925","","","","","","","","","","","","","","76","L","3","","","188","main_expt",""
"","bandit","269","944801","0.0-230.0-0.0","86433628","wem/bandit_party_2","A2QYTNTTER3YDI","either","1","541","","","","","","","1","0","0","0.8973947779","","0.8","0.4","0.6","0.2","","","","","0.2255007403","0.651089354","0.7406569186","0.8973947779","","","","","","","","","","76","L","3","","","189","main_expt",""
"","bandit","270","947979","0.0-231.0-0.0","86433628","wem/bandit_party_2","A2QYTNTTER3YDI","either","1","1620","","","","","","","0","1","0","","0.8824587855","0.8","0.4","0.6","0.2","0.1754842532","0.6599652607","0.7371931777","0.8824587855","","","","","","","","","","","","","","76","L","3","","","190","main_expt",""
"","bandit","271","949902","0.0-232.0-0.0","86433628","wem/bandit_party_2","A2QYTNTTER3YDI","either","1","340","","","","","","","1","0","0","0.9076431997","","0.8","0.4","0.6","0.2","","","","","0.1936311571","0.6960236584","0.7019705866","0.9076431997","","","","","","","","","","76","L","3","","","191","main_expt",""
"","bandit","272","952349","0.0-233.0-0.0","86433628","wem/bandit_party_2","A2QYTNTTER3YDI","either","1","892","","","","","","","1","0","0","0.8673165995","","0.8","0.4","0.6","0.2","","","","","0.215612591","0.6713911156","0.6198122665","0.8673165995","","","","","","","","","","76","L","3","","","192","main_expt",""
"","bandit","273","954503","0.0-234.0-0.0","86433628","wem/bandit_party_2","A2QYTNTTER3YDI","either","1","543","","","","","","","0","1","0","","0.8264401474","0.8","0.4","0.6","0.2","0.2818734505","0.7244072205","0.6100930929","0.8264401474","","","","","","","","","","","","","","76","L","3","","","193","main_expt",""
"","bandit","274","958724","0.0-235.0-0.0","86433628","wem/bandit_party_2","A2QYTNTTER3YDI","either","1","2611","","","","","","","0","1","0","","0.8546086414","0.8","0.4","0.6","0.2","0.3616108755","0.7397798508","0.6332739585","0.8546086414","","","","","","","","","","","","","","76","L","3","","","194","main_expt",""
"","bandit","275","961071","0.0-236.0-0.0","86433628","wem/bandit_party_2","A2QYTNTTER3YDI","either","1","732","","","","","","","0","1","0","","0.7914914872","0.8","0.4","0.6","0.2","0.3979961615","0.7602069811","0.609207161","0.7914914872","","","","","","","","","","","","","","76","L","3","","","195","main_expt",""
"","bandit","276","963032","0.0-237.0-0.0","86433628","wem/bandit_party_2","A2QYTNTTER3YDI","either","1","353","","","","","","","0","1","0","","0.7608346536","0.8","0.4","0.6","0.2","0.4366641927","0.7114092524","0.6560649547","0.7608346536","","","","","","","","","","","","","","76","L","3","","","196","main_expt",""
"","bandit","277","967543","0.0-238.0-0.0","86433628","wem/bandit_party_2","A2QYTNTTER3YDI","either","1","2929","","","","","","","0","1","0","","0.7003784325","0.8","0.4","0.6","0.2","0.560782874","0.6917424169","0.6656533059","0.7003784325","","","","","","","","","","","","","","76","L","3","","","197","main_expt",""
"","bandit","278","972951","0.0-239.0-0.0","86433628","wem/bandit_party_2","A2QYTNTTER3YDI","either","1","3869","","","","","","","1","0","0","0.6036075577","","0.8","0.4","0.6","0.2","","","","","0.5649388288","0.6561069913","0.6841747727","0.6036075577","","","","","","","","","","76","L","3","","","198","main_expt",""
"","bandit","279","974913","0.0-240.0-0.0","86433628","wem/bandit_party_2","A2QYTNTTER3YDI","either","1","348","","","","","","","1","0","0","0.5843314555","","0.8","0.4","0.6","0.2","","","","","0.5375892324","0.6948346643","0.7105065455","0.5843314555","","","","","","","","","","76","L","3","","","199","main_expt",""
"","bandit","280","976880","0.0-241.0-0.0","86433628","wem/bandit_party_2","A2QYTNTTER3YDI","either","1","360","","","","","","","0","1","0","","0.539414212","0.8","0.4","0.6","0.2","0.5625167851","0.7369743936","0.7380433654","0.539414212","","","","","","","","","","","","","","76","L","3","","","200","main_expt",""
"","bandit","281","978548","0.0-242.0-0.0","86433628","wem/bandit_party_2","A2QYTNTTER3YDI","either","1","59","","","","","","","0","0","1","","0.3774065742","0.8","0.4","0.6","0.2","0.6266810217","0.8347268415","0.6432951689","0.3774065742","","","","","","","","","","","","","","76","L","3","","","201","main_expt",""
"","bandit","282","980341","0.0-243.0-0.0","86433628","wem/bandit_party_2","A2QYTNTTER3YDI","either","1","176","","","","","","","0","0","1","","0.2824615609","0.8","0.4","0.6","0.2","0.6661075828","0.7612264534","0.4995879772","0.2824615609","","","","","","","","","","","","","","76","L","3","","","202","main_expt",""
"","bandit","283","982411","0.0-244.0-0.0","86433628","wem/bandit_party_2","A2QYTNTTER3YDI","either","1","452","","","","","","","0","1","0","","0.210170224","0.8","0.4","0.6","0.2","0.7534099026","0.6904596671","0.4767352753","0.210170224","","","","","","","","","","","","","","76","L","3","","","203","main_expt",""
"","bandit","284","986624","0.0-245.0-0.0","86433628","wem/bandit_party_2","A2QYTNTTER3YDI","either","1","2603","","","","","","","0","0","1","","0.2708138581","0.8","0.4","0.6","0.2","0.7033522103","0.6855485072","0.3680612217","0.2708138581","","","","","","","","","","","","","","76","L","3","","","204","main_expt",""
"","bandit","285","990638","0.0-246.0-0.0","86433628","wem/bandit_party_2","A2QYTNTTER3YDI","either","1","2394","","","","","","","0","0","1","","0.3319820794","0.8","0.4","0.6","0.2","0.6105989365","0.7006332368","0.3404512965","0.3319820794","","","","","","","","","","","","","","76","L","3","","","205","main_expt",""
"","bandit","286","994568","0.0-247.0-0.0","86433628","wem/bandit_party_2","A2QYTNTTER3YDI","either","1","2295","","","","","","","0","0","1","0.3517339603","","0.8","0.4","0.6","0.2","","","","","0.725137222","0.7533130943","0.2774568564","0.3517339603","","","","","","","","","","76","L","3","","","206","main_expt",""
"","bandit","287","996972","0.0-248.0-0.0","86433628","wem/bandit_party_2","A2QYTNTTER3YDI","either","1","790","","","","","","","0","1","0","","0.2871079035","0.8","0.4","0.6","0.2","0.5888984072","0.7191760557","0.2228883469","0.2871079035","","","","","","","","","","","","","","76","L","3","","","207","main_expt",""
"","bandit","288","1001532","0.0-249.0-0.0","86433628","wem/bandit_party_2","A2QYTNTTER3YDI","either","1","2947","","","","","","","0","0","1","","0.2642306377","0.8","0.4","0.6","0.2","0.4650323514","0.6264293856","0.2829247412","0.2642306377","","","","","","","","","","","","","","76","L","3","","","208","main_expt",""
"","bandit","289","1003391","0.0-250.0-0.0","86433628","wem/bandit_party_2","A2QYTNTTER3YDI","either","1","239","","","","","","","0","0","1","","0.3169104167","0.8","0.4","0.6","0.2","0.4100719568","0.6500478562","0.3169104167","0.3587725811","","","","","","","","","","","","","","75","K","2","","","209","main_expt",""
"","bandit","290","1006311","0.0-251.0-0.0","86433628","wem/bandit_party_2","A2QYTNTTER3YDI","either","1","1380","","","","","","","0","1","0","","0.2090062306","0.8","0.4","0.6","0.2","0.5177296744","0.6498865343","0.2090062306","0.3103342645","","","","","","","","","","","","","","75","K","2","","","210","main_expt",""
"","bandit","291","1008450","0.0-252.0-0.0","86433628","wem/bandit_party_2","A2QYTNTTER3YDI","either","1","512","","","","","","","0","1","0","","0.1481662818","0.8","0.4","0.6","0.2","0.5950812693","0.6056301442","0.1481662818","0.3760595068","","","","","","","","","","","","","","75","K","2","","","211","main_expt",""
"","bandit","292","1010164","0.0-253.0-0.0","86433628","wem/bandit_party_2","A2QYTNTTER3YDI","either","1","173","","","","","","","0","1","0","","0.2114888193","0.8","0.4","0.6","0.2","0.7169745983","0.5524844402","0.2114888193","0.447023013","","","","","","","","","","","","","","75","K","2","","","212","main_expt",""
"","bandit","293","1012852","0.0-254.0-0.0","86433628","wem/bandit_party_2","A2QYTNTTER3YDI","either","1","1101","","","","","","","0","0","1","","0.2234642754","0.8","0.4","0.6","0.2","0.6766124197","0.6984249358","0.2234642754","0.4529182837","","","","","","","","","","","","","","75","K","2","","","213","main_expt",""
"","bandit","294","1014474","0.0-255.0-0.0","86433628","wem/bandit_party_2","A2QYTNTTER3YDI","either","1","3","","","","","","","0","0","1","0.2315139555","","0.8","0.4","0.6","0.2","","","","","0.8005648136","0.5996975418","0.2315139555","0.4306534983","","","","","","","","","","75","K","2","","","214","main_expt",""
"","bandit","295","1016982","0.0-256.0-0.0","86433628","wem/bandit_party_2","A2QYTNTTER3YDI","either","1","893","","","","","","","0","0","1","0.1949488974","","0.8","0.4","0.6","0.2","","","","","0.8487964291","0.6067129047","0.1949488974","0.4314469479","","","","","","","","","","75","K","2","","","215","main_expt",""
"","bandit","296","1019795","0.0-257.0-0.0","86433628","wem/bandit_party_2","A2QYTNTTER3YDI","either","1","1200","","","","","","","0","0","1","","0.2333303883","0.8","0.4","0.6","0.2","0.8674123454","0.6297976658","0.2333303883","0.45439575","","","","","","","","","","","","","","75","K","2","","","216","main_expt",""
"","bandit","297","1025092","0.0-258.0-0.0","86433628","wem/bandit_party_2","A2QYTNTTER3YDI","either","1","3679","","","","","","","0","0","1","","0.2027763819","0.8","0.4","0.6","0.2","0.8774404243","0.6095272491","0.2027763819","0.5228861726","","","","","","","","","","","","","","75","K","2","","","217","main_expt",""
"","bandit","298","1028204","0.0-259.0-0.0","86433628","wem/bandit_party_2","A2QYTNTTER3YDI","either","1","1498","","","","","","","0","0","1","0.1895874514","","0.8","0.4","0.6","0.2","","","","","0.8836448068","0.7058099393","0.1895874514","0.463703458","","","","","","","","","","75","K","2","","","218","main_expt",""
"","bandit","299","1035272","0.0-260.0-0.0","86433628","wem/bandit_party_2","A2QYTNTTER3YDI","either","1","5451","","","","","","","0","0","1","0.1537120117","","0.8","0.4","0.6","0.2","","","","","0.880498508","0.7396246451","0.1537120117","0.4522864467","","","","","","","","","","75","K","2","","","219","main_expt",""
"","bandit","300","1036885","0.0-261.0-0.0","86433628","wem/bandit_party_2","A2QYTNTTER3YDI","either","1","7","","","","","","","0","0","1","","0.2022747423","0.8","0.4","0.6","0.2","0.8740874997","0.7091968036","0.2022747423","0.4561576612","","","","","","","","","","","","","","75","K","2","","","220","main_expt",""
"","bandit","301","1038920","0.0-262.0-0.0","86433628","wem/bandit_party_2","A2QYTNTTER3YDI","either","1","415","","","","","","","1","0","0","0.7116308873","","0.8","0.4","0.6","0.2","","","","","0.8527830905","0.7116308873","0.3174413427","0.4264657168","","","","","","","","","","74","J","1","","","221","main_expt",""
"","bandit","302","1040525","0.0-263.0-0.0","86433628","wem/bandit_party_2","A2QYTNTTER3YDI","either","1","2","","","","","","","0","0","1","","0.769465391","0.8","0.4","0.6","0.2","0.7717907476","0.769465391","0.2315667073","0.3055141729","","","","","","","","","","","","","","74","J","1","","","222","main_expt",""
"","bandit","303","1042964","0.0-264.0-0.0","86433628","wem/bandit_party_2","A2QYTNTTER3YDI","either","1","822","","","","","","","0","1","0","","0.7509006974","0.8","0.4","0.6","0.2","0.8359700354","0.7509006974","0.2261006122","0.2868954791","","","","","","","","","","","","","","74","J","1","","","223","main_expt",""
"","bandit","304","1045439","0.0-265.0-0.0","86433628","wem/bandit_party_2","A2QYTNTTER3YDI","either","1","840","","","","","","","1","0","0","0.7007688409","","0.8","0.4","0.6","0.2","","","","","0.819670806","0.7007688409","0.2662378096","0.2698185242","","","","","","","","","","74","J","1","","","224","main_expt",""
"","bandit","305","1047684","0.0-266.0-0.0","86433628","wem/bandit_party_2","A2QYTNTTER3YDI","either","1","682","","","","","","","1","0","0","0.7409020096","","0.8","0.4","0.6","0.2","","","","","0.8512382749","0.7409020096","0.2163280173","0.213842325","","","","","","","","","","74","J","1","","","225","main_expt",""
"","bandit","306","1050913","0.0-267.0-0.0","86433628","wem/bandit_party_2","A2QYTNTTER3YDI","either","1","1647","","","","","","","0","1","0","","0.7052945704","0.8","0.4","0.6","0.2","0.8342861847","0.7052945704","0.2809353625","0.1616408491","","","","","","","","","","","","","","74","J","1","","","226","main_expt",""
"","bandit","307","1052643","0.0-268.0-0.0","86433628","wem/bandit_party_2","A2QYTNTTER3YDI","either","1","131","","","","","","","0","1","0","","0.606091252","0.8","0.4","0.6","0.2","0.7736041865","0.606091252","0.2396571279","0.1777599287","","","","","","","","","","","","","","74","J","1","","","227","main_expt",""
"","bandit","308","1054863","0.0-269.0-0.0","86433628","wem/bandit_party_2","A2QYTNTTER3YDI","either","1","604","","","","","","","0","0","1","","0.5834203199","0.8","0.4","0.6","0.2","0.8094350608","0.5834203199","0.3430446928","0.2866543064","","","","","","","","","","","","","","74","J","1","","","228","main_expt",""
"","bandit","309","1058201","0.0-270.0-0.0","86433628","wem/bandit_party_2","A2QYTNTTER3YDI","either","1","1714","","","","","","","0","1","0","","0.5466214007","0.8","0.4","0.6","0.2","0.8078722129","0.5466214007","0.2886233194","0.3948293382","","","","","","","","","","","","","","74","J","1","","","229","main_expt",""
"","bandit","310","1060451","0.0-271.0-0.0","86433628","wem/bandit_party_2","A2QYTNTTER3YDI","either","1","626","","","","","","","0","1","0","","0.5519014059","0.8","0.4","0.6","0.2","0.7719043616","0.5519014059","0.3213731463","0.3291786684","","","","","","","","","","","","","","74","J","1","","","230","main_expt",""
"","bandit","311","1062546","0.0-272.0-0.0","86433628","wem/bandit_party_2","A2QYTNTTER3YDI","either","1","518","","","","","","","0","0","1","0.4527164215","","0.8","0.4","0.6","0.2","","","","","0.8049264475","0.4527164215","0.2771614906","0.2378236032","","","","","","","","","","74","J","1","","","231","main_expt",""
"","bandit","312","1064591","0.0-273.0-0.0","86433628","wem/bandit_party_2","A2QYTNTTER3YDI","either","1","427","","","","","","","1","0","0","0.5135082398","","0.8","0.4","0.6","0.2","","","","","0.8850589997","0.5135082398","0.2249105956","0.246393804","","","","","","","","","","74","J","1","","","232","main_expt",""
"","bandit","313","1066295","0.0-274.0-0.0","86433628","wem/bandit_party_2","A2QYTNTTER3YDI","either","1","88","","","","","","","0","0","1","0.5502454751","","0.8","0.4","0.6","0.2","","","","","0.9183615156","0.5502454751","0.2447973041","0.2141634692","","","","","","","","","","74","J","1","","","233","main_expt",""
"","bandit","314","1067956","0.0-275.0-0.0","86433628","wem/bandit_party_2","A2QYTNTTER3YDI","either","1","59","","","","","","","0","0","1","0.3783923662","","0.8","0.4","0.6","0.2","","","","","0.9639410842","0.3783923662","0.24601643","0.2876436191","","","","","","","","","","74","J","1","","","234","main_expt",""
"","bandit","315","1072594","0.0-276.0-0.0","86433628","wem/bandit_party_2","A2QYTNTTER3YDI","either","1","3018","","","","","","","0","0","1","","0.2814299379","0.8","0.4","0.6","0.2","0.9697187448","0.2814299379","0.1629844561","0.2769077257","","","","","","","","","","","","","","74","J","1","","","235","main_expt",""
