"consent","trial_type","trial_index","time_elapsed","internal_node_id","subjID","study","MID","cond","drift","rt","responses","button_pressed","key_press","like","value","connected","gems","bombs","no_reward","GemPrChosen","BombPrChosen","GainOverPainPr_0","GainOverPainPr_1","GainOverPainPr_2","GainOverPainPr_3","LosePr_0","LosePr_1","LosePr_2","LosePr_3","WinPr_0","WinPr_1","WinPr_2","WinPr_3","Q0","Q1","Q2","gender","age","ethnicity","label","expt_phase","target","respCharCode","respKey","respChoiceNum","respChoice","practice","trial_counter","trial_label","Q0_index","view_history"
"GDM/GDM_behavioral_consent_30min_online.html","consent","0","11607","0.0-0.0","87101301","wem/bandit_party_2","A1BHHRSKO2MBT3","either","2","","","","","","","","","","","","","","","","","","","","","","","","","","","","","","","","","","","","","","","","","",""
"","survey-text","1","14900","0.0-1.0","87101301","wem/bandit_party_2","A1BHHRSKO2MBT3","either","2","2281","{""Q0"":""A1BHHRSKO2MBT3""}","","","","","","","","","","","","","","","","","","","","","","","","","","","","","","","","","","","","","","","",""
"","button-response","2","17882","0.0-2.0","87101301","wem/bandit_party_2","A1BHHRSKO2MBT3","either","2","1969","","1","","","","","","","","","","","","","","","","","","","","","","","","","","","","","","","","","","","","","","",""
"","text-replacement","3","22942","0.0-3.0","87101301","wem/bandit_party_2","A1BHHRSKO2MBT3","either","2","4052","","","32","","","","","","","","","","","","","","","","","","","","","","","","","","","","","","","","","","","","","",""
"","text-replacement","4","23682","0.0-4.0","87101301","wem/bandit_party_2","A1BHHRSKO2MBT3","either","2","737","","","32","","","","","","","","","","","","","","","","","","","","","","","","","","","","","","","","","","","","","",""
"","identification","5","28873","0.0-6.0-0.0","87101301","wem/bandit_party_2","A1BHHRSKO2MBT3","either","2","5169","","","","1","2","3","","","","","","","","","","","","","","","","","","","","","","","","pre","identification_pre","the Democratic Party","","","","","","","","",""
"","identification","6","41902","0.0-6.0-1.0","87101301","wem/bandit_party_2","A1BHHRSKO2MBT3","either","2","12012","","","","2","1","1","","","","","","","","","","","","","","","","","","","","","","","","pre","identification_pre","the Republican Party","","","","","","","","",""
"","text-replacement","7","47273","0.0-7.0","87101301","wem/bandit_party_2","A1BHHRSKO2MBT3","either","2","4363","","","32","","","","","","","","","","","","","","","","","","","","","","","","","","","","","","","","","","","","","",""
"","text-replacement","8","47722","0.0-8.0","87101301","wem/bandit_party_2","A1BHHRSKO2MBT3","either","2","445","","","32","","","","","","","","","","","","","","","","","","","","","","","","","","","","","","","","","","","","","",""
"","text-replacement","9","48083","0.0-9.0","87101301","wem/bandit_party_2","A1BHHRSKO2MBT3","either","2","357","","","32","","","","","","","","","","","","","","","","","","","","","","","","","","","","","","","","","","","","","",""
"","text-replacement","10","48316","0.0-10.0","87101301","wem/bandit_party_2","A1BHHRSKO2MBT3","either","2","228","","","32","","","","","","","","","","","","","","","","","","","","","","","","","","","","","","","","","","","","","",""
"","text-replacement","11","48522","0.0-11.0","87101301","wem/bandit_party_2","A1BHHRSKO2MBT3","either","2","203","","","32","","","","","","","","","","","","","","","","","","","","","","","","","","","","","","","","","","","","","",""
"","bandit","12","50673","0.0-12.0-0.0","87101301","wem/bandit_party_2","A1BHHRSKO2MBT3","either","2","637","","","","","","","0","0","1","0","0","","","","","0","","","","0","","","","","","","","","","","","","74","J","0","img/none_selected_demo.jpg","true","0","","",""
"","bandit","13","52797","0.0-13.0-0.0","87101301","wem/bandit_party_2","A1BHHRSKO2MBT3","either","2","612","","","","","","","0","0","1","0","0","","","","","0","","","","0","","","","","","","","","","","","","75","K","0","img/none_selected_demo.jpg","true","0","","",""
"","text-replacement","14","54151","0.0-14.0","87101301","wem/bandit_party_2","A1BHHRSKO2MBT3","either","2","1349","","","32","","","","","","","","","","","","","","","","","","","","","","","","","","","","","","","","","","","","","",""
"","text-replacement","15","54700","0.0-15.0","87101301","wem/bandit_party_2","A1BHHRSKO2MBT3","either","2","547","","","32","","","","","","","","","","","","","","","","","","","","","","","","","","","","","","","","","","","","","",""
"","text-replacement","16","54970","0.0-16.0","87101301","wem/bandit_party_2","A1BHHRSKO2MBT3","either","2","267","","","32","","","","","","","","","","","","","","","","","","","","","","","","","","","","","","","","","","","","","",""
"","text-replacement","17","55204","0.0-17.0","87101301","wem/bandit_party_2","A1BHHRSKO2MBT3","either","2","231","","","32","","","","","","","","","","","","","","","","","","","","","","","","","","","","","","","","","","","","","",""
"","bandit","18","57258","0.0-18.0-0.0","87101301","wem/bandit_party_2","A1BHHRSKO2MBT3","either","2","541","","","","","","","0","1","0","","0.8","0.5","0.5","","","0.8","0.2","","","","","","","","","","","","","","","","74","J","0","img/none_selected_demo.jpg","true","0","80_20_practice","",""
"","bandit","19","58879","0.0-18.0-1.0","87101301","wem/bandit_party_2","A1BHHRSKO2MBT3","either","2","106","","","","","","","0","1","0","","0.8","0.5","0.5","","","0.8","0.2","","","","","","","","","","","","","","","","74","J","0","img/none_selected_demo.jpg","true","0","80_20_practice","",""
"","bandit","20","60509","0.0-18.0-2.0","87101301","wem/bandit_party_2","A1BHHRSKO2MBT3","either","2","116","","","","","","","1","0","0","0.8","","0.5","0.5","","","","","","","0.8","0.2","","","","","","","","","","","","74","J","0","img/none_selected_demo.jpg","true","0","80_20_practice","",""
"","bandit","21","62084","0.0-18.0-3.0","87101301","wem/bandit_party_2","A1BHHRSKO2MBT3","either","2","60","","","","","","","1","0","0","0.8","","0.5","0.5","","","","","","","0.8","0.2","","","","","","","","","","","","74","J","0","img/none_selected_demo.jpg","true","0","80_20_practice","",""
"","bandit","22","63696","0.0-18.0-4.0","87101301","wem/bandit_party_2","A1BHHRSKO2MBT3","either","2","99","","","","","","","1","0","0","0.8","","0.5","0.5","","","","","","","0.8","0.2","","","","","","","","","","","","74","J","0","img/none_selected_demo.jpg","true","0","80_20_practice","",""
"","bandit","23","65241","0.0-18.0-5.0","87101301","wem/bandit_party_2","A1BHHRSKO2MBT3","either","2","36","","","","","","","1","0","0","0.8","","0.5","0.5","","","","","","","0.8","0.2","","","","","","","","","","","","74","J","0","img/none_selected_demo.jpg","true","0","80_20_practice","",""
"","bandit","24","66849","0.0-18.0-6.0","87101301","wem/bandit_party_2","A1BHHRSKO2MBT3","either","2","94","","","","","","","1","0","0","0.8","","0.5","0.5","","","","","","","0.8","0.2","","","","","","","","","","","","74","J","0","img/none_selected_demo.jpg","true","0","80_20_practice","",""
"","bandit","25","68537","0.0-18.0-7.0","87101301","wem/bandit_party_2","A1BHHRSKO2MBT3","either","2","168","","","","","","","0","1","0","","0.8","0.5","0.5","","","0.8","0.2","","","","","","","","","","","","","","","","74","J","0","img/none_selected_demo.jpg","true","0","80_20_practice","",""
"","bandit","26","70138","0.0-18.0-8.0","87101301","wem/bandit_party_2","A1BHHRSKO2MBT3","either","2","90","","","","","","","1","0","0","0.8","","0.5","0.5","","","","","","","0.8","0.2","","","","","","","","","","","","74","J","0","img/none_selected_demo.jpg","true","0","80_20_practice","",""
"","bandit","27","71841","0.0-18.0-9.0","87101301","wem/bandit_party_2","A1BHHRSKO2MBT3","either","2","188","","","","","","","0","1","0","","0.8","0.5","0.5","","","0.8","0.2","","","","","","","","","","","","","","","","74","J","0","img/none_selected_demo.jpg","true","0","80_20_practice","",""
"","bandit","28","73417","0.0-18.0-10.0","87101301","wem/bandit_party_2","A1BHHRSKO2MBT3","either","2","66","","","","","","","0","1","0","","0.8","0.5","0.5","","","0.8","0.2","","","","","","","","","","","","","","","","74","J","0","img/none_selected_demo.jpg","true","0","80_20_practice","",""
"","bandit","29","75106","0.0-18.0-11.0","87101301","wem/bandit_party_2","A1BHHRSKO2MBT3","either","2","178","","","","","","","1","0","0","0.8","","0.5","0.5","","","","","","","0.8","0.2","","","","","","","","","","","","74","J","0","img/none_selected_demo.jpg","true","0","80_20_practice","",""
"","bandit","30","77120","0.0-18.0-12.0","87101301","wem/bandit_party_2","A1BHHRSKO2MBT3","either","2","499","","","","","","","1","0","0","0.8","","0.5","0.5","","","","","","","0.8","0.2","","","","","","","","","","","","74","J","0","img/none_selected_demo.jpg","true","0","80_20_practice","",""
"","bandit","31","78741","0.0-18.0-13.0","87101301","wem/bandit_party_2","A1BHHRSKO2MBT3","either","2","107","","","","","","","0","0","1","","0.8","0.5","0.5","","","0.8","0.2","","","","","","","","","","","","","","","","74","J","0","img/none_selected_demo.jpg","true","0","80_20_practice","",""
"","bandit","32","80413","0.0-18.0-14.0","87101301","wem/bandit_party_2","A1BHHRSKO2MBT3","either","2","161","","","","","","","0","0","1","","0.8","0.5","0.5","","","0.8","0.2","","","","","","","","","","","","","","","","74","J","0","img/none_selected_demo.jpg","true","0","80_20_practice","",""
"","bandit","33","82073","0.0-18.0-15.0","87101301","wem/bandit_party_2","A1BHHRSKO2MBT3","either","2","150","","","","","","","0","0","1","0.8","","0.5","0.5","","","","","","","0.8","0.2","","","","","","","","","","","","74","J","0","img/none_selected_demo.jpg","true","0","80_20_practice","",""
"","bandit","34","83631","0.0-18.0-16.0","87101301","wem/bandit_party_2","A1BHHRSKO2MBT3","either","2","41","","","","","","","1","0","0","0.8","","0.5","0.5","","","","","","","0.8","0.2","","","","","","","","","","","","74","J","0","img/none_selected_demo.jpg","true","0","80_20_practice","",""
"","bandit","35","85283","0.0-18.0-17.0","87101301","wem/bandit_party_2","A1BHHRSKO2MBT3","either","2","141","","","","","","","0","0","1","0.2","","0.5","0.5","","","","","","","0.8","0.2","","","","","","","","","","","","75","K","1","","true","0","80_20_practice","",""
"","bandit","36","86956","0.0-18.0-18.0","87101301","wem/bandit_party_2","A1BHHRSKO2MBT3","either","2","159","","","","","","","1","0","0","0.2","","0.5","0.5","","","","","","","0.8","0.2","","","","","","","","","","","","75","K","1","","true","0","80_20_practice","",""
"","bandit","37","88537","0.0-18.0-19.0","87101301","wem/bandit_party_2","A1BHHRSKO2MBT3","either","2","66","","","","","","","0","0","1","","0.2","0.5","0.5","","","0.8","0.2","","","","","","","","","","","","","","","","75","K","1","","true","0","80_20_practice","",""
"","text-replacement","38","92437","0.0-19.0","87101301","wem/bandit_party_2","A1BHHRSKO2MBT3","either","2","3898","","","32","","","","","","","","","","","","","","","","","","","","","","","","","","","","","","","","","","","","","",""
"","bandit","39","94377","0.0-20.0-0.0","87101301","wem/bandit_party_2","A1BHHRSKO2MBT3","either","2","425","","","","","","","1","0","0","1","0","","","","","0","1","","","1","0","","","","","","","","","","","","74","J","0","img/none_selected_demo.jpg","true","0","","",""
"","text-replacement","40","94651","0.0-21.0","87101301","wem/bandit_party_2","A1BHHRSKO2MBT3","either","2","271","","","74","","","","","","","","","","","","","","","","","","","","","","","","","","","","","","","","","","","","","",""
"","text-replacement","41","96730","0.0-22.0","87101301","wem/bandit_party_2","A1BHHRSKO2MBT3","either","2","2075","","","32","","","","","","","","","","","","","","","","","","","","","","","","","","","","","","","","","","","","","",""
"","text-replacement","42","97016","0.0-23.0","87101301","wem/bandit_party_2","A1BHHRSKO2MBT3","either","2","283","","","32","","","","","","","","","","","","","","","","","","","","","","","","","","","","","","","","","","","","","",""
"","text-replacement","43","97219","0.0-24.0","87101301","wem/bandit_party_2","A1BHHRSKO2MBT3","either","2","200","","","32","","","","","","","","","","","","","","","","","","","","","","","","","","","","","","","","","","","","","",""
"","text-replacement","44","97457","0.0-25.0","87101301","wem/bandit_party_2","A1BHHRSKO2MBT3","either","2","232","","","32","","","","","","","","","","","","","","","","","","","","","","","","","","","","","","","","","","","","","",""
"","text-replacement","45","97703","0.0-26.0","87101301","wem/bandit_party_2","A1BHHRSKO2MBT3","either","2","242","","","32","","","","","","","","","","","","","","","","","","","","","","","","","","","","","","","","","","","","","",""
"","text-replacement","46","97925","0.0-27.0","87101301","wem/bandit_party_2","A1BHHRSKO2MBT3","either","2","218","","","32","","","","","","","","","","","","","","","","","","","","","","","","","","","","","","","","","","","","","",""
"","text-replacement","47","98161","0.0-28.0","87101301","wem/bandit_party_2","A1BHHRSKO2MBT3","either","2","231","","","32","","","","","","","","","","","","","","","","","","","","","","","","","","","","","","","","","","","","","",""
"","text-replacement","48","98412","0.0-29.0","87101301","wem/bandit_party_2","A1BHHRSKO2MBT3","either","2","247","","","32","","","","","","","","","","","","","","","","","","","","","","","","","","","","","","","","","","","","","",""
"","text-replacement","49","98666","0.0-30.0","87101301","wem/bandit_party_2","A1BHHRSKO2MBT3","either","2","249","","","32","","","","","","","","","","","","","","","","","","","","","","","","","","","","","","","","","","","","","",""
"","text-replacement","50","98918","0.0-31.0","87101301","wem/bandit_party_2","A1BHHRSKO2MBT3","either","2","249","","","32","","","","","","","","","","","","","","","","","","","","","","","","","","","","","","","","","","","","","",""
"","bandit","51","100877","0.0-32.0-0.0","87101301","wem/bandit_party_2","A1BHHRSKO2MBT3","either","2","440","","","","","","","0","0","1","","0.2","0.5","0.5","0.5","0.5","0.8","0.2","0.6","0.2","","","","","","","","","","","","","","74","J","1","","true","0","full_practice","",""
"","bandit","52","102446","0.0-32.0-1.0","87101301","wem/bandit_party_2","A1BHHRSKO2MBT3","either","2","58","","","","","","","0","0","1","0.2","","0.5","0.5","0.5","0.5","","","","","0.8","0.2","0.6","0.2","","","","","","","","","","74","J","1","","true","0","full_practice","",""
"","bandit","53","104147","0.0-32.0-2.0","87101301","wem/bandit_party_2","A1BHHRSKO2MBT3","either","2","186","","","","","","","0","0","1","0.2","","0.5","0.5","0.5","0.5","","","","","0.8","0.2","0.6","0.2","","","","","","","","","","74","J","1","","true","0","full_practice","",""
"","bandit","54","105865","0.0-32.0-3.0","87101301","wem/bandit_party_2","A1BHHRSKO2MBT3","either","2","207","","","","","","","0","1","0","","0.2","0.5","0.5","0.5","0.5","0.8","0.2","0.6","0.2","","","","","","","","","","","","","","74","J","1","","true","0","full_practice","",""
"","bandit","55","107409","0.0-32.0-4.0","87101301","wem/bandit_party_2","A1BHHRSKO2MBT3","either","2","32","","","","","","","1","0","0","0.6","","0.5","0.5","0.5","0.5","","","","","0.8","0.2","0.6","0.2","","","","","","","","","","75","K","2","","true","0","full_practice","",""
"","bandit","56","109209","0.0-32.0-5.0","87101301","wem/bandit_party_2","A1BHHRSKO2MBT3","either","2","283","","","","","","","0","1","0","","0.6","0.5","0.5","0.5","0.5","0.8","0.2","0.6","0.2","","","","","","","","","","","","","","75","K","2","","true","0","full_practice","",""
"","bandit","57","110892","0.0-32.0-6.0","87101301","wem/bandit_party_2","A1BHHRSKO2MBT3","either","2","169","","","","","","","0","1","0","","0.6","0.5","0.5","0.5","0.5","0.8","0.2","0.6","0.2","","","","","","","","","","","","","","75","K","2","","true","0","full_practice","",""
"","bandit","58","112660","0.0-32.0-7.0","87101301","wem/bandit_party_2","A1BHHRSKO2MBT3","either","2","252","","","","","","","0","0","1","","0.6","0.5","0.5","0.5","0.5","0.8","0.2","0.6","0.2","","","","","","","","","","","","","","75","K","2","","true","0","full_practice","",""
"","bandit","59","115253","0.0-32.0-8.0","87101301","wem/bandit_party_2","A1BHHRSKO2MBT3","either","2","1074","","","","","","","0","0","1","0.2","","0.5","0.5","0.5","0.5","","","","","0.8","0.2","0.6","0.2","","","","","","","","","","74","J","1","","true","0","full_practice","",""
"","bandit","60","116893","0.0-32.0-9.0","87101301","wem/bandit_party_2","A1BHHRSKO2MBT3","either","2","123","","","","","","","0","0","1","0.2","","0.5","0.5","0.5","0.5","","","","","0.8","0.2","0.6","0.2","","","","","","","","","","74","J","1","","true","0","full_practice","",""
"","bandit","61","118493","0.0-32.0-10.0","87101301","wem/bandit_party_2","A1BHHRSKO2MBT3","either","2","87","","","","","","","1","0","0","0.6","","0.5","0.5","0.5","0.5","","","","","0.8","0.2","0.6","0.2","","","","","","","","","","75","K","2","","true","0","full_practice","",""
"","bandit","62","120119","0.0-32.0-11.0","87101301","wem/bandit_party_2","A1BHHRSKO2MBT3","either","2","109","","","","","","","1","0","0","0.6","","0.5","0.5","0.5","0.5","","","","","0.8","0.2","0.6","0.2","","","","","","","","","","75","K","2","","true","0","full_practice","",""
"","bandit","63","121691","0.0-32.0-12.0","87101301","wem/bandit_party_2","A1BHHRSKO2MBT3","either","2","61","","","","","","","1","0","0","0.8","","0.5","0.5","0.5","0.5","","","","","0.8","0.2","0.6","0.2","","","","","","","","","","72","H","0","img/none_selected.jpg","true","0","full_practice","",""
"","bandit","64","123214","0.0-32.0-13.0","87101301","wem/bandit_party_2","A1BHHRSKO2MBT3","either","2","10","","","","","","","1","0","0","0.8","","0.5","0.5","0.5","0.5","","","","","0.8","0.2","0.6","0.2","","","","","","","","","","72","H","0","img/none_selected.jpg","true","0","full_practice","",""
"","bandit","65","125154","0.0-32.0-14.0","87101301","wem/bandit_party_2","A1BHHRSKO2MBT3","either","2","426","","","","","","","0","0","1","","0.2","0.5","0.5","0.5","0.5","0.8","0.2","0.6","0.2","","","","","","","","","","","","","","74","J","1","","true","0","full_practice","",""
"","bandit","66","126693","0.0-32.0-15.0","87101301","wem/bandit_party_2","A1BHHRSKO2MBT3","either","2","15","","","","","","","1","0","0","0.2","","0.5","0.5","0.5","0.5","","","","","0.8","0.2","0.6","0.2","","","","","","","","","","74","J","1","","true","0","full_practice","",""
"","bandit","67","128233","0.0-32.0-16.0","87101301","wem/bandit_party_2","A1BHHRSKO2MBT3","either","2","24","","","","","","","1","0","0","0.8","","0.5","0.5","0.5","0.5","","","","","0.8","0.2","0.6","0.2","","","","","","","","","","72","H","0","img/none_selected.jpg","true","0","full_practice","",""
"","bandit","68","129926","0.0-32.0-17.0","87101301","wem/bandit_party_2","A1BHHRSKO2MBT3","either","2","179","","","","","","","0","1","0","","0.8","0.5","0.5","0.5","0.5","0.8","0.2","0.6","0.2","","","","","","","","","","","","","","72","H","0","img/none_selected.jpg","true","0","full_practice","",""
"","bandit","69","131552","0.0-32.0-18.0","87101301","wem/bandit_party_2","A1BHHRSKO2MBT3","either","2","114","","","","","","","0","1","0","","0.8","0.5","0.5","0.5","0.5","0.8","0.2","0.6","0.2","","","","","","","","","","","","","","72","H","0","img/none_selected.jpg","true","0","full_practice","",""
"","bandit","70","133127","0.0-32.0-19.0","87101301","wem/bandit_party_2","A1BHHRSKO2MBT3","either","2","61","","","","","","","0","1","0","","0.8","0.5","0.5","0.5","0.5","0.8","0.2","0.6","0.2","","","","","","","","","","","","","","72","H","0","img/none_selected.jpg","true","0","full_practice","",""
"","text","71","152903","0.0-33.0","87101301","wem/bandit_party_2","A1BHHRSKO2MBT3","either","2","19767","","","32","","","","","","","","","","","","","","","","","","","","","","","","","","","","","","","","","","","","","",""
"","text-replacement","72","155036","0.0-34.0","87101301","wem/bandit_party_2","A1BHHRSKO2MBT3","either","2","1127","","","32","","","","","","","","","","","","","","","","","","","","","","","","","","","","","","","","","","","","","",""
"","text-replacement","73","155530","0.0-35.0","87101301","wem/bandit_party_2","A1BHHRSKO2MBT3","either","2","490","","","32","","","","","","","","","","","","","","","","","","","","","","","","","","","","","","","","","","","","","",""
"","text-replacement","74","155881","0.0-36.0","87101301","wem/bandit_party_2","A1BHHRSKO2MBT3","either","2","348","","","32","","","","","","","","","","","","","","","","","","","","","","","","","","","","","","","","","","","","","",""
"","text-replacement","75","156231","0.0-37.0","87101301","wem/bandit_party_2","A1BHHRSKO2MBT3","either","2","344","","","32","","","","","","","","","","","","","","","","","","","","","","","","","","","","","","","","","","","","","",""
"","text-replacement","76","156521","0.0-38.0","87101301","wem/bandit_party_2","A1BHHRSKO2MBT3","either","2","287","","","32","","","","","","","","","","","","","","","","","","","","","","","","","","","","","","","","","","","","","",""
"","survey-multi-choice-replacement","77","162826","0.0-39.0-0.0","87101301","wem/bandit_party_2","A1BHHRSKO2MBT3","either","2","6289","","","","","","","","","","","","","","","","","","","","","","","","Money will be added to the pool for <span style='color:blue;'>DEMOCRATS</span>","","","","","","","attn_check","","","","","","","","","0",""
"","survey-multi-choice-replacement","78","172655","0.0-40.0-0.0","87101301","wem/bandit_party_2","A1BHHRSKO2MBT3","either","2","8810","","","","","","","","","","","","","","","","","","","","","","","","No money will be added to either pool","","","","","","","attn_check","","","","","","","","","3",""
"","instructions","79","175236","0.0-40.0-1.0-0.0","87101301","wem/bandit_party_2","A1BHHRSKO2MBT3","either","2","1573","","","","","","","","","","","","","","","","","","","","","","","","","","","","","","","","","","","","","","","","","[{""page_index"":0,""viewing_time"":1571}]"
"","survey-multi-choice-replacement","80","178464","0.0-40.1-0.1","87101301","wem/bandit_party_2","A1BHHRSKO2MBT3","either","2","2209","","","","","","","","","","","","","","","","","","","","","","","","Money will be added to the pool for <span style='color:blue;'>DEMOCRATS</span>","","","","","","","attn_check","","","","","","","","","0",""
"","instructions","81","180811","0.0-40.1-1.1-0.1","87101301","wem/bandit_party_2","A1BHHRSKO2MBT3","either","2","1343","","","","","","","","","","","","","","","","","","","","","","","","","","","","","","","","","","","","","","","","","[{""page_index"":0,""viewing_time"":1342}]"
"","survey-multi-choice-replacement","82","184164","0.0-40.2-0.2","87101301","wem/bandit_party_2","A1BHHRSKO2MBT3","either","2","2333","","","","","","","","","","","","","","","","","","","","","","","","Money will be subtracted from the pool for <span style='color:red;'>REPUBLICANS</span>","","","","","","","attn_check","","","","","","","","","1",""
"","instructions","83","186304","0.0-40.2-1.2-0.2","87101301","wem/bandit_party_2","A1BHHRSKO2MBT3","either","2","1131","","","","","","","","","","","","","","","","","","","","","","","","","","","","","","","","","","","","","","","","","[{""page_index"":0,""viewing_time"":1130}]"
"","survey-multi-choice-replacement","84","189727","0.0-40.3-0.3","87101301","wem/bandit_party_2","A1BHHRSKO2MBT3","either","2","2403","","","","","","","","","","","","","","","","","","","","","","","","No money will be added to either pool","","","","","","","attn_check","","","","","","","","","3",""
"","instructions","85","191808","0.0-40.3-1.3-0.3","87101301","wem/bandit_party_2","A1BHHRSKO2MBT3","either","2","1065","","","","","","","","","","","","","","","","","","","","","","","","","","","","","","","","","","","","","","","","","[{""page_index"":0,""viewing_time"":1064}]"
"","survey-multi-choice-replacement","86","194404","0.0-40.4-0.4","87101301","wem/bandit_party_2","A1BHHRSKO2MBT3","either","2","1579","","","","","","","","","","","","","","","","","","","","","","","","Equal amounts of money will be added to the pool for <span style='color:blue;'>DEMOCRATS</span> and subtracted from the pool for <span style='color:red;'>REPUBLICANS</span>","","","","","","","attn_check","","","","","","","","","2",""
"","survey-multi-choice-replacement","87","197773","0.0-41.0-0.0","87101301","wem/bandit_party_2","A1BHHRSKO2MBT3","either","2","2354","","","","","","","","","","","","","","","","","","","","","","","","Money will be subtracted from the pool for <span style='color:red;'>REPUBLICANS</span>","","","","","","","attn_check","","","","","","","","","1",""
"","instructions","88","200448","0.0-41.0-1.0-0.0","87101301","wem/bandit_party_2","A1BHHRSKO2MBT3","either","2","1670","","","","","","","","","","","","","","","","","","","","","","","","","","","","","","","","","","","","","","","","","[{""page_index"":0,""viewing_time"":1669}]"
"","survey-multi-choice-replacement","89","204383","0.0-41.1-0.1","87101301","wem/bandit_party_2","A1BHHRSKO2MBT3","either","2","2915","","","","","","","","","","","","","","","","","","","","","","","","No money will be added to either pool","","","","","","","attn_check","","","","","","","","","3",""
"","bandit","90","208298","0.0-42.0-0.0","87101301","wem/bandit_party_2","A1BHHRSKO2MBT3","either","2","1398","","","","","","","1","0","0","0.7092854079","","0.8","0.6","0.4","0.2","","","","","0.4841938304","0.7092854079","0.9925337928","0.7961415707","","","","","","","","","","74","J","1","","","1","main_expt","",""
"","bandit","91","210666","0.0-43.0-0.0","87101301","wem/bandit_party_2","A1BHHRSKO2MBT3","either","2","854","","","","","","","1","0","0","0.7343230146","","0.8","0.6","0.4","0.2","","","","","0.5300888233","0.7343230146","0.9909612399","0.7739630809","","","","","","","","","","74","J","1","","","2","main_expt","",""
"","bandit","92","212601","0.0-44.0-0.0","87101301","wem/bandit_party_2","A1BHHRSKO2MBT3","either","2","422","","","","","","","0","0","1","0.7616266478","","0.8","0.6","0.4","0.2","","","","","0.4747636274","0.7616266478","0.9875934203","0.807852523","","","","","","","","","","74","J","1","","","3","main_expt","",""
"","bandit","93","214832","0.0-45.0-0.0","87101301","wem/bandit_party_2","A1BHHRSKO2MBT3","either","2","720","","","","","","","1","0","0","0.7555889459","","0.8","0.6","0.4","0.2","","","","","0.4841015375","0.7555889459","0.9782241123","0.7922386472","","","","","","","","","","74","J","1","","","4","main_expt","",""
"","bandit","94","216403","0.0-46.0-0.0","87101301","wem/bandit_party_2","A1BHHRSKO2MBT3","either","2","56","","","","","","","0","1","0","","0.733520678","0.8","0.6","0.4","0.2","0.5545204825","0.733520678","0.9756627961","0.865094385","","","","","","","","","","","","","","74","J","1","","","5","main_expt","",""
"","bandit","95","217949","0.0-47.0-0.0","87101301","wem/bandit_party_2","A1BHHRSKO2MBT3","either","2","26","","","","","","","1","0","0","0.6705264102","","0.8","0.6","0.4","0.2","","","","","0.6032406034","0.6705264102","0.967089612","0.800956518","","","","","","","","","","74","J","1","","","6","main_expt","",""
"","bandit","96","219615","0.0-48.0-0.0","87101301","wem/bandit_party_2","A1BHHRSKO2MBT3","either","2","159","","","","","","","1","0","0","0.6395389268","","0.8","0.6","0.4","0.2","","","","","0.6629125932","0.6395389268","0.9581374084","0.826484282","","","","","","","","","","74","J","1","","","7","main_expt","",""
"","bandit","97","221284","0.0-49.0-0.0","87101301","wem/bandit_party_2","A1BHHRSKO2MBT3","either","2","159","","","","","","","0","1","0","","0.6463283336","0.8","0.6","0.4","0.2","0.6179372523","0.6463283336","0.9470057872","0.8721258401","","","","","","","","","","","","","","74","J","1","","","8","main_expt","",""
"","bandit","98","227447","0.0-50.0-0.0","87101301","wem/bandit_party_2","A1BHHRSKO2MBT3","either","2","4646","","","","","","","1","0","0","0.7126464358","","0.8","0.6","0.4","0.2","","","","","0.7126464358","0.5257156782","0.9776699295","0.9123847657","","","","","","","","","","72","H","0","img/none_selected.jpg","","9","main_expt","",""
"","bandit","99","228971","0.0-51.0-0.0","87101301","wem/bandit_party_2","A1BHHRSKO2MBT3","either","2","10","","","","","","","1","0","0","0.7356985298","","0.8","0.6","0.4","0.2","","","","","0.7356985298","0.4763364632","0.9728878591","0.8996742502","","","","","","","","","","72","H","0","img/none_selected.jpg","","10","main_expt","",""
"","bandit","100","231046","0.0-52.0-0.0","87101301","wem/bandit_party_2","A1BHHRSKO2MBT3","either","2","555","","","","","","","0","0","1","","0.768711937","0.8","0.6","0.4","0.2","0.768711937","0.4284616273","0.9593139104","0.9131723876","","","","","","","","","","","","","","72","H","0","img/none_selected.jpg","","11","main_expt","",""
"","bandit","101","233049","0.0-53.0-0.0","87101301","wem/bandit_party_2","A1BHHRSKO2MBT3","either","2","488","","","","","","","0","0","1","0.775032537","","0.8","0.6","0.4","0.2","","","","","0.775032537","0.3846657661","0.9498917819","0.8766857583","","","","","","","","","","72","H","0","img/none_selected.jpg","","12","main_expt","",""
"","bandit","102","234625","0.0-54.0-0.0","87101301","wem/bandit_party_2","A1BHHRSKO2MBT3","either","2","60","","","","","","","1","0","0","0.8005481332","","0.8","0.6","0.4","0.2","","","","","0.8005481332","0.4534267517","0.9541602679","0.8395211377","","","","","","","","","","72","H","0","img/none_selected.jpg","","13","main_expt","",""
"","bandit","103","236217","0.0-55.0-0.0","87101301","wem/bandit_party_2","A1BHHRSKO2MBT3","either","2","75","","","","","","","0","0","1","","0.8437703121","0.8","0.6","0.4","0.2","0.8437703121","0.5781166702","0.9457654821","0.8716273459","","","","","","","","","","","","","","72","H","0","img/none_selected.jpg","","14","main_expt","",""
"","bandit","104","237892","0.0-56.0-0.0","87101301","wem/bandit_party_2","A1BHHRSKO2MBT3","either","2","161","","","","","","","1","0","0","0.7878475566","","0.8","0.6","0.4","0.2","","","","","0.7878475566","0.6683268695","0.961431504","0.8884181174","","","","","","","","","","72","H","0","img/none_selected.jpg","","15","main_expt","",""
"","bandit","105","239492","0.0-57.0-0.0","87101301","wem/bandit_party_2","A1BHHRSKO2MBT3","either","2","89","","","","","","","0","1","0","","0.7873795395","0.8","0.6","0.4","0.2","0.7873795395","0.6948649322","0.9614480804","0.9144873871","","","","","","","","","","","","","","72","H","0","img/none_selected.jpg","","16","main_expt","",""
"","bandit","106","241111","0.0-58.0-0.0","87101301","wem/bandit_party_2","A1BHHRSKO2MBT3","either","2","104","","","","","","","1","0","0","0.8084550093","","0.8","0.6","0.4","0.2","","","","","0.8084550093","0.7674725463","0.981184269","0.915766025","","","","","","","","","","72","H","0","img/none_selected.jpg","","17","main_expt","",""
"","bandit","107","243913","0.0-59.0-0.0","87101301","wem/bandit_party_2","A1BHHRSKO2MBT3","either","2","1288","","","","","","","0","1","0","","0.8436933745","0.8","0.6","0.4","0.2","0.8436933745","0.7706733977","0.9861919244","0.9357816117","","","","","","","","","","","","","","72","H","0","img/none_selected.jpg","","18","main_expt","",""
"","bandit","108","245611","0.0-60.0-0.0","87101301","wem/bandit_party_2","A1BHHRSKO2MBT3","either","2","180","","","","","","","1","0","0","0.7396491891","","0.8","0.6","0.4","0.2","","","","","0.8059530903","0.7396491891","0.986789567","0.9482019282","","","","","","","","","","74","J","1","","","19","main_expt","",""
"","bandit","109","247481","0.0-61.0-0.0","87101301","wem/bandit_party_2","A1BHHRSKO2MBT3","either","2","355","","","","","","","0","0","1","0.6712916173","","0.8","0.6","0.4","0.2","","","","","0.7839513496","0.6712916173","0.986183881","0.9433726768","","","","","","","","","","74","J","1","","","20","main_expt","",""
"","bandit","110","249167","0.0-62.0-0.0","87101301","wem/bandit_party_2","A1BHHRSKO2MBT3","either","2","167","","","","","","","1","0","0","0.6728887443","","0.8","0.6","0.4","0.2","","","","","0.7841815244","0.6728887443","0.9887099493","0.9488284628","","","","","","","","","","74","J","1","","","21","main_expt","",""
"","bandit","111","250948","0.0-63.0-0.0","87101301","wem/bandit_party_2","A1BHHRSKO2MBT3","either","2","267","","","","","","","1","0","0","0.992558567","","0.8","0.6","0.4","0.2","","","","","0.8256278583","0.7838502077","0.992558567","0.9500515088","","","","","","","","","","75","K","2","","","22","main_expt","",""
"","bandit","112","252468","0.0-64.0-0.0","87101301","wem/bandit_party_2","A1BHHRSKO2MBT3","either","2","1","","","","","","","0","1","0","","0.9906074595","0.8","0.6","0.4","0.2","0.7043778873","0.8711917965","0.9906074595","0.9645760881","","","","","","","","","","","","","","75","K","2","","","23","main_expt","",""
"","bandit","113","254308","0.0-65.0-0.0","87101301","wem/bandit_party_2","A1BHHRSKO2MBT3","either","2","328","","","","","","","1","0","0","0.9828703082","","0.8","0.6","0.4","0.2","","","","","0.7662705475","0.861124964","0.9828703082","0.946785539","","","","","","","","","","75","K","2","","","24","main_expt","",""
"","bandit","114","256062","0.0-66.0-0.0","87101301","wem/bandit_party_2","A1BHHRSKO2MBT3","either","2","242","","","","","","","1","0","0","0.984618899","","0.8","0.6","0.4","0.2","","","","","0.6915147264","0.8551403996","0.984618899","0.9229473608","","","","","","","","","","75","K","2","","","25","main_expt","",""
"","bandit","115","257672","0.0-67.0-0.0","87101301","wem/bandit_party_2","A1BHHRSKO2MBT3","either","2","96","","","","","","","0","1","0","","0.9780938917","0.8","0.6","0.4","0.2","0.6844606422","0.8959771014","0.9780938917","0.8729820127","","","","","","","","","","","","","","75","K","2","","","26","main_expt","",""
"","bandit","116","259535","0.0-68.0-0.0","87101301","wem/bandit_party_2","A1BHHRSKO2MBT3","either","2","349","","","","","","","0","0","1","","0.8786292531","0.8","0.6","0.4","0.2","0.7953701942","0.8786292531","0.9634866904","0.859067388","","","","","","","","","","","","","","74","J","1","","","27","main_expt","",""
"","bandit","117","261156","0.0-69.0-0.0","87101301","wem/bandit_party_2","A1BHHRSKO2MBT3","either","2","102","","","","","","","0","0","1","0.8920593834","","0.8","0.6","0.4","0.2","","","","","0.622657036","0.8920593834","0.946494378","0.836267867","","","","","","","","","","74","J","1","","","28","main_expt","",""
"","bandit","118","262734","0.0-70.0-0.0","87101301","wem/bandit_party_2","A1BHHRSKO2MBT3","either","2","65","","","","","","","0","1","0","","0.8234517222","0.8","0.6","0.4","0.2","0.5757463716","0.8234517222","0.9338647731","0.7158546556","","","","","","","","","","","","","","74","J","1","","","29","main_expt","",""
"","bandit","119","264388","0.0-71.0-0.0","87101301","wem/bandit_party_2","A1BHHRSKO2MBT3","either","2","136","","","","","","","1","0","0","0.7963444676","","0.8","0.6","0.4","0.2","","","","","0.6048158844","0.7963444676","0.9354801528","0.7262950886","","","","","","","","","","74","J","1","","","30","main_expt","",""
"","bandit","120","266041","0.0-72.0-0.0","87101301","wem/bandit_party_2","A1BHHRSKO2MBT3","either","2","136","","","","","","","0","1","0","","0.6847131082","0.8","0.6","0.4","0.2","0.4831208743","0.6847131082","0.9323861487","0.7049485024","","","","","","","","","","","","","","74","J","1","","","31","main_expt","",""
"","bandit","121","267772","0.0-73.0-0.0","87101301","wem/bandit_party_2","A1BHHRSKO2MBT3","either","2","214","","","","","","","0","0","1","","0.7745616343","0.8","0.6","0.4","0.2","0.4413454117","0.7745616343","0.9159531952","0.6294605358","","","","","","","","","","","","","","74","J","1","","","32","main_expt","",""
"","bandit","122","269785","0.0-74.0-0.0","87101301","wem/bandit_party_2","A1BHHRSKO2MBT3","either","2","494","","","","","","","1","0","0","0.589686364","","0.8","0.6","0.4","0.2","","","","","0.589686364","0.8111568365","0.9501333659","0.7097184707","","","","","","","","","","72","H","0","img/none_selected.jpg","","33","main_expt","",""
"","bandit","123","271488","0.0-75.0-0.0","87101301","wem/bandit_party_2","A1BHHRSKO2MBT3","either","2","185","","","","","","","0","0","1","0.5789977489","","0.8","0.6","0.4","0.2","","","","","0.5789977489","0.7291364049","0.9485118263","0.6324728327","","","","","","","","","","72","H","0","img/none_selected.jpg","","34","main_expt","",""
"","bandit","124","273212","0.0-76.0-0.0","87101301","wem/bandit_party_2","A1BHHRSKO2MBT3","either","2","206","","","","","","","0","0","1","0.5605822786","","0.8","0.6","0.4","0.2","","","","","0.5605822786","0.7920219322","0.959491173","0.6809104991","","","","","","","","","","72","H","0","img/none_selected.jpg","","35","main_expt","",""
"","bandit","125","274846","0.0-77.0-0.0","87101301","wem/bandit_party_2","A1BHHRSKO2MBT3","either","2","120","","","","","","","1","0","0","0.3330948712","","0.8","0.6","0.4","0.2","","","","","0.3330948712","0.7889809596","0.9523687656","0.5745256001","","","","","","","","","","72","H","0","img/none_selected.jpg","","36","main_expt","",""
"","bandit","126","276709","0.0-78.0-0.0","87101301","wem/bandit_party_2","A1BHHRSKO2MBT3","either","2","346","","","","","","","0","0","1","0.2430176499","","0.8","0.6","0.4","0.2","","","","","0.2430176499","0.8060385269","0.9504344127","0.6249275122","","","","","","","","","","72","H","0","img/none_selected.jpg","","37","main_expt","",""
"","bandit","127","278484","0.0-79.0-0.0","87101301","wem/bandit_party_2","A1BHHRSKO2MBT3","either","2","263","","","","","","","1","0","0","0.7188782676","","0.8","0.6","0.4","0.2","","","","","0.3106083343","0.7188782676","0.9321408283","0.5582777804","","","","","","","","","","74","J","1","","","38","main_expt","",""
"","bandit","128","280089","0.0-80.0-0.0","87101301","wem/bandit_party_2","A1BHHRSKO2MBT3","either","2","82","","","","","","","0","1","0","","0.7387945131","0.8","0.6","0.4","0.2","0.3239447463","0.7387945131","0.9135525369","0.6619895395","","","","","","","","","","","","","","74","J","1","","","39","main_expt","",""
"","bandit","129","281794","0.0-81.0-0.0","87101301","wem/bandit_party_2","A1BHHRSKO2MBT3","either","2","190","","","","","","","0","0","1","0.7478035428","","0.8","0.6","0.4","0.2","","","","","0.2946631509","0.7478035428","0.8840916364","0.6522152691","","","","","","","","","","74","J","1","","","40","main_expt","",""
"","bandit","130","283425","0.0-82.0-0.0","87101301","wem/bandit_party_2","A1BHHRSKO2MBT3","either","2","118","","","","","","","1","0","0","0.7802386085","","0.8","0.6","0.4","0.2","","","","","0.193597671","0.7802386085","0.8747037504","0.6714070371","","","","","","","","","","74","J","1","","","41","main_expt","",""
"","bandit","131","285253","0.0-83.0-0.0","87101301","wem/bandit_party_2","A1BHHRSKO2MBT3","either","2","312","","","","","","","1","0","0","0.7994277013","","0.8","0.6","0.4","0.2","","","","","0.1834529884","0.7994277013","0.826315498","0.6390104416","","","","","","","","","","74","J","1","","","42","main_expt","",""
"","bandit","132","287023","0.0-84.0-0.0","87101301","wem/bandit_party_2","A1BHHRSKO2MBT3","either","2","256","","","","","","","0","1","0","","0.8718069658","0.8","0.6","0.4","0.2","0.1558663495","0.8718069658","0.7681371561","0.6318841448","","","","","","","","","","","","","","74","J","1","","","43","main_expt","",""
"","bandit","133","288543","0.0-85.0-0.0","87101301","wem/bandit_party_2","A1BHHRSKO2MBT3","either","2","0","","","","","","","0","0","1","0.7725207311","","0.8","0.6","0.4","0.2","","","","","0.1573065196","0.7725207311","0.7584360225","0.5708139437","","","","","","","","","","74","J","1","","","44","main_expt","",""
"","bandit","134","290204","0.0-86.0-0.0","87101301","wem/bandit_party_2","A1BHHRSKO2MBT3","either","2","144","","","","","","","0","1","0","","0.816959585","0.8","0.6","0.4","0.2","0.1743203636","0.8399140445","0.816959585","0.5703812278","","","","","","","","","","","","","","75","K","2","","","45","main_expt","",""
"","bandit","135","291967","0.0-87.0-0.0","87101301","wem/bandit_party_2","A1BHHRSKO2MBT3","either","2","246","","","","","","","1","0","0","0.7830678696","","0.8","0.6","0.4","0.2","","","","","0.1234040722","0.7830678696","0.7571269921","0.4520700595","","","","","","","","","","74","J","1","","","46","main_expt","",""
"","bandit","136","293625","0.0-88.0-0.0","87101301","wem/bandit_party_2","A1BHHRSKO2MBT3","either","2","140","","","","","","","0","1","0","","0.7086567283","0.8","0.6","0.4","0.2","0.1592846429","0.8255209912","0.7086567283","0.4953600952","","","","","","","","","","","","","","75","K","2","","","47","main_expt","",""
"","bandit","137","295273","0.0-89.0-0.0","87101301","wem/bandit_party_2","A1BHHRSKO2MBT3","either","2","133","","","","","","","0","0","1","","0.6428227569","0.8","0.6","0.4","0.2","0.1880090658","0.7728754614","0.6428227569","0.4912921637","","","","","","","","","","","","","","75","K","2","","","48","main_expt","",""
"","bandit","138","296974","0.0-90.0-0.0","87101301","wem/bandit_party_2","A1BHHRSKO2MBT3","either","2","186","","","","","","","1","0","0","0.7004196772","","0.8","0.6","0.4","0.2","","","","","0.3190576765","0.8607162984","0.7004196772","0.4694413912","","","","","","","","","","75","K","2","","","49","main_expt","",""
"","bandit","139","298671","0.0-91.0-0.0","87101301","wem/bandit_party_2","A1BHHRSKO2MBT3","either","2","182","","","","","","","0","1","0","","0.6418514465","0.8","0.6","0.4","0.2","0.277770718","0.8526113732","0.6418514465","0.5835687148","","","","","","","","","","","","","","75","K","2","","","50","main_expt","",""
"","bandit","140","300416","0.0-92.0-0.0","87101301","wem/bandit_party_2","A1BHHRSKO2MBT3","either","2","229","","","","","","","0","1","0","","0.8630835666","0.8","0.6","0.4","0.2","0.3304163056","0.8630835666","0.6322169777","0.581499138","","","","","","","","","","","","","","74","J","1","","","51","main_expt","",""
"","bandit","141","302030","0.0-93.0-0.0","87101301","wem/bandit_party_2","A1BHHRSKO2MBT3","either","2","96","","","","","","","1","0","0","0.8689990829","","0.8","0.6","0.4","0.2","","","","","0.3074301744","0.8689990829","0.6160259873","0.6521379128","","","","","","","","","","74","J","1","","","52","main_expt","",""
"","bandit","142","303598","0.0-94.0-0.0","87101301","wem/bandit_party_2","A1BHHRSKO2MBT3","either","2","57","","","","","","","0","1","0","","0.6635838846","0.8","0.6","0.4","0.2","0.3292402402","0.8829627288","0.6635838846","0.5743957808","","","","","","","","","","","","","","75","K","2","","","53","main_expt","",""
"","bandit","143","305117","0.0-95.0-0.0","87101301","wem/bandit_party_2","A1BHHRSKO2MBT3","either","2","6","","","","","","","0","0","1","","0.7334380463","0.8","0.6","0.4","0.2","0.3701383524","0.8577096669","0.7334380463","0.4765250731","","","","","","","","","","","","","","75","K","2","","","54","main_expt","",""
"","bandit","144","306804","0.0-96.0-0.0","87101301","wem/bandit_party_2","A1BHHRSKO2MBT3","either","2","170","","","","","","","1","0","0","0.7951355038","","0.8","0.6","0.4","0.2","","","","","0.4023440482","0.7951355038","0.6625049704","0.472038817","","","","","","","","","","74","J","1","","","55","main_expt","",""
"","bandit","145","309048","0.0-97.0-0.0","87101301","wem/bandit_party_2","A1BHHRSKO2MBT3","either","2","724","","","","","","","1","0","0","0.7832403428","","0.8","0.6","0.4","0.2","","","","","0.3320470731","0.7832403428","0.6244126183","0.6060805283","","","","","","","","","","74","J","1","","","56","main_expt","",""
"","bandit","146","310674","0.0-98.0-0.0","87101301","wem/bandit_party_2","A1BHHRSKO2MBT3","either","2","107","","","","","","","0","1","0","","0.7165346004","0.8","0.6","0.4","0.2","0.3398704556","0.7165346004","0.693445159","0.5733746242","","","","","","","","","","","","","","74","J","1","","","57","main_expt","",""
"","bandit","147","312324","0.0-99.0-0.0","87101301","wem/bandit_party_2","A1BHHRSKO2MBT3","either","2","138","","","","","","","0","0","1","0.7840704931","","0.8","0.6","0.4","0.2","","","","","0.3171476707","0.7840704931","0.6603141298","0.5268086549","","","","","","","","","","74","J","1","","","58","main_expt","",""
"","bandit","148","314057","0.0-100.0-0.0","87101301","wem/bandit_party_2","A1BHHRSKO2MBT3","either","2","217","","","","","","","1","0","0","0.7166558068","","0.8","0.6","0.4","0.2","","","","","0.1868584885","0.7166558068","0.6435133917","0.5298916697","","","","","","","","","","74","J","1","","","59","main_expt","",""
"","bandit","149","315615","0.0-101.0-0.0","87101301","wem/bandit_party_2","A1BHHRSKO2MBT3","either","2","41","","","","","","","0","1","0","","0.6720075741","0.8","0.6","0.4","0.2","0.2163153633","0.6505055492","0.6720075741","0.5547432704","","","","","","","","","","","","","","75","K","2","","","60","main_expt","",""
"","bandit","150","317249","0.0-102.0-0.0","87101301","wem/bandit_party_2","A1BHHRSKO2MBT3","either","2","112","","","","","","","1","0","0","0.6703611074","","0.8","0.6","0.4","0.2","","","","","0.2086512551","0.6465946667","0.6703611074","0.5407031957","","","","","","","","","","75","K","2","","","61","main_expt","",""
"","bandit","151","319131","0.0-103.0-0.0","87101301","wem/bandit_party_2","A1BHHRSKO2MBT3","either","2","363","","","","","","","0","0","1","0.709990362","","0.8","0.6","0.4","0.2","","","","","0.2250062338","0.709990362","0.64477312","0.6993449034","","","","","","","","","","74","J","1","","","62","main_expt","",""
"","bandit","152","320772","0.0-104.0-0.0","87101301","wem/bandit_party_2","A1BHHRSKO2MBT3","either","2","125","","","","","","","0","1","0","","0.7542168012","0.8","0.6","0.4","0.2","0.2739380208","0.7542168012","0.509049177","0.6342967703","","","","","","","","","","","","","","74","J","1","","","63","main_expt","",""
"","bandit","153","322465","0.0-105.0-0.0","87101301","wem/bandit_party_2","A1BHHRSKO2MBT3","either","2","180","","","","","","","1","0","0","0.7660604158","","0.8","0.6","0.4","0.2","","","","","0.3449536465","0.7660604158","0.5535424332","0.5961490325","","","","","","","","","","74","J","1","","","64","main_expt","",""
"","bandit","154","324159","0.0-106.0-0.0","87101301","wem/bandit_party_2","A1BHHRSKO2MBT3","either","2","180","","","","","","","0","1","0","","0.7572602099","0.8","0.6","0.4","0.2","0.34640195","0.7572602099","0.6608621899","0.5771190674","","","","","","","","","","","","","","74","J","1","","","65","main_expt","",""
"","bandit","155","325931","0.0-107.0-0.0","87101301","wem/bandit_party_2","A1BHHRSKO2MBT3","either","2","252","","","","","","","0","0","1","0.686926195","","0.8","0.6","0.4","0.2","","","","","0.5266288285","0.686926195","0.6535341977","0.4765921407","","","","","","","","","","74","J","1","","","66","main_expt","",""
"","bandit","156","327646","0.0-108.0-0.0","87101301","wem/bandit_party_2","A1BHHRSKO2MBT3","either","2","200","","","","","","","0","0","1","0.7334195653","","0.8","0.6","0.4","0.2","","","","","0.5588671697","0.7334195653","0.6592628399","0.5714361875","","","","","","","","","","74","J","1","","","67","main_expt","",""
"","bandit","157","329226","0.0-109.0-0.0","87101301","wem/bandit_party_2","A1BHHRSKO2MBT3","either","2","68","","","","","","","0","0","1","0.6114245881","","0.8","0.6","0.4","0.2","","","","","0.6097536784","0.6114245881","0.6735013879","0.6231829193","","","","","","","","","","74","J","1","","","68","main_expt","",""
"","bandit","158","330831","0.0-110.0-0.0","87101301","wem/bandit_party_2","A1BHHRSKO2MBT3","either","2","85","","","","","","","0","0","1","","0.6460921668","0.8","0.6","0.4","0.2","0.533457584","0.6460921668","0.7209687993","0.5130256365","","","","","","","","","","","","","","74","J","1","","","69","main_expt","",""
"","bandit","159","332406","0.0-111.0-0.0","87101301","wem/bandit_party_2","A1BHHRSKO2MBT3","either","2","58","","","","","","","0","0","1","0.4124750721","","0.8","0.6","0.4","0.2","","","","","0.4124750721","0.6700702736","0.690528825","0.5167166","","","","","","","","","","72","H","0","img/none_selected.jpg","","70","main_expt","",""
"","bandit","160","334145","0.0-112.0-0.0","87101301","wem/bandit_party_2","A1BHHRSKO2MBT3","either","2","222","","","","","","","1","0","0","0.4486526525","","0.8","0.6","0.4","0.2","","","","","0.4486526525","0.6388012411","0.6453310316","0.6448170737","","","","","","","","","","72","H","0","img/none_selected.jpg","","71","main_expt","",""
"","bandit","161","335770","0.0-113.0-0.0","87101301","wem/bandit_party_2","A1BHHRSKO2MBT3","either","2","107","","","","","","","0","1","0","","0.6046900378","0.8","0.6","0.4","0.2","0.4313602212","0.6046900378","0.8140348339","0.5640434706","","","","","","","","","","","","","","74","J","1","","","72","main_expt","",""
"","bandit","162","337848","0.0-114.0-0.0","87101301","wem/bandit_party_2","A1BHHRSKO2MBT3","either","2","560","","","","","","","1","0","0","0.6062428704","","0.8","0.6","0.4","0.2","","","","","0.3639072561","0.6062428704","0.820931829","0.6296110197","","","","","","","","","","74","J","1","","","73","main_expt","",""
"","bandit","163","339406","0.0-115.0-0.0","87101301","wem/bandit_party_2","A1BHHRSKO2MBT3","either","2","43","","","","","","","0","1","0","","0.6237194739","0.8","0.6","0.4","0.2","0.2882181569","0.6237194739","0.8096233945","0.6730210969","","","","","","","","","","","","","","74","J","1","","","74","main_expt","",""
"","bandit","164","341065","0.0-116.0-0.0","87101301","wem/bandit_party_2","A1BHHRSKO2MBT3","either","2","139","","","","","","","1","0","0","0.5971007372","","0.8","0.6","0.4","0.2","","","","","0.3561187133","0.5971007372","0.7615001707","0.5720403827","","","","","","","","","","74","J","1","","","75","main_expt","",""
"","bandit","165","342637","0.0-117.0-0.0","87101301","wem/bandit_party_2","A1BHHRSKO2MBT3","either","2","53","","","","","","","0","0","1","0.5810032438","","0.8","0.6","0.4","0.2","","","","","0.4480894403","0.5810032438","0.8147365981","0.6303512149","","","","","","","","","","74","J","1","","","76","main_expt","",""
"","bandit","166","344209","0.0-118.0-0.0","87101301","wem/bandit_party_2","A1BHHRSKO2MBT3","either","2","50","","","","","","","1","0","0","0.5792233978","","0.8","0.6","0.4","0.2","","","","","0.3220850356","0.5792233978","0.8926338818","0.5531797874","","","","","","","","","","74","J","1","","","77","main_expt","",""
"","bandit","167","346007","0.0-119.0-0.0","87101301","wem/bandit_party_2","A1BHHRSKO2MBT3","either","2","283","","","","","","","0","0","1","","0.692511921","0.8","0.6","0.4","0.2","0.3281133775","0.692511921","0.8669072201","0.5449672882","","","","","","","","","","","","","","74","J","1","","","78","main_expt","",""
"","bandit","168","347723","0.0-120.0-0.0","87101301","wem/bandit_party_2","A1BHHRSKO2MBT3","either","2","197","","","","","","","1","0","0","0.7019625083","","0.8","0.6","0.4","0.2","","","","","0.3814329202","0.7019625083","0.9114006046","0.4484013318","","","","","","","","","","74","J","1","","","79","main_expt","",""
"","bandit","169","349401","0.0-121.0-0.0","87101301","wem/bandit_party_2","A1BHHRSKO2MBT3","either","2","156","","","","","","","1","0","0","0.6785675641","","0.8","0.6","0.4","0.2","","","","","0.3512572076","0.6785675641","0.9268398106","0.5041425745","","","","","","","","","","74","J","1","","","80","main_expt","",""
"","bandit","170","350916","0.0-122.0-0.0","87101301","wem/bandit_party_2","A1BHHRSKO2MBT3","either","2","0","","","","","","","1","0","0","0.7101061672","","0.8","0.6","0.4","0.2","","","","","0.3624285329","0.7101061672","0.9582858862","0.3462078978","","","","","","","","","","74","J","1","","","81","main_expt","",""
"","bandit","171","352799","0.0-123.0-0.0","87101301","wem/bandit_party_2","A1BHHRSKO2MBT3","either","2","362","","","","","","","0","0","1","0.7217376576","","0.8","0.6","0.4","0.2","","","","","0.3111883408","0.7217376576","0.9590071975","0.3226795418","","","","","","","","","","74","J","1","","","82","main_expt","",""
"","bandit","172","354329","0.0-124.0-0.0","87101301","wem/bandit_party_2","A1BHHRSKO2MBT3","either","2","16","","","","","","","0","0","1","","0.243162563","0.8","0.6","0.4","0.2","0.243162563","0.6437777395","0.9379973093","0.3023868023","","","","","","","","","","","","","","72","H","0","img/none_selected.jpg","","83","main_expt","",""
"","bandit","173","355879","0.0-125.0-0.0","87101301","wem/bandit_party_2","A1BHHRSKO2MBT3","either","2","37","","","","","","","0","1","0","","0.9411979228","0.8","0.6","0.4","0.2","0.347146949","0.6533183273","0.9411979228","0.4040419094","","","","","","","","","","","","","","75","K","2","","","84","main_expt","",""
"","bandit","174","357572","0.0-126.0-0.0","87101301","wem/bandit_party_2","A1BHHRSKO2MBT3","either","2","175","","","","","","","1","0","0","0.9441700551","","0.8","0.6","0.4","0.2","","","","","0.4416309426","0.7469548387","0.9441700551","0.4716136817","","","","","","","","","","75","K","2","","","85","main_expt","",""
"","bandit","175","359339","0.0-127.0-0.0","87101301","wem/bandit_party_2","A1BHHRSKO2MBT3","either","2","249","","","","","","","1","0","0","0.9323605113","","0.8","0.6","0.4","0.2","","","","","0.4523797492","0.7366570046","0.9323605113","0.4455883603","","","","","","","","","","75","K","2","","","86","main_expt","",""
"","bandit","176","361001","0.0-128.0-0.0","87101301","wem/bandit_party_2","A1BHHRSKO2MBT3","either","2","144","","","","","","","1","0","0","0.8871332711","","0.8","0.6","0.4","0.2","","","","","0.4621103264","0.7142428019","0.8871332711","0.5952575165","","","","","","","","","","75","K","2","","","87","main_expt","",""
"","bandit","177","362652","0.0-129.0-0.0","87101301","wem/bandit_party_2","A1BHHRSKO2MBT3","either","2","133","","","","","","","1","0","0","0.8520973281","","0.8","0.6","0.4","0.2","","","","","0.3800084876","0.7057172343","0.8520973281","0.5333825583","","","","","","","","","","75","K","2","","","88","main_expt","",""
"","bandit","178","364355","0.0-130.0-0.0","87101301","wem/bandit_party_2","A1BHHRSKO2MBT3","either","2","186","","","","","","","0","1","0","","0.7882210871","0.8","0.6","0.4","0.2","0.2354372355","0.7289934888","0.7882210871","0.4583166828","","","","","","","","","","","","","","75","K","2","","","89","main_expt","",""
"","bandit","179","365983","0.0-131.0-0.0","87101301","wem/bandit_party_2","A1BHHRSKO2MBT3","either","2","2","","","","","","","0","0","1","","0.720110267","0.8","0.6","0.4","0.2","0.2978482647","0.7475354559","0.720110267","0.4782349553","","","","","","","","","","","","","","75","K","2","","","90","main_expt","",""
"","bandit","180","367718","0.0-132.0-0.0","87101301","wem/bandit_party_2","A1BHHRSKO2MBT3","either","2","218","","","","","","","0","1","0","","0.7390342074","0.8","0.6","0.4","0.2","0.3723871884","0.6316706059","0.7390342074","0.464138054","","","","","","","","","","","","","","75","K","2","","","91","main_expt","",""
"","bandit","181","369469","0.0-133.0-0.0","87101301","wem/bandit_party_2","A1BHHRSKO2MBT3","either","2","230","","","","","","","1","0","0","0.8135224625","","0.8","0.6","0.4","0.2","","","","","0.5400298203","0.6957908828","0.8135224625","0.5084128334","","","","","","","","","","75","K","2","","","92","main_expt","",""
"","bandit","182","371295","0.0-134.0-0.0","87101301","wem/bandit_party_2","A1BHHRSKO2MBT3","either","2","309","","","","","","","0","1","0","","0.7814404678","0.8","0.6","0.4","0.2","0.5134744583","0.6812665662","0.7814404678","0.5211356389","","","","","","","","","","","","","","75","K","2","","","93","main_expt","",""
"","bandit","183","373130","0.0-135.0-0.0","87101301","wem/bandit_party_2","A1BHHRSKO2MBT3","either","2","318","","","","","","","0","1","0","","0.7672416568","0.8","0.6","0.4","0.2","0.4101580275","0.6412933588","0.7672416568","0.4554037602","","","","","","","","","","","","","","75","K","2","","","94","main_expt","",""
"","bandit","184","374773","0.0-136.0-0.0","87101301","wem/bandit_party_2","A1BHHRSKO2MBT3","either","2","128","","","","","","","0","1","0","","0.7573973965","0.8","0.6","0.4","0.2","0.2995167601","0.5696630174","0.7573973965","0.4195046205","","","","","","","","","","","","","","75","K","2","","","95","main_expt","",""
"","bandit","185","376575","0.0-137.0-0.0","87101301","wem/bandit_party_2","A1BHHRSKO2MBT3","either","2","290","","","","","","","0","1","0","","0.8177369732","0.8","0.6","0.4","0.2","0.2934894425","0.6076398096","0.8177369732","0.3638478563","","","","","","","","","","","","","","75","K","2","","","96","main_expt","",""
"","bandit","186","378127","0.0-138.0-0.0","87101301","wem/bandit_party_2","A1BHHRSKO2MBT3","either","2","35","","","","","","","0","1","0","","0.8124666872","0.8","0.6","0.4","0.2","0.2802715202","0.5551612935","0.8124666872","0.2839735208","","","","","","","","","","","","","","75","K","2","","","97","main_expt","",""
"","bandit","187","379689","0.0-139.0-0.0","87101301","wem/bandit_party_2","A1BHHRSKO2MBT3","either","2","43","","","","","","","0","0","1","","0.881496875","0.8","0.6","0.4","0.2","0.2703087955","0.6354974245","0.881496875","0.2109275999","","","","","","","","","","","","","","75","K","2","","","98","main_expt","",""
"","bandit","188","381472","0.0-140.0-0.0","87101301","wem/bandit_party_2","A1BHHRSKO2MBT3","either","2","260","","","","","","","0","1","0","","0.8785981907","0.8","0.6","0.4","0.2","0.3027543159","0.5945745664","0.8785981907","0.1531506719","","","","","","","","","","","","","","75","K","2","","","99","main_expt","",""
"","bandit","189","383319","0.0-141.0-0.0","87101301","wem/bandit_party_2","A1BHHRSKO2MBT3","either","2","331","","","","","","","1","0","0","0.8494581726","","0.8","0.6","0.4","0.2","","","","","0.3645318829","0.5679097985","0.8494581726","0.1262108991","","","","","","","","","","75","K","2","","","100","main_expt","",""
"","bandit","190","387294","0.0-142.0-0.0","87101301","wem/bandit_party_2","A1BHHRSKO2MBT3","either","2","2460","","","","","","","0","0","1","0.7754784616","","0.8","0.6","0.4","0.2","","","","","0.4315832637","0.6430580454","0.7754784616","0.1340220502","","","","","","","","","","75","K","2","","","101","main_expt","",""
"","bandit","191","389086","0.0-143.0-0.0","87101301","wem/bandit_party_2","A1BHHRSKO2MBT3","either","2","270","","","","","","","0","1","0","","0.7626736499","0.8","0.6","0.4","0.2","0.3608531129","0.6340200926","0.7626736499","0.2167126086","","","","","","","","","","","","","","75","K","2","","","102","main_expt","",""
"","bandit","192","390829","0.0-144.0-0.0","87101301","wem/bandit_party_2","A1BHHRSKO2MBT3","either","2","226","","","","","","","0","0","1","0.7329996306","","0.8","0.6","0.4","0.2","","","","","0.3688981903","0.6377668076","0.7329996306","0.2796352144","","","","","","","","","","75","K","2","","","103","main_expt","",""
"","bandit","193","392463","0.0-145.0-0.0","87101301","wem/bandit_party_2","A1BHHRSKO2MBT3","either","2","118","","","","","","","0","1","0","","0.7467689404","0.8","0.6","0.4","0.2","0.3758155051","0.6578341575","0.7467689404","0.3556406549","","","","","","","","","","","","","","75","K","2","","","104","main_expt","",""
"","bandit","194","394184","0.0-146.0-0.0","87101301","wem/bandit_party_2","A1BHHRSKO2MBT3","either","2","200","","","","","","","0","0","1","0.6727034752","","0.8","0.6","0.4","0.2","","","","","0.4508947075","0.6727034752","0.737018723","0.3233911601","","","","","","","","","","74","J","1","","","105","main_expt","",""
"","bandit","195","396081","0.0-147.0-0.0","87101301","wem/bandit_party_2","A1BHHRSKO2MBT3","either","2","381","","","","","","","1","0","0","0.6386482702","","0.8","0.6","0.4","0.2","","","","","0.4132181144","0.6386482702","0.655194185","0.2024631506","","","","","","","","","","74","J","1","","","106","main_expt","",""
"","bandit","196","397842","0.0-148.0-0.0","87101301","wem/bandit_party_2","A1BHHRSKO2MBT3","either","2","241","","","","","","","1","0","0","0.6788938686","","0.8","0.6","0.4","0.2","","","","","0.4393512677","0.6788938686","0.7122819559","0.2290393164","","","","","","","","","","74","J","1","","","107","main_expt","",""
"","bandit","197","399515","0.0-149.0-0.0","87101301","wem/bandit_party_2","A1BHHRSKO2MBT3","either","2","154","","","","","","","1","0","0","0.7076498576","","0.8","0.6","0.4","0.2","","","","","0.4964319729","0.7076498576","0.7326995505","0.2217712157","","","","","","","","","","74","J","1","","","108","main_expt","",""
"","bandit","198","401346","0.0-150.0-0.0","87101301","wem/bandit_party_2","A1BHHRSKO2MBT3","either","2","312","","","","","","","0","0","1","","0.6932550908","0.8","0.6","0.4","0.2","0.4790921069","0.6932550908","0.7165499475","0.1566860935","","","","","","","","","","","","","","74","J","1","","","109","main_expt","",""
"","bandit","199","403211","0.0-151.0-0.0","87101301","wem/bandit_party_2","A1BHHRSKO2MBT3","either","2","348","","","","","","","1","0","0","0.7436061547","","0.8","0.6","0.4","0.2","","","","","0.5856434505","0.7436061547","0.6058017554","0.1083987113","","","","","","","","","","74","J","1","","","110","main_expt","",""
"","bandit","200","404932","0.0-152.0-0.0","87101301","wem/bandit_party_2","A1BHHRSKO2MBT3","either","2","203","","","","","","","1","0","0","0.657194241","","0.8","0.6","0.4","0.2","","","","","0.6444230696","0.657194241","0.5476823758","0.217828795","","","","","","","","","","74","J","1","","","111","main_expt","",""
"","bandit","201","406554","0.0-153.0-0.0","87101301","wem/bandit_party_2","A1BHHRSKO2MBT3","either","2","104","","","","","","","0","0","1","0.6317228327","","0.8","0.6","0.4","0.2","","","","","0.603417252","0.6317228327","0.5688313193","0.2212119155","","","","","","","","","","74","J","1","","","112","main_expt","",""
"","bandit","202","408142","0.0-154.0-0.0","87101301","wem/bandit_party_2","A1BHHRSKO2MBT3","either","2","70","","","","","","","1","0","0","0.4985892417","","0.8","0.6","0.4","0.2","","","","","0.420613871","0.4985892417","0.50852785","0.2374112476","","","","","","","","","","74","J","1","","","113","main_expt","",""
"","bandit","203","409807","0.0-155.0-0.0","87101301","wem/bandit_party_2","A1BHHRSKO2MBT3","either","2","147","","","","","","","0","0","1","0.579071345","","0.8","0.6","0.4","0.2","","","","","0.2851569533","0.579071345","0.5711084253","0.2703699348","","","","","","","","","","74","J","1","","","114","main_expt","",""
"","bandit","204","411473","0.0-156.0-0.0","87101301","wem/bandit_party_2","A1BHHRSKO2MBT3","either","2","144","","","","","","","1","0","0","0.4595939904","","0.8","0.6","0.4","0.2","","","","","0.3166589884","0.4595939904","0.4177754351","0.1928485376","","","","","","","","","","74","J","1","","","115","main_expt","",""
"","bandit","205","413091","0.0-157.0-0.0","87101301","wem/bandit_party_2","A1BHHRSKO2MBT3","either","2","101","","","","","","","0","0","1","","0.3744567546","0.8","0.6","0.4","0.2","0.3928451607","0.3744567546","0.387840809","0.136356343","","","","","","","","","","","","","","74","J","1","","","116","main_expt","",""
"","bandit","206","414933","0.0-158.0-0.0","87101301","wem/bandit_party_2","A1BHHRSKO2MBT3","either","2","326","","","","","","","0","0","1","0.302145019","","0.8","0.6","0.4","0.2","","","","","0.560845346","0.302145019","0.4456731606","0.2193113504","","","","","","","","","","74","J","1","","","117","main_expt","",""
"","bandit","207","416756","0.0-159.0-0.0","87101301","wem/bandit_party_2","A1BHHRSKO2MBT3","either","2","306","","","","","","","0","0","1","","0.3522466686","0.8","0.6","0.4","0.2","0.5536818424","0.3522466686","0.3045880574","0.2686792008","","","","","","","","","","","","","","74","J","1","","","118","main_expt","",""
"","bandit","208","419183","0.0-160.0-0.0","87101301","wem/bandit_party_2","A1BHHRSKO2MBT3","either","2","912","","","","","","","0","1","0","","0.3994134075","0.8","0.6","0.4","0.2","0.3617659687","0.4425542362","0.3994134075","0.2668270476","","","","","","","","","","","","","","75","K","2","","","119","main_expt","",""
"","bandit","209","420751","0.0-161.0-0.0","87101301","wem/bandit_party_2","A1BHHRSKO2MBT3","either","2","54","","","","","","","0","0","1","","0.351449483","0.8","0.6","0.4","0.2","0.3454740543","0.3377532805","0.351449483","0.3723992114","","","","","","","","","","","","","","75","K","2","","","120","main_expt","",""
"","bandit","210","422329","0.0-162.0-0.0","87101301","wem/bandit_party_2","A1BHHRSKO2MBT3","either","2","61","","","","","","","0","1","0","","0.3641911367","0.8","0.6","0.4","0.2","0.2798257893","0.2929504356","0.3641911367","0.4001238515","","","","","","","","","","","","","","75","K","2","","","121","main_expt","",""
"","bandit","211","424111","0.0-163.0-0.0","87101301","wem/bandit_party_2","A1BHHRSKO2MBT3","either","2","264","","","","","","","0","0","1","","0.2673706252","0.8","0.6","0.4","0.2","0.2261540995","0.2504028886","0.2673706252","0.4090120715","","","","","","","","","","","","","","75","K","2","","","122","main_expt","",""
"","bandit","212","425855","0.0-164.0-0.0","87101301","wem/bandit_party_2","A1BHHRSKO2MBT3","either","2","227","","","","","","","0","0","1","0.3455372181","","0.8","0.6","0.4","0.2","","","","","0.2766663047","0.2414849785","0.3455372181","0.4746108064","","","","","","","","","","75","K","2","","","123","main_expt","",""
"","bandit","213","427556","0.0-165.0-0.0","87101301","wem/bandit_party_2","A1BHHRSKO2MBT3","either","2","185","","","","","","","0","0","1","0.3524137631","","0.8","0.6","0.4","0.2","","","","","0.3126864395","0.1791255979","0.3524137631","0.453231646","","","","","","","","","","75","K","2","","","124","main_expt","",""
"","bandit","214","429274","0.0-166.0-0.0","87101301","wem/bandit_party_2","A1BHHRSKO2MBT3","either","2","202","","","","","","","0","0","1","0.3680881866","","0.8","0.6","0.4","0.2","","","","","0.2772507379","0.1952456852","0.3680881866","0.4888945922","","","","","","","","","","75","K","2","","","125","main_expt","",""
"","bandit","215","430807","0.0-167.0-0.0","87101301","wem/bandit_party_2","A1BHHRSKO2MBT3","either","2","15","","","","","","","0","0","1","","0.2884444508","0.8","0.6","0.4","0.2","0.2441417391","0.2614303707","0.2884444508","0.396932523","","","","","","","","","","","","","","75","K","2","","","126","main_expt","",""
"","bandit","216","432378","0.0-168.0-0.0","87101301","wem/bandit_party_2","A1BHHRSKO2MBT3","either","2","55","","","","","","","0","1","0","","0.2931854252","0.8","0.6","0.4","0.2","0.2304038214","0.267511235","0.2931854252","0.4026562496","","","","","","","","","","","","","","75","K","2","","","127","main_expt","",""
"","bandit","217","434058","0.0-169.0-0.0","87101301","wem/bandit_party_2","A1BHHRSKO2MBT3","either","2","160","","","","","","","0","1","0","","0.3115494401","0.8","0.6","0.4","0.2","0.2463692943","0.2582460394","0.3115494401","0.3072143153","","","","","","","","","","","","","","75","K","2","","","128","main_expt","",""
"","bandit","218","437021","0.0-170.0-0.0","87101301","wem/bandit_party_2","A1BHHRSKO2MBT3","either","2","1439","","","","","","","1","0","0","0.287093163","","0.8","0.6","0.4","0.2","","","","","0.262841392","0.249100023","0.287093163","0.3024431642","","","","","","","","","","75","K","2","","","129","main_expt","",""
"","bandit","219","438683","0.0-171.0-0.0","87101301","wem/bandit_party_2","A1BHHRSKO2MBT3","either","2","148","","","","","","","0","0","1","0.242368994","","0.8","0.6","0.4","0.2","","","","","0.3044503748","0.2014680341","0.242368994","0.383823705","","","","","","","","","","75","K","2","","","130","main_expt","",""
"","bandit","220","440215","0.0-172.0-0.0","87101301","wem/bandit_party_2","A1BHHRSKO2MBT3","either","2","15","","","","","","","1","0","0","0.3141093292","","0.8","0.6","0.4","0.2","","","","","0.2231782293","0.2514612397","0.3141093292","0.5448185218","","","","","","","","","","75","K","2","","","131","main_expt","",""
"","bandit","221","441741","0.0-173.0-0.0","87101301","wem/bandit_party_2","A1BHHRSKO2MBT3","either","2","9","","","","","","","0","0","1","","0.3186943837","0.8","0.6","0.4","0.2","0.265126842","0.1719215191","0.3186943837","0.5741986762","","","","","","","","","","","","","","75","K","2","","","132","main_expt","",""
"","bandit","222","443384","0.0-174.0-0.0","87101301","wem/bandit_party_2","A1BHHRSKO2MBT3","either","2","125","","","","","","","0","0","1","0.3218599317","","0.8","0.6","0.4","0.2","","","","","0.1996467811","0.151851594","0.3218599317","0.54298015","","","","","","","","","","75","K","2","","","133","main_expt","",""
"","bandit","223","444985","0.0-175.0-0.0","87101301","wem/bandit_party_2","A1BHHRSKO2MBT3","either","2","86","","","","","","","1","0","0","0.3372263261","","0.8","0.6","0.4","0.2","","","","","0.1900899503","0.1693242304","0.3372263261","0.5504084981","","","","","","","","","","75","K","2","","","134","main_expt","",""
"","bandit","224","446704","0.0-176.0-0.0","87101301","wem/bandit_party_2","A1BHHRSKO2MBT3","either","2","202","","","","","","","0","0","1","0.3515125386","","0.8","0.6","0.4","0.2","","","","","0.172295534","0.1541174352","0.3515125386","0.4874659601","","","","","","","","","","75","K","2","","","135","main_expt","",""
"","bandit","225","448344","0.0-177.0-0.0","87101301","wem/bandit_party_2","A1BHHRSKO2MBT3","either","2","124","","","","","","","0","0","1","0.2312583875","","0.8","0.6","0.4","0.2","","","","","0.1171098277","0.1374012581","0.2312583875","0.3677382912","","","","","","","","","","75","K","2","","","136","main_expt","",""
"","bandit","226","449974","0.0-178.0-0.0","87101301","wem/bandit_party_2","A1BHHRSKO2MBT3","either","2","108","","","","","","","0","0","1","0.2889288236","","0.8","0.6","0.4","0.2","","","","","0.1390909791","0.2889288236","0.3496768842","0.2944012193","","","","","","","","","","74","J","1","","","137","main_expt","",""
"","bandit","227","451848","0.0-179.0-0.0","87101301","wem/bandit_party_2","A1BHHRSKO2MBT3","either","2","357","","","","","","","0","0","1","0.2177367931","","0.8","0.6","0.4","0.2","","","","","0.1209370274","0.2177367931","0.4217982028","0.3020033879","","","","","","","","","","74","J","1","","","138","main_expt","",""
"","bandit","228","453664","0.0-180.0-0.0","87101301","wem/bandit_party_2","A1BHHRSKO2MBT3","either","2","296","","","","","","","0","0","1","","0.5123523738","0.8","0.6","0.4","0.2","0.1441291996","0.1704259453","0.5123523738","0.2908104057","","","","","","","","","","","","","","75","K","2","","","139","main_expt","",""
"","bandit","229","455390","0.0-181.0-0.0","87101301","wem/bandit_party_2","A1BHHRSKO2MBT3","either","2","197","","","","","","","0","0","1","0.1827322183","","0.8","0.6","0.4","0.2","","","","","0.1380406349","0.1827322183","0.3892042576","0.2738290205","","","","","","","","","","74","J","1","","","140","main_expt","",""
"","bandit","230","456903","0.0-182.0-0.0","87101301","wem/bandit_party_2","A1BHHRSKO2MBT3","either","2","0","","","","","","","0","0","1","0.2030288612","","0.8","0.6","0.4","0.2","","","","","0.1312769784","0.2030288612","0.4680147771","0.3865798498","","","","","","","","","","74","J","1","","","141","main_expt","",""
"","bandit","231","459279","0.0-183.0-0.0","87101301","wem/bandit_party_2","A1BHHRSKO2MBT3","either","2","864","","","","","","","0","0","1","","0.3970866904","0.8","0.6","0.4","0.2","0.1880730553","0.1760536641","0.3970866904","0.3507917403","","","","","","","","","","","","","","75","K","2","","","142","main_expt","",""
"","bandit","232","461181","0.0-184.0-0.0","87101301","wem/bandit_party_2","A1BHHRSKO2MBT3","either","2","380","","","","","","","0","0","1","","0.3609481858","0.8","0.6","0.4","0.2","0.1798266991","0.1428921374","0.3609481858","0.2787839286","","","","","","","","","","","","","","75","K","2","","","143","main_expt","",""
"","bandit","233","462885","0.0-185.0-0.0","87101301","wem/bandit_party_2","A1BHHRSKO2MBT3","either","2","187","","","","","","","0","0","1","0.3701270871","","0.8","0.6","0.4","0.2","","","","","0.1881666754","0.1260474704","0.3701270871","0.2106619402","","","","","","","","","","75","K","2","","","144","main_expt","",""
"","bandit","234","464492","0.0-186.0-0.0","87101301","wem/bandit_party_2","A1BHHRSKO2MBT3","either","2","91","","","","","","","0","0","1","","0.3110645609","0.8","0.6","0.4","0.2","0.1683386122","0.151337539","0.3110645609","0.3211677341","","","","","","","","","","","","","","75","K","2","","","145","main_expt","",""
"","bandit","235","466505","0.0-187.0-0.0","87101301","wem/bandit_party_2","A1BHHRSKO2MBT3","either","2","495","","","","","","","0","0","1","0.1600114734","","0.8","0.6","0.4","0.2","","","","","0.2609121533","0.1600114734","0.356964637","0.4417580917","","","","","","","","","","74","J","1","","","146","main_expt","",""
"","bandit","236","468189","0.0-188.0-0.0","87101301","wem/bandit_party_2","A1BHHRSKO2MBT3","either","2","160","","","","","","","0","0","1","0.1262446547","","0.8","0.6","0.4","0.2","","","","","0.280259565","0.1262446547","0.5143633813","0.278611551","","","","","","","","","","74","J","1","","","147","main_expt","",""
"","bandit","237","469716","0.0-189.0-0.0","87101301","wem/bandit_party_2","A1BHHRSKO2MBT3","either","2","15","","","","","","","0","0","1","","0.1030311585","0.8","0.6","0.4","0.2","0.2972918914","0.1030311585","0.5086187798","0.2811332351","","","","","","","","","","","","","","74","J","1","","","148","main_expt","",""
"","bandit","238","471417","0.0-190.0-0.0","87101301","wem/bandit_party_2","A1BHHRSKO2MBT3","either","2","182","","","","","","","0","0","1","0.123834606","","0.8","0.6","0.4","0.2","","","","","0.3284309668","0.123834606","0.4676315778","0.2606345315","","","","","","","","","","74","J","1","","","149","main_expt","",""
"","bandit","239","472975","0.0-191.0-0.0","87101301","wem/bandit_party_2","A1BHHRSKO2MBT3","either","2","39","","","","","","","0","0","1","","0.06566206942","0.8","0.6","0.4","0.2","0.3186890608","0.06566206942","0.4737351686","0.260677327","","","","","","","","","","","","","","74","J","1","","","150","main_expt","",""
"","bandit","240","474535","0.0-192.0-0.0","87101301","wem/bandit_party_2","A1BHHRSKO2MBT3","either","2","40","","","","","","","0","0","1","0.06342121736","","0.8","0.6","0.4","0.2","","","","","0.3331747037","0.06342121736","0.5387476985","0.2579624968","","","","","","","","","","74","J","1","","","151","main_expt","",""
"","bandit","241","476239","0.0-193.0-0.0","87101301","wem/bandit_party_2","A1BHHRSKO2MBT3","either","2","187","","","","","","","1","0","0","0.1162046696","","0.8","0.6","0.4","0.2","","","","","0.364096089","0.1162046696","0.5065138565","0.2536911072","","","","","","","","","","74","J","1","","","152","main_expt","",""
"","bandit","242","478021","0.0-194.0-0.0","87101301","wem/bandit_party_2","A1BHHRSKO2MBT3","either","2","265","","","","","","","0","0","1","0.1388943584","","0.8","0.6","0.4","0.2","","","","","0.3189440566","0.1388943584","0.5190676077","0.1427943183","","","","","","","","","","74","J","1","","","153","main_expt","",""
"","bandit","243","508319","0.0-195.0-0.0","87101301","wem/bandit_party_2","A1BHHRSKO2MBT3","either","2","28780","","","","","","","0","1","0","","0.1188489222","0.8","0.6","0.4","0.2","0.486858514","0.1188489222","0.4944482457","0.08934943386","","","","","","","","","","","","","","74","J","1","","","154","main_expt","",""
"","bandit","244","509843","0.0-196.0-0.0","87101301","wem/bandit_party_2","A1BHHRSKO2MBT3","either","2","5","","","","","","","0","0","1","0.1255079792","","0.8","0.6","0.4","0.2","","","","","0.398958755","0.1255079792","0.4987902374","0.1048919666","","","","","","","","","","74","J","1","","","155","main_expt","",""
"","bandit","245","511535","0.0-197.0-0.0","87101301","wem/bandit_party_2","A1BHHRSKO2MBT3","either","2","175","","","","","","","0","0","1","0.1705129017","","0.8","0.6","0.4","0.2","","","","","0.3508932217","0.1705129017","0.4151199053","0.1348874752","","","","","","","","","","74","J","1","","","156","main_expt","",""
"","bandit","246","513151","0.0-198.0-0.0","87101301","wem/bandit_party_2","A1BHHRSKO2MBT3","either","2","104","","","","","","","0","0","1","0.1892203872","","0.8","0.6","0.4","0.2","","","","","0.3736640956","0.1892203872","0.4215128153","0.1197456909","","","","","","","","","","74","J","1","","","157","main_expt","",""
"","bandit","247","514763","0.0-199.0-0.0","87101301","wem/bandit_party_2","A1BHHRSKO2MBT3","either","2","98","","","","","","","0","0","1","0.1589595026","","0.8","0.6","0.4","0.2","","","","","0.3215678611","0.1589595026","0.3666899102","0.1343935597","","","","","","","","","","74","J","1","","","158","main_expt","",""
"","bandit","248","516301","0.0-200.0-0.0","87101301","wem/bandit_party_2","A1BHHRSKO2MBT3","either","2","26","","","","","","","0","0","1","","0.1426383857","0.8","0.6","0.4","0.2","0.2732838962","0.1426383857","0.3906786657","0.04604274909","","","","","","","","","","","","","","74","J","1","","","159","main_expt","",""
"","bandit","249","517962","0.0-201.0-0.0","87101301","wem/bandit_party_2","A1BHHRSKO2MBT3","either","2","145","","","","","","","0","0","1","0.2747613825","","0.8","0.6","0.4","0.2","","","","","0.2323229575","0.2747613825","0.4769972016","0.08927965808","","","","","","","","","","74","J","1","","","160","main_expt","",""
"","bandit","250","519558","0.0-202.0-0.0","87101301","wem/bandit_party_2","A1BHHRSKO2MBT3","either","2","79","","","","","","","1","0","0","0.399022808","","0.8","0.6","0.4","0.2","","","","","0.399022808","0.2046882866","0.4405879513","0.1038156196","","","","","","","","","","72","H","0","img/none_selected.jpg","","161","main_expt","",""
"","bandit","251","521658","0.0-203.0-0.0","87101301","wem/bandit_party_2","A1BHHRSKO2MBT3","either","2","586","","","","","","","0","0","1","0.4967313539","","0.8","0.6","0.4","0.2","","","","","0.4967313539","0.1715152701","0.44055992","0.1470739062","","","","","","","","","","72","H","0","img/none_selected.jpg","","162","main_expt","",""
"","bandit","252","523665","0.0-204.0-0.0","87101301","wem/bandit_party_2","A1BHHRSKO2MBT3","either","2","489","","","","","","","0","0","1","0.2396687428","","0.8","0.6","0.4","0.2","","","","","0.5245029489","0.2396687428","0.3434222481","0.1214264794","","","","","","","","","","74","J","1","","","163","main_expt","",""
"","bandit","253","525189","0.0-205.0-0.0","87101301","wem/bandit_party_2","A1BHHRSKO2MBT3","either","2","2","","","","","","","1","0","0","0.3359744524","","0.8","0.6","0.4","0.2","","","","","0.5808119749","0.3359744524","0.3862652833","0.1563758897","","","","","","","","","","74","J","1","","","164","main_expt","",""
"","bandit","254","527433","0.0-206.0-0.0","87101301","wem/bandit_party_2","A1BHHRSKO2MBT3","either","2","727","","","","","","","1","0","0","0.6473032069","","0.8","0.6","0.4","0.2","","","","","0.6473032069","0.4940159592","0.4270444342","0.1311500467","","","","","","","","","","72","H","0","img/none_selected.jpg","","165","main_expt","",""
"","bandit","255","549510","0.0-207.0-0.0","87101301","wem/bandit_party_2","A1BHHRSKO2MBT3","either","2","20563","","","","","","","1","0","0","0.5922229292","","0.8","0.6","0.4","0.2","","","","","0.6790689848","0.5922229292","0.5073102058","0.1419689761","","","","","","","","","","74","J","1","","","166","main_expt","",""
"","bandit","256","551050","0.0-208.0-0.0","87101301","wem/bandit_party_2","A1BHHRSKO2MBT3","either","2","16","","","","","","","1","0","0","0.5562626425","","0.8","0.6","0.4","0.2","","","","","0.5959653185","0.5562626425","0.5417092253","0.150246256","","","","","","","","","","74","J","1","","","167","main_expt","",""
"","bandit","257","552774","0.0-209.0-0.0","87101301","wem/bandit_party_2","A1BHHRSKO2MBT3","either","2","202","","","","","","","0","0","1","0.6489587791","","0.8","0.6","0.4","0.2","","","","","0.361841396","0.6489587791","0.6505471885","0.2070971521","","","","","","","","","","74","J","1","","","168","main_expt","",""
"","bandit","258","554522","0.0-210.0-0.0","87101301","wem/bandit_party_2","A1BHHRSKO2MBT3","either","2","232","","","","","","","0","1","0","","0.5652428614","0.8","0.6","0.4","0.2","0.2594844845","0.5652428614","0.6226729341","0.2564452127","","","","","","","","","","","","","","74","J","1","","","169","main_expt","",""
"","bandit","259","556150","0.0-211.0-0.0","87101301","wem/bandit_party_2","A1BHHRSKO2MBT3","either","2","111","","","","","","","0","1","0","","0.5344749526","0.8","0.6","0.4","0.2","0.1987556041","0.5344749526","0.7574543886","0.2845729388","","","","","","","","","","","","","","74","J","1","","","170","main_expt","",""
"","bandit","260","557889","0.0-212.0-0.0","87101301","wem/bandit_party_2","A1BHHRSKO2MBT3","either","2","222","","","","","","","0","1","0","","0.6364900983","0.8","0.6","0.4","0.2","0.1583585206","0.6364900983","0.774201251","0.2360657399","","","","","","","","","","","","","","74","J","1","","","171","main_expt","",""
"","bandit","261","559453","0.0-213.0-0.0","87101301","wem/bandit_party_2","A1BHHRSKO2MBT3","either","2","46","","","","","","","0","0","1","0.5516193693","","0.8","0.6","0.4","0.2","","","","","0.1494938987","0.5516193693","0.7739789177","0.3453554921","","","","","","","","","","74","J","1","","","172","main_expt","",""
"","bandit","262","561167","0.0-214.0-0.0","87101301","wem/bandit_party_2","A1BHHRSKO2MBT3","either","2","193","","","","","","","0","0","1","0.5081608063","","0.8","0.6","0.4","0.2","","","","","0.1996494969","0.5081608063","0.7146420849","0.2909261263","","","","","","","","","","74","J","1","","","173","main_expt","",""
"","bandit","263","562842","0.0-215.0-0.0","87101301","wem/bandit_party_2","A1BHHRSKO2MBT3","either","2","154","","","","","","","1","0","0","0.5247340446","","0.8","0.6","0.4","0.2","","","","","0.2200767262","0.5247340446","0.683245412","0.3807546558","","","","","","","","","","74","J","1","","","174","main_expt","",""
"","bandit","264","564461","0.0-216.0-0.0","87101301","wem/bandit_party_2","A1BHHRSKO2MBT3","either","2","103","","","","","","","0","1","0","","0.5823110366","0.8","0.6","0.4","0.2","0.1929710708","0.5823110366","0.7163731774","0.3889518003","","","","","","","","","","","","","","74","J","1","","","175","main_expt","",""
"","bandit","265","566106","0.0-217.0-0.0","87101301","wem/bandit_party_2","A1BHHRSKO2MBT3","either","2","126","","","","","","","0","0","1","","0.7693722391","0.8","0.6","0.4","0.2","0.1756556012","0.7693722391","0.6676116703","0.3662842853","","","","","","","","","","","","","","74","J","1","","","176","main_expt","",""
"","bandit","266","567757","0.0-218.0-0.0","87101301","wem/bandit_party_2","A1BHHRSKO2MBT3","either","2","131","","","","","","","0","0","1","","0.2404611203","0.8","0.6","0.4","0.2","0.2404611203","0.8048595062","0.711116056","0.3102656016","","","","","","","","","","","","","","72","H","0","img/none_selected.jpg","","177","main_expt","",""
"","bandit","267","569471","0.0-219.0-0.0","87101301","wem/bandit_party_2","A1BHHRSKO2MBT3","either","2","194","","","","","","","1","0","0","0.8147320782","","0.8","0.6","0.4","0.2","","","","","0.1651874793","0.8147320782","0.6541247318","0.3272385177","","","","","","","","","","74","J","1","","","178","main_expt","",""
"","bandit","268","571039","0.0-220.0-0.0","87101301","wem/bandit_party_2","A1BHHRSKO2MBT3","either","2","50","","","","","","","0","1","0","","0.7755432213","0.8","0.6","0.4","0.2","0.1297692321","0.7755432213","0.600925469","0.3185807274","","","","","","","","","","","","","","74","J","1","","","179","main_expt","",""
"","bandit","269","572739","0.0-221.0-0.0","87101301","wem/bandit_party_2","A1BHHRSKO2MBT3","either","2","178","","","","","","","1","0","0","0.6321701674","","0.8","0.6","0.4","0.2","","","","","0.1311169289","0.7309951384","0.6321701674","0.3896265469","","","","","","","","","","75","K","2","","","180","main_expt","",""
"","bandit","270","574298","0.0-222.0-0.0","87101301","wem/bandit_party_2","A1BHHRSKO2MBT3","either","2","33","","","","","","","0","0","1","","0.7040606398","0.8","0.6","0.4","0.2","0.2184653543","0.8068071681","0.7040606398","0.4381139349","","","","","","","","","","","","","","75","K","2","","","181","main_expt","",""
"","bandit","271","575923","0.0-223.0-0.0","87101301","wem/bandit_party_2","A1BHHRSKO2MBT3","either","2","107","","","","","","","0","1","0","","0.6551517927","0.8","0.6","0.4","0.2","0.156745214","0.8096694819","0.6551517927","0.4339703771","","","","","","","","","","","","","","75","K","2","","","182","main_expt","",""
"","bandit","272","577444","0.0-224.0-0.0","87101301","wem/bandit_party_2","A1BHHRSKO2MBT3","either","2","8","","","","","","","0","1","0","","0.7709035389","0.8","0.6","0.4","0.2","0.07710569088","0.8522040983","0.7709035389","0.5270594011","","","","","","","","","","","","","","75","K","2","","","183","main_expt","",""
"","bandit","273","579239","0.0-225.0-0.0","87101301","wem/bandit_party_2","A1BHHRSKO2MBT3","either","2","276","","","","","","","1","0","0","0.7869666122","","0.8","0.6","0.4","0.2","","","","","0.07901501252","0.8636776132","0.7869666122","0.4791569234","","","","","","","","","","75","K","2","","","184","main_expt","",""
"","bandit","274","581232","0.0-226.0-0.0","87101301","wem/bandit_party_2","A1BHHRSKO2MBT3","either","2","478","","","","","","","1","0","0","0.8605951951","","0.8","0.6","0.4","0.2","","","","","0.05695362571","0.8605951951","0.804571828","0.464074867","","","","","","","","","","74","J","1","","","185","main_expt","",""
"","bandit","275","582835","0.0-227.0-0.0","87101301","wem/bandit_party_2","A1BHHRSKO2MBT3","either","2","88","","","","","","","1","0","0","0.8578427848","","0.8","0.6","0.4","0.2","","","","","0.03796608352","0.8578427848","0.7866627628","0.4654947356","","","","","","","","","","74","J","1","","","186","main_expt","",""
"","bandit","276","584511","0.0-228.0-0.0","87101301","wem/bandit_party_2","A1BHHRSKO2MBT3","either","2","160","","","","","","","0","1","0","","0.8006736442","0.8","0.6","0.4","0.2","0.05986429342","0.8253306036","0.8006736442","0.4338668179","","","","","","","","","","","","","","75","K","2","","","187","main_expt","",""
"","bandit","277","586597","0.0-229.0-0.0","87101301","wem/bandit_party_2","A1BHHRSKO2MBT3","either","2","567","","","","","","","0","1","0","","0.7687627789","0.8","0.6","0.4","0.2","0.05827831728","0.8118593573","0.7687627789","0.4679469354","","","","","","","","","","","","","","75","K","2","","","188","main_expt","",""
"","bandit","278","588122","0.0-230.0-0.0","87101301","wem/bandit_party_2","A1BHHRSKO2MBT3","either","2","2","","","","","","","0","1","0","","0.7009429779","0.8","0.6","0.4","0.2","0.06499387038","0.8319104568","0.7009429779","0.4645116859","","","","","","","","","","","","","","75","K","2","","","189","main_expt","",""
"","bandit","279","589924","0.0-231.0-0.0","87101301","wem/bandit_party_2","A1BHHRSKO2MBT3","either","2","283","","","","","","","1","0","0","0.8949986836","","0.8","0.6","0.4","0.2","","","","","0.0878029059","0.8949986836","0.7531121838","0.4260553166","","","","","","","","","","74","J","1","","","190","main_expt","",""
"","bandit","280","591576","0.0-232.0-0.0","87101301","wem/bandit_party_2","A1BHHRSKO2MBT3","either","2","131","","","","","","","0","0","1","0.9258368343","","0.8","0.6","0.4","0.2","","","","","0.1101088583","0.9258368343","0.6174616994","0.5323747461","","","","","","","","","","74","J","1","","","191","main_expt","",""
"","bandit","281","593223","0.0-233.0-0.0","87101301","wem/bandit_party_2","A1BHHRSKO2MBT3","either","2","125","","","","","","","1","0","0","0.9221438833","","0.8","0.6","0.4","0.2","","","","","0.1559643099","0.9221438833","0.6331996982","0.6013900654","","","","","","","","","","74","J","1","","","192","main_expt","",""
"","bandit","282","595403","0.0-234.0-0.0","87101301","wem/bandit_party_2","A1BHHRSKO2MBT3","either","2","659","","","","","","","0","0","1","","0.5596167322","0.8","0.6","0.4","0.2","0.1348882638","0.878376231","0.5596167322","0.5332063066","","","","","","","","","","","","","","75","K","2","","","193","main_expt","",""
"","bandit","283","597045","0.0-235.0-0.0","87101301","wem/bandit_party_2","A1BHHRSKO2MBT3","either","2","119","","","","","","","1","0","0","0.7914694382","","0.8","0.6","0.4","0.2","","","","","0.243093686","0.7914694382","0.5887018809","0.5499496643","","","","","","","","","","74","J","1","","","194","main_expt","",""
"","bandit","284","598597","0.0-236.0-0.0","87101301","wem/bandit_party_2","A1BHHRSKO2MBT3","either","2","27","","","","","","","1","0","0","0.7843027812","","0.8","0.6","0.4","0.2","","","","","0.2792315856","0.7843027812","0.561552955","0.4170732774","","","","","","","","","","74","J","1","","","195","main_expt","",""
"","bandit","285","600705","0.0-237.0-0.0","87101301","wem/bandit_party_2","A1BHHRSKO2MBT3","either","2","587","","","","","","","0","0","1","0.7888241066","","0.8","0.6","0.4","0.2","","","","","0.2075419965","0.7888241066","0.6199522587","0.4050854298","","","","","","","","","","74","J","1","","","196","main_expt","",""
"","bandit","286","602223","0.0-238.0-0.0","87101301","wem/bandit_party_2","A1BHHRSKO2MBT3","either","2","4","","","","","","","0","1","0","","0.8145025162","0.8","0.6","0.4","0.2","0.1899284635","0.8145025162","0.6886125155","0.4522405917","","","","","","","","","","","","","","74","J","1","","","197","main_expt","",""
"","bandit","287","603813","0.0-239.0-0.0","87101301","wem/bandit_party_2","A1BHHRSKO2MBT3","either","2","72","","","","","","","0","1","0","","0.8795467387","0.8","0.6","0.4","0.2","0.1632143895","0.8795467387","0.6468609917","0.4547961131","","","","","","","","","","","","","","74","J","1","","","198","main_expt","",""
"","bandit","288","605414","0.0-240.0-0.0","87101301","wem/bandit_party_2","A1BHHRSKO2MBT3","either","2","79","","","","","","","1","0","0","0.8716255916","","0.8","0.6","0.4","0.2","","","","","0.1580048483","0.8716255916","0.7134983028","0.456709553","","","","","","","","","","74","J","1","","","199","main_expt","",""
"","bandit","289","607908","0.0-241.0-0.0","87101301","wem/bandit_party_2","A1BHHRSKO2MBT3","either","2","972","","","","","","","0","1","0","","0.8596876402","0.8","0.6","0.4","0.2","0.1815025648","0.8596876402","0.6545285445","0.4197111003","","","","","","","","","","","","","","74","J","1","","","200","main_expt","",""
"","bandit","290","609556","0.0-242.0-0.0","87101301","wem/bandit_party_2","A1BHHRSKO2MBT3","either","2","134","","","","","","","0","1","0","","0.8714244785","0.8","0.6","0.4","0.2","0.1453003075","0.8714244785","0.6827561938","0.4468864226","","","","","","","","","","","","","","74","J","1","","","201","main_expt","",""
"","bandit","291","611237","0.0-243.0-0.0","87101301","wem/bandit_party_2","A1BHHRSKO2MBT3","either","2","168","","","","","","","1","0","0","0.8679491409","","0.8","0.6","0.4","0.2","","","","","0.1061510446","0.8679491409","0.6590680519","0.3852152277","","","","","","","","","","74","J","1","","","202","main_expt","",""
"","bandit","292","612975","0.0-244.0-0.0","87101301","wem/bandit_party_2","A1BHHRSKO2MBT3","either","2","221","","","","","","","0","0","1","0.8421855008","","0.8","0.6","0.4","0.2","","","","","0.09667757311","0.8421855008","0.67998256","0.3481501846","","","","","","","","","","74","J","1","","","203","main_expt","",""
"","bandit","293","614699","0.0-245.0-0.0","87101301","wem/bandit_party_2","A1BHHRSKO2MBT3","either","2","206","","","","","","","1","0","0","0.8741547355","","0.8","0.6","0.4","0.2","","","","","0.109576977","0.8741547355","0.7157802034","0.3688904748","","","","","","","","","","74","J","1","","","204","main_expt","",""
"","bandit","294","616277","0.0-246.0-0.0","87101301","wem/bandit_party_2","A1BHHRSKO2MBT3","either","2","63","","","","","","","1","0","0","0.8589537271","","0.8","0.6","0.4","0.2","","","","","0.1370524017","0.8589537271","0.6750594522","0.4196025605","","","","","","","","","","74","J","1","","","205","main_expt","",""
"","bandit","295","617984","0.0-247.0-0.0","87101301","wem/bandit_party_2","A1BHHRSKO2MBT3","either","2","193","","","","","","","1","0","0","0.7170784861","","0.8","0.6","0.4","0.2","","","","","0.1005848846","0.8009191088","0.7170784861","0.3558717694","","","","","","","","","","75","K","2","","","206","main_expt","",""
"","bandit","296","619530","0.0-248.0-0.0","87101301","wem/bandit_party_2","A1BHHRSKO2MBT3","either","2","27","","","","","","","1","0","0","0.6886550294","","0.8","0.6","0.4","0.2","","","","","0.1100528349","0.8146279372","0.6886550294","0.3978287694","","","","","","","","","","75","K","2","","","207","main_expt","",""
"","bandit","297","621099","0.0-249.0-0.0","87101301","wem/bandit_party_2","A1BHHRSKO2MBT3","either","2","51","","","","","","","0","0","1","","0.7340041914","0.8","0.6","0.4","0.2","0.1165568201","0.7498886323","0.7340041914","0.3647175361","","","","","","","","","","","","","","75","K","2","","","208","main_expt","",""
"","bandit","298","622688","0.0-250.0-0.0","87101301","wem/bandit_party_2","A1BHHRSKO2MBT3","either","2","70","","","","","","","1","0","0","0.7108339061","","0.8","0.6","0.4","0.2","","","","","0.1607141963","0.781298432","0.7108339061","0.2942091963","","","","","","","","","","75","K","2","","","209","main_expt","",""
"","bandit","299","624428","0.0-251.0-0.0","87101301","wem/bandit_party_2","A1BHHRSKO2MBT3","either","2","218","","","","","","","0","1","0","","0.7322658343","0.8","0.6","0.4","0.2","0.2005879304","0.8374694261","0.7322658343","0.3228874634","","","","","","","","","","","","","","75","K","2","","","210","main_expt","",""
"","bandit","300","626160","0.0-252.0-0.0","87101301","wem/bandit_party_2","A1BHHRSKO2MBT3","either","2","213","","","","","","","0","0","1","","0.6220956771","0.8","0.6","0.4","0.2","0.1999716741","0.7461264045","0.6220956771","0.3300931135","","","","","","","","","","","","","","75","K","2","","","211","main_expt","",""
"","bandit","301","628003","0.0-253.0-0.0","87101301","wem/bandit_party_2","A1BHHRSKO2MBT3","either","2","320","","","","","","","1","0","0","0.5400145011","","0.8","0.6","0.4","0.2","","","","","0.2135957141","0.7267359419","0.5400145011","0.4044608811","","","","","","","","","","75","K","2","","","212","main_expt","",""
"","bandit","302","630376","0.0-254.0-0.0","87101301","wem/bandit_party_2","A1BHHRSKO2MBT3","either","2","851","","","","","","","1","0","0","0.5419994818","","0.8","0.6","0.4","0.2","","","","","0.2041793084","0.6529835343","0.5419994818","0.4916994921","","","","","","","","","","75","K","2","","","213","main_expt","",""
"","bandit","303","631962","0.0-255.0-0.0","87101301","wem/bandit_party_2","A1BHHRSKO2MBT3","either","2","66","","","","","","","0","0","1","","0.6195319152","0.8","0.6","0.4","0.2","0.2563089198","0.5734554779","0.6195319152","0.5387088508","","","","","","","","","","","","","","75","K","2","","","214","main_expt","",""
"","bandit","304","633711","0.0-256.0-0.0","87101301","wem/bandit_party_2","A1BHHRSKO2MBT3","either","2","229","","","","","","","1","0","0","0.7405966814","","0.8","0.6","0.4","0.2","","","","","0.2870699064","0.7056003711","0.7405966814","0.567041903","","","","","","","","","","75","K","2","","","215","main_expt","",""
"","bandit","305","635300","0.0-257.0-0.0","87101301","wem/bandit_party_2","A1BHHRSKO2MBT3","either","2","75","","","","","","","0","1","0","","0.8005734678","0.8","0.6","0.4","0.2","0.2715554895","0.7717913507","0.8005734678","0.539749723","","","","","","","","","","","","","","75","K","2","","","216","main_expt","",""
"","bandit","306","636971","0.0-258.0-0.0","87101301","wem/bandit_party_2","A1BHHRSKO2MBT3","either","2","149","","","","","","","0","1","0","","0.834894728","0.8","0.6","0.4","0.2","0.2027777883","0.834894728","0.8392159132","0.3803352486","","","","","","","","","","","","","","74","J","1","","","217","main_expt","",""
"","bandit","307","638602","0.0-259.0-0.0","87101301","wem/bandit_party_2","A1BHHRSKO2MBT3","either","2","114","","","","","","","1","0","0","0.868580258","","0.8","0.6","0.4","0.2","","","","","0.2169787163","0.868580258","0.7445585264","0.3236333655","","","","","","","","","","74","J","1","","","218","main_expt","",""
"","bandit","308","640175","0.0-260.0-0.0","87101301","wem/bandit_party_2","A1BHHRSKO2MBT3","either","2","55","","","","","","","0","0","1","","0.8236231074","0.8","0.6","0.4","0.2","0.2292932202","0.8236231074","0.7174829008","0.2612589469","","","","","","","","","","","","","","74","J","1","","","219","main_expt","",""
"","bandit","309","641776","0.0-261.0-0.0","87101301","wem/bandit_party_2","A1BHHRSKO2MBT3","either","2","83","","","","","","","1","0","0","0.7719294443","","0.8","0.6","0.4","0.2","","","","","0.2829053382","0.7719294443","0.6601767392","0.2228319794","","","","","","","","","","74","J","1","","","220","main_expt","",""
"","bandit","310","643471","0.0-262.0-0.0","87101301","wem/bandit_party_2","A1BHHRSKO2MBT3","either","2","177","","","","","","","0","0","1","","0.7609360252","0.8","0.6","0.4","0.2","0.2691731019","0.7609360252","0.703996204","0.2204856404","","","","","","","","","","","","","","74","J","1","","","221","main_expt","",""
"","bandit","311","645829","0.0-263.0-0.0","87101301","wem/bandit_party_2","A1BHHRSKO2MBT3","either","2","844","","","","","","","0","0","1","","0.6188024556","0.8","0.6","0.4","0.2","0.1974112065","0.7319851961","0.6188024556","0.2269951902","","","","","","","","","","","","","","75","K","2","","","222","main_expt","",""
"","bandit","312","648511","0.0-264.0-0.0","87101301","wem/bandit_party_2","A1BHHRSKO2MBT3","either","2","1167","","","","","","","0","0","1","","0.5695888615","0.8","0.6","0.4","0.2","0.08486155027","0.6994646324","0.5695888615","0.3417830843","","","","","","","","","","","","","","75","K","2","","","223","main_expt","",""
"","bandit","313","650303","0.0-265.0-0.0","87101301","wem/bandit_party_2","A1BHHRSKO2MBT3","either","2","272","","","","","","","0","0","1","","0.6817307813","0.8","0.6","0.4","0.2","0.1930609847","0.6817307813","0.6590173842","0.4057490183","","","","","","","","","","","","","","74","J","1","","","224","main_expt","",""
"","bandit","314","651924","0.0-266.0-0.0","87101301","wem/bandit_party_2","A1BHHRSKO2MBT3","either","2","98","","","","","","","0","0","1","0.67394888","","0.8","0.6","0.4","0.2","","","","","0.2026087193","0.67394888","0.6779124893","0.4266979185","","","","","","","","","","74","J","1","","","225","main_expt","",""
"","bandit","315","653567","0.0-267.0-0.0","87101301","wem/bandit_party_2","A1BHHRSKO2MBT3","either","2","118","","","","","","","1","0","0","0.6520670614","","0.8","0.6","0.4","0.2","","","","","0.1295559036","0.6520670614","0.6433757785","0.4723095555","","","","","","","","","","74","J","1","","","226","main_expt","",""
"","bandit","316","655279","0.0-268.0-0.0","87101301","wem/bandit_party_2","A1BHHRSKO2MBT3","either","2","198","","","","","","","1","0","0","0.6598054912","","0.8","0.6","0.4","0.2","","","","","0.1014701128","0.6598054912","0.6050090536","0.4396274322","","","","","","","","","","74","J","1","","","227","main_expt","",""
