"consent","trial_type","trial_index","time_elapsed","internal_node_id","subjID","study","MID","cond","drift","rt","responses","button_pressed","key_press","like","value","connected","gems","bombs","no_reward","GemPrChosen","BombPrChosen","GainOverPainPr_0","GainOverPainPr_1","GainOverPainPr_2","GainOverPainPr_3","LosePr_0","LosePr_1","LosePr_2","LosePr_3","WinPr_0","WinPr_1","WinPr_2","WinPr_3","Q0","Q1","Q2","gender","age","ethnicity","label","expt_phase","target","respCharCode","respKey","respChoiceNum","respChoice","practice","trial_counter","trial_label","Q0_index"
"GDM/GDM_behavioral_consent_30min_online.html","consent","0","47048","0.0-0.0","87164086","wem/bandit_party_2","A1ERMRNNR0CZ2Y","either","3","","","","","","","","","","","","","","","","","","","","","","","","","","","","","","","","","","","","","","","","",""
"","survey-text","1","72410","0.0-1.0","87164086","wem/bandit_party_2","A1ERMRNNR0CZ2Y","either","3","24354","{""Q0"":""A1ERMRNNR0CZ2Y""}","","","","","","","","","","","","","","","","","","","","","","","","","","","","","","","","","","","","","","",""
"","button-response","2","76964","0.0-2.0","87164086","wem/bandit_party_2","A1ERMRNNR0CZ2Y","either","3","3550","","1","","","","","","","","","","","","","","","","","","","","","","","","","","","","","","","","","","","","","",""
"","text-replacement","3","96522","0.0-3.0","87164086","wem/bandit_party_2","A1ERMRNNR0CZ2Y","either","3","18555","","","32","","","","","","","","","","","","","","","","","","","","","","","","","","","","","","","","","","","","",""
"","text-replacement","4","131998","0.0-4.0","87164086","wem/bandit_party_2","A1ERMRNNR0CZ2Y","either","3","35474","","","32","","","","","","","","","","","","","","","","","","","","","","","","","","","","","","","","","","","","",""
"","identification","5","141801","0.0-6.0-0.0","87164086","wem/bandit_party_2","A1ERMRNNR0CZ2Y","either","3","9793","","","","3","1","0","","","","","","","","","","","","","","","","","","","","","","","","pre","identification_pre","the Republican Party","","","","","","","",""
"","identification","6","150514","0.0-6.0-1.0","87164086","wem/bandit_party_2","A1ERMRNNR0CZ2Y","either","3","7693","","","","3","2","0","","","","","","","","","","","","","","","","","","","","","","","","pre","identification_pre","the Democratic Party","","","","","","","",""
"","text-replacement","7","184677","0.0-7.0","87164086","wem/bandit_party_2","A1ERMRNNR0CZ2Y","either","3","33159","","","32","","","","","","","","","","","","","","","","","","","","","","","","","","","","","","","","","","","","",""
"","text-replacement","8","207866","0.0-8.0","87164086","wem/bandit_party_2","A1ERMRNNR0CZ2Y","either","3","23185","","","32","","","","","","","","","","","","","","","","","","","","","","","","","","","","","","","","","","","","",""
"","text-replacement","9","225124","0.0-9.0","87164086","wem/bandit_party_2","A1ERMRNNR0CZ2Y","either","3","17256","","","32","","","","","","","","","","","","","","","","","","","","","","","","","","","","","","","","","","","","",""
"","text-replacement","10","234627","0.0-10.0","87164086","wem/bandit_party_2","A1ERMRNNR0CZ2Y","either","3","9500","","","32","","","","","","","","","","","","","","","","","","","","","","","","","","","","","","","","","","","","",""
"","text-replacement","11","244324","0.0-11.0","87164086","wem/bandit_party_2","A1ERMRNNR0CZ2Y","either","3","9694","","","32","","","","","","","","","","","","","","","","","","","","","","","","","","","","","","","","","","","","",""
"","bandit","12","254409","0.0-12.0-0.0","87164086","wem/bandit_party_2","A1ERMRNNR0CZ2Y","either","3","8571","","","","","","","0","0","1","0","0","","","","","0","","","","0","","","","","","","","","","","","","74","J","0","img/none_selected_demo.jpg","true","0","",""
"","bandit","13","257687","0.0-13.0-0.0","87164086","wem/bandit_party_2","A1ERMRNNR0CZ2Y","either","3","1770","","","","","","","0","0","1","0","0","","","","","0","","","","0","","","","","","","","","","","","","75","K","0","img/none_selected_demo.jpg","true","0","",""
"","text-replacement","14","268952","0.0-14.0","87164086","wem/bandit_party_2","A1ERMRNNR0CZ2Y","either","3","11262","","","32","","","","","","","","","","","","","","","","","","","","","","","","","","","","","","","","","","","","",""
"","text-replacement","15","280046","0.0-15.0","87164086","wem/bandit_party_2","A1ERMRNNR0CZ2Y","either","3","11090","","","32","","","","","","","","","","","","","","","","","","","","","","","","","","","","","","","","","","","","",""
"","text-replacement","16","591312","0.0-16.0","87164086","wem/bandit_party_2","A1ERMRNNR0CZ2Y","either","3","311263","","","32","","","","","","","","","","","","","","","","","","","","","","","","","","","","","","","","","","","","",""
"","text-replacement","17","593656","0.0-17.0","87164086","wem/bandit_party_2","A1ERMRNNR0CZ2Y","either","3","2340","","","32","","","","","","","","","","","","","","","","","","","","","","","","","","","","","","","","","","","","",""
"","bandit","18","617639","0.0-18.0-0.0","87164086","wem/bandit_party_2","A1ERMRNNR0CZ2Y","either","3","22473","","","","","","","1","0","0","0.8","","0.5","0.5","","","","","","","0.8","0.2","","","","","","","","","","","","74","J","0","img/none_selected_demo.jpg","true","0","80_20_practice",""
"","bandit","19","625812","0.0-18.0-1.0","87164086","wem/bandit_party_2","A1ERMRNNR0CZ2Y","either","3","6664","","","","","","","0","0","1","0.8","","0.5","0.5","","","","","","","0.8","0.2","","","","","","","","","","","","74","J","0","img/none_selected_demo.jpg","true","0","80_20_practice",""
"","bandit","20","751771","0.0-18.0-2.0","87164086","wem/bandit_party_2","A1ERMRNNR0CZ2Y","either","3","124447","","","","","","","0","0","1","0.2","","0.5","0.5","","","","","","","0.8","0.2","","","","","","","","","","","","75","K","1","","true","0","80_20_practice",""
"","bandit","21","754854","0.0-18.0-3.0","87164086","wem/bandit_party_2","A1ERMRNNR0CZ2Y","either","3","1562","","","","","","","0","1","0","","0.8","0.5","0.5","","","0.8","0.2","","","","","","","","","","","","","","","","74","J","0","img/none_selected_demo.jpg","true","0","80_20_practice",""
"","bandit","22","757220","0.0-18.0-4.0","87164086","wem/bandit_party_2","A1ERMRNNR0CZ2Y","either","3","853","","","","","","","0","0","1","","0.8","0.5","0.5","","","0.8","0.2","","","","","","","","","","","","","","","","74","J","0","img/none_selected_demo.jpg","true","0","80_20_practice",""
"","bandit","23","771905","0.0-18.0-5.0","87164086","wem/bandit_party_2","A1ERMRNNR0CZ2Y","either","3","13174","","","","","","","0","1","0","","0.8","0.5","0.5","","","0.8","0.2","","","","","","","","","","","","","","","","74","J","0","img/none_selected_demo.jpg","true","0","80_20_practice",""
"","bandit","24","777438","0.0-18.0-6.0","87164086","wem/bandit_party_2","A1ERMRNNR0CZ2Y","either","3","4025","","","","","","","0","0","1","0.2","","0.5","0.5","","","","","","","0.8","0.2","","","","","","","","","","","","75","K","1","","true","0","80_20_practice",""
"","bandit","25","779712","0.0-18.0-7.0","87164086","wem/bandit_party_2","A1ERMRNNR0CZ2Y","either","3","755","","","","","","","0","1","0","","0.8","0.5","0.5","","","0.8","0.2","","","","","","","","","","","","","","","","74","J","0","img/none_selected_demo.jpg","true","0","80_20_practice",""
"","bandit","26","782935","0.0-18.0-8.0","87164086","wem/bandit_party_2","A1ERMRNNR0CZ2Y","either","3","1709","","","","","","","0","1","0","","0.8","0.5","0.5","","","0.8","0.2","","","","","","","","","","","","","","","","74","J","0","img/none_selected_demo.jpg","true","0","80_20_practice",""
"","bandit","27","786742","0.0-18.0-9.0","87164086","wem/bandit_party_2","A1ERMRNNR0CZ2Y","either","3","2293","","","","","","","0","0","1","","0.8","0.5","0.5","","","0.8","0.2","","","","","","","","","","","","","","","","74","J","0","img/none_selected_demo.jpg","true","0","80_20_practice",""
"","bandit","28","791421","0.0-18.0-10.0","87164086","wem/bandit_party_2","A1ERMRNNR0CZ2Y","either","3","3162","","","","","","","0","0","1","0.8","","0.5","0.5","","","","","","","0.8","0.2","","","","","","","","","","","","74","J","0","img/none_selected_demo.jpg","true","0","80_20_practice",""
"","bandit","29","793648","0.0-18.0-11.0","87164086","wem/bandit_party_2","A1ERMRNNR0CZ2Y","either","3","713","","","","","","","0","0","1","","0.2","0.5","0.5","","","0.8","0.2","","","","","","","","","","","","","","","","75","K","1","","true","0","80_20_practice",""
"","bandit","30","796496","0.0-18.0-12.0","87164086","wem/bandit_party_2","A1ERMRNNR0CZ2Y","either","3","1333","","","","","","","0","0","1","0.8","","0.5","0.5","","","","","","","0.8","0.2","","","","","","","","","","","","74","J","0","img/none_selected_demo.jpg","true","0","80_20_practice",""
"","bandit","31","798932","0.0-18.0-13.0","87164086","wem/bandit_party_2","A1ERMRNNR0CZ2Y","either","3","926","","","","","","","0","0","1","","0.2","0.5","0.5","","","0.8","0.2","","","","","","","","","","","","","","","","75","K","1","","true","0","80_20_practice",""
"","bandit","32","801532","0.0-18.0-14.0","87164086","wem/bandit_party_2","A1ERMRNNR0CZ2Y","either","3","1089","","","","","","","1","0","0","0.8","","0.5","0.5","","","","","","","0.8","0.2","","","","","","","","","","","","74","J","0","img/none_selected_demo.jpg","true","0","80_20_practice",""
"","bandit","33","805195","0.0-18.0-15.0","87164086","wem/bandit_party_2","A1ERMRNNR0CZ2Y","either","3","2145","","","","","","","1","0","0","0.8","","0.5","0.5","","","","","","","0.8","0.2","","","","","","","","","","","","74","J","0","img/none_selected_demo.jpg","true","0","80_20_practice",""
"","bandit","34","815405","0.0-18.0-16.0","87164086","wem/bandit_party_2","A1ERMRNNR0CZ2Y","either","3","8699","","","","","","","0","0","1","0.2","","0.5","0.5","","","","","","","0.8","0.2","","","","","","","","","","","","75","K","1","","true","0","80_20_practice",""
"","bandit","35","819366","0.0-18.0-17.0","87164086","wem/bandit_party_2","A1ERMRNNR0CZ2Y","either","3","2445","","","","","","","1","0","0","0.8","","0.5","0.5","","","","","","","0.8","0.2","","","","","","","","","","","","74","J","0","img/none_selected_demo.jpg","true","0","80_20_practice",""
"","bandit","36","824805","0.0-18.0-18.0","87164086","wem/bandit_party_2","A1ERMRNNR0CZ2Y","either","3","3926","","","","","","","0","1","0","","0.8","0.5","0.5","","","0.8","0.2","","","","","","","","","","","","","","","","74","J","0","img/none_selected_demo.jpg","true","0","80_20_practice",""
"","bandit","37","829170","0.0-18.0-19.0","87164086","wem/bandit_party_2","A1ERMRNNR0CZ2Y","either","3","2855","","","","","","","0","1","0","","0.8","0.5","0.5","","","0.8","0.2","","","","","","","","","","","","","","","","74","J","0","img/none_selected_demo.jpg","true","0","80_20_practice",""
"","text-replacement","38","839332","0.0-19.0","87164086","wem/bandit_party_2","A1ERMRNNR0CZ2Y","either","3","10155","","","32","","","","","","","","","","","","","","","","","","","","","","","","","","","","","","","","","","","","",""
"","bandit","39","842476","0.0-20.0-0.0","87164086","wem/bandit_party_2","A1ERMRNNR0CZ2Y","either","3","1626","","","","","","","1","0","0","1","0","","","","","0","1","","","1","0","","","","","","","","","","","","74","J","0","img/none_selected_demo.jpg","true","0","",""
"","text-replacement","40","849072","0.0-21.0","87164086","wem/bandit_party_2","A1ERMRNNR0CZ2Y","either","3","6589","","","32","","","","","","","","","","","","","","","","","","","","","","","","","","","","","","","","","","","","",""
"","text-replacement","41","893882","0.0-22.0","87164086","wem/bandit_party_2","A1ERMRNNR0CZ2Y","either","3","44805","","","32","","","","","","","","","","","","","","","","","","","","","","","","","","","","","","","","","","","","",""
"","text-replacement","42","908383","0.0-23.0","87164086","wem/bandit_party_2","A1ERMRNNR0CZ2Y","either","3","14495","","","32","","","","","","","","","","","","","","","","","","","","","","","","","","","","","","","","","","","","",""
"","text-replacement","43","910883","0.0-24.0","87164086","wem/bandit_party_2","A1ERMRNNR0CZ2Y","either","3","2496","","","32","","","","","","","","","","","","","","","","","","","","","","","","","","","","","","","","","","","","",""
"","text-replacement","44","983420","0.0-25.0","87164086","wem/bandit_party_2","A1ERMRNNR0CZ2Y","either","3","72534","","","32","","","","","","","","","","","","","","","","","","","","","","","","","","","","","","","","","","","","",""
"","text-replacement","45","988385","0.0-26.0","87164086","wem/bandit_party_2","A1ERMRNNR0CZ2Y","either","3","4957","","","32","","","","","","","","","","","","","","","","","","","","","","","","","","","","","","","","","","","","",""
"","text-replacement","46","1034740","0.0-27.0","87164086","wem/bandit_party_2","A1ERMRNNR0CZ2Y","either","3","46347","","","32","","","","","","","","","","","","","","","","","","","","","","","","","","","","","","","","","","","","",""
"","text-replacement","47","1040275","0.0-28.0","87164086","wem/bandit_party_2","A1ERMRNNR0CZ2Y","either","3","5529","","","32","","","","","","","","","","","","","","","","","","","","","","","","","","","","","","","","","","","","",""
"","text-replacement","48","1072739","0.0-29.0","87164086","wem/bandit_party_2","A1ERMRNNR0CZ2Y","either","3","32461","","","32","","","","","","","","","","","","","","","","","","","","","","","","","","","","","","","","","","","","",""
"","text-replacement","49","1074729","0.0-30.0","87164086","wem/bandit_party_2","A1ERMRNNR0CZ2Y","either","3","1984","","","32","","","","","","","","","","","","","","","","","","","","","","","","","","","","","","","","","","","","",""
"","text-replacement","50","1078669","0.0-31.0","87164086","wem/bandit_party_2","A1ERMRNNR0CZ2Y","either","3","3933","","","32","","","","","","","","","","","","","","","","","","","","","","","","","","","","","","","","","","","","",""
"","bandit","51","1080874","0.0-32.0-0.0","87164086","wem/bandit_party_2","A1ERMRNNR0CZ2Y","either","3","691","","","","","","","0","0","1","0.8","","0.5","0.5","0.5","0.5","","","","","0.8","0.2","0.6","0.2","","","","","","","","","","72","H","0","img/none_selected.jpg","true","0","full_practice",""
"","bandit","52","1084086","0.0-32.0-1.0","87164086","wem/bandit_party_2","A1ERMRNNR0CZ2Y","either","3","1690","","","","","","","0","0","1","0.2","","0.5","0.5","0.5","0.5","","","","","0.8","0.2","0.6","0.2","","","","","","","","","","76","L","3","","true","0","full_practice",""
"","bandit","53","1087039","0.0-32.0-2.0","87164086","wem/bandit_party_2","A1ERMRNNR0CZ2Y","either","3","1447","","","","","","","0","0","1","0.2","","0.5","0.5","0.5","0.5","","","","","0.8","0.2","0.6","0.2","","","","","","","","","","74","J","1","","true","0","full_practice",""
"","bandit","54","1089004","0.0-32.0-3.0","87164086","wem/bandit_party_2","A1ERMRNNR0CZ2Y","either","3","457","","","","","","","1","0","0","0.6","","0.5","0.5","0.5","0.5","","","","","0.8","0.2","0.6","0.2","","","","","","","","","","75","K","2","","true","0","full_practice",""
"","bandit","55","1091362","0.0-32.0-4.0","87164086","wem/bandit_party_2","A1ERMRNNR0CZ2Y","either","3","841","","","","","","","1","0","0","0.6","","0.5","0.5","0.5","0.5","","","","","0.8","0.2","0.6","0.2","","","","","","","","","","75","K","2","","true","0","full_practice",""
"","bandit","56","1093526","0.0-32.0-5.0","87164086","wem/bandit_party_2","A1ERMRNNR0CZ2Y","either","3","647","","","","","","","0","0","1","0.6","","0.5","0.5","0.5","0.5","","","","","0.8","0.2","0.6","0.2","","","","","","","","","","75","K","2","","true","0","full_practice",""
"","bandit","57","1096659","0.0-32.0-6.0","87164086","wem/bandit_party_2","A1ERMRNNR0CZ2Y","either","3","1615","","","","","","","0","0","1","","0.2","0.5","0.5","0.5","0.5","0.8","0.2","0.6","0.2","","","","","","","","","","","","","","76","L","3","","true","0","full_practice",""
"","bandit","58","1099193","0.0-32.0-7.0","87164086","wem/bandit_party_2","A1ERMRNNR0CZ2Y","either","3","1023","","","","","","","0","0","1","0.2","","0.5","0.5","0.5","0.5","","","","","0.8","0.2","0.6","0.2","","","","","","","","","","74","J","1","","true","0","full_practice",""
"","bandit","59","1101239","0.0-32.0-8.0","87164086","wem/bandit_party_2","A1ERMRNNR0CZ2Y","either","3","532","","","","","","","0","0","1","","0.6","0.5","0.5","0.5","0.5","0.8","0.2","0.6","0.2","","","","","","","","","","","","","","75","K","2","","true","0","full_practice",""
"","bandit","60","1103711","0.0-32.0-9.0","87164086","wem/bandit_party_2","A1ERMRNNR0CZ2Y","either","3","958","","","","","","","1","0","0","0.8","","0.5","0.5","0.5","0.5","","","","","0.8","0.2","0.6","0.2","","","","","","","","","","72","H","0","img/none_selected.jpg","true","0","full_practice",""
"","bandit","61","1105683","0.0-32.0-10.0","87164086","wem/bandit_party_2","A1ERMRNNR0CZ2Y","either","3","451","","","","","","","0","1","0","","0.8","0.5","0.5","0.5","0.5","0.8","0.2","0.6","0.2","","","","","","","","","","","","","","72","H","0","img/none_selected.jpg","true","0","full_practice",""
"","bandit","62","1108109","0.0-32.0-11.0","87164086","wem/bandit_party_2","A1ERMRNNR0CZ2Y","either","3","907","","","","","","","0","1","0","","0.8","0.5","0.5","0.5","0.5","0.8","0.2","0.6","0.2","","","","","","","","","","","","","","72","H","0","img/none_selected.jpg","true","0","full_practice",""
"","bandit","63","1110428","0.0-32.0-12.0","87164086","wem/bandit_party_2","A1ERMRNNR0CZ2Y","either","3","807","","","","","","","0","1","0","","0.8","0.5","0.5","0.5","0.5","0.8","0.2","0.6","0.2","","","","","","","","","","","","","","72","H","0","img/none_selected.jpg","true","0","full_practice",""
"","bandit","64","1112938","0.0-32.0-13.0","87164086","wem/bandit_party_2","A1ERMRNNR0CZ2Y","either","3","996","","","","","","","1","0","0","0.8","","0.5","0.5","0.5","0.5","","","","","0.8","0.2","0.6","0.2","","","","","","","","","","72","H","0","img/none_selected.jpg","true","0","full_practice",""
"","bandit","65","1115195","0.0-32.0-14.0","87164086","wem/bandit_party_2","A1ERMRNNR0CZ2Y","either","3","738","","","","","","","0","1","0","","0.8","0.5","0.5","0.5","0.5","0.8","0.2","0.6","0.2","","","","","","","","","","","","","","72","H","0","img/none_selected.jpg","true","0","full_practice",""
"","bandit","66","1117357","0.0-32.0-15.0","87164086","wem/bandit_party_2","A1ERMRNNR0CZ2Y","either","3","644","","","","","","","1","0","0","0.8","","0.5","0.5","0.5","0.5","","","","","0.8","0.2","0.6","0.2","","","","","","","","","","72","H","0","img/none_selected.jpg","true","0","full_practice",""
"","bandit","67","1119313","0.0-32.0-16.0","87164086","wem/bandit_party_2","A1ERMRNNR0CZ2Y","either","3","437","","","","","","","0","0","1","","0.8","0.5","0.5","0.5","0.5","0.8","0.2","0.6","0.2","","","","","","","","","","","","","","72","H","0","img/none_selected.jpg","true","0","full_practice",""
"","bandit","68","1121234","0.0-32.0-17.0","87164086","wem/bandit_party_2","A1ERMRNNR0CZ2Y","either","3","406","","","","","","","1","0","0","0.2","","0.5","0.5","0.5","0.5","","","","","0.8","0.2","0.6","0.2","","","","","","","","","","74","J","1","","true","0","full_practice",""
"","bandit","69","1127968","0.0-32.0-18.0","87164086","wem/bandit_party_2","A1ERMRNNR0CZ2Y","either","3","5213","","","","","","","0","0","1","","0.2","0.5","0.5","0.5","0.5","0.8","0.2","0.6","0.2","","","","","","","","","","","","","","74","J","1","","true","0","full_practice",""
"","bandit","70","1130284","0.0-32.0-19.0","87164086","wem/bandit_party_2","A1ERMRNNR0CZ2Y","either","3","802","","","","","","","0","0","1","0.2","","0.5","0.5","0.5","0.5","","","","","0.8","0.2","0.6","0.2","","","","","","","","","","74","J","1","","true","0","full_practice",""
"","text","71","1136605","0.0-33.0","87164086","wem/bandit_party_2","A1ERMRNNR0CZ2Y","either","3","6313","","","32","","","","","","","","","","","","","","","","","","","","","","","","","","","","","","","","","","","","",""
"","text-replacement","72","1179837","0.0-34.0","87164086","wem/bandit_party_2","A1ERMRNNR0CZ2Y","either","3","42222","","","32","","","","","","","","","","","","","","","","","","","","","","","","","","","","","","","","","","","","",""
"","text-replacement","73","1191587","0.0-35.0","87164086","wem/bandit_party_2","A1ERMRNNR0CZ2Y","either","3","11743","","","32","","","","","","","","","","","","","","","","","","","","","","","","","","","","","","","","","","","","",""
"","text-replacement","74","1201803","0.0-36.0","87164086","wem/bandit_party_2","A1ERMRNNR0CZ2Y","either","3","10206","","","32","","","","","","","","","","","","","","","","","","","","","","","","","","","","","","","","","","","","",""
"","text-replacement","75","1206039","0.0-37.0","87164086","wem/bandit_party_2","A1ERMRNNR0CZ2Y","either","3","4226","","","32","","","","","","","","","","","","","","","","","","","","","","","","","","","","","","","","","","","","",""
"","text-replacement","76","1211753","0.0-38.0","87164086","wem/bandit_party_2","A1ERMRNNR0CZ2Y","either","3","5711","","","32","","","","","","","","","","","","","","","","","","","","","","","","","","","","","","","","","","","","",""
"","survey-multi-choice-replacement","77","1270151","0.0-39.0-0.0","87164086","wem/bandit_party_2","A1ERMRNNR0CZ2Y","either","3","58373","","","","","","","","","","","","","","","","","","","","","","","","Money will be added to the pool for <span style='color:blue;'>DEMOCRATS</span>","","","","","","","attn_check","","","","","","","","","0"
"","survey-multi-choice-replacement","78","1280797","0.0-40.0-0.0","87164086","wem/bandit_party_2","A1ERMRNNR0CZ2Y","either","3","9619","","","","","","","","","","","","","","","","","","","","","","","","Equal amounts of money will be added to the pool for <span style='color:blue;'>DEMOCRATS</span> and subtracted from the pool for <span style='color:red;'>REPUBLICANS</span>","","","","","","","attn_check","","","","","","","","","2"
"","survey-multi-choice-replacement","79","1284968","0.0-41.0-0.0","87164086","wem/bandit_party_2","A1ERMRNNR0CZ2Y","either","3","3147","","","","","","","","","","","","","","","","","","","","","","","","No money will be added to either pool","","","","","","","attn_check","","","","","","","","","3"
"","bandit","80","1289545","0.0-42.0-0.0","87164086","wem/bandit_party_2","A1ERMRNNR0CZ2Y","either","3","2063","","","","","","","0","0","1","0.1387034319","","0.6","0.2","0.4","0.8","","","","","0.6473934842","0.1387034319","0.6494041588","0.4261870849","","","","","","","","","","74","J","1","","","1","main_expt",""
"","bandit","81","1292434","0.0-43.0-0.0","87164086","wem/bandit_party_2","A1ERMRNNR0CZ2Y","either","3","1368","","","","","","","0","0","1","0.3223101542","","0.6","0.2","0.4","0.8","","","","","0.5221866694","0.2166337036","0.7608835745","0.3223101542","","","","","","","","","","76","L","3","","","2","main_expt",""
"","bandit","82","1294425","0.0-44.0-0.0","87164086","wem/bandit_party_2","A1ERMRNNR0CZ2Y","either","3","475","","","","","","","0","1","0","","0.7745567172","0.6","0.2","0.4","0.8","0.5356292978","0.3253899216","0.7745567172","0.2541217019","","","","","","","","","","","","","","75","K","2","","","3","main_expt",""
"","bandit","83","1296454","0.0-45.0-0.0","87164086","wem/bandit_party_2","A1ERMRNNR0CZ2Y","either","3","509","","","","","","","0","1","0","","0.8315703218","0.6","0.2","0.4","0.8","0.5154592071","0.3003293127","0.8315703218","0.2272043942","","","","","","","","","","","","","","75","K","2","","","4","main_expt",""
"","bandit","84","1299034","0.0-46.0-0.0","87164086","wem/bandit_party_2","A1ERMRNNR0CZ2Y","either","3","1064","","","","","","","0","1","0","","0.8380789219","0.6","0.2","0.4","0.8","0.4578896037","0.3839660868","0.8380789219","0.2967729676","","","","","","","","","","","","","","75","K","2","","","5","main_expt",""
"","bandit","85","1301462","0.0-47.0-0.0","87164086","wem/bandit_party_2","A1ERMRNNR0CZ2Y","either","3","913","","","","","","","0","1","0","","0.8233568153","0.6","0.2","0.4","0.8","0.4825789634","0.3833463511","0.8233568153","0.3211998527","","","","","","","","","","","","","","75","K","2","","","6","main_expt",""
"","bandit","86","1303784","0.0-48.0-0.0","87164086","wem/bandit_party_2","A1ERMRNNR0CZ2Y","either","3","806","","","","","","","1","0","0","0.8672840292","","0.6","0.2","0.4","0.8","","","","","0.4013658759","0.3173395401","0.8672840292","0.4190649117","","","","","","","","","","75","K","2","","","7","main_expt",""
"","bandit","87","1306036","0.0-49.0-0.0","87164086","wem/bandit_party_2","A1ERMRNNR0CZ2Y","either","3","734","","","","","","","0","1","0","","0.7921451217","0.6","0.2","0.4","0.8","0.3721769634","0.3265190876","0.7921451217","0.5253498774","","","","","","","","","","","","","","75","K","2","","","8","main_expt",""
"","bandit","88","1309839","0.0-50.0-0.0","87164086","wem/bandit_party_2","A1ERMRNNR0CZ2Y","either","3","2283","","","","","","","1","0","0","0.7826569337","","0.6","0.2","0.4","0.8","","","","","0.3934089605","0.4229840653","0.7826569337","0.5552176016","","","","","","","","","","75","K","2","","","9","main_expt",""
"","bandit","89","1311873","0.0-51.0-0.0","87164086","wem/bandit_party_2","A1ERMRNNR0CZ2Y","either","3","484","","","","","","","1","0","0","0.7150392401","","0.6","0.2","0.4","0.8","","","","","0.3360942297","0.5107168356","0.7150392401","0.654745146","","","","","","","","","","75","K","2","","","10","main_expt",""
"","bandit","90","1314651","0.0-52.0-0.0","87164086","wem/bandit_party_2","A1ERMRNNR0CZ2Y","either","3","1259","","","","","","","1","0","0","0.6906605055","","0.6","0.2","0.4","0.8","","","","","0.4969537907","0.4383577931","0.6906605055","0.6089063278","","","","","","","","","","75","K","2","","","11","main_expt",""
"","bandit","91","1316861","0.0-53.0-0.0","87164086","wem/bandit_party_2","A1ERMRNNR0CZ2Y","either","3","686","","","","","","","0","1","0","","0.6725575113","0.6","0.2","0.4","0.8","0.4760264401","0.5487148549","0.6725575113","0.559155858","","","","","","","","","","","","","","75","K","2","","","12","main_expt",""
"","bandit","92","1319325","0.0-54.0-0.0","87164086","wem/bandit_party_2","A1ERMRNNR0CZ2Y","either","3","949","","","","","","","1","0","0","0.7404599176","","0.6","0.2","0.4","0.8","","","","","0.4008761295","0.7407599438","0.7404599176","0.6464491645","","","","","","","","","","75","K","2","","","13","main_expt",""
"","bandit","93","1323854","0.0-55.0-0.0","87164086","wem/bandit_party_2","A1ERMRNNR0CZ2Y","either","3","3007","","","","","","","0","0","1","0.6751607758","","0.6","0.2","0.4","0.8","","","","","0.358486362","0.8307131687","0.6751607758","0.6936958995","","","","","","","","","","75","K","2","","","14","main_expt",""
"","bandit","94","1326319","0.0-56.0-0.0","87164086","wem/bandit_party_2","A1ERMRNNR0CZ2Y","either","3","947","","","","","","","0","0","1","0.395258373","","0.6","0.2","0.4","0.8","","","","","0.395258373","0.8114394421","0.6115440925","0.731471075","","","","","","","","","","72","H","0","img/none_selected.jpg","","15","main_expt",""
"","bandit","95","1328434","0.0-57.0-0.0","87164086","wem/bandit_party_2","A1ERMRNNR0CZ2Y","either","3","596","","","","","","","0","0","1","","0.8242397169","0.6","0.2","0.4","0.8","0.4197334966","0.8242397169","0.7019001419","0.6487541525","","","","","","","","","","","","","","74","J","1","","","16","main_expt",""
"","bandit","96","1330851","0.0-58.0-0.0","87164086","wem/bandit_party_2","A1ERMRNNR0CZ2Y","either","3","896","","","","","","","1","0","0","0.7654634758","","0.6","0.2","0.4","0.8","","","","","0.2160816064","0.8317633157","0.7017998","0.7654634758","","","","","","","","","","76","L","3","","","17","main_expt",""
"","bandit","97","1333205","0.0-59.0-0.0","87164086","wem/bandit_party_2","A1ERMRNNR0CZ2Y","either","3","827","","","","","","","0","0","1","0.7160830043","","0.6","0.2","0.4","0.8","","","","","0.2058632209","0.8158638682","0.7672473748","0.7160830043","","","","","","","","","","76","L","3","","","18","main_expt",""
"","bandit","98","1335121","0.0-60.0-0.0","87164086","wem/bandit_party_2","A1ERMRNNR0CZ2Y","either","3","398","","","","","","","1","0","0","0.6856656502","","0.6","0.2","0.4","0.8","","","","","0.2314559036","0.8291878069","0.7950219121","0.6856656502","","","","","","","","","","76","L","3","","","19","main_expt",""
"","bandit","99","1337595","0.0-61.0-0.0","87164086","wem/bandit_party_2","A1ERMRNNR0CZ2Y","either","3","959","","","","","","","1","0","0","0.6829400921","","0.6","0.2","0.4","0.8","","","","","0.1762066147","0.8665153398","0.8460513568","0.6829400921","","","","","","","","","","76","L","3","","","20","main_expt",""
"","bandit","100","1340444","0.0-62.0-0.0","87164086","wem/bandit_party_2","A1ERMRNNR0CZ2Y","either","3","1325","","","","","","","0","0","1","0.6849203215","","0.6","0.2","0.4","0.8","","","","","0.150477598","0.8181415858","0.8571228725","0.6849203215","","","","","","","","","","76","L","3","","","21","main_expt",""
"","bandit","101","1342725","0.0-63.0-0.0","87164086","wem/bandit_party_2","A1ERMRNNR0CZ2Y","either","3","758","","","","","","","0","1","0","","0.8498483749","0.6","0.2","0.4","0.8","0.1957635407","0.7731960963","0.8498483749","0.6832197831","","","","","","","","","","","","","","75","K","2","","","22","main_expt",""
"","bandit","102","1345161","0.0-64.0-0.0","87164086","wem/bandit_party_2","A1ERMRNNR0CZ2Y","either","3","919","","","","","","","1","0","0","0.887495535","","0.6","0.2","0.4","0.8","","","","","0.2193187944","0.8004626553","0.887495535","0.6103957523","","","","","","","","","","75","K","2","","","23","main_expt",""
"","bandit","103","1348009","0.0-65.0-0.0","87164086","wem/bandit_party_2","A1ERMRNNR0CZ2Y","either","3","1331","","","","","","","0","1","0","","0.918231735","0.6","0.2","0.4","0.8","0.1836328706","0.7941911222","0.918231735","0.5485819736","","","","","","","","","","","","","","75","K","2","","","24","main_expt",""
"","bandit","104","1351527","0.0-66.0-0.0","87164086","wem/bandit_party_2","A1ERMRNNR0CZ2Y","either","3","1995","","","","","","","0","1","0","","0.9111146318","0.6","0.2","0.4","0.8","0.1410441375","0.7100633829","0.9111146318","0.5852935809","","","","","","","","","","","","","","75","K","2","","","25","main_expt",""
"","bandit","105","1357001","0.0-67.0-0.0","87164086","wem/bandit_party_2","A1ERMRNNR0CZ2Y","either","3","3958","","","","","","","0","1","0","","0.9190640316","0.6","0.2","0.4","0.8","0.1082593399","0.6872129375","0.9190640316","0.6097892937","","","","","","","","","","","","","","75","K","2","","","26","main_expt",""
"","bandit","106","1359631","0.0-68.0-0.0","87164086","wem/bandit_party_2","A1ERMRNNR0CZ2Y","either","3","1120","","","","","","","0","1","0","","0.9372614837","0.6","0.2","0.4","0.8","0.1042047793","0.6798864795","0.9372614837","0.6653335402","","","","","","","","","","","","","","75","K","2","","","27","main_expt",""
"","bandit","107","1361842","0.0-69.0-0.0","87164086","wem/bandit_party_2","A1ERMRNNR0CZ2Y","either","3","686","","","","","","","1","0","0","0.9269484959","","0.6","0.2","0.4","0.8","","","","","0.1153509117","0.6812343762","0.9269484959","0.6850825106","","","","","","","","","","75","K","2","","","28","main_expt",""
"","bandit","108","1363897","0.0-70.0-0.0","87164086","wem/bandit_party_2","A1ERMRNNR0CZ2Y","either","3","539","","","","","","","0","1","0","","0.9376772981","0.6","0.2","0.4","0.8","0.1601566248","0.5305157647","0.9376772981","0.7309016742","","","","","","","","","","","","","","75","K","2","","","29","main_expt",""
"","bandit","109","1365840","0.0-71.0-0.0","87164086","wem/bandit_party_2","A1ERMRNNR0CZ2Y","either","3","420","","","","","","","0","1","0","","0.8795505253","0.6","0.2","0.4","0.8","0.09548927903","0.4713174284","0.8795505253","0.8141980113","","","","","","","","","","","","","","75","K","2","","","30","main_expt",""
"","bandit","110","1367602","0.0-72.0-0.0","87164086","wem/bandit_party_2","A1ERMRNNR0CZ2Y","either","3","239","","","","","","","0","1","0","","0.8605863748","0.6","0.2","0.4","0.8","0.09272353297","0.2938490869","0.8605863748","0.8926711601","","","","","","","","","","","","","","75","K","2","","","31","main_expt",""
"","bandit","111","1369452","0.0-73.0-0.0","87164086","wem/bandit_party_2","A1ERMRNNR0CZ2Y","either","3","327","","","","","","","0","1","0","","0.757600507","0.6","0.2","0.4","0.8","0.09547929832","0.3005160425","0.757600507","0.8397563013","","","","","","","","","","","","","","75","K","2","","","32","main_expt",""
"","bandit","112","1371566","0.0-74.0-0.0","87164086","wem/bandit_party_2","A1ERMRNNR0CZ2Y","either","3","595","","","","","","","1","0","0","0.7257103923","","0.6","0.2","0.4","0.8","","","","","0.08683876107","0.3661211491","0.7257103923","0.8251988787","","","","","","","","","","75","K","2","","","33","main_expt",""
"","bandit","113","1373556","0.0-75.0-0.0","87164086","wem/bandit_party_2","A1ERMRNNR0CZ2Y","either","3","464","","","","","","","0","1","0","","0.5786815464","0.6","0.2","0.4","0.8","0.08117088791","0.4614725573","0.5786815464","0.7303528712","","","","","","","","","","","","","","75","K","2","","","34","main_expt",""
"","bandit","114","1375524","0.0-76.0-0.0","87164086","wem/bandit_party_2","A1ERMRNNR0CZ2Y","either","3","448","","","","","","","0","0","1","","0.4812266686","0.6","0.2","0.4","0.8","0.09593582107","0.4597324626","0.4812266686","0.8093673003","","","","","","","","","","","","","","75","K","2","","","35","main_expt",""
"","bandit","115","1377407","0.0-77.0-0.0","87164086","wem/bandit_party_2","A1ERMRNNR0CZ2Y","either","3","367","","","","","","","1","0","0","0.79718131","","0.6","0.2","0.4","0.8","","","","","0.1392988708","0.4294742096","0.4459447539","0.79718131","","","","","","","","","","76","L","3","","","36","main_expt",""
"","bandit","116","1379300","0.0-78.0-0.0","87164086","wem/bandit_party_2","A1ERMRNNR0CZ2Y","either","3","373","","","","","","","1","0","0","0.8157762275","","0.6","0.2","0.4","0.8","","","","","0.07673209605","0.5301274199","0.5737218407","0.8157762275","","","","","","","","","","76","L","3","","","37","main_expt",""
"","bandit","117","1381245","0.0-79.0-0.0","87164086","wem/bandit_party_2","A1ERMRNNR0CZ2Y","either","3","428","","","","","","","0","0","1","0.7941499978","","0.6","0.2","0.4","0.8","","","","","0.1078843958","0.5746889943","0.6008421093","0.7941499978","","","","","","","","","","76","L","3","","","38","main_expt",""
"","bandit","118","1383157","0.0-80.0-0.0","87164086","wem/bandit_party_2","A1ERMRNNR0CZ2Y","either","3","388","","","","","","","0","1","0","","0.6076920036","0.6","0.2","0.4","0.8","0.09731722171","0.6621100331","0.6076920036","0.7352357368","","","","","","","","","","","","","","75","K","2","","","39","main_expt",""
"","bandit","119","1385845","0.0-81.0-0.0","87164086","wem/bandit_party_2","A1ERMRNNR0CZ2Y","either","3","1168","","","","","","","1","0","0","0.6616622706","","0.6","0.2","0.4","0.8","","","","","0.2123509389","0.6794361822","0.6616622706","0.7920886563","","","","","","","","","","75","K","2","","","40","main_expt",""
"","bandit","120","1387940","0.0-82.0-0.0","87164086","wem/bandit_party_2","A1ERMRNNR0CZ2Y","either","3","561","","","","","","","0","1","0","","0.6945341382","0.6","0.2","0.4","0.8","0.1265365425","0.7140523024","0.6945341382","0.8780543775","","","","","","","","","","","","","","75","K","2","","","41","main_expt",""
"","bandit","121","1390343","0.0-83.0-0.0","87164086","wem/bandit_party_2","A1ERMRNNR0CZ2Y","either","3","893","","","","","","","1","0","0","0.6833149102","","0.6","0.2","0.4","0.8","","","","","0.166138795","0.6669732994","0.6833149102","0.9167256642","","","","","","","","","","75","K","2","","","42","main_expt",""
"","bandit","122","1392519","0.0-84.0-0.0","87164086","wem/bandit_party_2","A1ERMRNNR0CZ2Y","either","3","655","","","","","","","0","0","1","0.7094953576","","0.6","0.2","0.4","0.8","","","","","0.1782339186","0.5435093165","0.7094953576","0.9407985187","","","","","","","","","","75","K","2","","","43","main_expt",""
"","bandit","123","1395132","0.0-85.0-0.0","87164086","wem/bandit_party_2","A1ERMRNNR0CZ2Y","either","3","1095","","","","","","","0","0","1","0.9000978766","","0.6","0.2","0.4","0.8","","","","","0.1342945815","0.6002661395","0.7519468023","0.9000978766","","","","","","","","","","76","L","3","","","44","main_expt",""
"","bandit","124","1398692","0.0-86.0-0.0","87164086","wem/bandit_party_2","A1ERMRNNR0CZ2Y","either","3","2044","","","","","","","1","0","0","0.9190036262","","0.6","0.2","0.4","0.8","","","","","0.09086288848","0.5948203474","0.7673203249","0.9190036262","","","","","","","","","","76","L","3","","","45","main_expt",""
"","bandit","125","1400755","0.0-87.0-0.0","87164086","wem/bandit_party_2","A1ERMRNNR0CZ2Y","either","3","542","","","","","","","1","0","0","0.8865788656","","0.6","0.2","0.4","0.8","","","","","0.06420934006","0.6230250108","0.722836051","0.8865788656","","","","","","","","","","76","L","3","","","46","main_expt",""
"","bandit","126","1403404","0.0-88.0-0.0","87164086","wem/bandit_party_2","A1ERMRNNR0CZ2Y","either","3","1126","","","","","","","0","0","1","0.8207935484","","0.6","0.2","0.4","0.8","","","","","0.02332738683","0.7239235909","0.7392487755","0.8207935484","","","","","","","","","","76","L","3","","","47","main_expt",""
"","bandit","127","1405249","0.0-89.0-0.0","87164086","wem/bandit_party_2","A1ERMRNNR0CZ2Y","either","3","326","","","","","","","0","1","0","","0.7551111279","0.6","0.2","0.4","0.8","0.03517565614","0.7715310514","0.7551111279","0.8170742187","","","","","","","","","","","","","","75","K","2","","","48","main_expt",""
"","bandit","128","1408026","0.0-90.0-0.0","87164086","wem/bandit_party_2","A1ERMRNNR0CZ2Y","either","3","1254","","","","","","","1","0","0","0.6917772817","","0.6","0.2","0.4","0.8","","","","","0.04466115719","0.822179592","0.6917772817","0.7874830355","","","","","","","","","","75","K","2","","","49","main_expt",""
"","bandit","129","1410780","0.0-91.0-0.0","87164086","wem/bandit_party_2","A1ERMRNNR0CZ2Y","either","3","1235","","","","","","","0","1","0","","0.6689959301","0.6","0.2","0.4","0.8","0.05053383529","0.8108951243","0.6689959301","0.8279472521","","","","","","","","","","","","","","75","K","2","","","50","main_expt",""
"","bandit","130","1412952","0.0-92.0-0.0","87164086","wem/bandit_party_2","A1ERMRNNR0CZ2Y","either","3","661","","","","","","","0","0","1","0.6020608281","","0.6","0.2","0.4","0.8","","","","","0.04681033125","0.7649170446","0.6020608281","0.8426817256","","","","","","","","","","75","K","2","","","51","main_expt",""
"","bandit","131","1415001","0.0-93.0-0.0","87164086","wem/bandit_party_2","A1ERMRNNR0CZ2Y","either","3","539","","","","","","","0","1","0","","0.8377647656","0.6","0.2","0.4","0.8","0.09308222201","0.8169848275","0.6583182673","0.8377647656","","","","","","","","","","","","","","76","L","3","","","52","main_expt",""
"","bandit","132","1419756","0.0-94.0-0.0","87164086","wem/bandit_party_2","A1ERMRNNR0CZ2Y","either","3","3242","","","","","","","1","0","0","0.8241398149","","0.6","0.2","0.4","0.8","","","","","0.1397702629","0.8843577791","0.5419436754","0.8241398149","","","","","","","","","","76","L","3","","","53","main_expt",""
"","bandit","133","1421632","0.0-95.0-0.0","87164086","wem/bandit_party_2","A1ERMRNNR0CZ2Y","either","3","352","","","","","","","0","1","0","","0.7289352116","0.6","0.2","0.4","0.8","0.110287685","0.8854515068","0.5717614462","0.7289352116","","","","","","","","","","","","","","76","L","3","","","54","main_expt",""
"","bandit","134","1423583","0.0-96.0-0.0","87164086","wem/bandit_party_2","A1ERMRNNR0CZ2Y","either","3","429","","","","","","","0","0","1","0.5895019519","","0.6","0.2","0.4","0.8","","","","","0.1843384007","0.8884574585","0.5497935615","0.5895019519","","","","","","","","","","76","L","3","","","55","main_expt",""
"","bandit","135","1425453","0.0-97.0-0.0","87164086","wem/bandit_party_2","A1ERMRNNR0CZ2Y","either","3","342","","","","","","","1","0","0","0.4902645195","","0.6","0.2","0.4","0.8","","","","","0.2056752237","0.8840911236","0.4902645195","0.4622464331","","","","","","","","","","75","K","2","","","56","main_expt",""
"","bandit","136","1427557","0.0-98.0-0.0","87164086","wem/bandit_party_2","A1ERMRNNR0CZ2Y","either","3","580","","","","","","","0","0","1","","0.5258365243","0.6","0.2","0.4","0.8","0.3410726922","0.864283103","0.5258365243","0.490024734","","","","","","","","","","","","","","75","K","2","","","57","main_expt",""
"","bandit","137","1429433","0.0-99.0-0.0","87164086","wem/bandit_party_2","A1ERMRNNR0CZ2Y","either","3","355","","","","","","","0","0","1","0.6182628796","","0.6","0.2","0.4","0.8","","","","","0.3873695161","0.7377821737","0.6097664349","0.6182628796","","","","","","","","","","76","L","3","","","58","main_expt",""
"","bandit","138","1431313","0.0-100.0-0.0","87164086","wem/bandit_party_2","A1ERMRNNR0CZ2Y","either","3","357","","","","","","","0","1","0","","0.6016711108","0.6","0.2","0.4","0.8","0.3281321534","0.7469541206","0.6016711108","0.6976829826","","","","","","","","","","","","","","75","K","2","","","59","main_expt",""
"","bandit","139","1433562","0.0-101.0-0.0","87164086","wem/bandit_party_2","A1ERMRNNR0CZ2Y","either","3","730","","","","","","","0","0","1","0.5544917648","","0.6","0.2","0.4","0.8","","","","","0.2380439254","0.8019510571","0.5544917648","0.675433977","","","","","","","","","","75","K","2","","","60","main_expt",""
"","bandit","140","1435393","0.0-102.0-0.0","87164086","wem/bandit_party_2","A1ERMRNNR0CZ2Y","either","3","311","","","","","","","1","0","0","0.7206550838","","0.6","0.2","0.4","0.8","","","","","0.2228222105","0.8943887388","0.6842720067","0.7206550838","","","","","","","","","","76","L","3","","","61","main_expt",""
"","bandit","141","1437349","0.0-103.0-0.0","87164086","wem/bandit_party_2","A1ERMRNNR0CZ2Y","either","3","429","","","","","","","0","0","1","0.7184677658","","0.6","0.2","0.4","0.8","","","","","0.2489253665","0.8942973556","0.6824345281","0.7184677658","","","","","","","","","","76","L","3","","","62","main_expt",""
"","bandit","142","1439110","0.0-104.0-0.0","87164086","wem/bandit_party_2","A1ERMRNNR0CZ2Y","either","3","243","","","","","","","0","0","1","","0.7321168219","0.6","0.2","0.4","0.8","0.2298237489","0.8829609874","0.7321168219","0.6785259816","","","","","","","","","","","","","","75","K","2","","","63","main_expt",""
"","bandit","143","1441046","0.0-105.0-0.0","87164086","wem/bandit_party_2","A1ERMRNNR0CZ2Y","either","3","425","","","","","","","1","0","0","0.8123013145","","0.6","0.2","0.4","0.8","","","","","0.1849055857","0.8175344892","0.8123013145","0.6349383059","","","","","","","","","","75","K","2","","","64","main_expt",""
"","bandit","144","1443043","0.0-106.0-0.0","87164086","wem/bandit_party_2","A1ERMRNNR0CZ2Y","either","3","479","","","","","","","0","1","0","","0.8236121316","0.6","0.2","0.4","0.8","0.2285715909","0.7812905168","0.8236121316","0.629769122","","","","","","","","","","","","","","75","K","2","","","65","main_expt",""
"","bandit","145","1445672","0.0-107.0-0.0","87164086","wem/bandit_party_2","A1ERMRNNR0CZ2Y","either","3","1101","","","","","","","1","0","0","0.8270077233","","0.6","0.2","0.4","0.8","","","","","0.2477643906","0.7848445355","0.8270077233","0.7158950816","","","","","","","","","","75","K","2","","","66","main_expt",""
"","bandit","146","1447460","0.0-108.0-0.0","87164086","wem/bandit_party_2","A1ERMRNNR0CZ2Y","either","3","267","","","","","","","0","1","0","","0.7601471472","0.6","0.2","0.4","0.8","0.1801078726","0.763143195","0.7601471472","0.6309271871","","","","","","","","","","","","","","75","K","2","","","67","main_expt",""
"","bandit","147","1449541","0.0-109.0-0.0","87164086","wem/bandit_party_2","A1ERMRNNR0CZ2Y","either","3","559","","","","","","","0","1","0","","0.7567750057","0.6","0.2","0.4","0.8","0.08479184886","0.7966751536","0.7567750057","0.617221228","","","","","","","","","","","","","","75","K","2","","","68","main_expt",""
"","bandit","148","1452289","0.0-110.0-0.0","87164086","wem/bandit_party_2","A1ERMRNNR0CZ2Y","either","3","1228","","","","","","","0","1","0","","0.6871277649","0.6","0.2","0.4","0.8","0.06982522498","0.8534335227","0.6871277649","0.6235929763","","","","","","","","","","","","","","75","K","2","","","69","main_expt",""
"","bandit","149","1454645","0.0-111.0-0.0","87164086","wem/bandit_party_2","A1ERMRNNR0CZ2Y","either","3","830","","","","","","","0","1","0","","0.773099018","0.6","0.2","0.4","0.8","0.05029268469","0.8915498471","0.773099018","0.5543620559","","","","","","","","","","","","","","75","K","2","","","70","main_expt",""
"","bandit","150","1467843","0.0-112.0-0.0","87164086","wem/bandit_party_2","A1ERMRNNR0CZ2Y","either","3","11663","","","","","","","0","1","0","","0.7412476729","0.6","0.2","0.4","0.8","0.06413839938","0.8736989015","0.7412476729","0.5333999135","","","","","","","","","","","","","","75","K","2","","","71","main_expt",""
"","bandit","151","1470557","0.0-113.0-0.0","87164086","wem/bandit_party_2","A1ERMRNNR0CZ2Y","either","3","1191","","","","","","","1","0","0","0.8080704968","","0.6","0.2","0.4","0.8","","","","","0.05155778705","0.8837551658","0.8080704968","0.5905126671","","","","","","","","","","75","K","2","","","72","main_expt",""
"","bandit","152","1473488","0.0-114.0-0.0","87164086","wem/bandit_party_2","A1ERMRNNR0CZ2Y","either","3","1415","","","","","","","0","1","0","","0.8270016227","0.6","0.2","0.4","0.8","0.0232747386","0.8495494246","0.8270016227","0.6925119087","","","","","","","","","","","","","","75","K","2","","","73","main_expt",""
"","bandit","153","1476172","0.0-115.0-0.0","87164086","wem/bandit_party_2","A1ERMRNNR0CZ2Y","either","3","1173","","","","","","","0","1","0","","0.7872017979","0.6","0.2","0.4","0.8","0.04751547773","0.9127472651","0.7872017979","0.7134745341","","","","","","","","","","","","","","75","K","2","","","74","main_expt",""
"","bandit","154","1479239","0.0-116.0-0.0","87164086","wem/bandit_party_2","A1ERMRNNR0CZ2Y","either","3","1541","","","","","","","0","0","1","0.6167225576","","0.6","0.2","0.4","0.8","","","","","0.05282531612","0.9199060817","0.6167225576","0.8065440948","","","","","","","","","","75","K","2","","","75","main_expt",""
"","bandit","155","1481043","0.0-117.0-0.0","87164086","wem/bandit_party_2","A1ERMRNNR0CZ2Y","either","3","295","","","","","","","0","1","0","","0.637182095","0.6","0.2","0.4","0.8","0.08738729654","0.8691294168","0.637182095","0.7849172319","","","","","","","","","","","","","","75","K","2","","","76","main_expt",""
"","bandit","156","1482904","0.0-118.0-0.0","87164086","wem/bandit_party_2","A1ERMRNNR0CZ2Y","either","3","350","","","","","","","0","0","1","0.7169911294","","0.6","0.2","0.4","0.8","","","","","0.08851312664","0.9111329321","0.7169911294","0.7818962729","","","","","","","","","","75","K","2","","","77","main_expt",""
"","bandit","157","1484704","0.0-119.0-0.0","87164086","wem/bandit_party_2","A1ERMRNNR0CZ2Y","either","3","291","","","","","","","0","0","1","","0.7446448061","0.6","0.2","0.4","0.8","0.145228539","0.9286966754","0.7446448061","0.7002933386","","","","","","","","","","","","","","75","K","2","","","78","main_expt",""
"","bandit","158","1487111","0.0-120.0-0.0","87164086","wem/bandit_party_2","A1ERMRNNR0CZ2Y","either","3","881","","","","","","","0","0","1","0.6510109529","","0.6","0.2","0.4","0.8","","","","","0.1669860915","0.9616021792","0.8152221547","0.6510109529","","","","","","","","","","76","L","3","","","79","main_expt",""
"","bandit","159","1490760","0.0-121.0-0.0","87164086","wem/bandit_party_2","A1ERMRNNR0CZ2Y","either","3","2139","","","","","","","1","0","0","0.6765614865","","0.6","0.2","0.4","0.8","","","","","0.1922913003","0.950571795","0.810351938","0.6765614865","","","","","","","","","","76","L","3","","","80","main_expt",""
"","bandit","160","1493499","0.0-122.0-0.0","87164086","wem/bandit_party_2","A1ERMRNNR0CZ2Y","either","3","1217","","","","","","","0","0","1","0.5908869344","","0.6","0.2","0.4","0.8","","","","","0.2407870914","0.9331160128","0.8895110989","0.5908869344","","","","","","","","","","76","L","3","","","81","main_expt",""
"","bandit","161","1495326","0.0-123.0-0.0","87164086","wem/bandit_party_2","A1ERMRNNR0CZ2Y","either","3","302","","","","","","","0","0","1","0.5267531711","","0.6","0.2","0.4","0.8","","","","","0.3077898034","0.9465986336","0.9046816681","0.5267531711","","","","","","","","","","76","L","3","","","82","main_expt",""
"","bandit","162","1497290","0.0-124.0-0.0","87164086","wem/bandit_party_2","A1ERMRNNR0CZ2Y","either","3","451","","","","","","","0","1","0","","0.8465278631","0.6","0.2","0.4","0.8","0.2337579628","0.9371159138","0.8465278631","0.6168373964","","","","","","","","","","","","","","75","K","2","","","83","main_expt",""
"","bandit","163","1499799","0.0-125.0-0.0","87164086","wem/bandit_party_2","A1ERMRNNR0CZ2Y","either","3","983","","","","","","","0","1","0","","0.7584930438","0.6","0.2","0.4","0.8","0.2781329454","0.8998840018","0.7584930438","0.5733990252","","","","","","","","","","","","","","75","K","2","","","84","main_expt",""
"","bandit","164","1502219","0.0-126.0-0.0","87164086","wem/bandit_party_2","A1ERMRNNR0CZ2Y","either","3","901","","","","","","","1","0","0","0.7727946294","","0.6","0.2","0.4","0.8","","","","","0.3013149798","0.9102188985","0.7727946294","0.4719695616","","","","","","","","","","75","K","2","","","85","main_expt",""
"","bandit","165","1504380","0.0-127.0-0.0","87164086","wem/bandit_party_2","A1ERMRNNR0CZ2Y","either","3","651","","","","","","","0","0","1","","0.8216594778","0.6","0.2","0.4","0.8","0.3231836659","0.9000055418","0.8216594778","0.6941651786","","","","","","","","","","","","","","75","K","2","","","86","main_expt",""
"","bandit","166","1506531","0.0-128.0-0.0","87164086","wem/bandit_party_2","A1ERMRNNR0CZ2Y","either","3","623","","","","","","","1","0","0","0.5408952125","","0.6","0.2","0.4","0.8","","","","","0.3986379136","0.8563468124","0.7833884788","0.5408952125","","","","","","","","","","76","L","3","","","87","main_expt",""
"","bandit","167","1508884","0.0-129.0-0.0","87164086","wem/bandit_party_2","A1ERMRNNR0CZ2Y","either","3","829","","","","","","","0","0","1","0.5438891422","","0.6","0.2","0.4","0.8","","","","","0.4230151841","0.7349543302","0.7804426693","0.5438891422","","","","","","","","","","76","L","3","","","88","main_expt",""
"","bandit","168","1511049","0.0-130.0-0.0","87164086","wem/bandit_party_2","A1ERMRNNR0CZ2Y","either","3","643","","","","","","","1","0","0","0.7930928848","","0.6","0.2","0.4","0.8","","","","","0.3761858397","0.7907967515","0.7930928848","0.4294971294","","","","","","","","","","75","K","2","","","89","main_expt",""
"","bandit","169","1513375","0.0-131.0-0.0","87164086","wem/bandit_party_2","A1ERMRNNR0CZ2Y","either","3","800","","","","","","","0","0","1","0.7683039237","","0.6","0.2","0.4","0.8","","","","","0.4799086841","0.7883246469","0.7683039237","0.4928337868","","","","","","","","","","75","K","2","","","90","main_expt",""
"","bandit","170","1515236","0.0-132.0-0.0","87164086","wem/bandit_party_2","A1ERMRNNR0CZ2Y","either","3","339","","","","","","","0","0","1","0.5655090935","","0.6","0.2","0.4","0.8","","","","","0.4558425901","0.8389096604","0.8072091422","0.5655090935","","","","","","","","","","76","L","3","","","91","main_expt",""
"","bandit","171","1517277","0.0-133.0-0.0","87164086","wem/bandit_party_2","A1ERMRNNR0CZ2Y","either","3","514","","","","","","","0","1","0","","0.7791444337","0.6","0.2","0.4","0.8","0.3781515597","0.8064187158","0.7791444337","0.6154818033","","","","","","","","","","","","","","75","K","2","","","92","main_expt",""
"","bandit","172","1519820","0.0-134.0-0.0","87164086","wem/bandit_party_2","A1ERMRNNR0CZ2Y","either","3","1018","","","","","","","0","0","1","","0.8498372391","0.6","0.2","0.4","0.8","0.2858753042","0.7542368763","0.8498372391","0.7381217307","","","","","","","","","","","","","","75","K","2","","","93","main_expt",""
"","bandit","173","1521901","0.0-135.0-0.0","87164086","wem/bandit_party_2","A1ERMRNNR0CZ2Y","either","3","544","","","","","","","0","1","0","","0.8440610374","0.6","0.2","0.4","0.8","0.3914428564","0.6932487021","0.8440610374","0.7776388333","","","","","","","","","","","","","","75","K","2","","","94","main_expt",""
"","bandit","174","1524334","0.0-136.0-0.0","87164086","wem/bandit_party_2","A1ERMRNNR0CZ2Y","either","3","902","","","","","","","0","1","0","","0.8092418145","0.6","0.2","0.4","0.8","0.3800018616","0.6706070003","0.8092418145","0.8299152283","","","","","","","","","","","","","","75","K","2","","","95","main_expt",""
"","bandit","175","1526353","0.0-137.0-0.0","87164086","wem/bandit_party_2","A1ERMRNNR0CZ2Y","either","3","497","","","","","","","1","0","0","0.8655172998","","0.6","0.2","0.4","0.8","","","","","0.3078584031","0.6670251336","0.8655172998","0.7697811485","","","","","","","","","","75","K","2","","","96","main_expt",""
"","bandit","176","1529260","0.0-138.0-0.0","87164086","wem/bandit_party_2","A1ERMRNNR0CZ2Y","either","3","1383","","","","","","","1","0","0","0.8735151232","","0.6","0.2","0.4","0.8","","","","","0.218486712","0.7023758817","0.8735151232","0.7487724405","","","","","","","","","","75","K","2","","","97","main_expt",""
"","bandit","177","1531579","0.0-139.0-0.0","87164086","wem/bandit_party_2","A1ERMRNNR0CZ2Y","either","3","793","","","","","","","0","1","0","","0.84409386","0.6","0.2","0.4","0.8","0.2037628256","0.7036518389","0.84409386","0.7450583294","","","","","","","","","","","","","","75","K","2","","","98","main_expt",""
"","bandit","178","1533821","0.0-140.0-0.0","87164086","wem/bandit_party_2","A1ERMRNNR0CZ2Y","either","3","712","","","","","","","1","0","0","0.8089648913","","0.6","0.2","0.4","0.8","","","","","0.2400196326","0.8401346726","0.8089648913","0.7227120129","","","","","","","","","","75","K","2","","","99","main_expt",""
"","bandit","179","1535945","0.0-141.0-0.0","87164086","wem/bandit_party_2","A1ERMRNNR0CZ2Y","either","3","601","","","","","","","0","0","1","0.7259557377","","0.6","0.2","0.4","0.8","","","","","0.3298222115","0.8640782416","0.7259557377","0.5872141049","","","","","","","","","","75","K","2","","","100","main_expt",""
"","bandit","180","1537861","0.0-142.0-0.0","87164086","wem/bandit_party_2","A1ERMRNNR0CZ2Y","either","3","394","","","","","","","0","1","0","","0.6332869741","0.6","0.2","0.4","0.8","0.3108047587","0.8232172207","0.6332869741","0.6432213136","","","","","","","","","","","","","","75","K","2","","","101","main_expt",""
"","bandit","181","1540026","0.0-143.0-0.0","87164086","wem/bandit_party_2","A1ERMRNNR0CZ2Y","either","3","646","","","","","","","0","0","1","","0.659443461","0.6","0.2","0.4","0.8","0.2869381514","0.8451901448","0.659443461","0.6009476408","","","","","","","","","","","","","","75","K","2","","","102","main_expt",""
"","bandit","182","1541836","0.0-144.0-0.0","87164086","wem/bandit_party_2","A1ERMRNNR0CZ2Y","either","3","292","","","","","","","0","1","0","","0.5959971703","0.6","0.2","0.4","0.8","0.246485708","0.8792283932","0.5959971703","0.6120105745","","","","","","","","","","","","","","75","K","2","","","103","main_expt",""
"","bandit","183","1543726","0.0-145.0-0.0","87164086","wem/bandit_party_2","A1ERMRNNR0CZ2Y","either","3","362","","","","","","","0","1","0","","0.5643630141","0.6","0.2","0.4","0.8","0.2175667678","0.8887181638","0.5643630141","0.6821098495","","","","","","","","","","","","","","75","K","2","","","104","main_expt",""
"","bandit","184","1546194","0.0-146.0-0.0","87164086","wem/bandit_party_2","A1ERMRNNR0CZ2Y","either","3","957","","","","","","","0","1","0","","0.5489079514","0.6","0.2","0.4","0.8","0.2645808036","0.8013578166","0.5489079514","0.7228510016","","","","","","","","","","","","","","75","K","2","","","105","main_expt",""
"","bandit","185","1548666","0.0-147.0-0.0","87164086","wem/bandit_party_2","A1ERMRNNR0CZ2Y","either","3","947","","","","","","","0","1","0","","0.4336033326","0.6","0.2","0.4","0.8","0.2652424516","0.7307006529","0.4336033326","0.6639212405","","","","","","","","","","","","","","75","K","2","","","106","main_expt",""
"","bandit","186","1550627","0.0-148.0-0.0","87164086","wem/bandit_party_2","A1ERMRNNR0CZ2Y","either","3","437","","","","","","","0","1","0","","0.4779201531","0.6","0.2","0.4","0.8","0.2481661544","0.7519500851","0.4779201531","0.6237034742","","","","","","","","","","","","","","75","K","2","","","107","main_expt",""
"","bandit","187","1552434","0.0-149.0-0.0","87164086","wem/bandit_party_2","A1ERMRNNR0CZ2Y","either","3","286","","","","","","","0","0","1","","0.5075294874","0.6","0.2","0.4","0.8","0.2361720859","0.7457577851","0.5075294874","0.5847293191","","","","","","","","","","","","","","75","K","2","","","108","main_expt",""
"","bandit","188","1554816","0.0-150.0-0.0","87164086","wem/bandit_party_2","A1ERMRNNR0CZ2Y","either","3","857","","","","","","","0","1","0","","0.522842385","0.6","0.2","0.4","0.8","0.2799679389","0.77583868","0.522842385","0.6260859175","","","","","","","","","","","","","","75","K","2","","","109","main_expt",""
"","bandit","189","1557456","0.0-151.0-0.0","87164086","wem/bandit_party_2","A1ERMRNNR0CZ2Y","either","3","1116","","","","","","","0","0","1","0.419893696","","0.6","0.2","0.4","0.8","","","","","0.3333098602","0.7520827962","0.419893696","0.4788227383","","","","","","","","","","75","K","2","","","110","main_expt",""
"","bandit","190","1559390","0.0-152.0-0.0","87164086","wem/bandit_party_2","A1ERMRNNR0CZ2Y","either","3","407","","","","","","","1","0","0","0.431092028","","0.6","0.2","0.4","0.8","","","","","0.3669732535","0.6512809768","0.431092028","0.6019778282","","","","","","","","","","75","K","2","","","111","main_expt",""
"","bandit","191","1562331","0.0-153.0-0.0","87164086","wem/bandit_party_2","A1ERMRNNR0CZ2Y","either","3","1414","","","","","","","0","0","1","0.3590071368","","0.6","0.2","0.4","0.8","","","","","0.389765336","0.5891937939","0.3590071368","0.546445977","","","","","","","","","","75","K","2","","","112","main_expt",""
"","bandit","192","1565001","0.0-154.0-0.0","87164086","wem/bandit_party_2","A1ERMRNNR0CZ2Y","either","3","1151","","","","","","","1","0","0","0.4498419114","","0.6","0.2","0.4","0.8","","","","","0.3191506652","0.6490525038","0.4498419114","0.6256092846","","","","","","","","","","75","K","2","","","113","main_expt",""
"","bandit","193","1567245","0.0-155.0-0.0","87164086","wem/bandit_party_2","A1ERMRNNR0CZ2Y","either","3","732","","","","","","","0","0","1","","0.4829831469","0.6","0.2","0.4","0.8","0.2090321438","0.6283680234","0.4829831469","0.6577617598","","","","","","","","","","","","","","75","K","2","","","114","main_expt",""
"","bandit","194","1569349","0.0-156.0-0.0","87164086","wem/bandit_party_2","A1ERMRNNR0CZ2Y","either","3","572","","","","","","","0","0","1","0.7140476354","","0.6","0.2","0.4","0.8","","","","","0.2094439124","0.6064224059","0.4846695964","0.7140476354","","","","","","","","","","76","L","3","","","115","main_expt",""
"","bandit","195","1571285","0.0-157.0-0.0","87164086","wem/bandit_party_2","A1ERMRNNR0CZ2Y","either","3","407","","","","","","","0","0","1","0.5396909338","","0.6","0.2","0.4","0.8","","","","","0.2695181069","0.545813367","0.5396909338","0.6589976567","","","","","","","","","","75","K","2","","","116","main_expt",""
"","bandit","196","1573162","0.0-158.0-0.0","87164086","wem/bandit_party_2","A1ERMRNNR0CZ2Y","either","3","351","","","","","","","1","0","0","0.5378282835","","0.6","0.2","0.4","0.8","","","","","0.3402036285","0.5179373022","0.5378282835","0.6937703341","","","","","","","","","","75","K","2","","","117","main_expt",""
"","bandit","197","1575870","0.0-159.0-0.0","87164086","wem/bandit_party_2","A1ERMRNNR0CZ2Y","either","3","1185","","","","","","","0","1","0","","0.5729988564","0.6","0.2","0.4","0.8","0.3101634078","0.4014157923","0.5729988564","0.77114399","","","","","","","","","","","","","","75","K","2","","","118","main_expt",""
"","bandit","198","1578161","0.0-160.0-0.0","87164086","wem/bandit_party_2","A1ERMRNNR0CZ2Y","either","3","769","","","","","","","1","0","0","0.5630251564","","0.6","0.2","0.4","0.8","","","","","0.3242193616","0.4360264599","0.5630251564","0.710000291","","","","","","","","","","75","K","2","","","119","main_expt",""
"","bandit","199","1579925","0.0-161.0-0.0","87164086","wem/bandit_party_2","A1ERMRNNR0CZ2Y","either","3","246","","","","","","","0","0","1","0.6482115929","","0.6","0.2","0.4","0.8","","","","","0.3334277272","0.3297853269","0.6482115929","0.6767982245","","","","","","","","","","75","K","2","","","120","main_expt",""
"","bandit","200","1582209","0.0-162.0-0.0","87164086","wem/bandit_party_2","A1ERMRNNR0CZ2Y","either","3","770","","","","","","","0","0","1","0.5688505083","","0.6","0.2","0.4","0.8","","","","","0.4066521311","0.3767442019","0.5688505083","0.7360115258","","","","","","","","","","75","K","2","","","121","main_expt",""
"","bandit","201","1584113","0.0-163.0-0.0","87164086","wem/bandit_party_2","A1ERMRNNR0CZ2Y","either","3","376","","","","","","","1","0","0","0.5349597204","","0.6","0.2","0.4","0.8","","","","","0.5193034213","0.3589515546","0.5349597204","0.7258716992","","","","","","","","","","75","K","2","","","122","main_expt",""
"","bandit","202","1586397","0.0-164.0-0.0","87164086","wem/bandit_party_2","A1ERMRNNR0CZ2Y","either","3","763","","","","","","","0","1","0","","0.412887176","0.6","0.2","0.4","0.8","0.5594962391","0.3461890545","0.412887176","0.7848203729","","","","","","","","","","","","","","75","K","2","","","123","main_expt",""
"","bandit","203","1588275","0.0-165.0-0.0","87164086","wem/bandit_party_2","A1ERMRNNR0CZ2Y","either","3","350","","","","","","","0","0","1","","0.4137060999","0.6","0.2","0.4","0.8","0.6876014299","0.2287340519","0.4137060999","0.7673004895","","","","","","","","","","","","","","75","K","2","","","124","main_expt",""
"","bandit","204","1590262","0.0-166.0-0.0","87164086","wem/bandit_party_2","A1ERMRNNR0CZ2Y","either","3","462","","","","","","","0","0","1","0.3226696341","","0.6","0.2","0.4","0.8","","","","","0.7354493796","0.2900718705","0.3226696341","0.8020703208","","","","","","","","","","75","K","2","","","125","main_expt",""
"","bandit","205","1592151","0.0-167.0-0.0","87164086","wem/bandit_party_2","A1ERMRNNR0CZ2Y","either","3","364","","","","","","","0","0","1","0.8196031782","","0.6","0.2","0.4","0.8","","","","","0.76840964","0.2880997441","0.3904211026","0.8196031782","","","","","","","","","","76","L","3","","","126","main_expt",""
"","bandit","206","1593962","0.0-168.0-0.0","87164086","wem/bandit_party_2","A1ERMRNNR0CZ2Y","either","3","298","","","","","","","1","0","0","0.7095492128","","0.6","0.2","0.4","0.8","","","","","0.7310750685","0.3451069126","0.4227014292","0.7095492128","","","","","","","","","","76","L","3","","","127","main_expt",""
"","bandit","207","1595952","0.0-169.0-0.0","87164086","wem/bandit_party_2","A1ERMRNNR0CZ2Y","either","3","461","","","","","","","1","0","0","0.711577854","","0.6","0.2","0.4","0.8","","","","","0.6582635175","0.3129298861","0.543317668","0.711577854","","","","","","","","","","76","L","3","","","128","main_expt",""
"","bandit","208","1598364","0.0-170.0-0.0","87164086","wem/bandit_party_2","A1ERMRNNR0CZ2Y","either","3","900","","","","","","","1","0","0","0.7022761705","","0.6","0.2","0.4","0.8","","","","","0.7529887683","0.3507055597","0.5906282681","0.7022761705","","","","","","","","","","76","L","3","","","129","main_expt",""
"","bandit","209","1600400","0.0-171.0-0.0","87164086","wem/bandit_party_2","A1ERMRNNR0CZ2Y","either","3","509","","","","","","","1","0","0","0.7309419319","","0.6","0.2","0.4","0.8","","","","","0.7929301986","0.3753424236","0.6636268631","0.7309419319","","","","","","","","","","76","L","3","","","130","main_expt",""
"","bandit","210","1603606","0.0-172.0-0.0","87164086","wem/bandit_party_2","A1ERMRNNR0CZ2Y","either","3","1671","","","","","","","1","0","0","0.6904825683","","0.6","0.2","0.4","0.8","","","","","0.8149544693","0.3473486375","0.5686699027","0.6904825683","","","","","","","","","","76","L","3","","","131","main_expt",""
"","bandit","211","1607769","0.0-173.0-0.0","87164086","wem/bandit_party_2","A1ERMRNNR0CZ2Y","either","3","2642","","","","","","","0","1","0","","0.7153166113","0.6","0.2","0.4","0.8","0.7626544417","0.303679922","0.6564012045","0.7153166113","","","","","","","","","","","","","","76","L","3","","","132","main_expt",""
"","bandit","212","1610979","0.0-174.0-0.0","87164086","wem/bandit_party_2","A1ERMRNNR0CZ2Y","either","3","1679","","","","","","","1","0","0","0.8135501627","","0.6","0.2","0.4","0.8","","","","","0.7584501248","0.3385565331","0.5876654864","0.8135501627","","","","","","","","","","76","L","3","","","133","main_expt",""
"","bandit","213","1612520","0.0-175.0-0.0","87164086","wem/bandit_party_2","A1ERMRNNR0CZ2Y","either","3","14","","","","","","","1","0","0","0.7707892239","","0.6","0.2","0.4","0.8","","","","","0.7905015291","0.3686406913","0.5299368298","0.7707892239","","","","","","","","","","76","L","3","","","134","main_expt",""
"","bandit","214","1615016","0.0-176.0-0.0","87164086","wem/bandit_party_2","A1ERMRNNR0CZ2Y","either","3","971","","","","","","","1","0","0","0.7689088841","","0.6","0.2","0.4","0.8","","","","","0.7515189777","0.3672202126","0.4547966061","0.7689088841","","","","","","","","","","76","L","3","","","135","main_expt",""
"","bandit","215","1617069","0.0-177.0-0.0","87164086","wem/bandit_party_2","A1ERMRNNR0CZ2Y","either","3","543","","","","","","","1","0","0","0.6641324257","","0.6","0.2","0.4","0.8","","","","","0.7293518859","0.4064769993","0.5290841583","0.6641324257","","","","","","","","","","76","L","3","","","136","main_expt",""
"","bandit","216","1619569","0.0-178.0-0.0","87164086","wem/bandit_party_2","A1ERMRNNR0CZ2Y","either","3","974","","","","","","","0","0","1","0.635388201","","0.6","0.2","0.4","0.8","","","","","0.7286216209","0.3492503667","0.419904672","0.635388201","","","","","","","","","","76","L","3","","","137","main_expt",""
"","bandit","217","1621434","0.0-179.0-0.0","87164086","wem/bandit_party_2","A1ERMRNNR0CZ2Y","either","3","337","","","","","","","0","1","0","","0.6889508363","0.6","0.2","0.4","0.8","0.7425921641","0.3315752647","0.4532768315","0.6889508363","","","","","","","","","","","","","","76","L","3","","","138","main_expt",""
"","bandit","218","1623597","0.0-180.0-0.0","87164086","wem/bandit_party_2","A1ERMRNNR0CZ2Y","either","3","635","","","","","","","1","0","0","0.6481427694","","0.6","0.2","0.4","0.8","","","","","0.7356638012","0.3080831972","0.4194835996","0.6481427694","","","","","","","","","","76","L","3","","","139","main_expt",""
"","bandit","219","1625783","0.0-181.0-0.0","87164086","wem/bandit_party_2","A1ERMRNNR0CZ2Y","either","3","672","","","","","","","1","0","0","0.6497449761","","0.6","0.2","0.4","0.8","","","","","0.7334346803","0.3254670704","0.420008375","0.6497449761","","","","","","","","","","76","L","3","","","140","main_expt",""
"","bandit","220","1627926","0.0-182.0-0.0","87164086","wem/bandit_party_2","A1ERMRNNR0CZ2Y","either","3","617","","","","","","","1","0","0","0.7328205829","","0.6","0.2","0.4","0.8","","","","","0.7737071977","0.3452870884","0.3908595681","0.7328205829","","","","","","","","","","76","L","3","","","141","main_expt",""
"","bandit","221","1629859","0.0-183.0-0.0","87164086","wem/bandit_party_2","A1ERMRNNR0CZ2Y","either","3","411","","","","","","","0","1","0","","0.6396752577","0.6","0.2","0.4","0.8","0.7912630164","0.2659846132","0.3994278682","0.6396752577","","","","","","","","","","","","","","76","L","3","","","142","main_expt",""
"","bandit","222","1631940","0.0-184.0-0.0","87164086","wem/bandit_party_2","A1ERMRNNR0CZ2Y","either","3","560","","","","","","","0","1","0","","0.5974809775","0.6","0.2","0.4","0.8","0.7709923268","0.2549781044","0.3137486051","0.5974809775","","","","","","","","","","","","","","76","L","3","","","143","main_expt",""
"","bandit","223","1634155","0.0-185.0-0.0","87164086","wem/bandit_party_2","A1ERMRNNR0CZ2Y","either","3","704","","","","","","","0","1","0","","0.5953980303","0.6","0.2","0.4","0.8","0.7492848764","0.3603981418","0.3961992406","0.5953980303","","","","","","","","","","","","","","76","L","3","","","144","main_expt",""
"","bandit","224","1636155","0.0-186.0-0.0","87164086","wem/bandit_party_2","A1ERMRNNR0CZ2Y","either","3","479","","","","","","","1","0","0","0.6215671736","","0.6","0.2","0.4","0.8","","","","","0.7343485297","0.3682949958","0.3186856111","0.6215671736","","","","","","","","","","76","L","3","","","145","main_expt",""
"","bandit","225","1638113","0.0-187.0-0.0","87164086","wem/bandit_party_2","A1ERMRNNR0CZ2Y","either","3","433","","","","","","","0","0","1","0.5766937592","","0.6","0.2","0.4","0.8","","","","","0.7701032705","0.5028772858","0.2724247948","0.5766937592","","","","","","","","","","76","L","3","","","146","main_expt",""
"","bandit","226","1640580","0.0-188.0-0.0","87164086","wem/bandit_party_2","A1ERMRNNR0CZ2Y","either","3","943","","","","","","","1","0","0","0.4600492943","","0.6","0.2","0.4","0.8","","","","","0.7521601774","0.4186890645","0.2844288079","0.4600492943","","","","","","","","","","76","L","3","","","147","main_expt",""
"","bandit","227","1643737","0.0-189.0-0.0","87164086","wem/bandit_party_2","A1ERMRNNR0CZ2Y","either","3","1622","","","","","","","0","1","0","","0.4575448178","0.6","0.2","0.4","0.8","0.7762143641","0.3928328601","0.3095389551","0.4575448178","","","","","","","","","","","","","","76","L","3","","","148","main_expt",""
"","bandit","228","1646410","0.0-190.0-0.0","87164086","wem/bandit_party_2","A1ERMRNNR0CZ2Y","either","3","1143","","","","","","","0","1","0","","0.3840278576","0.6","0.2","0.4","0.8","0.716016993","0.4220063763","0.2464654743","0.3840278576","","","","","","","","","","","","","","76","L","3","","","149","main_expt",""
"","bandit","229","1649142","0.0-191.0-0.0","87164086","wem/bandit_party_2","A1ERMRNNR0CZ2Y","either","3","1202","","","","","","","0","0","1","0.3004406684","","0.6","0.2","0.4","0.8","","","","","0.7182774931","0.3206822378","0.2088091358","0.3004406684","","","","","","","","","","76","L","3","","","150","main_expt",""
"","bandit","230","1651025","0.0-192.0-0.0","87164086","wem/bandit_party_2","A1ERMRNNR0CZ2Y","either","3","355","","","","","","","0","1","0","","0.2670014618","0.6","0.2","0.4","0.8","0.8028216805","0.3380172956","0.2670014618","0.2769981479","","","","","","","","","","","","","","75","K","2","","","151","main_expt",""
"","bandit","231","1653695","0.0-193.0-0.0","87164086","wem/bandit_party_2","A1ERMRNNR0CZ2Y","either","3","1152","","","","","","","0","1","0","","0.3100930243","0.6","0.2","0.4","0.8","0.8634692279","0.2461440624","0.3100930243","0.40565407","","","","","","","","","","","","","","75","K","2","","","152","main_expt",""
"","bandit","232","1655985","0.0-194.0-0.0","87164086","wem/bandit_party_2","A1ERMRNNR0CZ2Y","either","3","772","","","","","","","1","0","0","0.3796096158","","0.6","0.2","0.4","0.8","","","","","0.7719190238","0.1852716423","0.3796096158","0.3829351634","","","","","","","","","","75","K","2","","","153","main_expt",""
"","bandit","233","1657937","0.0-195.0-0.0","87164086","wem/bandit_party_2","A1ERMRNNR0CZ2Y","either","3","441","","","","","","","0","0","1","","0.2265028128","0.6","0.2","0.4","0.8","0.8343429945","0.1660439368","0.2265028128","0.4912137185","","","","","","","","","","","","","","75","K","2","","","154","main_expt",""
"","bandit","234","1660678","0.0-196.0-0.0","87164086","wem/bandit_party_2","A1ERMRNNR0CZ2Y","either","3","1225","","","","","","","0","0","1","","0.2135741777","0.6","0.2","0.4","0.8","0.7908731232","0.2241607793","0.2135741777","0.5312535156","","","","","","","","","","","","","","75","K","2","","","155","main_expt",""
"","bandit","235","1663200","0.0-197.0-0.0","87164086","wem/bandit_party_2","A1ERMRNNR0CZ2Y","either","3","992","","","","","","","0","0","1","0.1338357519","","0.6","0.2","0.4","0.8","","","","","0.7848911391","0.1566338899","0.1338357519","0.5747898199","","","","","","","","","","75","K","2","","","156","main_expt",""
"","bandit","236","1665050","0.0-198.0-0.0","87164086","wem/bandit_party_2","A1ERMRNNR0CZ2Y","either","3","321","","","","","","","0","0","1","0.1344370697","","0.6","0.2","0.4","0.8","","","","","0.7467155263","0.1839373886","0.1344370697","0.5948125822","","","","","","","","","","75","K","2","","","157","main_expt",""
"","bandit","237","1666937","0.0-199.0-0.0","87164086","wem/bandit_party_2","A1ERMRNNR0CZ2Y","either","3","367","","","","","","","1","0","0","0.6533804049","","0.6","0.2","0.4","0.8","","","","","0.7413618202","0.155802242","0.1217930933","0.6533804049","","","","","","","","","","76","L","3","","","158","main_expt",""
"","bandit","238","1675688","0.0-200.0-0.0","87164086","wem/bandit_party_2","A1ERMRNNR0CZ2Y","either","3","7235","","","","","","","0","0","1","","0.08524485746","0.6","0.2","0.4","0.8","0.6882043704","0.2304237345","0.08524485746","0.5777198579","","","","","","","","","","","","","","75","K","2","","","159","main_expt",""
"","bandit","239","1677588","0.0-201.0-0.0","87164086","wem/bandit_party_2","A1ERMRNNR0CZ2Y","either","3","376","","","","","","","0","0","1","0.6777741118","","0.6","0.2","0.4","0.8","","","","","0.7253096401","0.2242026456","0.07332219892","0.6777741118","","","","","","","","","","76","L","3","","","160","main_expt",""
"","bandit","240","1679934","0.0-202.0-0.0","87164086","wem/bandit_party_2","A1ERMRNNR0CZ2Y","either","3","835","","","","","","","0","0","1","0.6249074267","","0.6","0.2","0.4","0.8","","","","","0.6989182833","0.2708915048","0.1063489691","0.6249074267","","","","","","","","","","76","L","3","","","161","main_expt",""
"","bandit","241","1682960","0.0-203.0-0.0","87164086","wem/bandit_party_2","A1ERMRNNR0CZ2Y","either","3","1514","","","","","","","0","1","0","","0.6755041601","0.6","0.2","0.4","0.8","0.7679575172","0.2921592604","0.09670310095","0.6755041601","","","","","","","","","","","","","","76","L","3","","","162","main_expt",""
"","bandit","242","1686450","0.0-204.0-0.0","87164086","wem/bandit_party_2","A1ERMRNNR0CZ2Y","either","3","1974","","","","","","","1","0","0","0.6461818487","","0.6","0.2","0.4","0.8","","","","","0.6877390752","0.2050535257","0.1266359811","0.6461818487","","","","","","","","","","76","L","3","","","163","main_expt",""
"","bandit","243","1688958","0.0-205.0-0.0","87164086","wem/bandit_party_2","A1ERMRNNR0CZ2Y","either","3","984","","","","","","","1","0","0","0.76368027","","0.6","0.2","0.4","0.8","","","","","0.6957575266","0.1998759094","0.1212611996","0.76368027","","","","","","","","","","76","L","3","","","164","main_expt",""
"","bandit","244","1691173","0.0-206.0-0.0","87164086","wem/bandit_party_2","A1ERMRNNR0CZ2Y","either","3","700","","","","","","","1","0","0","0.8400099296","","0.6","0.2","0.4","0.8","","","","","0.6760148625","0.1821974317","0.1917887173","0.8400099296","","","","","","","","","","76","L","3","","","165","main_expt",""
"","bandit","245","1693425","0.0-207.0-0.0","87164086","wem/bandit_party_2","A1ERMRNNR0CZ2Y","either","3","715","","","","","","","1","0","0","0.8573275969","","0.6","0.2","0.4","0.8","","","","","0.6463317238","0.2916844583","0.1560613016","0.8573275969","","","","","","","","","","76","L","3","","","166","main_expt",""
"","bandit","246","1695283","0.0-208.0-0.0","87164086","wem/bandit_party_2","A1ERMRNNR0CZ2Y","either","3","329","","","","","","","0","0","1","0.7735369509","","0.6","0.2","0.4","0.8","","","","","0.5613055562","0.3087465624","0.2214887095","0.7735369509","","","","","","","","","","76","L","3","","","167","main_expt",""
"","bandit","247","1697225","0.0-209.0-0.0","87164086","wem/bandit_party_2","A1ERMRNNR0CZ2Y","either","3","429","","","","","","","0","1","0","","0.3463453368","0.6","0.2","0.4","0.8","0.5586162784","0.3896626528","0.3463453368","0.8091314607","","","","","","","","","","","","","","75","K","2","","","168","main_expt",""
"","bandit","248","1698924","0.0-210.0-0.0","87164086","wem/bandit_party_2","A1ERMRNNR0CZ2Y","either","3","179","","","","","","","0","1","0","","0.3222551453","0.6","0.2","0.4","0.8","0.597448185","0.4458805252","0.3222551453","0.8364166478","","","","","","","","","","","","","","75","K","2","","","169","main_expt",""
"","bandit","249","1702979","0.0-211.0-0.0","87164086","wem/bandit_party_2","A1ERMRNNR0CZ2Y","either","3","2524","","","","","","","0","0","1","0.2556410415","","0.6","0.2","0.4","0.8","","","","","0.5351242352","0.4844269655","0.2556410415","0.7867883415","","","","","","","","","","75","K","2","","","170","main_expt",""
"","bandit","250","1706316","0.0-212.0-0.0","87164086","wem/bandit_party_2","A1ERMRNNR0CZ2Y","either","3","1824","","","","","","","0","0","1","0.2248109201","","0.6","0.2","0.4","0.8","","","","","0.4819966971","0.4858642724","0.2248109201","0.8728822524","","","","","","","","","","75","K","2","","","171","main_expt",""
"","bandit","251","1708416","0.0-213.0-0.0","87164086","wem/bandit_party_2","A1ERMRNNR0CZ2Y","either","3","571","","","","","","","1","0","0","0.7804912391","","0.6","0.2","0.4","0.8","","","","","0.4038669266","0.5060245996","0.3468742366","0.7804912391","","","","","","","","","","76","L","3","","","172","main_expt",""
"","bandit","252","1711281","0.0-214.0-0.0","87164086","wem/bandit_party_2","A1ERMRNNR0CZ2Y","either","3","1338","","","","","","","1","0","0","0.7728490534","","0.6","0.2","0.4","0.8","","","","","0.3102533384","0.5413528159","0.234408543","0.7728490534","","","","","","","","","","76","L","3","","","173","main_expt",""
"","bandit","253","1715628","0.0-215.0-0.0","87164086","wem/bandit_party_2","A1ERMRNNR0CZ2Y","either","3","2834","","","","","","","1","0","0","0.814185781","","0.6","0.2","0.4","0.8","","","","","0.3818943333","0.6505326818","0.1404050277","0.814185781","","","","","","","","","","76","L","3","","","174","main_expt",""
"","bandit","254","1717866","0.0-216.0-0.0","87164086","wem/bandit_party_2","A1ERMRNNR0CZ2Y","either","3","704","","","","","","","1","0","0","0.8010682597","","0.6","0.2","0.4","0.8","","","","","0.2893198216","0.6470977149","0.1081611795","0.8010682597","","","","","","","","","","76","L","3","","","175","main_expt",""
"","bandit","255","1719795","0.0-217.0-0.0","87164086","wem/bandit_party_2","A1ERMRNNR0CZ2Y","either","3","416","","","","","","","0","0","1","0.7083228223","","0.6","0.2","0.4","0.8","","","","","0.226416223","0.6844229635","0.0730283124","0.7083228223","","","","","","","","","","76","L","3","","","176","main_expt",""
"","bandit","256","1722416","0.0-218.0-0.0","87164086","wem/bandit_party_2","A1ERMRNNR0CZ2Y","either","3","1088","","","","","","","0","0","1","0.7408938443","","0.6","0.2","0.4","0.8","","","","","0.2786676386","0.6883244284","0.07044941978","0.7408938443","","","","","","","","","","76","L","3","","","177","main_expt",""
"","bandit","257","1724258","0.0-219.0-0.0","87164086","wem/bandit_party_2","A1ERMRNNR0CZ2Y","either","3","315","","","","","","","0","0","1","0.06886985111","","0.6","0.2","0.4","0.8","","","","","0.2279078815","0.6098590842","0.06886985111","0.6621187214","","","","","","","","","","75","K","2","","","178","main_expt",""
"","bandit","258","1726395","0.0-220.0-0.0","87164086","wem/bandit_party_2","A1ERMRNNR0CZ2Y","either","3","605","","","","","","","0","0","1","","0.07254371148","0.6","0.2","0.4","0.8","0.1690126781","0.5924449164","0.07254371148","0.6765487854","","","","","","","","","","","","","","75","K","2","","","179","main_expt",""
"","bandit","259","1732037","0.0-221.0-0.0","87164086","wem/bandit_party_2","A1ERMRNNR0CZ2Y","either","3","4122","","","","","","","0","0","1","0.055057054","","0.6","0.2","0.4","0.8","","","","","0.1356066944","0.4915111467","0.055057054","0.7276027883","","","","","","","","","","75","K","2","","","180","main_expt",""
"","bandit","260","1734692","0.0-222.0-0.0","87164086","wem/bandit_party_2","A1ERMRNNR0CZ2Y","either","3","1141","","","","","","","0","0","1","","0.1187845962","0.6","0.2","0.4","0.8","0.1889441784","0.4713933083","0.1187845962","0.7083410305","","","","","","","","","","","","","","75","K","2","","","181","main_expt",""
"","bandit","261","1736463","0.0-223.0-0.0","87164086","wem/bandit_party_2","A1ERMRNNR0CZ2Y","either","3","236","","","","","","","1","0","0","0.6489729838","","0.6","0.2","0.4","0.8","","","","","0.2163976064","0.500114893","0.1304227184","0.6489729838","","","","","","","","","","76","L","3","","","182","main_expt",""
"","bandit","262","1738660","0.0-224.0-0.0","87164086","wem/bandit_party_2","A1ERMRNNR0CZ2Y","either","3","665","","","","","","","0","0","1","","0.6956751073","0.6","0.2","0.4","0.8","0.1902524086","0.4949273894","0.1374638341","0.6956751073","","","","","","","","","","","","","","76","L","3","","","183","main_expt",""
"","bandit","263","1740465","0.0-225.0-0.0","87164086","wem/bandit_party_2","A1ERMRNNR0CZ2Y","either","3","271","","","","","","","0","0","1","0.6066537109","","0.6","0.2","0.4","0.8","","","","","0.2265805791","0.4271361476","0.1914365344","0.6066537109","","","","","","","","","","76","L","3","","","184","main_expt",""
"","bandit","264","1742025","0.0-226.0-0.0","87164086","wem/bandit_party_2","A1ERMRNNR0CZ2Y","either","3","13","","","","","","","0","0","1","0.1939872458","","0.6","0.2","0.4","0.8","","","","","0.1843452782","0.4558255176","0.1939872458","0.6337362372","","","","","","","","","","75","K","2","","","185","main_expt",""
"","bandit","265","1744979","0.0-227.0-0.0","87164086","wem/bandit_party_2","A1ERMRNNR0CZ2Y","either","3","1434","","","","","","","0","0","1","","0.2219937035","0.6","0.2","0.4","0.8","0.1898387663","0.4031301461","0.2219937035","0.5908962551","","","","","","","","","","","","","","75","K","2","","","186","main_expt",""
"","bandit","266","1747132","0.0-228.0-0.0","87164086","wem/bandit_party_2","A1ERMRNNR0CZ2Y","either","3","638","","","","","","","0","0","1","","0.2024523472","0.6","0.2","0.4","0.8","0.210498268","0.3993697366","0.2024523472","0.7651761031","","","","","","","","","","","","","","75","K","2","","","187","main_expt",""
"","bandit","267","1749084","0.0-229.0-0.0","87164086","wem/bandit_party_2","A1ERMRNNR0CZ2Y","either","3","432","","","","","","","0","0","1","","0.1930401344","0.6","0.2","0.4","0.8","0.2368649008","0.4478687375","0.1930401344","0.7928336054","","","","","","","","","","","","","","75","K","2","","","188","main_expt",""
"","bandit","268","1751051","0.0-230.0-0.0","87164086","wem/bandit_party_2","A1ERMRNNR0CZ2Y","either","3","437","","","","","","","1","0","0","0.8917358491","","0.6","0.2","0.4","0.8","","","","","0.291591963","0.3699601256","0.3255404916","0.8917358491","","","","","","","","","","76","L","3","","","189","main_expt",""
"","bandit","269","1753316","0.0-231.0-0.0","87164086","wem/bandit_party_2","A1ERMRNNR0CZ2Y","either","3","754","","","","","","","0","0","1","0.898448025","","0.6","0.2","0.4","0.8","","","","","0.4411779124","0.3723251068","0.2364063212","0.898448025","","","","","","","","","","76","L","3","","","190","main_expt",""
"","bandit","270","1755833","0.0-232.0-0.0","87164086","wem/bandit_party_2","A1ERMRNNR0CZ2Y","either","3","983","","","","","","","0","0","1","0.9186708851","","0.6","0.2","0.4","0.8","","","","","0.3968704403","0.3309849287","0.2662767285","0.9186708851","","","","","","","","","","76","L","3","","","191","main_expt",""
"","bandit","271","1757705","0.0-233.0-0.0","87164086","wem/bandit_party_2","A1ERMRNNR0CZ2Y","either","3","339","","","","","","","1","0","0","0.9314477517","","0.6","0.2","0.4","0.8","","","","","0.4512817608","0.2865625263","0.2815174114","0.9314477517","","","","","","","","","","76","L","3","","","192","main_expt",""
"","bandit","272","1759846","0.0-234.0-0.0","87164086","wem/bandit_party_2","A1ERMRNNR0CZ2Y","either","3","612","","","","","","","1","0","0","0.9090465067","","0.6","0.2","0.4","0.8","","","","","0.4788006455","0.2862811746","0.3461293965","0.9090465067","","","","","","","","","","76","L","3","","","193","main_expt",""
"","bandit","273","1762435","0.0-235.0-0.0","87164086","wem/bandit_party_2","A1ERMRNNR0CZ2Y","either","3","1062","","","","","","","0","1","0","","0.8762249788","0.6","0.2","0.4","0.8","0.4651889587","0.2785288642","0.3303735913","0.8762249788","","","","","","","","","","","","","","76","L","3","","","194","main_expt",""
"","bandit","274","1766189","0.0-236.0-0.0","87164086","wem/bandit_party_2","A1ERMRNNR0CZ2Y","either","3","2221","","","","","","","1","0","0","0.8623185747","","0.6","0.2","0.4","0.8","","","","","0.4718629942","0.2283941808","0.3194565039","0.8623185747","","","","","","","","","","76","L","3","","","195","main_expt",""
"","bandit","275","1768056","0.0-237.0-0.0","87164086","wem/bandit_party_2","A1ERMRNNR0CZ2Y","either","3","338","","","","","","","1","0","0","0.7745977574","","0.6","0.2","0.4","0.8","","","","","0.3825708332","0.214282227","0.4103944464","0.7745977574","","","","","","","","","","76","L","3","","","196","main_expt",""
"","bandit","276","1770139","0.0-238.0-0.0","87164086","wem/bandit_party_2","A1ERMRNNR0CZ2Y","either","3","572","","","","","","","1","0","0","0.7723069829","","0.6","0.2","0.4","0.8","","","","","0.4530864699","0.1422959513","0.4445726534","0.7723069829","","","","","","","","","","76","L","3","","","197","main_expt",""
"","bandit","277","1772688","0.0-239.0-0.0","87164086","wem/bandit_party_2","A1ERMRNNR0CZ2Y","either","3","1028","","","","","","","1","0","0","0.7084082875","","0.6","0.2","0.4","0.8","","","","","0.4337652667","0.1126324943","0.4351718099","0.7084082875","","","","","","","","","","76","L","3","","","198","main_expt",""
"","bandit","278","1774740","0.0-240.0-0.0","87164086","wem/bandit_party_2","A1ERMRNNR0CZ2Y","either","3","523","","","","","","","1","0","0","0.7016883558","","0.6","0.2","0.4","0.8","","","","","0.4138332966","0.1144166609","0.4641294157","0.7016883558","","","","","","","","","","76","L","3","","","199","main_expt",""
"","bandit","279","1776868","0.0-241.0-0.0","87164086","wem/bandit_party_2","A1ERMRNNR0CZ2Y","either","3","604","","","","","","","0","1","0","","0.6504384346","0.6","0.2","0.4","0.8","0.5005175686","0.1518003708","0.4468687069","0.6504384346","","","","","","","","","","","","","","76","L","3","","","200","main_expt",""
"","bandit","280","1808797","0.0-242.0-0.0","87164086","wem/bandit_party_2","A1ERMRNNR0CZ2Y","either","3","30409","","","","","","","1","0","0","0.5087435212","","0.6","0.2","0.4","0.8","","","","","0.5122642399","0.1974433607","0.5087435212","0.7904945102","","","","","","","","","","75","K","2","","","201","main_expt",""
"","bandit","281","1811217","0.0-243.0-0.0","87164086","wem/bandit_party_2","A1ERMRNNR0CZ2Y","either","3","900","","","","","","","0","1","0","","0.4992132835","0.6","0.2","0.4","0.8","0.5414597976","0.2000842809","0.4992132835","0.7039472437","","","","","","","","","","","","","","75","K","2","","","202","main_expt",""
"","bandit","282","1814476","0.0-244.0-0.0","87164086","wem/bandit_party_2","A1ERMRNNR0CZ2Y","either","3","1738","","","","","","","1","0","0","0.4859842053","","0.6","0.2","0.4","0.8","","","","","0.4993649945","0.1715580826","0.4859842053","0.7478807213","","","","","","","","","","75","K","2","","","203","main_expt",""
"","bandit","283","1816586","0.0-245.0-0.0","87164086","wem/bandit_party_2","A1ERMRNNR0CZ2Y","either","3","592","","","","","","","0","1","0","","0.6162755314","0.6","0.2","0.4","0.8","0.4056752737","0.3028604286","0.6162755314","0.7346150791","","","","","","","","","","","","","","75","K","2","","","204","main_expt",""
"","bandit","284","1818784","0.0-246.0-0.0","87164086","wem/bandit_party_2","A1ERMRNNR0CZ2Y","either","3","678","","","","","","","0","0","1","","0.6204906845","0.6","0.2","0.4","0.8","0.4174768156","0.3714949669","0.6204906845","0.7240623961","","","","","","","","","","","","","","75","K","2","","","205","main_expt",""
"","bandit","285","1820696","0.0-247.0-0.0","87164086","wem/bandit_party_2","A1ERMRNNR0CZ2Y","either","3","393","","","","","","","1","0","0","0.6390595606","","0.6","0.2","0.4","0.8","","","","","0.4364097613","0.3034865557","0.6390595606","0.733657826","","","","","","","","","","75","K","2","","","206","main_expt",""
"","bandit","286","1823713","0.0-248.0-0.0","87164086","wem/bandit_party_2","A1ERMRNNR0CZ2Y","either","3","1497","","","","","","","0","1","0","","0.6022157482","0.6","0.2","0.4","0.8","0.4666062126","0.2688105372","0.6022157482","0.6797091947","","","","","","","","","","","","","","75","K","2","","","207","main_expt",""
"","bandit","287","1858242","0.0-249.0-0.0","87164086","wem/bandit_party_2","A1ERMRNNR0CZ2Y","either","3","33009","","","","","","","1","0","0","0.6598502583","","0.6","0.2","0.4","0.8","","","","","0.4594719295","0.2240001326","0.6598502583","0.472157919","","","","","","","","","","75","K","2","","","208","main_expt",""
"","bandit","288","1860588","0.0-250.0-0.0","87164086","wem/bandit_party_2","A1ERMRNNR0CZ2Y","either","3","345","","","","","","","0","1","0","","0.6329069529","0.6","0.2","0.4","0.8","0.5415101973","0.3284172364","0.6329069529","0.4993955773","","","","","","","","","","","","","","75","K","2","","","209","main_expt",""
"","bandit","289","1862675","0.0-251.0-0.0","87164086","wem/bandit_party_2","A1ERMRNNR0CZ2Y","either","3","567","","","","","","","0","1","0","","0.5418549626","0.6","0.2","0.4","0.8","0.5627952802","0.3178667136","0.5418549626","0.3923888982","","","","","","","","","","","","","","75","K","2","","","210","main_expt",""
"","bandit","290","2122256","0.0-252.0-0.0","87164086","wem/bandit_party_2","A1ERMRNNR0CZ2Y","either","3","258068","","","","","","","0","0","1","","0.7265410197","0.6","0.2","0.4","0.8","0.5779033475","0.278360526","0.7265410197","0.4183885941","","","","","","","","","","","","","","75","K","2","","","211","main_expt",""
"","bandit","291","2124083","0.0-253.0-0.0","87164086","wem/bandit_party_2","A1ERMRNNR0CZ2Y","either","3","306","","","","","","","0","1","0","","0.6550819281","0.6","0.2","0.4","0.8","0.6169713091","0.2720231684","0.6550819281","0.5367383083","","","","","","","","","","","","","","75","K","2","","","212","main_expt",""
"","bandit","292","2126591","0.0-254.0-0.0","87164086","wem/bandit_party_2","A1ERMRNNR0CZ2Y","either","3","147","","","","","","","0","0","1","","0.5812500281","0.6","0.2","0.4","0.8","0.5688165975","0.3445332441","0.5812500281","0.5779451767","","","","","","","","","","","","","","75","K","2","","","213","main_expt",""
"","bandit","293","2249591","0.0-255.0-0.0","87164086","wem/bandit_party_2","A1ERMRNNR0CZ2Y","either","3","121457","","","","","","","0","1","0","","0.6912727382","0.6","0.2","0.4","0.8","0.5354690829","0.331154659","0.6912727382","0.5615700258","","","","","","","","","","","","","","75","K","2","","","214","main_expt",""
"","bandit","294","2251620","0.0-256.0-0.0","87164086","wem/bandit_party_2","A1ERMRNNR0CZ2Y","either","3","503","","","","","","","0","1","0","","0.695573978","0.6","0.2","0.4","0.8","0.4395706401","0.3168016653","0.695573978","0.5361399643","","","","","","","","","","","","","","75","K","2","","","215","main_expt",""
"","bandit","295","2254375","0.0-257.0-0.0","87164086","wem/bandit_party_2","A1ERMRNNR0CZ2Y","either","3","1231","","","","","","","0","0","1","","0.6531454011","0.6","0.2","0.4","0.8","0.4522294324","0.2870858596","0.6531454011","0.620750855","","","","","","","","","","","","","","75","K","2","","","216","main_expt",""
"","bandit","296","2258097","0.0-258.0-0.0","87164086","wem/bandit_party_2","A1ERMRNNR0CZ2Y","either","3","2204","","","","","","","0","0","1","0.6459690495","","0.6","0.2","0.4","0.8","","","","","0.4141575353","0.2877345098","0.6459690495","0.4812239037","","","","","","","","","","75","K","2","","","217","main_expt",""
"","bandit","297","2264409","0.0-259.0-0.0","87164086","wem/bandit_party_2","A1ERMRNNR0CZ2Y","either","3","4793","","","","","","","0","1","0","","0.6679944541","0.6","0.2","0.4","0.8","0.3009722504","0.3608492067","0.6679944541","0.4028497994","","","","","","","","","","","","","","75","K","2","","","218","main_expt",""
"","bandit","298","2266331","0.0-260.0-0.0","87164086","wem/bandit_party_2","A1ERMRNNR0CZ2Y","either","3","402","","","","","","","1","0","0","0.7159195147","","0.6","0.2","0.4","0.8","","","","","0.2706893249","0.4380407461","0.7159195147","0.4441021312","","","","","","","","","","75","K","2","","","219","main_expt",""
"","bandit","299","2268344","0.0-261.0-0.0","87164086","wem/bandit_party_2","A1ERMRNNR0CZ2Y","either","3","495","","","","","","","1","0","0","0.6874484601","","0.6","0.2","0.4","0.8","","","","","0.3821277721","0.4769938592","0.6874484601","0.4867825248","","","","","","","","","","75","K","2","","","220","main_expt",""
"","bandit","300","2270174","0.0-262.0-0.0","87164086","wem/bandit_party_2","A1ERMRNNR0CZ2Y","either","3","311","","","","","","","0","0","1","","0.6528128226","0.6","0.2","0.4","0.8","0.4534214389","0.4612627877","0.6528128226","0.5428062785","","","","","","","","","","","","","","75","K","2","","","221","main_expt",""
"","bandit","301","2272111","0.0-263.0-0.0","87164086","wem/bandit_party_2","A1ERMRNNR0CZ2Y","either","3","419","","","","","","","0","0","1","","0.6836467719","0.6","0.2","0.4","0.8","0.6049712458","0.4192901336","0.6836467719","0.5993321864","","","","","","","","","","","","","","75","K","2","","","222","main_expt",""
"","bandit","302","2273966","0.0-264.0-0.0","87164086","wem/bandit_party_2","A1ERMRNNR0CZ2Y","either","3","338","","","","","","","1","0","0","0.7820879334","","0.6","0.2","0.4","0.8","","","","","0.6389506418","0.5559965486","0.7820879334","0.4920604154","","","","","","","","","","75","K","2","","","223","main_expt",""
"","bandit","303","2275821","0.0-265.0-0.0","87164086","wem/bandit_party_2","A1ERMRNNR0CZ2Y","either","3","334","","","","","","","1","0","0","0.763226653","","0.6","0.2","0.4","0.8","","","","","0.6677375732","0.6687933923","0.763226653","0.5344282052","","","","","","","","","","75","K","2","","","224","main_expt",""
"","bandit","304","2277654","0.0-266.0-0.0","87164086","wem/bandit_party_2","A1ERMRNNR0CZ2Y","either","3","314","","","","","","","0","1","0","","0.6931961842","0.6","0.2","0.4","0.8","0.7706853934","0.5954484576","0.6931961842","0.5583452501","","","","","","","","","","","","","","75","K","2","","","225","main_expt",""
"","bandit","305","2279488","0.0-267.0-0.0","87164086","wem/bandit_party_2","A1ERMRNNR0CZ2Y","either","3","317","","","","","","","0","1","0","","0.6633974694","0.6","0.2","0.4","0.8","0.7624197083","0.6152447968","0.6633974694","0.5126042404","","","","","","","","","","","","","","75","K","2","","","226","main_expt",""
"","bandit","306","2281349","0.0-268.0-0.0","87164086","wem/bandit_party_2","A1ERMRNNR0CZ2Y","either","3","342","","","","","","","1","0","0","0.6567175756","","0.6","0.2","0.4","0.8","","","","","0.7287840805","0.6597553912","0.6567175756","0.5720595628","","","","","","","","","","75","K","2","","","227","main_expt",""
"","bandit","307","2283223","0.0-269.0-0.0","87164086","wem/bandit_party_2","A1ERMRNNR0CZ2Y","either","3","356","","","","","","","1","0","0","0.6052730858","","0.6","0.2","0.4","0.8","","","","","0.7993891034","0.594895186","0.6052730858","0.6134710885","","","","","","","","","","75","K","2","","","228","main_expt",""
"","bandit","308","2285044","0.0-270.0-0.0","87164086","wem/bandit_party_2","A1ERMRNNR0CZ2Y","either","3","302","","","","","","","0","0","1","","0.5548990383","0.6","0.2","0.4","0.8","0.8374027748","0.5722559027","0.5548990383","0.5669106804","","","","","","","","","","","","","","75","K","2","","","229","main_expt",""
"","bandit","309","2287144","0.0-271.0-0.0","87164086","wem/bandit_party_2","A1ERMRNNR0CZ2Y","either","3","574","","","","","","","0","1","0","","0.6017114108","0.6","0.2","0.4","0.8","0.8414873787","0.5409090622","0.6017114108","0.6286782819","","","","","","","","","","","","","","75","K","2","","","230","main_expt",""
"","bandit","310","2288988","0.0-272.0-0.0","87164086","wem/bandit_party_2","A1ERMRNNR0CZ2Y","either","3","327","","","","","","","0","0","1","","0.5525336349","0.6","0.2","0.4","0.8","0.8531648874","0.518727512","0.5525336349","0.5594948871","","","","","","","","","","","","","","75","K","2","","","231","main_expt",""
"","bandit","311","2290956","0.0-273.0-0.0","87164086","wem/bandit_party_2","A1ERMRNNR0CZ2Y","either","3","454","","","","","","","1","0","0","0.4493361955","","0.6","0.2","0.4","0.8","","","","","0.8813812612","0.5200298571","0.4493361955","0.5817998964","","","","","","","","","","75","K","2","","","232","main_expt",""
"","bandit","312","2292829","0.0-274.0-0.0","87164086","wem/bandit_party_2","A1ERMRNNR0CZ2Y","either","3","354","","","","","","","0","1","0","","0.5280832246","0.6","0.2","0.4","0.8","0.8916766345","0.4564343731","0.5280832246","0.5971875981","","","","","","","","","","","","","","75","K","2","","","233","main_expt",""
"","bandit","313","2294661","0.0-275.0-0.0","87164086","wem/bandit_party_2","A1ERMRNNR0CZ2Y","either","3","309","","","","","","","0","1","0","","0.6814540918","0.6","0.2","0.4","0.8","0.842820862","0.4168065644","0.6814540918","0.5227237997","","","","","","","","","","","","","","75","K","2","","","234","main_expt",""
"","bandit","314","2296473","0.0-276.0-0.0","87164086","wem/bandit_party_2","A1ERMRNNR0CZ2Y","either","3","295","","","","","","","1","0","0","0.5518959403","","0.6","0.2","0.4","0.8","","","","","0.7856269381","0.4340770274","0.5518959403","0.6231997156","","","","","","","","","","75","K","2","","","235","main_expt",""
"","bandit","315","2298351","0.0-277.0-0.0","87164086","wem/bandit_party_2","A1ERMRNNR0CZ2Y","either","3","358","","","","","","","1","0","0","0.4965619817","","0.6","0.2","0.4","0.8","","","","","0.8092971262","0.4489205242","0.4965619817","0.558272317","","","","","","","","","","75","K","2","","","236","main_expt",""
"","bandit","316","2300208","0.0-278.0-0.0","87164086","wem/bandit_party_2","A1ERMRNNR0CZ2Y","either","3","340","","","","","","","0","1","0","","0.4762879104","0.6","0.2","0.4","0.8","0.8125536838","0.4838648791","0.4762879104","0.6118965497","","","","","","","","","","","","","","75","K","2","","","237","main_expt",""
"","bandit","317","2302034","0.0-279.0-0.0","87164086","wem/bandit_party_2","A1ERMRNNR0CZ2Y","either","3","308","","","","","","","0","1","0","","0.4991976808","0.6","0.2","0.4","0.8","0.8684257659","0.4615645545","0.4991976808","0.7415542647","","","","","","","","","","","","","","75","K","2","","","238","main_expt",""
"","bandit","318","2303817","0.0-280.0-0.0","87164086","wem/bandit_party_2","A1ERMRNNR0CZ2Y","either","3","265","","","","","","","1","0","0","0.4627972202","","0.6","0.2","0.4","0.8","","","","","0.8891050988","0.4263497721","0.4627972202","0.794517608","","","","","","","","","","75","K","2","","","239","main_expt",""
