"consent","trial_type","trial_index","time_elapsed","internal_node_id","subjID","study","MID","cond","drift","rt","responses","button_pressed","key_press","like","value","connected","gems","bombs","no_reward","GemPrChosen","BombPrChosen","GainOverPainPr_0","GainOverPainPr_1","GainOverPainPr_2","GainOverPainPr_3","LosePr_0","LosePr_1","LosePr_2","LosePr_3","WinPr_0","WinPr_1","WinPr_2","WinPr_3","Q0","Q1","Q2","gender","age","ethnicity","label","expt_phase","target","respCharCode","respKey","respChoiceNum","respChoice","practice","trial_counter","trial_label","Q0_index"
"GDM/GDM_behavioral_consent_30min_online.html","consent","0","20400","0.0-0.0","87299353","wem/bandit_party_2","A24ZZW0J3MOVYV","either","7","","","","","","","","","","","","","","","","","","","","","","","","","","","","","","","","","","","","","","","","",""
"","survey-text","1","29614","0.0-1.0","87299353","wem/bandit_party_2","A24ZZW0J3MOVYV","either","7","7931","{""Q0"":""A24ZZW0J3MOVYV""}","","","","","","","","","","","","","","","","","","","","","","","","","","","","","","","","","","","","","","",""
"","button-response","2","32127","0.0-2.0","87299353","wem/bandit_party_2","A24ZZW0J3MOVYV","either","7","1498","","0","","","","","","","","","","","","","","","","","","","","","","","","","","","","","","","","","","","","","",""
"","text-replacement","3","40845","0.0-3.0","87299353","wem/bandit_party_2","A24ZZW0J3MOVYV","either","7","7712","","","32","","","","","","","","","","","","","","","","","","","","","","","","","","","","","","","","","","","","",""
"","text-replacement","4","43832","0.0-4.0","87299353","wem/bandit_party_2","A24ZZW0J3MOVYV","either","7","2986","","","32","","","","","","","","","","","","","","","","","","","","","","","","","","","","","","","","","","","","",""
"","identification","5","48425","0.0-6.0-0.0","87299353","wem/bandit_party_2","A24ZZW0J3MOVYV","either","7","4565","","","","2","2","2","","","","","","","","","","","","","","","","","","","","","","","","pre","identification_pre","the Republican Party","","","","","","","",""
"","identification","6","52844","0.0-6.0-1.0","87299353","wem/bandit_party_2","A24ZZW0J3MOVYV","either","7","3379","","","","1","1","1","","","","","","","","","","","","","","","","","","","","","","","","pre","identification_pre","the Democratic Party","","","","","","","",""
"","text-replacement","7","63559","0.0-7.0","87299353","wem/bandit_party_2","A24ZZW0J3MOVYV","either","7","9708","","","32","","","","","","","","","","","","","","","","","","","","","","","","","","","","","","","","","","","","",""
"","text-replacement","8","66538","0.0-8.0","87299353","wem/bandit_party_2","A24ZZW0J3MOVYV","either","7","2975","","","32","","","","","","","","","","","","","","","","","","","","","","","","","","","","","","","","","","","","",""
"","text-replacement","9","76293","0.0-9.0","87299353","wem/bandit_party_2","A24ZZW0J3MOVYV","either","7","9751","","","32","","","","","","","","","","","","","","","","","","","","","","","","","","","","","","","","","","","","",""
"","text-replacement","10","79342","0.0-10.0","87299353","wem/bandit_party_2","A24ZZW0J3MOVYV","either","7","3041","","","32","","","","","","","","","","","","","","","","","","","","","","","","","","","","","","","","","","","","",""
"","text-replacement","11","80806","0.0-11.0","87299353","wem/bandit_party_2","A24ZZW0J3MOVYV","either","7","1460","","","32","","","","","","","","","","","","","","","","","","","","","","","","","","","","","","","","","","","","",""
"","bandit","12","85298","0.0-12.0-0.0","87299353","wem/bandit_party_2","A24ZZW0J3MOVYV","either","7","2980","","","","","","","0","0","1","0","0","","","","","0","","","","0","","","","","","","","","","","","","74","J","0","img/none_selected_demo.jpg","true","0","",""
"","bandit","13","89247","0.0-13.0-0.0","87299353","wem/bandit_party_2","A24ZZW0J3MOVYV","either","7","2435","","","","","","","0","0","1","0","0","","","","","0","","","","0","","","","","","","","","","","","","75","K","0","img/none_selected_demo.jpg","true","0","",""
"","text-replacement","14","90708","0.0-14.0","87299353","wem/bandit_party_2","A24ZZW0J3MOVYV","either","7","1459","","","32","","","","","","","","","","","","","","","","","","","","","","","","","","","","","","","","","","","","",""
"","text-replacement","15","91996","0.0-15.0","87299353","wem/bandit_party_2","A24ZZW0J3MOVYV","either","7","1284","","","32","","","","","","","","","","","","","","","","","","","","","","","","","","","","","","","","","","","","",""
"","text-replacement","16","93737","0.0-16.0","87299353","wem/bandit_party_2","A24ZZW0J3MOVYV","either","7","1741","","","32","","","","","","","","","","","","","","","","","","","","","","","","","","","","","","","","","","","","",""
"","text-replacement","17","94305","0.0-17.0","87299353","wem/bandit_party_2","A24ZZW0J3MOVYV","either","7","564","","","32","","","","","","","","","","","","","","","","","","","","","","","","","","","","","","","","","","","","",""
"","bandit","18","98023","0.0-18.0-0.0","87299353","wem/bandit_party_2","A24ZZW0J3MOVYV","either","7","2209","","","","","","","1","0","0","0.8","","0.5","0.5","","","","","","","0.8","0.2","","","","","","","","","","","","74","J","0","img/none_selected_demo.jpg","true","0","80_20_practice",""
"","bandit","19","100346","0.0-18.0-1.0","87299353","wem/bandit_party_2","A24ZZW0J3MOVYV","either","7","811","","","","","","","1","0","0","0.8","","0.5","0.5","","","","","","","0.8","0.2","","","","","","","","","","","","74","J","0","img/none_selected_demo.jpg","true","0","80_20_practice",""
"","bandit","20","102272","0.0-18.0-2.0","87299353","wem/bandit_party_2","A24ZZW0J3MOVYV","either","7","412","","","","","","","0","0","1","0.8","","0.5","0.5","","","","","","","0.8","0.2","","","","","","","","","","","","74","J","0","img/none_selected_demo.jpg","true","0","80_20_practice",""
"","bandit","21","106428","0.0-18.0-3.0","87299353","wem/bandit_party_2","A24ZZW0J3MOVYV","either","7","2645","","","","","","","0","0","1","","0.2","0.5","0.5","","","0.8","0.2","","","","","","","","","","","","","","","","75","K","1","","true","0","80_20_practice",""
"","bandit","22","108655","0.0-18.0-4.0","87299353","wem/bandit_party_2","A24ZZW0J3MOVYV","either","7","715","","","","","","","0","1","0","","0.2","0.5","0.5","","","0.8","0.2","","","","","","","","","","","","","","","","75","K","1","","true","0","80_20_practice",""
"","bandit","23","113710","0.0-18.0-5.0","87299353","wem/bandit_party_2","A24ZZW0J3MOVYV","either","7","3544","","","","","","","0","1","0","","0.8","0.5","0.5","","","0.8","0.2","","","","","","","","","","","","","","","","74","J","0","img/none_selected_demo.jpg","true","0","80_20_practice",""
"","bandit","24","115602","0.0-18.0-6.0","87299353","wem/bandit_party_2","A24ZZW0J3MOVYV","either","7","380","","","","","","","1","0","0","0.8","","0.5","0.5","","","","","","","0.8","0.2","","","","","","","","","","","","74","J","0","img/none_selected_demo.jpg","true","0","80_20_practice",""
"","bandit","25","117402","0.0-18.0-7.0","87299353","wem/bandit_party_2","A24ZZW0J3MOVYV","either","7","291","","","","","","","0","1","0","","0.8","0.5","0.5","","","0.8","0.2","","","","","","","","","","","","","","","","74","J","0","img/none_selected_demo.jpg","true","0","80_20_practice",""
"","bandit","26","118927","0.0-18.0-8.0","87299353","wem/bandit_party_2","A24ZZW0J3MOVYV","either","7","12","","","","","","","0","0","1","","0.2","0.5","0.5","","","0.8","0.2","","","","","","","","","","","","","","","","75","K","1","","true","0","80_20_practice",""
"","bandit","27","120578","0.0-18.0-9.0","87299353","wem/bandit_party_2","A24ZZW0J3MOVYV","either","7","137","","","","","","","0","0","1","","0.2","0.5","0.5","","","0.8","0.2","","","","","","","","","","","","","","","","75","K","1","","true","0","80_20_practice",""
"","bandit","28","122122","0.0-18.0-10.0","87299353","wem/bandit_party_2","A24ZZW0J3MOVYV","either","7","32","","","","","","","1","0","0","0.2","","0.5","0.5","","","","","","","0.8","0.2","","","","","","","","","","","","75","K","1","","true","0","80_20_practice",""
"","bandit","29","123773","0.0-18.0-11.0","87299353","wem/bandit_party_2","A24ZZW0J3MOVYV","either","7","136","","","","","","","0","0","1","","0.2","0.5","0.5","","","0.8","0.2","","","","","","","","","","","","","","","","75","K","1","","true","0","80_20_practice",""
"","bandit","30","125336","0.0-18.0-12.0","87299353","wem/bandit_party_2","A24ZZW0J3MOVYV","either","7","52","","","","","","","0","0","1","","0.2","0.5","0.5","","","0.8","0.2","","","","","","","","","","","","","","","","75","K","1","","true","0","80_20_practice",""
"","bandit","31","126991","0.0-18.0-13.0","87299353","wem/bandit_party_2","A24ZZW0J3MOVYV","either","7","143","","","","","","","0","0","1","","0.8","0.5","0.5","","","0.8","0.2","","","","","","","","","","","","","","","","74","J","0","img/none_selected_demo.jpg","true","0","80_20_practice",""
"","bandit","32","128629","0.0-18.0-14.0","87299353","wem/bandit_party_2","A24ZZW0J3MOVYV","either","7","124","","","","","","","1","0","0","0.8","","0.5","0.5","","","","","","","0.8","0.2","","","","","","","","","","","","74","J","0","img/none_selected_demo.jpg","true","0","80_20_practice",""
"","bandit","33","130355","0.0-18.0-15.0","87299353","wem/bandit_party_2","A24ZZW0J3MOVYV","either","7","214","","","","","","","0","0","1","","0.8","0.5","0.5","","","0.8","0.2","","","","","","","","","","","","","","","","74","J","0","img/none_selected_demo.jpg","true","0","80_20_practice",""
"","bandit","34","132008","0.0-18.0-16.0","87299353","wem/bandit_party_2","A24ZZW0J3MOVYV","either","7","140","","","","","","","0","0","1","0.8","","0.5","0.5","","","","","","","0.8","0.2","","","","","","","","","","","","74","J","0","img/none_selected_demo.jpg","true","0","80_20_practice",""
"","bandit","35","133663","0.0-18.0-17.0","87299353","wem/bandit_party_2","A24ZZW0J3MOVYV","either","7","144","","","","","","","0","0","1","0.2","","0.5","0.5","","","","","","","0.8","0.2","","","","","","","","","","","","75","K","1","","true","0","80_20_practice",""
"","bandit","36","135305","0.0-18.0-18.0","87299353","wem/bandit_party_2","A24ZZW0J3MOVYV","either","7","127","","","","","","","0","1","0","","0.8","0.5","0.5","","","0.8","0.2","","","","","","","","","","","","","","","","74","J","0","img/none_selected_demo.jpg","true","0","80_20_practice",""
"","bandit","37","136836","0.0-18.0-19.0","87299353","wem/bandit_party_2","A24ZZW0J3MOVYV","either","7","16","","","","","","","0","0","1","","0.8","0.5","0.5","","","0.8","0.2","","","","","","","","","","","","","","","","74","J","0","img/none_selected_demo.jpg","true","0","80_20_practice",""
"","text-replacement","38","151715","0.0-19.0","87299353","wem/bandit_party_2","A24ZZW0J3MOVYV","either","7","14875","","","32","","","","","","","","","","","","","","","","","","","","","","","","","","","","","","","","","","","","",""
"","bandit","39","156651","0.0-20.0-0.0","87299353","wem/bandit_party_2","A24ZZW0J3MOVYV","either","7","3425","","","","","","","1","0","0","1","0","","","","","0","1","","","1","0","","","","","","","","","","","","74","J","0","img/none_selected_demo.jpg","true","0","",""
"","text-replacement","40","158182","0.0-21.0","87299353","wem/bandit_party_2","A24ZZW0J3MOVYV","either","7","1526","","","32","","","","","","","","","","","","","","","","","","","","","","","","","","","","","","","","","","","","",""
"","text-replacement","41","161301","0.0-22.0","87299353","wem/bandit_party_2","A24ZZW0J3MOVYV","either","7","3113","","","32","","","","","","","","","","","","","","","","","","","","","","","","","","","","","","","","","","","","",""
"","text-replacement","42","162757","0.0-23.0","87299353","wem/bandit_party_2","A24ZZW0J3MOVYV","either","7","1456","","","32","","","","","","","","","","","","","","","","","","","","","","","","","","","","","","","","","","","","",""
"","text-replacement","43","163384","0.0-24.0","87299353","wem/bandit_party_2","A24ZZW0J3MOVYV","either","7","623","","","32","","","","","","","","","","","","","","","","","","","","","","","","","","","","","","","","","","","","",""
"","text-replacement","44","163984","0.0-25.0","87299353","wem/bandit_party_2","A24ZZW0J3MOVYV","either","7","594","","","32","","","","","","","","","","","","","","","","","","","","","","","","","","","","","","","","","","","","",""
"","text-replacement","45","164421","0.0-26.0","87299353","wem/bandit_party_2","A24ZZW0J3MOVYV","either","7","431","","","32","","","","","","","","","","","","","","","","","","","","","","","","","","","","","","","","","","","","",""
"","text-replacement","46","164824","0.0-27.0","87299353","wem/bandit_party_2","A24ZZW0J3MOVYV","either","7","400","","","32","","","","","","","","","","","","","","","","","","","","","","","","","","","","","","","","","","","","",""
"","text-replacement","47","165696","0.0-28.0","87299353","wem/bandit_party_2","A24ZZW0J3MOVYV","either","7","867","","","32","","","","","","","","","","","","","","","","","","","","","","","","","","","","","","","","","","","","",""
"","text-replacement","48","166208","0.0-29.0","87299353","wem/bandit_party_2","A24ZZW0J3MOVYV","either","7","508","","","32","","","","","","","","","","","","","","","","","","","","","","","","","","","","","","","","","","","","",""
"","text-replacement","49","166704","0.0-30.0","87299353","wem/bandit_party_2","A24ZZW0J3MOVYV","either","7","492","","","32","","","","","","","","","","","","","","","","","","","","","","","","","","","","","","","","","","","","",""
"","text-replacement","50","168930","0.0-31.0","87299353","wem/bandit_party_2","A24ZZW0J3MOVYV","either","7","2224","","","32","","","","","","","","","","","","","","","","","","","","","","","","","","","","","","","","","","","","",""
"","bandit","51","171832","0.0-32.0-0.0","87299353","wem/bandit_party_2","A24ZZW0J3MOVYV","either","7","1384","","","","","","","1","0","0","0.8","","0.5","0.5","0.5","0.5","","","","","0.8","0.2","0.6","0.2","","","","","","","","","","72","H","0","img/none_selected.jpg","true","0","full_practice",""
"","bandit","52","173660","0.0-32.0-1.0","87299353","wem/bandit_party_2","A24ZZW0J3MOVYV","either","7","311","","","","","","","0","1","0","","0.2","0.5","0.5","0.5","0.5","0.8","0.2","0.6","0.2","","","","","","","","","","","","","","74","J","1","","true","0","full_practice",""
"","bandit","53","175216","0.0-32.0-2.0","87299353","wem/bandit_party_2","A24ZZW0J3MOVYV","either","7","40","","","","","","","0","0","1","","0.6","0.5","0.5","0.5","0.5","0.8","0.2","0.6","0.2","","","","","","","","","","","","","","75","K","2","","true","0","full_practice",""
"","bandit","54","177661","0.0-32.0-3.0","87299353","wem/bandit_party_2","A24ZZW0J3MOVYV","either","7","932","","","","","","","0","1","0","","0.2","0.5","0.5","0.5","0.5","0.8","0.2","0.6","0.2","","","","","","","","","","","","","","76","L","3","","true","0","full_practice",""
"","bandit","55","180485","0.0-32.0-4.0","87299353","wem/bandit_party_2","A24ZZW0J3MOVYV","either","7","1309","","","","","","","0","0","1","0.2","","0.5","0.5","0.5","0.5","","","","","0.8","0.2","0.6","0.2","","","","","","","","","","74","J","1","","true","0","full_practice",""
"","bandit","56","182370","0.0-32.0-5.0","87299353","wem/bandit_party_2","A24ZZW0J3MOVYV","either","7","373","","","","","","","0","1","0","","0.8","0.5","0.5","0.5","0.5","0.8","0.2","0.6","0.2","","","","","","","","","","","","","","72","H","0","img/none_selected.jpg","true","0","full_practice",""
"","bandit","57","184303","0.0-32.0-6.0","87299353","wem/bandit_party_2","A24ZZW0J3MOVYV","either","7","419","","","","","","","1","0","0","0.6","","0.5","0.5","0.5","0.5","","","","","0.8","0.2","0.6","0.2","","","","","","","","","","75","K","2","","true","0","full_practice",""
"","bandit","58","185920","0.0-32.0-7.0","87299353","wem/bandit_party_2","A24ZZW0J3MOVYV","either","7","105","","","","","","","0","0","1","","0.6","0.5","0.5","0.5","0.5","0.8","0.2","0.6","0.2","","","","","","","","","","","","","","75","K","2","","true","0","full_practice",""
"","bandit","59","187475","0.0-32.0-8.0","87299353","wem/bandit_party_2","A24ZZW0J3MOVYV","either","7","42","","","","","","","1","0","0","0.8","","0.5","0.5","0.5","0.5","","","","","0.8","0.2","0.6","0.2","","","","","","","","","","72","H","0","img/none_selected.jpg","true","0","full_practice",""
"","bandit","60","189300","0.0-32.0-9.0","87299353","wem/bandit_party_2","A24ZZW0J3MOVYV","either","7","313","","","","","","","0","1","0","","0.8","0.5","0.5","0.5","0.5","0.8","0.2","0.6","0.2","","","","","","","","","","","","","","72","H","0","img/none_selected.jpg","true","0","full_practice",""
"","bandit","61","191211","0.0-32.0-10.0","87299353","wem/bandit_party_2","A24ZZW0J3MOVYV","either","7","399","","","","","","","0","0","1","","0.2","0.5","0.5","0.5","0.5","0.8","0.2","0.6","0.2","","","","","","","","","","","","","","76","L","3","","true","0","full_practice",""
"","bandit","62","192933","0.0-32.0-11.0","87299353","wem/bandit_party_2","A24ZZW0J3MOVYV","either","7","202","","","","","","","0","1","0","","0.8","0.5","0.5","0.5","0.5","0.8","0.2","0.6","0.2","","","","","","","","","","","","","","72","H","0","img/none_selected.jpg","true","0","full_practice",""
"","bandit","63","194712","0.0-32.0-12.0","87299353","wem/bandit_party_2","A24ZZW0J3MOVYV","either","7","265","","","","","","","0","0","1","","0.2","0.5","0.5","0.5","0.5","0.8","0.2","0.6","0.2","","","","","","","","","","","","","","74","J","1","","true","0","full_practice",""
"","bandit","64","196243","0.0-32.0-13.0","87299353","wem/bandit_party_2","A24ZZW0J3MOVYV","either","7","20","","","","","","","0","1","0","","0.2","0.5","0.5","0.5","0.5","0.8","0.2","0.6","0.2","","","","","","","","","","","","","","74","J","1","","true","0","full_practice",""
"","bandit","65","197864","0.0-32.0-14.0","87299353","wem/bandit_party_2","A24ZZW0J3MOVYV","either","7","111","","","","","","","0","0","1","0.2","","0.5","0.5","0.5","0.5","","","","","0.8","0.2","0.6","0.2","","","","","","","","","","74","J","1","","true","0","full_practice",""
"","bandit","66","199421","0.0-32.0-15.0","87299353","wem/bandit_party_2","A24ZZW0J3MOVYV","either","7","43","","","","","","","1","0","0","0.2","","0.5","0.5","0.5","0.5","","","","","0.8","0.2","0.6","0.2","","","","","","","","","","74","J","1","","true","0","full_practice",""
"","bandit","67","201170","0.0-32.0-16.0","87299353","wem/bandit_party_2","A24ZZW0J3MOVYV","either","7","235","","","","","","","0","0","1","","0.2","0.5","0.5","0.5","0.5","0.8","0.2","0.6","0.2","","","","","","","","","","","","","","74","J","1","","true","0","full_practice",""
"","bandit","68","202996","0.0-32.0-17.0","87299353","wem/bandit_party_2","A24ZZW0J3MOVYV","either","7","314","","","","","","","1","0","0","0.6","","0.5","0.5","0.5","0.5","","","","","0.8","0.2","0.6","0.2","","","","","","","","","","75","K","2","","true","0","full_practice",""
"","bandit","69","204579","0.0-32.0-18.0","87299353","wem/bandit_party_2","A24ZZW0J3MOVYV","either","7","70","","","","","","","0","1","0","","0.8","0.5","0.5","0.5","0.5","0.8","0.2","0.6","0.2","","","","","","","","","","","","","","72","H","0","img/none_selected.jpg","true","0","full_practice",""
"","bandit","70","206234","0.0-32.0-19.0","87299353","wem/bandit_party_2","A24ZZW0J3MOVYV","either","7","141","","","","","","","0","0","1","","0.2","0.5","0.5","0.5","0.5","0.8","0.2","0.6","0.2","","","","","","","","","","","","","","76","L","3","","true","0","full_practice",""
"","text","71","210359","0.0-33.0","87299353","wem/bandit_party_2","A24ZZW0J3MOVYV","either","7","4109","","","32","","","","","","","","","","","","","","","","","","","","","","","","","","","","","","","","","","","","",""
"","text-replacement","72","223778","0.0-34.0","87299353","wem/bandit_party_2","A24ZZW0J3MOVYV","either","7","12409","","","32","","","","","","","","","","","","","","","","","","","","","","","","","","","","","","","","","","","","",""
"","text-replacement","73","229237","0.0-35.0","87299353","wem/bandit_party_2","A24ZZW0J3MOVYV","either","7","5456","","","32","","","","","","","","","","","","","","","","","","","","","","","","","","","","","","","","","","","","",""
"","text-replacement","74","230113","0.0-36.0","87299353","wem/bandit_party_2","A24ZZW0J3MOVYV","either","7","872","","","32","","","","","","","","","","","","","","","","","","","","","","","","","","","","","","","","","","","","",""
"","text-replacement","75","230590","0.0-37.0","87299353","wem/bandit_party_2","A24ZZW0J3MOVYV","either","7","473","","","32","","","","","","","","","","","","","","","","","","","","","","","","","","","","","","","","","","","","",""
"","text-replacement","76","231164","0.0-38.0","87299353","wem/bandit_party_2","A24ZZW0J3MOVYV","either","7","565","","","32","","","","","","","","","","","","","","","","","","","","","","","","","","","","","","","","","","","","",""
"","survey-multi-choice-replacement","77","236211","0.0-39.0-0.0","87299353","wem/bandit_party_2","A24ZZW0J3MOVYV","either","7","5029","","","","","","","","","","","","","","","","","","","","","","","","Money will be added to the pool for <span style='color:red;'>REPUBLICANS</span>","","","","","","","attn_check","","","","","","","","","0"
"","survey-multi-choice-replacement","78","245327","0.0-40.0-0.0","87299353","wem/bandit_party_2","A24ZZW0J3MOVYV","either","7","8093","","","","","","","","","","","","","","","","","","","","","","","","Equal amounts of money will be added to the pool for <span style='color:red;'>REPUBLICANS</span> and subtracted from the pool for <span style='color:blue;'>DEMOCRATS</span>","","","","","","","attn_check","","","","","","","","","2"
"","survey-multi-choice-replacement","79","474048","0.0-41.0-0.0","87299353","wem/bandit_party_2","A24ZZW0J3MOVYV","either","7","227701","","","","","","","","","","","","","","","","","","","","","","","","No money will be added to either pool","","","","","","","attn_check","","","","","","","","","3"
"","bandit","80","492862","0.0-42.0-0.0","87299353","wem/bandit_party_2","A24ZZW0J3MOVYV","either","7","16291","","","","","","","0","0","1","0.1731741302","","0.4","0.6","0.8","0.2","","","","","0.1731741302","0.7088318221","0.5514722813","0.2888626749","","","","","","","","","","72","H","0","img/none_selected.jpg","","1","main_expt",""
"","bandit","81","496123","0.0-43.0-0.0","87299353","wem/bandit_party_2","A24ZZW0J3MOVYV","either","7","1747","","","","","","","0","1","0","","0.6292935488","0.4","0.6","0.8","0.2","0.2874485847","0.6292935488","0.5039303977","0.3999538902","","","","","","","","","","","","","","74","J","1","","","2","main_expt",""
"","bandit","82","497807","0.0-44.0-0.0","87299353","wem/bandit_party_2","A24ZZW0J3MOVYV","either","7","167","","","","","","","0","0","1","0.5527877924","","0.4","0.6","0.8","0.2","","","","","0.2683250969","0.5285482983","0.5527877924","0.4126831114","","","","","","","","","","75","K","2","","","3","main_expt",""
"","bandit","83","499782","0.0-45.0-0.0","87299353","wem/bandit_party_2","A24ZZW0J3MOVYV","either","7","460","","","","","","","0","0","1","","0.3923803367","0.4","0.6","0.8","0.2","0.3988631097","0.6744491701","0.6336700584","0.3923803367","","","","","","","","","","","","","","76","L","3","","","4","main_expt",""
"","bandit","84","502020","0.0-46.0-0.0","87299353","wem/bandit_party_2","A24ZZW0J3MOVYV","either","7","724","","","","","","","1","0","0","0.6340088104","","0.4","0.6","0.8","0.2","","","","","0.3568799457","0.7922285807","0.6340088104","0.3803283439","","","","","","","","","","75","K","2","","","5","main_expt",""
"","bandit","85","503628","0.0-47.0-0.0","87299353","wem/bandit_party_2","A24ZZW0J3MOVYV","either","7","89","","","","","","","1","0","0","0.5784181907","","0.4","0.6","0.8","0.2","","","","","0.3188731731","0.7459441126","0.5784181907","0.4214296899","","","","","","","","","","75","K","2","","","6","main_expt",""
"","bandit","86","505350","0.0-48.0-0.0","87299353","wem/bandit_party_2","A24ZZW0J3MOVYV","either","7","211","","","","","","","0","0","1","0.6727083857","","0.4","0.6","0.8","0.2","","","","","0.4574196012","0.7681481668","0.6727083857","0.4755968838","","","","","","","","","","75","K","2","","","7","main_expt",""
"","bandit","87","507236","0.0-49.0-0.0","87299353","wem/bandit_party_2","A24ZZW0J3MOVYV","either","7","374","","","","","","","1","0","0","0.7574508858","","0.4","0.6","0.8","0.2","","","","","0.5037884951","0.7251609313","0.7574508858","0.5353568537","","","","","","","","","","75","K","2","","","8","main_expt",""
"","bandit","88","509276","0.0-50.0-0.0","87299353","wem/bandit_party_2","A24ZZW0J3MOVYV","either","7","525","","","","","","","0","1","0","","0.5750013994","0.4","0.6","0.8","0.2","0.5750013994","0.7403055102","0.8280759311","0.6246831942","","","","","","","","","","","","","","72","H","0","img/none_selected.jpg","","9","main_expt",""
"","bandit","89","510965","0.0-51.0-0.0","87299353","wem/bandit_party_2","A24ZZW0J3MOVYV","either","7","167","","","","","","","1","0","0","0.722944265","","0.4","0.6","0.8","0.2","","","","","0.5399040382","0.722944265","0.859726102","0.4475954046","","","","","","","","","","74","J","1","","","10","main_expt",""
"","bandit","90","512941","0.0-52.0-0.0","87299353","wem/bandit_party_2","A24ZZW0J3MOVYV","either","7","465","","","","","","","0","1","0","","0.6833847698","0.4","0.6","0.8","0.2","0.5181098662","0.6833847698","0.877956501","0.4514702697","","","","","","","","","","","","","","74","J","1","","","11","main_expt",""
"","bandit","91","514811","0.0-53.0-0.0","87299353","wem/bandit_party_2","A24ZZW0J3MOVYV","either","7","350","","","","","","","0","0","1","0.8883669707","","0.4","0.6","0.8","0.2","","","","","0.5489165229","0.689227163","0.8883669707","0.4873058782","","","","","","","","","","75","K","2","","","12","main_expt",""
"","bandit","92","516545","0.0-54.0-0.0","87299353","wem/bandit_party_2","A24ZZW0J3MOVYV","either","7","216","","","","","","","1","0","0","0.817149195","","0.4","0.6","0.8","0.2","","","","","0.6186986429","0.5178623456","0.817149195","0.4862469224","","","","","","","","","","75","K","2","","","13","main_expt",""
"","bandit","93","518126","0.0-55.0-0.0","87299353","wem/bandit_party_2","A24ZZW0J3MOVYV","either","7","65","","","","","","","0","0","1","0.8589139609","","0.4","0.6","0.8","0.2","","","","","0.4944095791","0.4768489018","0.8589139609","0.360908092","","","","","","","","","","75","K","2","","","14","main_expt",""
"","bandit","94","520726","0.0-56.0-0.0","87299353","wem/bandit_party_2","A24ZZW0J3MOVYV","either","7","1083","","","","","","","1","0","0","0.7955781648","","0.4","0.6","0.8","0.2","","","","","0.4820951366","0.5201849276","0.7955781648","0.4126647893","","","","","","","","","","75","K","2","","","15","main_expt",""
"","bandit","95","534667","0.0-57.0-0.0","87299353","wem/bandit_party_2","A24ZZW0J3MOVYV","either","7","12431","","","","","","","1","0","0","0.8864445785","","0.4","0.6","0.8","0.2","","","","","0.4888848296","0.6862231469","0.8864445785","0.4930686601","","","","","","","","","","75","K","2","","","16","main_expt",""
"","bandit","96","536543","0.0-58.0-0.0","87299353","wem/bandit_party_2","A24ZZW0J3MOVYV","either","7","363","","","","","","","1","0","0","0.8746062981","","0.4","0.6","0.8","0.2","","","","","0.381306026","0.7297328357","0.8746062981","0.5162343008","","","","","","","","","","75","K","2","","","17","main_expt",""
"","bandit","97","540145","0.0-59.0-0.0","87299353","wem/bandit_party_2","A24ZZW0J3MOVYV","either","7","2082","","","","","","","1","0","0","0.8910236512","","0.4","0.6","0.8","0.2","","","","","0.3537135189","0.6686287009","0.8910236512","0.5627456494","","","","","","","","","","75","K","2","","","18","main_expt",""
"","bandit","98","542032","0.0-60.0-0.0","87299353","wem/bandit_party_2","A24ZZW0J3MOVYV","either","7","375","","","","","","","0","0","1","0.8932054573","","0.4","0.6","0.8","0.2","","","","","0.4891458502","0.7885428456","0.8932054573","0.4478227807","","","","","","","","","","75","K","2","","","19","main_expt",""
"","bandit","99","544311","0.0-61.0-0.0","87299353","wem/bandit_party_2","A24ZZW0J3MOVYV","either","7","766","","","","","","","1","0","0","0.8900063933","","0.4","0.6","0.8","0.2","","","","","0.5440957398","0.7442236049","0.8900063933","0.5306796692","","","","","","","","","","75","K","2","","","20","main_expt",""
"","bandit","100","546060","0.0-62.0-0.0","87299353","wem/bandit_party_2","A24ZZW0J3MOVYV","either","7","234","","","","","","","1","0","0","0.8748704397","","0.4","0.6","0.8","0.2","","","","","0.5621313733","0.7908218503","0.8748704397","0.5423611418","","","","","","","","","","75","K","2","","","21","main_expt",""
"","bandit","101","547874","0.0-63.0-0.0","87299353","wem/bandit_party_2","A24ZZW0J3MOVYV","either","7","300","","","","","","","0","1","0","","0.8498769136","0.4","0.6","0.8","0.2","0.5296345876","0.7163236006","0.8498769136","0.4190568807","","","","","","","","","","","","","","75","K","2","","","22","main_expt",""
"","bandit","102","550692","0.0-64.0-0.0","87299353","wem/bandit_party_2","A24ZZW0J3MOVYV","either","7","1296","","","","","","","0","1","0","","0.7061190667","0.4","0.6","0.8","0.2","0.5187107172","0.7061190667","0.8357449374","0.4329937009","","","","","","","","","","","","","","74","J","1","","","23","main_expt",""
"","bandit","103","553080","0.0-65.0-0.0","87299353","wem/bandit_party_2","A24ZZW0J3MOVYV","either","7","880","","","","","","","0","0","1","0.6000521927","","0.4","0.6","0.8","0.2","","","","","0.6000521927","0.7470556917","0.8431908073","0.4298879426","","","","","","","","","","72","H","0","img/none_selected.jpg","","24","main_expt",""
"","bandit","104","554800","0.0-66.0-0.0","87299353","wem/bandit_party_2","A24ZZW0J3MOVYV","either","7","207","","","","","","","1","0","0","0.8741885854","","0.4","0.6","0.8","0.2","","","","","0.5443047256","0.8154180688","0.8741885854","0.2992323157","","","","","","","","","","75","K","2","","","25","main_expt",""
"","bandit","105","556384","0.0-67.0-0.0","87299353","wem/bandit_party_2","A24ZZW0J3MOVYV","either","7","67","","","","","","","1","0","0","0.8940719671","","0.4","0.6","0.8","0.2","","","","","0.592493964","0.8395379789","0.8940719671","0.3857263224","","","","","","","","","","75","K","2","","","26","main_expt",""
"","bandit","106","558011","0.0-68.0-0.0","87299353","wem/bandit_party_2","A24ZZW0J3MOVYV","either","7","107","","","","","","","0","1","0","","0.8733378856","0.4","0.6","0.8","0.2","0.5779569403","0.8023078409","0.8733378856","0.3715251318","","","","","","","","","","","","","","75","K","2","","","27","main_expt",""
"","bandit","107","559620","0.0-69.0-0.0","87299353","wem/bandit_party_2","A24ZZW0J3MOVYV","either","7","96","","","","","","","0","1","0","","0.3387808014","0.4","0.6","0.8","0.2","0.7077223562","0.8248968235","0.8695586723","0.3387808014","","","","","","","","","","","","","","76","L","3","","","28","main_expt",""
"","bandit","108","561262","0.0-70.0-0.0","87299353","wem/bandit_party_2","A24ZZW0J3MOVYV","either","7","129","","","","","","","0","0","1","0.7908290088","","0.4","0.6","0.8","0.2","","","","","0.7070353494","0.8621011303","0.7908290088","0.3737397218","","","","","","","","","","75","K","2","","","29","main_expt",""
"","bandit","109","562939","0.0-71.0-0.0","87299353","wem/bandit_party_2","A24ZZW0J3MOVYV","either","7","160","","","","","","","1","0","0","0.8518997755","","0.4","0.6","0.8","0.2","","","","","0.6585428656","0.8873668535","0.8518997755","0.3232047389","","","","","","","","","","75","K","2","","","30","main_expt",""
"","bandit","110","564474","0.0-72.0-0.0","87299353","wem/bandit_party_2","A24ZZW0J3MOVYV","either","7","21","","","","","","","1","0","0","0.6724088618","","0.4","0.6","0.8","0.2","","","","","0.6724088618","0.9318975106","0.8509842625","0.4130267239","","","","","","","","","","72","H","0","img/none_selected.jpg","","31","main_expt",""
"","bandit","111","566471","0.0-73.0-0.0","87299353","wem/bandit_party_2","A24ZZW0J3MOVYV","either","7","480","","","","","","","1","0","0","0.9013609786","","0.4","0.6","0.8","0.2","","","","","0.6416581209","0.9013609786","0.872996121","0.4167758813","","","","","","","","","","74","J","1","","","32","main_expt",""
"","bandit","112","568387","0.0-74.0-0.0","87299353","wem/bandit_party_2","A24ZZW0J3MOVYV","either","7","398","","","","","","","0","0","1","","0.9041531295","0.4","0.6","0.8","0.2","0.7055802426","0.9041531295","0.8571046391","0.4546052232","","","","","","","","","","","","","","74","J","1","","","33","main_expt",""
"","bandit","113","570095","0.0-75.0-0.0","87299353","wem/bandit_party_2","A24ZZW0J3MOVYV","either","7","189","","","","","","","1","0","0","0.9175819521","","0.4","0.6","0.8","0.2","","","","","0.7554114371","0.9386104272","0.9175819521","0.5231803088","","","","","","","","","","75","K","2","","","34","main_expt",""
"","bandit","114","571856","0.0-76.0-0.0","87299353","wem/bandit_party_2","A24ZZW0J3MOVYV","either","7","239","","","","","","","1","0","0","0.9503165686","","0.4","0.6","0.8","0.2","","","","","0.8008095759","0.9180645683","0.9503165686","0.4661188593","","","","","","","","","","75","K","2","","","35","main_expt",""
"","bandit","115","573471","0.0-77.0-0.0","87299353","wem/bandit_party_2","A24ZZW0J3MOVYV","either","7","94","","","","","","","0","0","1","","0.4106027186","0.4","0.6","0.8","0.2","0.6925109639","0.9095107155","0.9327615424","0.4106027186","","","","","","","","","","","","","","76","L","3","","","36","main_expt",""
"","bandit","116","575681","0.0-78.0-0.0","87299353","wem/bandit_party_2","A24ZZW0J3MOVYV","either","7","692","","","","","","","1","0","0","0.9196494001","","0.4","0.6","0.8","0.2","","","","","0.7764255689","0.9405648028","0.9196494001","0.5021263718","","","","","","","","","","75","K","2","","","37","main_expt",""
"","bandit","117","577588","0.0-79.0-0.0","87299353","wem/bandit_party_2","A24ZZW0J3MOVYV","either","7","391","","","","","","","1","0","0","0.8392953971","","0.4","0.6","0.8","0.2","","","","","0.8392953971","0.9058459248","0.928530414","0.5065313343","","","","","","","","","","72","H","0","img/none_selected.jpg","","38","main_expt",""
"","bandit","118","579357","0.0-80.0-0.0","87299353","wem/bandit_party_2","A24ZZW0J3MOVYV","either","7","250","","","","","","","0","1","0","","0.9001545702","0.4","0.6","0.8","0.2","0.7614495855","0.8784462517","0.9001545702","0.6098243774","","","","","","","","","","","","","","75","K","2","","","39","main_expt",""
"","bandit","119","581053","0.0-81.0-0.0","87299353","wem/bandit_party_2","A24ZZW0J3MOVYV","either","7","179","","","","","","","0","1","0","","0.8060705796","0.4","0.6","0.8","0.2","0.8060705796","0.8408568766","0.8432481254","0.679699592","","","","","","","","","","","","","","72","H","0","img/none_selected.jpg","","40","main_expt",""
"","bandit","120","582669","0.0-82.0-0.0","87299353","wem/bandit_party_2","A24ZZW0J3MOVYV","either","7","102","","","","","","","1","0","0","0.8326479564","","0.4","0.6","0.8","0.2","","","","","0.7539991053","0.811342849","0.8326479564","0.616488607","","","","","","","","","","75","K","2","","","41","main_expt",""
"","bandit","121","584441","0.0-83.0-0.0","87299353","wem/bandit_party_2","A24ZZW0J3MOVYV","either","7","254","","","","","","","0","1","0","","0.8602810298","0.4","0.6","0.8","0.2","0.7717369324","0.8058808774","0.8602810298","0.6307104111","","","","","","","","","","","","","","75","K","2","","","42","main_expt",""
"","bandit","122","586384","0.0-84.0-0.0","87299353","wem/bandit_party_2","A24ZZW0J3MOVYV","either","7","424","","","","","","","1","0","0","0.7899844578","","0.4","0.6","0.8","0.2","","","","","0.7625968551","0.7899844578","0.894365654","0.554567591","","","","","","","","","","74","J","1","","","43","main_expt",""
"","bandit","123","588284","0.0-85.0-0.0","87299353","wem/bandit_party_2","A24ZZW0J3MOVYV","either","7","385","","","","","","","1","0","0","0.7654486741","","0.4","0.6","0.8","0.2","","","","","0.8488621298","0.7654486741","0.9033664713","0.5281861223","","","","","","","","","","74","J","1","","","44","main_expt",""
"","bandit","124","589991","0.0-86.0-0.0","87299353","wem/bandit_party_2","A24ZZW0J3MOVYV","either","7","194","","","","","","","1","0","0","0.7674111825","","0.4","0.6","0.8","0.2","","","","","0.8522077325","0.7674111825","0.8829964613","0.5043334007","","","","","","","","","","74","J","1","","","45","main_expt",""
"","bandit","125","591830","0.0-87.0-0.0","87299353","wem/bandit_party_2","A24ZZW0J3MOVYV","either","7","320","","","","","","","0","1","0","","0.6301273516","0.4","0.6","0.8","0.2","0.8618589195","0.6301273516","0.8674694879","0.5426256613","","","","","","","","","","","","","","74","J","1","","","46","main_expt",""
"","bandit","126","593656","0.0-88.0-0.0","87299353","wem/bandit_party_2","A24ZZW0J3MOVYV","either","7","311","","","","","","","1","0","0","0.5024796093","","0.4","0.6","0.8","0.2","","","","","0.905897833","0.7885969413","0.8886720039","0.5024796093","","","","","","","","","","76","L","3","","","47","main_expt",""
"","bandit","127","595691","0.0-89.0-0.0","87299353","wem/bandit_party_2","A24ZZW0J3MOVYV","either","7","514","","","","","","","0","1","0","","0.4689138593","0.4","0.6","0.8","0.2","0.8929468812","0.7983786211","0.9229902905","0.4689138593","","","","","","","","","","","","","","76","L","3","","","48","main_expt",""
"","bandit","128","597836","0.0-90.0-0.0","87299353","wem/bandit_party_2","A24ZZW0J3MOVYV","either","7","625","","","","","","","1","0","0","0.8249867574","","0.4","0.6","0.8","0.2","","","","","0.854905512","0.8249867574","0.9141434128","0.4439560463","","","","","","","","","","74","J","1","","","49","main_expt",""
"","bandit","129","599781","0.0-91.0-0.0","87299353","wem/bandit_party_2","A24ZZW0J3MOVYV","either","7","429","","","","","","","0","1","0","","0.7532301684","0.4","0.6","0.8","0.2","0.8363103738","0.7532301684","0.9181160336","0.4079842927","","","","","","","","","","","","","","74","J","1","","","50","main_expt",""
"","bandit","130","601783","0.0-92.0-0.0","87299353","wem/bandit_party_2","A24ZZW0J3MOVYV","either","7","484","","","","","","","1","0","0","0.9266489825","","0.4","0.6","0.8","0.2","","","","","0.7168506975","0.6750909554","0.9266489825","0.4675199832","","","","","","","","","","75","K","2","","","51","main_expt",""
"","bandit","131","603583","0.0-93.0-0.0","87299353","wem/bandit_party_2","A24ZZW0J3MOVYV","either","7","282","","","","","","","1","0","0","0.9285581488","","0.4","0.6","0.8","0.2","","","","","0.6507986152","0.6762079337","0.9285581488","0.4368052975","","","","","","","","","","75","K","2","","","52","main_expt",""
"","bandit","132","605334","0.0-94.0-0.0","87299353","wem/bandit_party_2","A24ZZW0J3MOVYV","either","7","233","","","","","","","0","1","0","","0.9171724481","0.4","0.6","0.8","0.2","0.6531867096","0.7882030045","0.9171724481","0.4967902672","","","","","","","","","","","","","","75","K","2","","","53","main_expt",""
"","bandit","133","607034","0.0-95.0-0.0","87299353","wem/bandit_party_2","A24ZZW0J3MOVYV","either","7","182","","","","","","","1","0","0","0.8759533557","","0.4","0.6","0.8","0.2","","","","","0.6178049746","0.8759533557","0.8709862684","0.5321533453","","","","","","","","","","74","J","1","","","54","main_expt",""
"","bandit","134","608839","0.0-96.0-0.0","87299353","wem/bandit_party_2","A24ZZW0J3MOVYV","either","7","291","","","","","","","0","1","0","","0.9307112091","0.4","0.6","0.8","0.2","0.5501477499","0.9307112091","0.9016108676","0.593251847","","","","","","","","","","","","","","74","J","1","","","55","main_expt",""
"","bandit","135","610414","0.0-97.0-0.0","87299353","wem/bandit_party_2","A24ZZW0J3MOVYV","either","7","52","","","","","","","1","0","0","0.5181914202","","0.4","0.6","0.8","0.2","","","","","0.5181914202","0.9486344027","0.9123335035","0.602347159","","","","","","","","","","72","H","0","img/none_selected.jpg","","56","main_expt",""
"","bandit","136","612109","0.0-98.0-0.0","87299353","wem/bandit_party_2","A24ZZW0J3MOVYV","either","7","177","","","","","","","1","0","0","0.5052283364","","0.4","0.6","0.8","0.2","","","","","0.5052283364","0.9450559811","0.9338523698","0.736851976","","","","","","","","","","72","H","0","img/none_selected.jpg","","57","main_expt",""
"","bandit","137","613722","0.0-99.0-0.0","87299353","wem/bandit_party_2","A24ZZW0J3MOVYV","either","7","99","","","","","","","0","0","1","0.4494585665","","0.4","0.6","0.8","0.2","","","","","0.4494585665","0.960587128","0.9023069914","0.7112026436","","","","","","","","","","72","H","0","img/none_selected.jpg","","58","main_expt",""
"","bandit","138","615624","0.0-100.0-0.0","87299353","wem/bandit_party_2","A24ZZW0J3MOVYV","either","7","388","","","","","","","0","0","1","","0.4431029696","0.4","0.6","0.8","0.2","0.4431029696","0.9272570312","0.903153386","0.7605469626","","","","","","","","","","","","","","72","H","0","img/none_selected.jpg","","59","main_expt",""
"","bandit","139","617284","0.0-101.0-0.0","87299353","wem/bandit_party_2","A24ZZW0J3MOVYV","either","7","142","","","","","","","0","1","0","","0.8975643475","0.4","0.6","0.8","0.2","0.4213069188","0.9075075979","0.8975643475","0.6504737249","","","","","","","","","","","","","","75","K","2","","","60","main_expt",""
"","bandit","140","619036","0.0-102.0-0.0","87299353","wem/bandit_party_2","A24ZZW0J3MOVYV","either","7","233","","","","","","","0","1","0","","0.7417300409","0.4","0.6","0.8","0.2","0.4735464544","0.9011961695","0.8455107238","0.7417300409","","","","","","","","","","","","","","76","L","3","","","61","main_expt",""
"","bandit","141","620772","0.0-103.0-0.0","87299353","wem/bandit_party_2","A24ZZW0J3MOVYV","either","7","219","","","","","","","0","1","0","","0.9025442902","0.4","0.6","0.8","0.2","0.4260239588","0.9025442902","0.8423106617","0.6889655243","","","","","","","","","","","","","","74","J","1","","","62","main_expt",""
"","bandit","142","622363","0.0-104.0-0.0","87299353","wem/bandit_party_2","A24ZZW0J3MOVYV","either","7","75","","","","","","","1","0","0","0.6997676278","","0.4","0.6","0.8","0.2","","","","","0.4048641732","0.900711875","0.6997676278","0.7532165261","","","","","","","","","","75","K","2","","","63","main_expt",""
"","bandit","143","624036","0.0-105.0-0.0","87299353","wem/bandit_party_2","A24ZZW0J3MOVYV","either","7","156","","","","","","","1","0","0","0.8033841581","","0.4","0.6","0.8","0.2","","","","","0.261135461","0.8445511995","0.8033841581","0.7614619666","","","","","","","","","","75","K","2","","","64","main_expt",""
"","bandit","144","625576","0.0-106.0-0.0","87299353","wem/bandit_party_2","A24ZZW0J3MOVYV","either","7","24","","","","","","","0","1","0","","0.8458775523","0.4","0.6","0.8","0.2","0.4398785507","0.7838665633","0.8458775523","0.7474824059","","","","","","","","","","","","","","75","K","2","","","65","main_expt",""
"","bandit","145","627359","0.0-107.0-0.0","87299353","wem/bandit_party_2","A24ZZW0J3MOVYV","either","7","269","","","","","","","0","1","0","","0.7083026918","0.4","0.6","0.8","0.2","0.4549930047","0.8399866527","0.8612648572","0.7083026918","","","","","","","","","","","","","","76","L","3","","","66","main_expt",""
"","bandit","146","629019","0.0-108.0-0.0","87299353","wem/bandit_party_2","A24ZZW0J3MOVYV","either","7","142","","","","","","","0","0","1","0.8686018104","","0.4","0.6","0.8","0.2","","","","","0.5565794079","0.9109535201","0.8686018104","0.6535093674","","","","","","","","","","75","K","2","","","67","main_expt",""
"","bandit","147","630978","0.0-109.0-0.0","87299353","wem/bandit_party_2","A24ZZW0J3MOVYV","either","7","444","","","","","","","1","0","0","0.8693437115","","0.4","0.6","0.8","0.2","","","","","0.4211802827","0.9064065477","0.8693437115","0.4923739087","","","","","","","","","","75","K","2","","","68","main_expt",""
"","bandit","148","632772","0.0-110.0-0.0","87299353","wem/bandit_party_2","A24ZZW0J3MOVYV","either","7","273","","","","","","","0","0","1","0.9315833469","","0.4","0.6","0.8","0.2","","","","","0.3687693293","0.9315833469","0.9168970181","0.4898097669","","","","","","","","","","74","J","1","","","69","main_expt",""
"","bandit","149","634510","0.0-111.0-0.0","87299353","wem/bandit_party_2","A24ZZW0J3MOVYV","either","7","222","","","","","","","0","1","0","","0.9393923483","0.4","0.6","0.8","0.2","0.3460903474","0.9393923483","0.9293527272","0.4369614599","","","","","","","","","","","","","","74","J","1","","","70","main_expt",""
"","bandit","150","636080","0.0-112.0-0.0","87299353","wem/bandit_party_2","A24ZZW0J3MOVYV","either","7","54","","","","","","","0","0","1","0.9568343035","","0.4","0.6","0.8","0.2","","","","","0.3278112836","0.9568343035","0.949087413","0.5031037484","","","","","","","","","","74","J","1","","","71","main_expt",""
"","bandit","151","638018","0.0-113.0-0.0","87299353","wem/bandit_party_2","A24ZZW0J3MOVYV","either","7","410","","","","","","","0","1","0","","0.947758434","0.4","0.6","0.8","0.2","0.2720469766","0.947758434","0.906373323","0.5397903688","","","","","","","","","","","","","","74","J","1","","","72","main_expt",""
"","bandit","152","639911","0.0-114.0-0.0","87299353","wem/bandit_party_2","A24ZZW0J3MOVYV","either","7","377","","","","","","","0","0","1","","0.2451019773","0.4","0.6","0.8","0.2","0.2451019773","0.9052010222","0.93965919","0.5540652028","","","","","","","","","","","","","","72","H","0","img/none_selected.jpg","","73","main_expt",""
"","bandit","153","641806","0.0-115.0-0.0","87299353","wem/bandit_party_2","A24ZZW0J3MOVYV","either","7","376","","","","","","","0","0","1","","0.9416319858","0.4","0.6","0.8","0.2","0.2645862521","0.927704936","0.9416319858","0.61733434","","","","","","","","","","","","","","75","K","2","","","74","main_expt",""
"","bandit","154","643404","0.0-116.0-0.0","87299353","wem/bandit_party_2","A24ZZW0J3MOVYV","either","7","83","","","","","","","1","0","0","0.9535384208","","0.4","0.6","0.8","0.2","","","","","0.2298582","0.8769567517","0.9535384208","0.6341908543","","","","","","","","","","75","K","2","","","75","main_expt",""
"","bandit","155","645231","0.0-117.0-0.0","87299353","wem/bandit_party_2","A24ZZW0J3MOVYV","either","7","308","","","","","","","0","1","0","","0.9585479729","0.4","0.6","0.8","0.2","0.3460043445","0.8456064169","0.9585479729","0.6355577018","","","","","","","","","","","","","","75","K","2","","","76","main_expt",""
"","bandit","156","647355","0.0-118.0-0.0","87299353","wem/bandit_party_2","A24ZZW0J3MOVYV","either","7","608","","","","","","","1","0","0","0.9610253773","","0.4","0.6","0.8","0.2","","","","","0.2526488818","0.8325595713","0.9610253773","0.7055426269","","","","","","","","","","75","K","2","","","77","main_expt",""
"","bandit","157","649139","0.0-119.0-0.0","87299353","wem/bandit_party_2","A24ZZW0J3MOVYV","either","7","267","","","","","","","1","0","0","0.9580320452","","0.4","0.6","0.8","0.2","","","","","0.2625396382","0.9128982172","0.9580320452","0.6137882531","","","","","","","","","","75","K","2","","","78","main_expt",""
"","bandit","158","650954","0.0-120.0-0.0","87299353","wem/bandit_party_2","A24ZZW0J3MOVYV","either","7","301","","","","","","","0","1","0","","0.9403834825","0.4","0.6","0.8","0.2","0.2957535945","0.9213349282","0.9403834825","0.668392527","","","","","","","","","","","","","","75","K","2","","","79","main_expt",""
"","bandit","159","652511","0.0-121.0-0.0","87299353","wem/bandit_party_2","A24ZZW0J3MOVYV","either","7","44","","","","","","","0","0","1","","0.1831261498","0.4","0.6","0.8","0.2","0.1831261498","0.8935563746","0.946171157","0.7457361895","","","","","","","","","","","","","","72","H","0","img/none_selected.jpg","","80","main_expt",""
"","bandit","160","654200","0.0-122.0-0.0","87299353","wem/bandit_party_2","A24ZZW0J3MOVYV","either","7","172","","","","","","","0","0","1","","0.1450659425","0.4","0.6","0.8","0.2","0.1450659425","0.932831263","0.9800092583","0.8028050151","","","","","","","","","","","","","","72","H","0","img/none_selected.jpg","","81","main_expt",""
"","bandit","161","655819","0.0-123.0-0.0","87299353","wem/bandit_party_2","A24ZZW0J3MOVYV","either","7","105","","","","","","","1","0","0","0.9403650082","","0.4","0.6","0.8","0.2","","","","","0.1486641529","0.9403650082","0.9666397243","0.8727424511","","","","","","","","","","74","J","1","","","82","main_expt",""
"","bandit","162","657626","0.0-124.0-0.0","87299353","wem/bandit_party_2","A24ZZW0J3MOVYV","either","7","289","","","","","","","0","0","1","","0.1567811066","0.4","0.6","0.8","0.2","0.1567811066","0.9066396881","0.9637330664","0.8283068274","","","","","","","","","","","","","","72","H","0","img/none_selected.jpg","","83","main_expt",""
"","bandit","163","659758","0.0-125.0-0.0","87299353","wem/bandit_party_2","A24ZZW0J3MOVYV","either","7","615","","","","","","","0","1","0","","0.8030064341","0.4","0.6","0.8","0.2","0.196091916","0.8962006295","0.9617949183","0.8030064341","","","","","","","","","","","","","","76","L","3","","","84","main_expt",""
"","bandit","164","661585","0.0-126.0-0.0","87299353","wem/bandit_party_2","A24ZZW0J3MOVYV","either","7","304","","","","","","","1","0","0","0.9561985801","","0.4","0.6","0.8","0.2","","","","","0.1512390112","0.9093999993","0.9561985801","0.8622567251","","","","","","","","","","75","K","2","","","85","main_expt",""
"","bandit","165","663356","0.0-127.0-0.0","87299353","wem/bandit_party_2","A24ZZW0J3MOVYV","either","7","255","","","","","","","0","1","0","","0.9326862648","0.4","0.6","0.8","0.2","0.1486491559","0.9326862648","0.9422505668","0.896584634","","","","","","","","","","","","","","74","J","1","","","86","main_expt",""
"","bandit","166","665148","0.0-128.0-0.0","87299353","wem/bandit_party_2","A24ZZW0J3MOVYV","either","7","275","","","","","","","0","0","1","0.1047878604","","0.4","0.6","0.8","0.2","","","","","0.1047878604","0.9039434857","0.926711091","0.9208758521","","","","","","","","","","72","H","0","img/none_selected.jpg","","87","main_expt",""
"","bandit","167","667109","0.0-129.0-0.0","87299353","wem/bandit_party_2","A24ZZW0J3MOVYV","either","7","445","","","","","","","0","1","0","","0.9092576496","0.4","0.6","0.8","0.2","0.07038149384","0.9195127861","0.9092576496","0.9266301883","","","","","","","","","","","","","","75","K","2","","","88","main_expt",""
"","bandit","168","668963","0.0-130.0-0.0","87299353","wem/bandit_party_2","A24ZZW0J3MOVYV","either","7","336","","","","","","","1","0","0","0.9225053559","","0.4","0.6","0.8","0.2","","","","","0.1311535074","0.9225053559","0.8948591238","0.9259215542","","","","","","","","","","74","J","1","","","89","main_expt",""
"","bandit","169","670573","0.0-131.0-0.0","87299353","wem/bandit_party_2","A24ZZW0J3MOVYV","either","7","93","","","","","","","0","1","0","","0.9014563988","0.4","0.6","0.8","0.2","0.1241310956","0.9014563988","0.8716727139","0.9400480964","","","","","","","","","","","","","","74","J","1","","","90","main_expt",""
"","bandit","170","672381","0.0-132.0-0.0","87299353","wem/bandit_party_2","A24ZZW0J3MOVYV","either","7","295","","","","","","","0","0","1","0.8969144331","","0.4","0.6","0.8","0.2","","","","","0.09664170694","0.9162570652","0.8969144331","0.8961855863","","","","","","","","","","75","K","2","","","91","main_expt",""
"","bandit","171","673900","0.0-133.0-0.0","87299353","wem/bandit_party_2","A24ZZW0J3MOVYV","either","7","4","","","","","","","1","0","0","0.9171199264","","0.4","0.6","0.8","0.2","","","","","0.09586364307","0.9171553871","0.9171199264","0.9211437923","","","","","","","","","","75","K","2","","","92","main_expt",""
"","bandit","172","675760","0.0-134.0-0.0","87299353","wem/bandit_party_2","A24ZZW0J3MOVYV","either","7","340","","","","","","","1","0","0","0.9593171332","","0.4","0.6","0.8","0.2","","","","","0.08304118766","0.9463284029","0.9593171332","0.8947860396","","","","","","","","","","75","K","2","","","93","main_expt",""
"","bandit","173","677524","0.0-135.0-0.0","87299353","wem/bandit_party_2","A24ZZW0J3MOVYV","either","7","240","","","","","","","1","0","0","0.959226596","","0.4","0.6","0.8","0.2","","","","","0.1222865453","0.9477079066","0.959226596","0.822540961","","","","","","","","","","75","K","2","","","94","main_expt",""
"","bandit","174","679042","0.0-136.0-0.0","87299353","wem/bandit_party_2","A24ZZW0J3MOVYV","either","7","2","","","","","","","0","1","0","","0.8288041746","0.4","0.6","0.8","0.2","0.211460517","0.9474919074","0.947105423","0.8288041746","","","","","","","","","","","","","","76","L","3","","","95","main_expt",""
"","bandit","175","681159","0.0-137.0-0.0","87299353","wem/bandit_party_2","A24ZZW0J3MOVYV","either","7","599","","","","","","","0","1","0","","0.937205139","0.4","0.6","0.8","0.2","0.2757920232","0.9722490369","0.937205139","0.8217366877","","","","","","","","","","","","","","75","K","2","","","96","main_expt",""
"","bandit","176","682814","0.0-138.0-0.0","87299353","wem/bandit_party_2","A24ZZW0J3MOVYV","either","7","139","","","","","","","0","0","1","0.980822097","","0.4","0.6","0.8","0.2","","","","","0.2646876298","0.980822097","0.9472767204","0.725285089","","","","","","","","","","74","J","1","","","97","main_expt",""
"","bandit","177","684684","0.0-139.0-0.0","87299353","wem/bandit_party_2","A24ZZW0J3MOVYV","either","7","351","","","","","","","0","0","1","","0.3278454636","0.4","0.6","0.8","0.2","0.3278454636","0.9761591307","0.962959595","0.7958966199","","","","","","","","","","","","","","72","H","0","img/none_selected.jpg","","98","main_expt",""
"","bandit","178","686282","0.0-140.0-0.0","87299353","wem/bandit_party_2","A24ZZW0J3MOVYV","either","7","81","","","","","","","0","1","0","","0.9597391097","0.4","0.6","0.8","0.2","0.4641870332","0.9597391097","0.9720903607","0.7741840332","","","","","","","","","","","","","","74","J","1","","","99","main_expt",""
"","bandit","179","687955","0.0-141.0-0.0","87299353","wem/bandit_party_2","A24ZZW0J3MOVYV","either","7","153","","","","","","","0","1","0","","0.9557148533","0.4","0.6","0.8","0.2","0.3972344865","0.9557148533","0.9737169538","0.7934767162","","","","","","","","","","","","","","74","J","1","","","100","main_expt",""
"","bandit","180","689856","0.0-142.0-0.0","87299353","wem/bandit_party_2","A24ZZW0J3MOVYV","either","7","382","","","","","","","0","1","0","","0.986468331","0.4","0.6","0.8","0.2","0.4395304924","0.9687934467","0.986468331","0.8307638242","","","","","","","","","","","","","","75","K","2","","","101","main_expt",""
"","bandit","181","691699","0.0-143.0-0.0","87299353","wem/bandit_party_2","A24ZZW0J3MOVYV","either","7","327","","","","","","","1","0","0","0.9859557102","","0.4","0.6","0.8","0.2","","","","","0.5248298482","0.9713318577","0.9859557102","0.7737236933","","","","","","","","","","75","K","2","","","102","main_expt",""
"","bandit","182","693508","0.0-144.0-0.0","87299353","wem/bandit_party_2","A24ZZW0J3MOVYV","either","7","288","","","","","","","1","0","0","0.9828698412","","0.4","0.6","0.8","0.2","","","","","0.6218364577","0.9768128314","0.9828698412","0.8168427084","","","","","","","","","","75","K","2","","","103","main_expt",""
"","bandit","183","695372","0.0-145.0-0.0","87299353","wem/bandit_party_2","A24ZZW0J3MOVYV","either","7","348","","","","","","","0","1","0","","0.9655029871","0.4","0.6","0.8","0.2","0.5528563194","0.9566706727","0.9655029871","0.7020104164","","","","","","","","","","","","","","75","K","2","","","104","main_expt",""
"","bandit","184","697175","0.0-146.0-0.0","87299353","wem/bandit_party_2","A24ZZW0J3MOVYV","either","7","284","","","","","","","1","0","0","0.9352711559","","0.4","0.6","0.8","0.2","","","","","0.515821512","0.9352711559","0.9587067199","0.6750414237","","","","","","","","","","74","J","1","","","105","main_expt",""
"","bandit","185","699001","0.0-147.0-0.0","87299353","wem/bandit_party_2","A24ZZW0J3MOVYV","either","7","308","","","","","","","1","0","0","0.8980036198","","0.4","0.6","0.8","0.2","","","","","0.5380341879","0.8980036198","0.9358961366","0.5886413089","","","","","","","","","","74","J","1","","","106","main_expt",""
"","bandit","186","700813","0.0-148.0-0.0","87299353","wem/bandit_party_2","A24ZZW0J3MOVYV","either","7","295","","","","","","","1","0","0","0.9175797088","","0.4","0.6","0.8","0.2","","","","","0.3291998873","0.9175797088","0.8829949032","0.5507707533","","","","","","","","","","74","J","1","","","107","main_expt",""
"","bandit","187","702499","0.0-149.0-0.0","87299353","wem/bandit_party_2","A24ZZW0J3MOVYV","either","7","169","","","","","","","1","0","0","0.7668100276","","0.4","0.6","0.8","0.2","","","","","0.3608627265","0.8966825343","0.7668100276","0.4325904974","","","","","","","","","","75","K","2","","","108","main_expt",""
"","bandit","188","704300","0.0-150.0-0.0","87299353","wem/bandit_party_2","A24ZZW0J3MOVYV","either","7","279","","","","","","","1","0","0","0.8883819791","","0.4","0.6","0.8","0.2","","","","","0.3837942066","0.8883819791","0.7652463225","0.3735159861","","","","","","","","","","74","J","1","","","109","main_expt",""
"","bandit","189","706060","0.0-151.0-0.0","87299353","wem/bandit_party_2","A24ZZW0J3MOVYV","either","7","244","","","","","","","0","0","1","","0.3704440872","0.4","0.6","0.8","0.2","0.3019365294","0.9087011364","0.7974745759","0.3704440872","","","","","","","","","","","","","","76","L","3","","","110","main_expt",""
"","bandit","190","707868","0.0-152.0-0.0","87299353","wem/bandit_party_2","A24ZZW0J3MOVYV","either","7","294","","","","","","","0","0","1","0.812352323","","0.4","0.6","0.8","0.2","","","","","0.3483008865","0.9337026812","0.812352323","0.2749067499","","","","","","","","","","75","K","2","","","111","main_expt",""
"","bandit","191","710178","0.0-153.0-0.0","87299353","wem/bandit_party_2","A24ZZW0J3MOVYV","either","7","787","","","","","","","0","1","0","","0.2734667401","0.4","0.6","0.8","0.2","0.4342302697","0.9113388615","0.7428975936","0.2734667401","","","","","","","","","","","","","","76","L","3","","","112","main_expt",""
"","bandit","192","711933","0.0-154.0-0.0","87299353","wem/bandit_party_2","A24ZZW0J3MOVYV","either","7","238","","","","","","","1","0","0","0.7139653514","","0.4","0.6","0.8","0.2","","","","","0.5187246657","0.8980528729","0.7139653514","0.2291946885","","","","","","","","","","75","K","2","","","113","main_expt",""
"","bandit","193","713710","0.0-155.0-0.0","87299353","wem/bandit_party_2","A24ZZW0J3MOVYV","either","7","261","","","","","","","1","0","0","0.7945657698","","0.4","0.6","0.8","0.2","","","","","0.5381742134","0.8036326458","0.7945657698","0.2413339081","","","","","","","","","","75","K","2","","","114","main_expt",""
"","bandit","194","715271","0.0-156.0-0.0","87299353","wem/bandit_party_2","A24ZZW0J3MOVYV","either","7","43","","","","","","","1","0","0","0.8405588069","","0.4","0.6","0.8","0.2","","","","","0.4785029821","0.8700945717","0.8405588069","0.3092826039","","","","","","","","","","75","K","2","","","115","main_expt",""
"","bandit","195","717127","0.0-157.0-0.0","87299353","wem/bandit_party_2","A24ZZW0J3MOVYV","either","7","341","","","","","","","0","0","1","0.4654757386","","0.4","0.6","0.8","0.2","","","","","0.4654757386","0.8895114993","0.8641798474","0.2361366225","","","","","","","","","","72","H","0","img/none_selected.jpg","","116","main_expt",""
"","bandit","196","719105","0.0-158.0-0.0","87299353","wem/bandit_party_2","A24ZZW0J3MOVYV","either","7","461","","","","","","","1","0","0","0.8936856952","","0.4","0.6","0.8","0.2","","","","","0.4578633225","0.8936856952","0.8756768431","0.218402711","","","","","","","","","","74","J","1","","","117","main_expt",""
"","bandit","197","720734","0.0-159.0-0.0","87299353","wem/bandit_party_2","A24ZZW0J3MOVYV","either","7","111","","","","","","","0","0","1","0.8077127093","","0.4","0.6","0.8","0.2","","","","","0.4773941538","0.8077127093","0.9015269718","0.2003641109","","","","","","","","","","74","J","1","","","118","main_expt",""
"","bandit","198","722640","0.0-160.0-0.0","87299353","wem/bandit_party_2","A24ZZW0J3MOVYV","either","7","392","","","","","","","1","0","0","0.8709738884","","0.4","0.6","0.8","0.2","","","","","0.508374463","0.8901108642","0.8709738884","0.1375137305","","","","","","","","","","75","K","2","","","119","main_expt",""
"","bandit","199","724390","0.0-161.0-0.0","87299353","wem/bandit_party_2","A24ZZW0J3MOVYV","either","7","227","","","","","","","1","0","0","0.8268338002","","0.4","0.6","0.8","0.2","","","","","0.4294310012","0.8731124259","0.8268338002","0.08656631556","","","","","","","","","","75","K","2","","","120","main_expt",""
"","bandit","200","725957","0.0-162.0-0.0","87299353","wem/bandit_party_2","A24ZZW0J3MOVYV","either","7","48","","","","","","","1","0","0","0.8432616236","","0.4","0.6","0.8","0.2","","","","","0.3933985885","0.8509174952","0.8432616236","0.07812634859","","","","","","","","","","75","K","2","","","121","main_expt",""
"","bandit","201","727645","0.0-163.0-0.0","87299353","wem/bandit_party_2","A24ZZW0J3MOVYV","either","7","168","","","","","","","1","0","0","0.8128728295","","0.4","0.6","0.8","0.2","","","","","0.2641409089","0.8707856005","0.8128728295","0.09046411854","","","","","","","","","","75","K","2","","","122","main_expt",""
"","bandit","202","729436","0.0-164.0-0.0","87299353","wem/bandit_party_2","A24ZZW0J3MOVYV","either","7","273","","","","","","","1","0","0","0.752198112","","0.4","0.6","0.8","0.2","","","","","0.2491349268","0.7592524618","0.752198112","0.1132512529","","","","","","","","","","75","K","2","","","123","main_expt",""
"","bandit","203","730986","0.0-165.0-0.0","87299353","wem/bandit_party_2","A24ZZW0J3MOVYV","either","7","32","","","","","","","1","0","0","0.7117781612","","0.4","0.6","0.8","0.2","","","","","0.2587226179","0.7330206325","0.7117781612","0.09419269712","","","","","","","","","","75","K","2","","","124","main_expt",""
"","bandit","204","732906","0.0-166.0-0.0","87299353","wem/bandit_party_2","A24ZZW0J3MOVYV","either","7","403","","","","","","","1","0","0","0.7177409252","","0.4","0.6","0.8","0.2","","","","","0.2925679814","0.6903693331","0.7177409252","0.110513045","","","","","","","","","","75","K","2","","","125","main_expt",""
"","bandit","205","734948","0.0-167.0-0.0","87299353","wem/bandit_party_2","A24ZZW0J3MOVYV","either","7","521","","","","","","","0","0","1","","0.7240917845","0.4","0.6","0.8","0.2","0.3997536411","0.6370641568","0.7240917845","0.07088043536","","","","","","","","","","","","","","75","K","2","","","126","main_expt",""
"","bandit","206","736512","0.0-168.0-0.0","87299353","wem/bandit_party_2","A24ZZW0J3MOVYV","either","7","44","","","","","","","0","0","1","0.6788578752","","0.4","0.6","0.8","0.2","","","","","0.4120812041","0.6192694325","0.6788578752","0.1041728595","","","","","","","","","","75","K","2","","","127","main_expt",""
"","bandit","207","738219","0.0-169.0-0.0","87299353","wem/bandit_party_2","A24ZZW0J3MOVYV","either","7","187","","","","","","","1","0","0","0.559348281","","0.4","0.6","0.8","0.2","","","","","0.3731276689","0.559348281","0.6257789885","0.1006708935","","","","","","","","","","74","J","1","","","128","main_expt",""
"","bandit","208","739938","0.0-170.0-0.0","87299353","wem/bandit_party_2","A24ZZW0J3MOVYV","either","7","204","","","","","","","0","1","0","","0.610360397","0.4","0.6","0.8","0.2","0.3263017501","0.610360397","0.4761868647","0.1336488566","","","","","","","","","","","","","","74","J","1","","","129","main_expt",""
"","bandit","209","741867","0.0-171.0-0.0","87299353","wem/bandit_party_2","A24ZZW0J3MOVYV","either","7","406","","","","","","","0","0","1","","0.1271550391","0.4","0.6","0.8","0.2","0.3226142564","0.5737783772","0.4745188583","0.1271550391","","","","","","","","","","","","","","76","L","3","","","130","main_expt",""
"","bandit","210","743586","0.0-172.0-0.0","87299353","wem/bandit_party_2","A24ZZW0J3MOVYV","either","7","199","","","","","","","0","0","1","0.3907136596","","0.4","0.6","0.8","0.2","","","","","0.3907136596","0.6252154127","0.4674409752","0.1594360192","","","","","","","","","","72","H","0","img/none_selected.jpg","","131","main_expt",""
"","bandit","211","745347","0.0-173.0-0.0","87299353","wem/bandit_party_2","A24ZZW0J3MOVYV","either","7","240","","","","","","","0","0","1","","0.1027658661","0.4","0.6","0.8","0.2","0.4983036492","0.6473056352","0.368649462","0.1027658661","","","","","","","","","","","","","","76","L","3","","","132","main_expt",""
"","bandit","212","746931","0.0-174.0-0.0","87299353","wem/bandit_party_2","A24ZZW0J3MOVYV","either","7","64","","","","","","","1","0","0","0.4595123468","","0.4","0.6","0.8","0.2","","","","","0.6347393695","0.4595123468","0.4313577514","0.1223548883","","","","","","","","","","74","J","1","","","133","main_expt",""
"","bandit","213","748463","0.0-175.0-0.0","87299353","wem/bandit_party_2","A24ZZW0J3MOVYV","either","7","11","","","","","","","0","1","0","","0.3043385566","0.4","0.6","0.8","0.2","0.6037412299","0.3043385566","0.3692150919","0.1063029331","","","","","","","","","","","","","","74","J","1","","","134","main_expt",""
"","bandit","214","750415","0.0-176.0-0.0","87299353","wem/bandit_party_2","A24ZZW0J3MOVYV","either","7","431","","","","","","","1","0","0","0.3077662431","","0.4","0.6","0.8","0.2","","","","","0.5511090861","0.340857567","0.3077662431","0.080644856","","","","","","","","","","75","K","2","","","135","main_expt",""
"","bandit","215","751934","0.0-177.0-0.0","87299353","wem/bandit_party_2","A24ZZW0J3MOVYV","either","7","0","","","","","","","0","0","1","0.314969588","","0.4","0.6","0.8","0.2","","","","","0.585911414","0.2655810755","0.314969588","0.1359867045","","","","","","","","","","75","K","2","","","136","main_expt",""
"","bandit","216","753828","0.0-178.0-0.0","87299353","wem/bandit_party_2","A24ZZW0J3MOVYV","either","7","374","","","","","","","0","0","1","0.3025530854","","0.4","0.6","0.8","0.2","","","","","0.5805905743","0.3025530854","0.3590847215","0.168344283","","","","","","","","","","74","J","1","","","137","main_expt",""
"","bandit","217","755639","0.0-179.0-0.0","87299353","wem/bandit_party_2","A24ZZW0J3MOVYV","either","7","292","","","","","","","0","0","1","0.3588584756","","0.4","0.6","0.8","0.2","","","","","0.6357737786","0.2888348812","0.3588584756","0.1867455324","","","","","","","","","","75","K","2","","","138","main_expt",""
"","bandit","218","757466","0.0-180.0-0.0","87299353","wem/bandit_party_2","A24ZZW0J3MOVYV","either","7","306","","","","","","","0","1","0","","0.2277874407","0.4","0.6","0.8","0.2","0.66639317","0.2463208975","0.4289761638","0.2277874407","","","","","","","","","","","","","","76","L","3","","","139","main_expt",""
"","bandit","219","759393","0.0-181.0-0.0","87299353","wem/bandit_party_2","A24ZZW0J3MOVYV","either","7","409","","","","","","","0","0","1","0.3801639999","","0.4","0.6","0.8","0.2","","","","","0.6365789307","0.273109751","0.3801639999","0.2577820179","","","","","","","","","","75","K","2","","","140","main_expt",""
"","bandit","220","761317","0.0-182.0-0.0","87299353","wem/bandit_party_2","A24ZZW0J3MOVYV","either","7","409","","","","","","","0","0","1","0.3355442787","","0.4","0.6","0.8","0.2","","","","","0.6045632144","0.3355442787","0.2445936549","0.3674069736","","","","","","","","","","74","J","1","","","141","main_expt",""
"","bandit","221","762910","0.0-183.0-0.0","87299353","wem/bandit_party_2","A24ZZW0J3MOVYV","either","7","73","","","","","","","1","0","0","0.5148607161","","0.4","0.6","0.8","0.2","","","","","0.5148607161","0.2781999234","0.3394066497","0.4345417514","","","","","","","","","","72","H","0","img/none_selected.jpg","","142","main_expt",""
"","bandit","222","764999","0.0-184.0-0.0","87299353","wem/bandit_party_2","A24ZZW0J3MOVYV","either","7","574","","","","","","","1","0","0","0.2599467226","","0.4","0.6","0.8","0.2","","","","","0.4754154836","0.2599467226","0.2899754881","0.3811672827","","","","","","","","","","74","J","1","","","143","main_expt",""
"","bandit","223","766774","0.0-185.0-0.0","87299353","wem/bandit_party_2","A24ZZW0J3MOVYV","either","7","255","","","","","","","0","0","1","0.2353144144","","0.4","0.6","0.8","0.2","","","","","0.516029258","0.2353144144","0.3701332444","0.2754059391","","","","","","","","","","74","J","1","","","144","main_expt",""
"","bandit","224","768718","0.0-186.0-0.0","87299353","wem/bandit_party_2","A24ZZW0J3MOVYV","either","7","426","","","","","","","0","0","1","0.3322753171","","0.4","0.6","0.8","0.2","","","","","0.6646605279","0.2120114759","0.3322753171","0.2773400324","","","","","","","","","","75","K","2","","","145","main_expt",""
"","bandit","225","770544","0.0-187.0-0.0","87299353","wem/bandit_party_2","A24ZZW0J3MOVYV","either","7","302","","","","","","","0","1","0","","0.2780426824","0.4","0.6","0.8","0.2","0.6331546467","0.176067728","0.3203507811","0.2780426824","","","","","","","","","","","","","","76","L","3","","","146","main_expt",""
"","bandit","226","772244","0.0-188.0-0.0","87299353","wem/bandit_party_2","A24ZZW0J3MOVYV","either","7","180","","","","","","","0","0","1","0.304761248","","0.4","0.6","0.8","0.2","","","","","0.6356747602","0.1329453439","0.304761248","0.3373608721","","","","","","","","","","75","K","2","","","147","main_expt",""
"","bandit","227","774174","0.0-189.0-0.0","87299353","wem/bandit_party_2","A24ZZW0J3MOVYV","either","7","410","","","","","","","0","0","1","","0.1465103875","0.4","0.6","0.8","0.2","0.6301772709","0.1465103875","0.3809280674","0.3529594122","","","","","","","","","","","","","","74","J","1","","","148","main_expt",""
"","bandit","228","776095","0.0-190.0-0.0","87299353","wem/bandit_party_2","A24ZZW0J3MOVYV","either","7","397","","","","","","","0","0","1","0.6640591829","","0.4","0.6","0.8","0.2","","","","","0.6640591829","0.1190451538","0.3997986218","0.3878328211","","","","","","","","","","72","H","0","img/none_selected.jpg","","149","main_expt",""
"","bandit","229","777670","0.0-191.0-0.0","87299353","wem/bandit_party_2","A24ZZW0J3MOVYV","either","7","53","","","","","","","0","0","1","0.1195570164","","0.4","0.6","0.8","0.2","","","","","0.6592717552","0.1195570164","0.3159341416","0.42943501","","","","","","","","","","74","J","1","","","150","main_expt",""
"","bandit","230","779317","0.0-192.0-0.0","87299353","wem/bandit_party_2","A24ZZW0J3MOVYV","either","7","126","","","","","","","0","0","1","0.3052853957","","0.4","0.6","0.8","0.2","","","","","0.5928743102","0.100492686","0.3052853957","0.5142681232","","","","","","","","","","75","K","2","","","151","main_expt",""
"","bandit","231","780989","0.0-193.0-0.0","87299353","wem/bandit_party_2","A24ZZW0J3MOVYV","either","7","152","","","","","","","0","1","0","","0.6321073962","0.4","0.6","0.8","0.2","0.6822187145","0.1030367897","0.1896018403","0.6321073962","","","","","","","","","","","","","","76","L","3","","","152","main_expt",""
"","bandit","232","782782","0.0-194.0-0.0","87299353","wem/bandit_party_2","A24ZZW0J3MOVYV","either","7","272","","","","","","","0","0","1","","0.2439656658","0.4","0.6","0.8","0.2","0.6832005509","0.2059045691","0.2439656658","0.6965670792","","","","","","","","","","","","","","75","K","2","","","153","main_expt",""
"","bandit","233","784703","0.0-195.0-0.0","87299353","wem/bandit_party_2","A24ZZW0J3MOVYV","either","7","401","","","","","","","0","0","1","","0.2921647579","0.4","0.6","0.8","0.2","0.7109729062","0.2921647579","0.3068434149","0.6516005735","","","","","","","","","","","","","","74","J","1","","","154","main_expt",""
"","bandit","234","786484","0.0-196.0-0.0","87299353","wem/bandit_party_2","A24ZZW0J3MOVYV","either","7","263","","","","","","","1","0","0","0.6975465092","","0.4","0.6","0.8","0.2","","","","","0.6975465092","0.1789694193","0.2314644909","0.7291318088","","","","","","","","","","72","H","0","img/none_selected.jpg","","155","main_expt",""
"","bandit","235","788253","0.0-197.0-0.0","87299353","wem/bandit_party_2","A24ZZW0J3MOVYV","either","7","248","","","","","","","0","0","1","0.2187195075","","0.4","0.6","0.8","0.2","","","","","0.6580608271","0.2187195075","0.2154001061","0.6273572288","","","","","","","","","","74","J","1","","","156","main_expt",""
"","bandit","236","790122","0.0-198.0-0.0","87299353","wem/bandit_party_2","A24ZZW0J3MOVYV","either","7","347","","","","","","","0","0","1","0.1648135251","","0.4","0.6","0.8","0.2","","","","","0.5695802138","0.2669834713","0.1648135251","0.566197257","","","","","","","","","","75","K","2","","","157","main_expt",""
"","bandit","237","791984","0.0-199.0-0.0","87299353","wem/bandit_party_2","A24ZZW0J3MOVYV","either","7","339","","","","","","","1","0","0","0.2215973425","","0.4","0.6","0.8","0.2","","","","","0.4733954301","0.4240307821","0.2215973425","0.4523642269","","","","","","","","","","75","K","2","","","158","main_expt",""
"","bandit","238","793871","0.0-200.0-0.0","87299353","wem/bandit_party_2","A24ZZW0J3MOVYV","either","7","368","","","","","","","0","0","1","0.2243274726","","0.4","0.6","0.8","0.2","","","","","0.5619817243","0.3840951437","0.2243274726","0.3991212054","","","","","","","","","","75","K","2","","","159","main_expt",""
"","bandit","239","796153","0.0-201.0-0.0","87299353","wem/bandit_party_2","A24ZZW0J3MOVYV","either","7","760","","","","","","","0","0","1","0.2061161075","","0.4","0.6","0.8","0.2","","","","","0.4701658979","0.4098147986","0.2061161075","0.3566558104","","","","","","","","","","75","K","2","","","160","main_expt",""
"","bandit","240","802240","0.0-202.0-0.0","87299353","wem/bandit_party_2","A24ZZW0J3MOVYV","either","7","4566","","","","","","","0","0","1","0.209200141","","0.4","0.6","0.8","0.2","","","","","0.5673671472","0.4027252302","0.209200141","0.4430908041","","","","","","","","","","75","K","2","","","161","main_expt",""
"","bandit","241","804243","0.0-203.0-0.0","87299353","wem/bandit_party_2","A24ZZW0J3MOVYV","either","7","127","","","","","","","0","0","1","0.1477343718","","0.4","0.6","0.8","0.2","","","","","0.4921809208","0.3824170733","0.1477343718","0.3966098285","","","","","","","","","","75","K","2","","","162","main_expt",""
"","bandit","242","806797","0.0-204.0-0.0","87299353","wem/bandit_party_2","A24ZZW0J3MOVYV","either","7","1033","","","","","","","1","0","0","0.3352280924","","0.4","0.6","0.8","0.2","","","","","0.4204505308","0.3352280924","0.1525050104","0.3455868331","","","","","","","","","","74","J","1","","","163","main_expt",""
"","bandit","243","808632","0.0-205.0-0.0","87299353","wem/bandit_party_2","A24ZZW0J3MOVYV","either","7","314","","","","","","","0","0","1","0.3379187571","","0.4","0.6","0.8","0.2","","","","","0.534748173","0.3379187571","0.08831047354","0.3368969945","","","","","","","","","","74","J","1","","","164","main_expt",""
"","bandit","244","810950","0.0-206.0-0.0","87299353","wem/bandit_party_2","A24ZZW0J3MOVYV","either","7","795","","","","","","","0","0","1","0.3160546663","","0.4","0.6","0.8","0.2","","","","","0.4724966102","0.3160546663","0.1035482763","0.3767562303","","","","","","","","","","74","J","1","","","165","main_expt",""
"","bandit","245","813041","0.0-207.0-0.0","87299353","wem/bandit_party_2","A24ZZW0J3MOVYV","either","7","569","","","","","","","0","0","1","0.3058359067","","0.4","0.6","0.8","0.2","","","","","0.5280505203","0.3058359067","0.06888190676","0.4727650462","","","","","","","","","","74","J","1","","","166","main_expt",""
"","bandit","246","814992","0.0-208.0-0.0","87299353","wem/bandit_party_2","A24ZZW0J3MOVYV","either","7","431","","","","","","","1","0","0","0.2561334246","","0.4","0.6","0.8","0.2","","","","","0.589670135","0.2561334246","0.06051452263","0.6140635231","","","","","","","","","","74","J","1","","","167","main_expt",""
"","bandit","247","816712","0.0-209.0-0.0","87299353","wem/bandit_party_2","A24ZZW0J3MOVYV","either","7","196","","","","","","","0","0","1","","0.2459084815","0.4","0.6","0.8","0.2","0.5058201204","0.2459084815","0.07905307949","0.5629225295","","","","","","","","","","","","","","74","J","1","","","168","main_expt",""
"","bandit","248","818709","0.0-210.0-0.0","87299353","wem/bandit_party_2","A24ZZW0J3MOVYV","either","7","477","","","","","","","0","0","1","0.2138460752","","0.4","0.6","0.8","0.2","","","","","0.4102709571","0.2138460752","0.07051596905","0.6456076899","","","","","","","","","","74","J","1","","","169","main_expt",""
"","bandit","249","821684","0.0-211.0-0.0","87299353","wem/bandit_party_2","A24ZZW0J3MOVYV","either","7","1457","","","","","","","0","1","0","","0.719827795","0.4","0.6","0.8","0.2","0.5061826445","0.1642406351","0.1056762318","0.719827795","","","","","","","","","","","","","","76","L","3","","","170","main_expt",""
"","bandit","250","823600","0.0-212.0-0.0","87299353","wem/bandit_party_2","A24ZZW0J3MOVYV","either","7","390","","","","","","","0","0","1","0.1513980822","","0.4","0.6","0.8","0.2","","","","","0.6092158501","0.2337150112","0.1513980822","0.6716280274","","","","","","","","","","75","K","2","","","171","main_expt",""
"","bandit","251","825435","0.0-213.0-0.0","87299353","wem/bandit_party_2","A24ZZW0J3MOVYV","either","7","314","","","","","","","0","0","1","0.3128682212","","0.4","0.6","0.8","0.2","","","","","0.691496366","0.3128682212","0.1552293495","0.5683226388","","","","","","","","","","74","J","1","","","172","main_expt",""
"","bandit","252","827190","0.0-214.0-0.0","87299353","wem/bandit_party_2","A24ZZW0J3MOVYV","either","7","234","","","","","","","0","0","1","","0.1325975083","0.4","0.6","0.8","0.2","0.7402253768","0.2775517843","0.1325975083","0.4581357746","","","","","","","","","","","","","","75","K","2","","","173","main_expt",""
"","bandit","253","829039","0.0-215.0-0.0","87299353","wem/bandit_party_2","A24ZZW0J3MOVYV","either","7","327","","","","","","","0","0","1","","0.4159305855","0.4","0.6","0.8","0.2","0.6601004511","0.4159305855","0.09024892351","0.5903479164","","","","","","","","","","","","","","74","J","1","","","174","main_expt",""
"","bandit","254","830798","0.0-216.0-0.0","87299353","wem/bandit_party_2","A24ZZW0J3MOVYV","either","7","241","","","","","","","0","1","0","","0.6781732273","0.4","0.6","0.8","0.2","0.6781732273","0.4471770837","0.06963745108","0.5658285383","","","","","","","","","","","","","","72","H","0","img/none_selected.jpg","","175","main_expt",""
"","bandit","255","832322","0.0-217.0-0.0","87299353","wem/bandit_party_2","A24ZZW0J3MOVYV","either","7","0","","","","","","","0","0","1","","0.5162211083","0.4","0.6","0.8","0.2","0.6932650799","0.5162211083","0.07897043431","0.5313506173","","","","","","","","","","","","","","74","J","1","","","176","main_expt",""
"","bandit","256","833986","0.0-218.0-0.0","87299353","wem/bandit_party_2","A24ZZW0J3MOVYV","either","7","136","","","","","","","0","0","1","","0.09469685393","0.4","0.6","0.8","0.2","0.6803850572","0.6372676231","0.09469685393","0.4231289234","","","","","","","","","","","","","","75","K","2","","","177","main_expt",""
"","bandit","257","835881","0.0-219.0-0.0","87299353","wem/bandit_party_2","A24ZZW0J3MOVYV","either","7","369","","","","","","","0","0","1","0.6295749113","","0.4","0.6","0.8","0.2","","","","","0.5407017663","0.6295749113","0.1486386852","0.580807006","","","","","","","","","","74","J","1","","","178","main_expt",""
"","bandit","258","837412","0.0-220.0-0.0","87299353","wem/bandit_party_2","A24ZZW0J3MOVYV","either","7","5","","","","","","","0","0","1","","0.1965095934","0.4","0.6","0.8","0.2","0.5931576708","0.4126066341","0.1965095934","0.5499948007","","","","","","","","","","","","","","75","K","2","","","179","main_expt",""
"","bandit","259","838986","0.0-221.0-0.0","87299353","wem/bandit_party_2","A24ZZW0J3MOVYV","either","7","54","","","","","","","0","1","0","","0.4918200669","0.4","0.6","0.8","0.2","0.5390819372","0.516991344","0.1749048096","0.4918200669","","","","","","","","","","","","","","76","L","3","","","180","main_expt",""
"","bandit","260","840652","0.0-222.0-0.0","87299353","wem/bandit_party_2","A24ZZW0J3MOVYV","either","7","144","","","","","","","0","1","0","","0.232896561","0.4","0.6","0.8","0.2","0.4929910299","0.4239603033","0.232896561","0.5428702931","","","","","","","","","","","","","","75","K","2","","","181","main_expt",""
"","bandit","261","842306","0.0-223.0-0.0","87299353","wem/bandit_party_2","A24ZZW0J3MOVYV","either","7","135","","","","","","","0","1","0","","0.3961891141","0.4","0.6","0.8","0.2","0.458433212","0.3961891141","0.2561822725","0.5870547156","","","","","","","","","","","","","","74","J","1","","","182","main_expt",""
"","bandit","262","843903","0.0-224.0-0.0","87299353","wem/bandit_party_2","A24ZZW0J3MOVYV","either","7","78","","","","","","","0","0","1","","0.2713883962","0.4","0.6","0.8","0.2","0.5725449786","0.4364601233","0.2713883962","0.5031908535","","","","","","","","","","","","","","75","K","2","","","183","main_expt",""
"","bandit","263","845551","0.0-225.0-0.0","87299353","wem/bandit_party_2","A24ZZW0J3MOVYV","either","7","116","","","","","","","0","0","1","0.3543557679","","0.4","0.6","0.8","0.2","","","","","0.4878383732","0.4826964198","0.3543557679","0.4239978994","","","","","","","","","","75","K","2","","","184","main_expt",""
"","bandit","264","847399","0.0-226.0-0.0","87299353","wem/bandit_party_2","A24ZZW0J3MOVYV","either","7","327","","","","","","","0","1","0","","0.2974533566","0.4","0.6","0.8","0.2","0.5189350158","0.4448789548","0.2974533566","0.3425545299","","","","","","","","","","","","","","75","K","2","","","185","main_expt",""
"","bandit","265","849095","0.0-227.0-0.0","87299353","wem/bandit_party_2","A24ZZW0J3MOVYV","either","7","176","","","","","","","0","1","0","","0.3295130888","0.4","0.6","0.8","0.2","0.4310300585","0.4585835861","0.3295130888","0.2594221554","","","","","","","","","","","","","","75","K","2","","","186","main_expt",""
"","bandit","266","850866","0.0-228.0-0.0","87299353","wem/bandit_party_2","A24ZZW0J3MOVYV","either","7","252","","","","","","","0","0","1","0.3440574025","","0.4","0.6","0.8","0.2","","","","","0.4005994516","0.5470412386","0.3440574025","0.350747246","","","","","","","","","","75","K","2","","","187","main_expt",""
"","bandit","267","852395","0.0-229.0-0.0","87299353","wem/bandit_party_2","A24ZZW0J3MOVYV","either","7","0","","","","","","","0","0","1","0.3176863717","","0.4","0.6","0.8","0.2","","","","","0.5684333967","0.5485419855","0.3176863717","0.3667816541","","","","","","","","","","75","K","2","","","188","main_expt",""
"","bandit","268","853985","0.0-230.0-0.0","87299353","wem/bandit_party_2","A24ZZW0J3MOVYV","either","7","72","","","","","","","1","0","0","0.3194332301","","0.4","0.6","0.8","0.2","","","","","0.5768443477","0.6161015427","0.3194332301","0.3129240978","","","","","","","","","","75","K","2","","","189","main_expt",""
"","bandit","269","855910","0.0-231.0-0.0","87299353","wem/bandit_party_2","A24ZZW0J3MOVYV","either","7","402","","","","","","","0","0","1","","0.6091254975","0.4","0.6","0.8","0.2","0.6091254975","0.5145576236","0.3585260795","0.3681084497","","","","","","","","","","","","","","72","H","0","img/none_selected.jpg","","190","main_expt",""
"","bandit","270","857736","0.0-232.0-0.0","87299353","wem/bandit_party_2","A24ZZW0J3MOVYV","either","7","301","","","","","","","0","1","0","","0.4438822556","0.4","0.6","0.8","0.2","0.6355225437","0.4447609651","0.4438822556","0.3284994938","","","","","","","","","","","","","","75","K","2","","","191","main_expt",""
"","bandit","271","859542","0.0-233.0-0.0","87299353","wem/bandit_party_2","A24ZZW0J3MOVYV","either","7","281","","","","","","","0","1","0","","0.7449996868","0.4","0.6","0.8","0.2","0.7449996868","0.4273979598","0.6336907385","0.2913335268","","","","","","","","","","","","","","72","H","0","img/none_selected.jpg","","192","main_expt",""
"","bandit","272","861318","0.0-234.0-0.0","87299353","wem/bandit_party_2","A24ZZW0J3MOVYV","either","7","253","","","","","","","0","0","1","0.5871300795","","0.4","0.6","0.8","0.2","","","","","0.7645281636","0.4382354048","0.5871300795","0.3614904019","","","","","","","","","","75","K","2","","","193","main_expt",""
"","bandit","273","863118","0.0-235.0-0.0","87299353","wem/bandit_party_2","A24ZZW0J3MOVYV","either","7","277","","","","","","","0","1","0","","0.4180963095","0.4","0.6","0.8","0.2","0.7417458559","0.4367950698","0.5919999684","0.4180963095","","","","","","","","","","","","","","76","L","3","","","194","main_expt",""
"","bandit","274","865115","0.0-236.0-0.0","87299353","wem/bandit_party_2","A24ZZW0J3MOVYV","either","7","474","","","","","","","0","0","1","0.4306922929","","0.4","0.6","0.8","0.2","","","","","0.7102393491","0.4306922929","0.5599221581","0.4129416526","","","","","","","","","","74","J","1","","","195","main_expt",""
"","bandit","275","866840","0.0-237.0-0.0","87299353","wem/bandit_party_2","A24ZZW0J3MOVYV","either","7","205","","","","","","","0","0","1","","0.4552797342","0.4","0.6","0.8","0.2","0.6846894693","0.4436260943","0.4552797342","0.6027995291","","","","","","","","","","","","","","75","K","2","","","196","main_expt",""
"","bandit","276","868506","0.0-238.0-0.0","87299353","wem/bandit_party_2","A24ZZW0J3MOVYV","either","7","137","","","","","","","0","0","1","0.3045440077","","0.4","0.6","0.8","0.2","","","","","0.6573901597","0.4547077395","0.3045440077","0.6174547511","","","","","","","","","","75","K","2","","","197","main_expt",""
"","bandit","277","870350","0.0-239.0-0.0","87299353","wem/bandit_party_2","A24ZZW0J3MOVYV","either","7","319","","","","","","","0","0","1","","0.4061180554","0.4","0.6","0.8","0.2","0.7020762336","0.545148617","0.4061180554","0.5727893511","","","","","","","","","","","","","","75","K","2","","","198","main_expt",""
"","bandit","278","872115","0.0-240.0-0.0","87299353","wem/bandit_party_2","A24ZZW0J3MOVYV","either","7","238","","","","","","","0","0","1","0.3406873398","","0.4","0.6","0.8","0.2","","","","","0.7749867965","0.5838562778","0.3406873398","0.5803616598","","","","","","","","","","75","K","2","","","199","main_expt",""
"","bandit","279","874028","0.0-241.0-0.0","87299353","wem/bandit_party_2","A24ZZW0J3MOVYV","either","7","387","","","","","","","0","1","0","","0.6569131065","0.4","0.6","0.8","0.2","0.7971262248","0.6569131065","0.2810551981","0.5109940584","","","","","","","","","","","","","","74","J","1","","","200","main_expt",""
"","bandit","280","875948","0.0-242.0-0.0","87299353","wem/bandit_party_2","A24ZZW0J3MOVYV","either","7","396","","","","","","","0","0","1","","0.444158281","0.4","0.6","0.8","0.2","0.6431063495","0.6559739125","0.2295892347","0.444158281","","","","","","","","","","","","","","76","L","3","","","201","main_expt",""
"","bandit","281","877766","0.0-243.0-0.0","87299353","wem/bandit_party_2","A24ZZW0J3MOVYV","either","7","292","","","","","","","0","1","0","","0.3774362348","0.4","0.6","0.8","0.2","0.6153479028","0.5940698896","0.2134833186","0.3774362348","","","","","","","","","","","","","","76","L","3","","","202","main_expt",""
"","bandit","282","879396","0.0-244.0-0.0","87299353","wem/bandit_party_2","A24ZZW0J3MOVYV","either","7","106","","","","","","","0","0","1","0.1538434825","","0.4","0.6","0.8","0.2","","","","","0.6107921693","0.6288005559","0.1538434825","0.2852638898","","","","","","","","","","75","K","2","","","203","main_expt",""
"","bandit","283","881309","0.0-245.0-0.0","87299353","wem/bandit_party_2","A24ZZW0J3MOVYV","either","7","392","","","","","","","0","0","1","0.08629221539","","0.4","0.6","0.8","0.2","","","","","0.6364312764","0.7483345684","0.08629221539","0.3900316507","","","","","","","","","","75","K","2","","","204","main_expt",""
"","bandit","284","883125","0.0-246.0-0.0","87299353","wem/bandit_party_2","A24ZZW0J3MOVYV","either","7","291","","","","","","","0","0","1","0.1303029892","","0.4","0.6","0.8","0.2","","","","","0.7098325313","0.7823609999","0.1303029892","0.3334674042","","","","","","","","","","75","K","2","","","205","main_expt",""
"","bandit","285","885015","0.0-247.0-0.0","87299353","wem/bandit_party_2","A24ZZW0J3MOVYV","either","7","366","","","","","","","0","0","1","0.1290793888","","0.4","0.6","0.8","0.2","","","","","0.6423198407","0.7053347691","0.1290793888","0.3997779834","","","","","","","","","","75","K","2","","","206","main_expt",""
"","bandit","286","886718","0.0-248.0-0.0","87299353","wem/bandit_party_2","A24ZZW0J3MOVYV","either","7","180","","","","","","","0","0","1","0.2791746034","","0.4","0.6","0.8","0.2","","","","","0.7196337679","0.692958529","0.1471003053","0.2791746034","","","","","","","","","","76","L","3","","","207","main_expt",""
"","bandit","287","888582","0.0-249.0-0.0","87299353","wem/bandit_party_2","A24ZZW0J3MOVYV","either","7","343","","","","","","","1","0","0","0.5726600787","","0.4","0.6","0.8","0.2","","","","","0.7273253538","0.5726600787","0.1204476287","0.3447420344","","","","","","","","","","74","J","1","","","208","main_expt",""
"","bandit","288","890342","0.0-250.0-0.0","87299353","wem/bandit_party_2","A24ZZW0J3MOVYV","either","7","238","","","","","","","0","0","1","0.1752658923","","0.4","0.6","0.8","0.2","","","","","0.7701678217","0.7193759884","0.1752658923","0.2106944101","","","","","","","","","","75","K","2","","","209","main_expt",""
"","bandit","289","892138","0.0-251.0-0.0","87299353","wem/bandit_party_2","A24ZZW0J3MOVYV","either","7","274","","","","","","","0","0","1","","0.2609791638","0.4","0.6","0.8","0.2","0.7673062315","0.5469619257","0.2071456167","0.2609791638","","","","","","","","","","","","","","76","L","3","","","210","main_expt",""
"","bandit","290","893760","0.0-252.0-0.0","87299353","wem/bandit_party_2","A24ZZW0J3MOVYV","either","7","101","","","","","","","0","1","0","","0.5432746348","0.4","0.6","0.8","0.2","0.7733207599","0.5432746348","0.1982577311","0.3702243554","","","","","","","","","","","","","","74","J","1","","","211","main_expt",""
"","bandit","291","895834","0.0-253.0-0.0","87299353","wem/bandit_party_2","A24ZZW0J3MOVYV","either","7","549","","","","","","","1","0","0","0.2837026457","","0.4","0.6","0.8","0.2","","","","","0.7176010575","0.4857525371","0.2837026457","0.4070014152","","","","","","","","","","75","K","2","","","212","main_expt",""
"","bandit","292","897728","0.0-254.0-0.0","87299353","wem/bandit_party_2","A24ZZW0J3MOVYV","either","7","367","","","","","","","0","0","1","","0.2192955177","0.4","0.6","0.8","0.2","0.7241732444","0.4416723402","0.2192955177","0.5001351259","","","","","","","","","","","","","","75","K","2","","","213","main_expt",""
"","bandit","293","899523","0.0-255.0-0.0","87299353","wem/bandit_party_2","A24ZZW0J3MOVYV","either","7","272","","","","","","","0","0","1","0.2885853396","","0.4","0.6","0.8","0.2","","","","","0.6696022014","0.4231083207","0.2885853396","0.5667049056","","","","","","","","","","75","K","2","","","214","main_expt",""
"","bandit","294","901362","0.0-256.0-0.0","87299353","wem/bandit_party_2","A24ZZW0J3MOVYV","either","7","314","","","","","","","0","0","1","","0.5259574602","0.4","0.6","0.8","0.2","0.6255990046","0.329019478","0.2451296471","0.5259574602","","","","","","","","","","","","","","76","L","3","","","215","main_expt",""
"","bandit","295","903190","0.0-257.0-0.0","87299353","wem/bandit_party_2","A24ZZW0J3MOVYV","either","7","304","","","","","","","0","0","1","","0.3469743373","0.4","0.6","0.8","0.2","0.6771362935","0.3469743373","0.1946790852","0.5468860011","","","","","","","","","","","","","","74","J","1","","","216","main_expt",""
"","bandit","296","904796","0.0-258.0-0.0","87299353","wem/bandit_party_2","A24ZZW0J3MOVYV","either","7","83","","","","","","","1","0","0","0.3618740044","","0.4","0.6","0.8","0.2","","","","","0.6918953154","0.3618740044","0.2497229096","0.6182745027","","","","","","","","","","74","J","1","","","217","main_expt",""
"","bandit","297","906681","0.0-259.0-0.0","87299353","wem/bandit_party_2","A24ZZW0J3MOVYV","either","7","361","","","","","","","0","0","1","0.3076421025","","0.4","0.6","0.8","0.2","","","","","0.5726390237","0.3574217595","0.3076421025","0.5979125128","","","","","","","","","","75","K","2","","","218","main_expt",""
"","bandit","298","908582","0.0-260.0-0.0","87299353","wem/bandit_party_2","A24ZZW0J3MOVYV","either","7","375","","","","","","","1","0","0","0.3488941347","","0.4","0.6","0.8","0.2","","","","","0.5179196303","0.3862686792","0.3488941347","0.5321687475","","","","","","","","","","75","K","2","","","219","main_expt",""
"","bandit","299","910438","0.0-261.0-0.0","87299353","wem/bandit_party_2","A24ZZW0J3MOVYV","either","7","332","","","","","","","0","0","1","0.306784001","","0.4","0.6","0.8","0.2","","","","","0.5578222379","0.4432846828","0.306784001","0.6053830099","","","","","","","","","","75","K","2","","","220","main_expt",""
"","bandit","300","912363","0.0-262.0-0.0","87299353","wem/bandit_party_2","A24ZZW0J3MOVYV","either","7","407","","","","","","","0","1","0","","0.69383498","0.4","0.6","0.8","0.2","0.6640911266","0.432499938","0.3786925452","0.69383498","","","","","","","","","","","","","","76","L","3","","","221","main_expt",""
"","bandit","301","914288","0.0-263.0-0.0","87299353","wem/bandit_party_2","A24ZZW0J3MOVYV","either","7","402","","","","","","","0","0","1","0.5014801557","","0.4","0.6","0.8","0.2","","","","","0.7340686256","0.4050903391","0.5014801557","0.783375317","","","","","","","","","","75","K","2","","","222","main_expt",""
"","bandit","302","916376","0.0-264.0-0.0","87299353","wem/bandit_party_2","A24ZZW0J3MOVYV","either","7","566","","","","","","","0","1","0","","0.3282593462","0.4","0.6","0.8","0.2","0.852862777","0.3282593462","0.4081704387","0.8374489269","","","","","","","","","","","","","","74","J","1","","","223","main_expt",""
"","bandit","303","918124","0.0-265.0-0.0","87299353","wem/bandit_party_2","A24ZZW0J3MOVYV","either","7","222","","","","","","","0","0","1","0.422296693","","0.4","0.6","0.8","0.2","","","","","0.7830506485","0.2465370002","0.422296693","0.7801262993","","","","","","","","","","75","K","2","","","224","main_expt",""
"","bandit","304","919958","0.0-266.0-0.0","87299353","wem/bandit_party_2","A24ZZW0J3MOVYV","either","7","309","","","","","","","0","0","1","0.2260872052","","0.4","0.6","0.8","0.2","","","","","0.7447555501","0.2260872052","0.3998144739","0.7438235551","","","","","","","","","","74","J","1","","","225","main_expt",""
"","bandit","305","922124","0.0-267.0-0.0","87299353","wem/bandit_party_2","A24ZZW0J3MOVYV","either","7","643","","","","","","","1","0","0","0.2692780115","","0.4","0.6","0.8","0.2","","","","","0.7331719472","0.2573895518","0.2692780115","0.7561714458","","","","","","","","","","75","K","2","","","226","main_expt",""
"","bandit","306","923850","0.0-268.0-0.0","87299353","wem/bandit_party_2","A24ZZW0J3MOVYV","either","7","201","","","","","","","0","0","1","0.268728261","","0.4","0.6","0.8","0.2","","","","","0.6417259928","0.2134597582","0.268728261","0.7527106072","","","","","","","","","","75","K","2","","","227","main_expt",""
"","bandit","307","925955","0.0-269.0-0.0","87299353","wem/bandit_party_2","A24ZZW0J3MOVYV","either","7","579","","","","","","","1","0","0","0.2211951924","","0.4","0.6","0.8","0.2","","","","","0.6050549784","0.348479141","0.2211951924","0.6315627418","","","","","","","","","","75","K","2","","","228","main_expt",""
"","bandit","308","927995","0.0-270.0-0.0","87299353","wem/bandit_party_2","A24ZZW0J3MOVYV","either","7","519","","","","","","","0","0","1","0.219241791","","0.4","0.6","0.8","0.2","","","","","0.5962230341","0.3250735223","0.219241791","0.5564086662","","","","","","","","","","75","K","2","","","229","main_expt",""
"","bandit","309","930209","0.0-271.0-0.0","87299353","wem/bandit_party_2","A24ZZW0J3MOVYV","either","7","686","","","","","","","0","0","1","0.291585141","","0.4","0.6","0.8","0.2","","","","","0.5594933722","0.3395219718","0.291585141","0.5895813861","","","","","","","","","","75","K","2","","","230","main_expt",""
"","bandit","310","932224","0.0-272.0-0.0","87299353","wem/bandit_party_2","A24ZZW0J3MOVYV","either","7","494","","","","","","","0","0","1","","0.2754541949","0.4","0.6","0.8","0.2","0.6411036761","0.3315483329","0.2754541949","0.6148213975","","","","","","","","","","","","","","75","K","2","","","231","main_expt",""
"","bandit","311","934260","0.0-273.0-0.0","87299353","wem/bandit_party_2","A24ZZW0J3MOVYV","either","7","514","","","","","","","0","0","1","0.3055336503","","0.4","0.6","0.8","0.2","","","","","0.6653930637","0.3876030756","0.3055336503","0.5176988489","","","","","","","","","","75","K","2","","","232","main_expt",""
"","bandit","312","936236","0.0-274.0-0.0","87299353","wem/bandit_party_2","A24ZZW0J3MOVYV","either","7","453","","","","","","","0","0","1","0.3390100853","","0.4","0.6","0.8","0.2","","","","","0.5426719569","0.3696248546","0.3390100853","0.4505666118","","","","","","","","","","75","K","2","","","233","main_expt",""
"","bandit","313","938246","0.0-275.0-0.0","87299353","wem/bandit_party_2","A24ZZW0J3MOVYV","either","7","483","","","","","","","0","1","0","","0.4393496879","0.4","0.6","0.8","0.2","0.5581360181","0.3927474605","0.3165323161","0.4393496879","","","","","","","","","","","","","","76","L","3","","","234","main_expt",""
"","bandit","314","939997","0.0-276.0-0.0","87299353","wem/bandit_party_2","A24ZZW0J3MOVYV","either","7","224","","","","","","","1","0","0","0.4734072524","","0.4","0.6","0.8","0.2","","","","","0.5299247183","0.4734072524","0.2944333127","0.3542725407","","","","","","","","","","74","J","1","","","235","main_expt",""
"","bandit","315","941608","0.0-277.0-0.0","87299353","wem/bandit_party_2","A24ZZW0J3MOVYV","either","7","88","","","","","","","1","0","0","0.4127469632","","0.4","0.6","0.8","0.2","","","","","0.4709954077","0.5857320117","0.4127469632","0.452511288","","","","","","","","","","75","K","2","","","236","main_expt",""
"","bandit","316","943438","0.0-278.0-0.0","87299353","wem/bandit_party_2","A24ZZW0J3MOVYV","either","7","304","","","","","","","0","0","1","","0.5208556897","0.4","0.6","0.8","0.2","0.4171051322","0.5208556897","0.4353664578","0.4743784035","","","","","","","","","","","","","","74","J","1","","","237","main_expt",""
"","bandit","317","944968","0.0-279.0-0.0","87299353","wem/bandit_party_2","A24ZZW0J3MOVYV","either","7","4","","","","","","","1","0","0","0.3871798792","","0.4","0.6","0.8","0.2","","","","","0.40722148","0.4551370454","0.3871798792","0.4666998134","","","","","","","","","","75","K","2","","","238","main_expt",""
"","bandit","318","946542","0.0-280.0-0.0","87299353","wem/bandit_party_2","A24ZZW0J3MOVYV","either","7","49","","","","","","","0","0","1","0.3244704863","","0.4","0.6","0.8","0.2","","","","","0.3113271407","0.2979137516","0.3244704863","0.4916456171","","","","","","","","","","75","K","2","","","239","main_expt",""
"","bandit","319","948197","0.0-281.0-0.0","87299353","wem/bandit_party_2","A24ZZW0J3MOVYV","either","7","135","","","","","","","1","0","0","0.7128417261","","0.4","0.6","0.8","0.2","","","","","0.2505753432","0.2453134511","0.3606581002","0.7128417261","","","","","","","","","","76","L","3","","","240","main_expt",""
