"consent","trial_type","trial_index","time_elapsed","internal_node_id","subjID","study","MID","cond","drift","rt","responses","button_pressed","key_press","like","value","connected","gems","bombs","no_reward","GemPrChosen","BombPrChosen","GainOverPainPr_0","GainOverPainPr_1","GainOverPainPr_2","GainOverPainPr_3","LosePr_0","LosePr_1","LosePr_2","LosePr_3","WinPr_0","WinPr_1","WinPr_2","WinPr_3","Q0","Q1","Q2","gender","age","ethnicity","label","expt_phase","target","respCharCode","respKey","respChoiceNum","respChoice","practice","trial_counter","trial_label","Q0_index","view_history"
"GDM/GDM_behavioral_consent_30min_online.html","consent","0","39552","0.0-0.0","88248211","wem/bandit_party_2","A3FLAPKQVDRPJE","either","4","","","","","","","","","","","","","","","","","","","","","","","","","","","","","","","","","","","","","","","","","",""
"","survey-text","1","56378","0.0-1.0","88248211","wem/bandit_party_2","A3FLAPKQVDRPJE","either","4","15783","{""Q0"":""A3FLAPKQVDRPJE""}","","","","","","","","","","","","","","","","","","","","","","","","","","","","","","","","","","","","","","","",""
"","button-response","2","60447","0.0-2.0","88248211","wem/bandit_party_2","A3FLAPKQVDRPJE","either","4","3023","","2","","","","","","","","","","","","","","","","","","","","","","","","","","","","","","","","","","","","","","",""
"","text-replacement","3","91195","0.0-3.0","88248211","wem/bandit_party_2","A3FLAPKQVDRPJE","either","4","29723","","","32","","","","","","","","","","","","","","","","","","","","","","","","","","","","","","","","","","","","","",""
"","text-replacement","4","111435","0.0-4.0","88248211","wem/bandit_party_2","A3FLAPKQVDRPJE","either","4","20231","","","32","","","","","","","","","","","","","","","","","","","","","","","","","","","","","","","","","","","","","",""
"","text-replacement","5","130747","0.0-5.0-0.0","88248211","wem/bandit_party_2","A3FLAPKQVDRPJE","either","4","19299","","","32","","","","","","","","","","","","","","","","","","","","","","","","","","","","","","","","","","","","","",""
"","identification","6","147362","0.0-6.0-0.0","88248211","wem/bandit_party_2","A3FLAPKQVDRPJE","either","4","16509","","","","0","0","0","","","","","","","","","","","","","","","","","","","","","","","","pre","identification_pre","the Democratic Party","","","","","","","","",""
"","identification","7","155313","0.0-6.0-1.0","88248211","wem/bandit_party_2","A3FLAPKQVDRPJE","either","4","6839","","","","6","6","6","","","","","","","","","","","","","","","","","","","","","","","","pre","identification_pre","the Republican Party","","","","","","","","",""
"","text-replacement","8","167549","0.0-7.0","88248211","wem/bandit_party_2","A3FLAPKQVDRPJE","either","4","11218","","","32","","","","","","","","","","","","","","","","","","","","","","","","","","","","","","","","","","","","","",""
"","text-replacement","9","180077","0.0-8.0","88248211","wem/bandit_party_2","A3FLAPKQVDRPJE","either","4","12515","","","32","","","","","","","","","","","","","","","","","","","","","","","","","","","","","","","","","","","","","",""
"","text-replacement","10","200075","0.0-9.0","88248211","wem/bandit_party_2","A3FLAPKQVDRPJE","either","4","19988","","","32","","","","","","","","","","","","","","","","","","","","","","","","","","","","","","","","","","","","","",""
"","text-replacement","11","205611","0.0-10.0","88248211","wem/bandit_party_2","A3FLAPKQVDRPJE","either","4","5530","","","32","","","","","","","","","","","","","","","","","","","","","","","","","","","","","","","","","","","","","",""
"","text-replacement","12","218379","0.0-11.0","88248211","wem/bandit_party_2","A3FLAPKQVDRPJE","either","4","12750","","","32","","","","","","","","","","","","","","","","","","","","","","","","","","","","","","","","","","","","","",""
"","bandit","13","223294","0.0-12.0-0.0","88248211","wem/bandit_party_2","A3FLAPKQVDRPJE","either","4","3348","","","","","","","0","0","1","0","0","","","","","0","","","","0","","","","","","","","","","","","","74","J","0","img/none_selected_demo.jpg","true","0","","",""
"","bandit","14","226995","0.0-13.0-0.0","88248211","wem/bandit_party_2","A3FLAPKQVDRPJE","either","4","2159","","","","","","","0","0","1","0","0","","","","","0","","","","0","","","","","","","","","","","","","75","K","0","img/none_selected_demo.jpg","true","0","","",""
"","text-replacement","15","242700","0.0-14.0","88248211","wem/bandit_party_2","A3FLAPKQVDRPJE","either","4","15698","","","32","","","","","","","","","","","","","","","","","","","","","","","","","","","","","","","","","","","","","",""
"","text-replacement","16","258945","0.0-15.0","88248211","wem/bandit_party_2","A3FLAPKQVDRPJE","either","4","16237","","","32","","","","","","","","","","","","","","","","","","","","","","","","","","","","","","","","","","","","","",""
"","text-replacement","17","275633","0.0-16.0","88248211","wem/bandit_party_2","A3FLAPKQVDRPJE","either","4","16683","","","32","","","","","","","","","","","","","","","","","","","","","","","","","","","","","","","","","","","","","",""
"","text-replacement","18","291812","0.0-17.0","88248211","wem/bandit_party_2","A3FLAPKQVDRPJE","either","4","16175","","","32","","","","","","","","","","","","","","","","","","","","","","","","","","","","","","","","","","","","","",""
"","bandit","19","296839","0.0-18.0-0.0","88248211","wem/bandit_party_2","A3FLAPKQVDRPJE","either","4","3491","","","","","","","0","1","0","","0.8","0.5","0.5","","","0.8","0.2","","","","","","","","","","","","","","","","74","J","0","img/none_selected_demo.jpg","true","0","80_20_practice","",""
"","bandit","20","302321","0.0-18.0-1.0","88248211","wem/bandit_party_2","A3FLAPKQVDRPJE","either","4","3937","","","","","","","0","1","0","","0.8","0.5","0.5","","","0.8","0.2","","","","","","","","","","","","","","","","74","J","0","img/none_selected_demo.jpg","true","0","80_20_practice","",""
"","bandit","21","308530","0.0-18.0-2.0","88248211","wem/bandit_party_2","A3FLAPKQVDRPJE","either","4","4680","","","","","","","0","0","1","","0.2","0.5","0.5","","","0.8","0.2","","","","","","","","","","","","","","","","75","K","1","","true","0","80_20_practice","",""
"","bandit","22","311764","0.0-18.0-3.0","88248211","wem/bandit_party_2","A3FLAPKQVDRPJE","either","4","1660","","","","","","","0","0","1","0.2","","0.5","0.5","","","","","","","0.8","0.2","","","","","","","","","","","","75","K","1","","true","0","80_20_practice","",""
"","bandit","23","314824","0.0-18.0-4.0","88248211","wem/bandit_party_2","A3FLAPKQVDRPJE","either","4","1515","","","","","","","0","1","0","","0.8","0.5","0.5","","","0.8","0.2","","","","","","","","","","","","","","","","74","J","0","img/none_selected_demo.jpg","true","0","80_20_practice","",""
"","bandit","24","319373","0.0-18.0-5.0","88248211","wem/bandit_party_2","A3FLAPKQVDRPJE","either","4","3014","","","","","","","0","0","1","","0.8","0.5","0.5","","","0.8","0.2","","","","","","","","","","","","","","","","74","J","0","img/none_selected_demo.jpg","true","0","80_20_practice","",""
"","bandit","25","321806","0.0-18.0-6.0","88248211","wem/bandit_party_2","A3FLAPKQVDRPJE","either","4","889","","","","","","","0","1","0","","0.8","0.5","0.5","","","0.8","0.2","","","","","","","","","","","","","","","","74","J","0","img/none_selected_demo.jpg","true","0","80_20_practice","",""
"","bandit","26","325224","0.0-18.0-7.0","88248211","wem/bandit_party_2","A3FLAPKQVDRPJE","either","4","1879","","","","","","","0","1","0","","0.8","0.5","0.5","","","0.8","0.2","","","","","","","","","","","","","","","","74","J","0","img/none_selected_demo.jpg","true","0","80_20_practice","",""
"","bandit","27","328476","0.0-18.0-8.0","88248211","wem/bandit_party_2","A3FLAPKQVDRPJE","either","4","1699","","","","","","","0","0","1","","0.2","0.5","0.5","","","0.8","0.2","","","","","","","","","","","","","","","","75","K","1","","true","0","80_20_practice","",""
"","bandit","28","330963","0.0-18.0-9.0","88248211","wem/bandit_party_2","A3FLAPKQVDRPJE","either","4","924","","","","","","","0","1","0","","0.8","0.5","0.5","","","0.8","0.2","","","","","","","","","","","","","","","","74","J","0","img/none_selected_demo.jpg","true","0","80_20_practice","",""
"","bandit","29","333276","0.0-18.0-10.0","88248211","wem/bandit_party_2","A3FLAPKQVDRPJE","either","4","771","","","","","","","0","0","1","0.8","","0.5","0.5","","","","","","","0.8","0.2","","","","","","","","","","","","74","J","0","img/none_selected_demo.jpg","true","0","80_20_practice","",""
"","bandit","30","335402","0.0-18.0-11.0","88248211","wem/bandit_party_2","A3FLAPKQVDRPJE","either","4","579","","","","","","","0","0","1","","0.8","0.5","0.5","","","0.8","0.2","","","","","","","","","","","","","","","","74","J","0","img/none_selected_demo.jpg","true","0","80_20_practice","",""
"","bandit","31","337614","0.0-18.0-12.0","88248211","wem/bandit_party_2","A3FLAPKQVDRPJE","either","4","658","","","","","","","0","0","1","0.2","","0.5","0.5","","","","","","","0.8","0.2","","","","","","","","","","","","75","K","1","","true","0","80_20_practice","",""
"","bandit","32","339591","0.0-18.0-13.0","88248211","wem/bandit_party_2","A3FLAPKQVDRPJE","either","4","425","","","","","","","0","0","1","0.2","","0.5","0.5","","","","","","","0.8","0.2","","","","","","","","","","","","75","K","1","","true","0","80_20_practice","",""
"","bandit","33","341640","0.0-18.0-14.0","88248211","wem/bandit_party_2","A3FLAPKQVDRPJE","either","4","496","","","","","","","0","1","0","","0.8","0.5","0.5","","","0.8","0.2","","","","","","","","","","","","","","","","74","J","0","img/none_selected_demo.jpg","true","0","80_20_practice","",""
"","bandit","34","343912","0.0-18.0-15.0","88248211","wem/bandit_party_2","A3FLAPKQVDRPJE","either","4","727","","","","","","","0","0","1","0.8","","0.5","0.5","","","","","","","0.8","0.2","","","","","","","","","","","","74","J","0","img/none_selected_demo.jpg","true","0","80_20_practice","",""
"","bandit","35","345994","0.0-18.0-16.0","88248211","wem/bandit_party_2","A3FLAPKQVDRPJE","either","4","525","","","","","","","0","0","1","","0.8","0.5","0.5","","","0.8","0.2","","","","","","","","","","","","","","","","74","J","0","img/none_selected_demo.jpg","true","0","80_20_practice","",""
"","bandit","36","347932","0.0-18.0-17.0","88248211","wem/bandit_party_2","A3FLAPKQVDRPJE","either","4","387","","","","","","","0","0","1","","0.8","0.5","0.5","","","0.8","0.2","","","","","","","","","","","","","","","","74","J","0","img/none_selected_demo.jpg","true","0","80_20_practice","",""
"","bandit","37","350079","0.0-18.0-18.0","88248211","wem/bandit_party_2","A3FLAPKQVDRPJE","either","4","585","","","","","","","0","0","1","","0.2","0.5","0.5","","","0.8","0.2","","","","","","","","","","","","","","","","75","K","1","","true","0","80_20_practice","",""
"","bandit","38","352088","0.0-18.0-19.0","88248211","wem/bandit_party_2","A3FLAPKQVDRPJE","either","4","480","","","","","","","0","0","1","0.2","","0.5","0.5","","","","","","","0.8","0.2","","","","","","","","","","","","75","K","1","","true","0","80_20_practice","",""
"","text-replacement","39","361930","0.0-19.0","88248211","wem/bandit_party_2","A3FLAPKQVDRPJE","either","4","9835","","","32","","","","","","","","","","","","","","","","","","","","","","","","","","","","","","","","","","","","","",""
"","bandit","40","366895","0.0-20.0-0.0","88248211","wem/bandit_party_2","A3FLAPKQVDRPJE","either","4","3433","","","","","","","1","0","0","1","0","","","","","0","1","","","1","0","","","","","","","","","","","","74","J","0","img/none_selected_demo.jpg","true","0","","",""
"","text-replacement","41","379688","0.0-21.0","88248211","wem/bandit_party_2","A3FLAPKQVDRPJE","either","4","12787","","","32","","","","","","","","","","","","","","","","","","","","","","","","","","","","","","","","","","","","","",""
"","text-replacement","42","385809","0.0-22.0","88248211","wem/bandit_party_2","A3FLAPKQVDRPJE","either","4","6115","","","32","","","","","","","","","","","","","","","","","","","","","","","","","","","","","","","","","","","","","",""
"","text-replacement","43","393801","0.0-23.0","88248211","wem/bandit_party_2","A3FLAPKQVDRPJE","either","4","7987","","","32","","","","","","","","","","","","","","","","","","","","","","","","","","","","","","","","","","","","","",""
"","text-replacement","44","399032","0.0-24.0","88248211","wem/bandit_party_2","A3FLAPKQVDRPJE","either","4","5221","","","32","","","","","","","","","","","","","","","","","","","","","","","","","","","","","","","","","","","","","",""
"","text-replacement","45","413602","0.0-25.0","88248211","wem/bandit_party_2","A3FLAPKQVDRPJE","either","4","14559","","","32","","","","","","","","","","","","","","","","","","","","","","","","","","","","","","","","","","","","","",""
"","text-replacement","46","421097","0.0-26.0","88248211","wem/bandit_party_2","A3FLAPKQVDRPJE","either","4","7486","","","32","","","","","","","","","","","","","","","","","","","","","","","","","","","","","","","","","","","","","",""
"","text-replacement","47","428394","0.0-27.0","88248211","wem/bandit_party_2","A3FLAPKQVDRPJE","either","4","7288","","","32","","","","","","","","","","","","","","","","","","","","","","","","","","","","","","","","","","","","","",""
"","text-replacement","48","435880","0.0-28.0","88248211","wem/bandit_party_2","A3FLAPKQVDRPJE","either","4","7481","","","32","","","","","","","","","","","","","","","","","","","","","","","","","","","","","","","","","","","","","",""
"","text-replacement","49","444432","0.0-29.0","88248211","wem/bandit_party_2","A3FLAPKQVDRPJE","either","4","8546","","","32","","","","","","","","","","","","","","","","","","","","","","","","","","","","","","","","","","","","","",""
"","text-replacement","50","447352","0.0-30.0","88248211","wem/bandit_party_2","A3FLAPKQVDRPJE","either","4","2915","","","32","","","","","","","","","","","","","","","","","","","","","","","","","","","","","","","","","","","","","",""
"","text-replacement","51","451456","0.0-31.0","88248211","wem/bandit_party_2","A3FLAPKQVDRPJE","either","4","4097","","","32","","","","","","","","","","","","","","","","","","","","","","","","","","","","","","","","","","","","","",""
"","bandit","52","455443","0.0-32.0-0.0","88248211","wem/bandit_party_2","A3FLAPKQVDRPJE","either","4","2414","","","","","","","0","0","1","0.8","","0.5","0.5","0.5","0.5","","","","","0.8","0.2","0.6","0.2","","","","","","","","","","72","H","0","img/none_selected.jpg","true","0","full_practice","",""
"","bandit","53","458531","0.0-32.0-1.0","88248211","wem/bandit_party_2","A3FLAPKQVDRPJE","either","4","1513","","","","","","","0","0","1","","0.2","0.5","0.5","0.5","0.5","0.8","0.2","0.6","0.2","","","","","","","","","","","","","","74","J","1","","true","0","full_practice","",""
"","bandit","54","461365","0.0-32.0-2.0","88248211","wem/bandit_party_2","A3FLAPKQVDRPJE","either","4","1267","","","","","","","1","0","0","0.6","","0.5","0.5","0.5","0.5","","","","","0.8","0.2","0.6","0.2","","","","","","","","","","75","K","2","","true","0","full_practice","",""
"","bandit","55","464705","0.0-32.0-3.0","88248211","wem/bandit_party_2","A3FLAPKQVDRPJE","either","4","1790","","","","","","","0","0","1","0.2","","0.5","0.5","0.5","0.5","","","","","0.8","0.2","0.6","0.2","","","","","","","","","","76","L","3","","true","0","full_practice","",""
"","bandit","56","468956","0.0-32.0-4.0","88248211","wem/bandit_party_2","A3FLAPKQVDRPJE","either","4","2708","","","","","","","0","0","1","","0.6","0.5","0.5","0.5","0.5","0.8","0.2","0.6","0.2","","","","","","","","","","","","","","75","K","2","","true","0","full_practice","",""
"","bandit","57","471146","0.0-32.0-5.0","88248211","wem/bandit_party_2","A3FLAPKQVDRPJE","either","4","645","","","","","","","0","0","1","0.2","","0.5","0.5","0.5","0.5","","","","","0.8","0.2","0.6","0.2","","","","","","","","","","74","J","1","","true","0","full_practice","",""
"","bandit","58","473255","0.0-32.0-6.0","88248211","wem/bandit_party_2","A3FLAPKQVDRPJE","either","4","563","","","","","","","0","0","1","0.8","","0.5","0.5","0.5","0.5","","","","","0.8","0.2","0.6","0.2","","","","","","","","","","72","H","0","img/none_selected.jpg","true","0","full_practice","",""
"","bandit","59","475511","0.0-32.0-7.0","88248211","wem/bandit_party_2","A3FLAPKQVDRPJE","either","4","702","","","","","","","0","0","1","","0.2","0.5","0.5","0.5","0.5","0.8","0.2","0.6","0.2","","","","","","","","","","","","","","76","L","3","","true","0","full_practice","",""
"","bandit","60","477444","0.0-32.0-8.0","88248211","wem/bandit_party_2","A3FLAPKQVDRPJE","either","4","397","","","","","","","0","0","1","0.6","","0.5","0.5","0.5","0.5","","","","","0.8","0.2","0.6","0.2","","","","","","","","","","75","K","2","","true","0","full_practice","",""
"","bandit","61","479319","0.0-32.0-9.0","88248211","wem/bandit_party_2","A3FLAPKQVDRPJE","either","4","330","","","","","","","0","0","1","","0.2","0.5","0.5","0.5","0.5","0.8","0.2","0.6","0.2","","","","","","","","","","","","","","74","J","1","","true","0","full_practice","",""
"","bandit","62","481208","0.0-32.0-10.0","88248211","wem/bandit_party_2","A3FLAPKQVDRPJE","either","4","343","","","","","","","1","0","0","0.8","","0.5","0.5","0.5","0.5","","","","","0.8","0.2","0.6","0.2","","","","","","","","","","72","H","0","img/none_selected.jpg","true","0","full_practice","",""
"","bandit","63","604405","0.0-32.0-11.0","88248211","wem/bandit_party_2","A3FLAPKQVDRPJE","either","4","121643","","","","","","","1","0","0","0.8","","0.5","0.5","0.5","0.5","","","","","0.8","0.2","0.6","0.2","","","","","","","","","","72","H","0","img/none_selected.jpg","true","0","full_practice","",""
"","bandit","64","607713","0.0-32.0-12.0","88248211","wem/bandit_party_2","A3FLAPKQVDRPJE","either","4","1745","","","","","","","0","1","0","","0.8","0.5","0.5","0.5","0.5","0.8","0.2","0.6","0.2","","","","","","","","","","","","","","72","H","0","img/none_selected.jpg","true","0","full_practice","",""
"","bandit","65","609854","0.0-32.0-13.0","88248211","wem/bandit_party_2","A3FLAPKQVDRPJE","either","4","596","","","","","","","0","0","1","0.8","","0.5","0.5","0.5","0.5","","","","","0.8","0.2","0.6","0.2","","","","","","","","","","72","H","0","img/none_selected.jpg","true","0","full_practice","",""
"","bandit","66","611877","0.0-32.0-14.0","88248211","wem/bandit_party_2","A3FLAPKQVDRPJE","either","4","415","","","","","","","0","0","1","0.2","","0.5","0.5","0.5","0.5","","","","","0.8","0.2","0.6","0.2","","","","","","","","","","74","J","1","","true","0","full_practice","",""
"","bandit","67","613669","0.0-32.0-15.0","88248211","wem/bandit_party_2","A3FLAPKQVDRPJE","either","4","228","","","","","","","0","0","1","0.6","","0.5","0.5","0.5","0.5","","","","","0.8","0.2","0.6","0.2","","","","","","","","","","75","K","2","","true","0","full_practice","",""
"","bandit","68","618185","0.0-32.0-16.0","88248211","wem/bandit_party_2","A3FLAPKQVDRPJE","either","4","2972","","","","","","","0","0","1","0.2","","0.5","0.5","0.5","0.5","","","","","0.8","0.2","0.6","0.2","","","","","","","","","","76","L","3","","true","0","full_practice","",""
"","bandit","69","621057","0.0-32.0-17.0","88248211","wem/bandit_party_2","A3FLAPKQVDRPJE","either","4","1346","","","","","","","0","1","0","","0.8","0.5","0.5","0.5","0.5","0.8","0.2","0.6","0.2","","","","","","","","","","","","","","72","H","0","img/none_selected.jpg","true","0","full_practice","",""
"","bandit","70","623002","0.0-32.0-18.0","88248211","wem/bandit_party_2","A3FLAPKQVDRPJE","either","4","410","","","","","","","0","1","0","","0.8","0.5","0.5","0.5","0.5","0.8","0.2","0.6","0.2","","","","","","","","","","","","","","72","H","0","img/none_selected.jpg","true","0","full_practice","",""
"","bandit","71","624971","0.0-32.0-19.0","88248211","wem/bandit_party_2","A3FLAPKQVDRPJE","either","4","441","","","","","","","0","1","0","","0.8","0.5","0.5","0.5","0.5","0.8","0.2","0.6","0.2","","","","","","","","","","","","","","72","H","0","img/none_selected.jpg","true","0","full_practice","",""
"","text","72","633212","0.0-33.0","88248211","wem/bandit_party_2","A3FLAPKQVDRPJE","either","4","8208","","","32","","","","","","","","","","","","","","","","","","","","","","","","","","","","","","","","","","","","","",""
"","text-replacement","73","654328","0.0-34.0","88248211","wem/bandit_party_2","A3FLAPKQVDRPJE","either","4","20101","","","32","","","","","","","","","","","","","","","","","","","","","","","","","","","","","","","","","","","","","",""
"","text-replacement","74","672921","0.0-35.0","88248211","wem/bandit_party_2","A3FLAPKQVDRPJE","either","4","18584","","","32","","","","","","","","","","","","","","","","","","","","","","","","","","","","","","","","","","","","","",""
"","text-replacement","75","685057","0.0-36.0","88248211","wem/bandit_party_2","A3FLAPKQVDRPJE","either","4","12122","","","32","","","","","","","","","","","","","","","","","","","","","","","","","","","","","","","","","","","","","",""
"","text-replacement","76","698329","0.0-37.0","88248211","wem/bandit_party_2","A3FLAPKQVDRPJE","either","4","13259","","","32","","","","","","","","","","","","","","","","","","","","","","","","","","","","","","","","","","","","","",""
"","text-replacement","77","709263","0.0-38.0","88248211","wem/bandit_party_2","A3FLAPKQVDRPJE","either","4","10924","","","32","","","","","","","","","","","","","","","","","","","","","","","","","","","","","","","","","","","","","",""
"","survey-multi-choice-replacement","78","732268","0.0-39.0-0.0","88248211","wem/bandit_party_2","A3FLAPKQVDRPJE","either","4","22971","","","","","","","","","","","","","","","","","","","","","","","","Money will be added to the pool for <span style='color:red;'>REPUBLICANS</span>","","","","","","","attn_check","","","","","","","","","0",""
"","survey-multi-choice-replacement","79","743223","0.0-40.0-0.0","88248211","wem/bandit_party_2","A3FLAPKQVDRPJE","either","4","9881","","","","","","","","","","","","","","","","","","","","","","","","Money will be subtracted from the pool for <span style='color:blue;'>DEMOCRATS</span>","","","","","","","attn_check","","","","","","","","","1",""
"","instructions","80","746717","0.0-40.0-1.0-0.0","88248211","wem/bandit_party_2","A3FLAPKQVDRPJE","either","4","2481","","","","","","","","","","","","","","","","","","","","","","","","","","","","","","","","","","","","","","","","","[{""page_index"":0,""viewing_time"":2480}]"
"","survey-multi-choice-replacement","81","753206","0.0-40.1-0.1","88248211","wem/bandit_party_2","A3FLAPKQVDRPJE","either","4","5444","","","","","","","","","","","","","","","","","","","","","","","","Money will be subtracted from the pool for <span style='color:blue;'>DEMOCRATS</span>","","","","","","","attn_check","","","","","","","","","1",""
"","instructions","82","755851","0.0-40.1-1.1-0.1","88248211","wem/bandit_party_2","A3FLAPKQVDRPJE","either","4","1615","","","","","","","","","","","","","","","","","","","","","","","","","","","","","","","","","","","","","","","","","[{""page_index"":0,""viewing_time"":1614}]"
"","survey-multi-choice-replacement","83","767838","0.0-40.2-0.2","88248211","wem/bandit_party_2","A3FLAPKQVDRPJE","either","4","10951","","","","","","","","","","","","","","","","","","","","","","","","Money will be added to the pool for <span style='color:red;'>REPUBLICANS</span>","","","","","","","attn_check","","","","","","","","","0",""
"","instructions","84","770327","0.0-40.2-1.2-0.2","88248211","wem/bandit_party_2","A3FLAPKQVDRPJE","either","4","1465","","","","","","","","","","","","","","","","","","","","","","","","","","","","","","","","","","","","","","","","","[{""page_index"":0,""viewing_time"":1461}]"
"","survey-multi-choice-replacement","85","780239","0.0-40.3-0.3","88248211","wem/bandit_party_2","A3FLAPKQVDRPJE","either","4","8878","","","","","","","","","","","","","","","","","","","","","","","","Money will be subtracted from the pool for <span style='color:blue;'>DEMOCRATS</span>","","","","","","","attn_check","","","","","","","","","1",""
"","instructions","86","782859","0.0-40.3-1.3-0.3","88248211","wem/bandit_party_2","A3FLAPKQVDRPJE","either","4","1599","","","","","","","","","","","","","","","","","","","","","","","","","","","","","","","","","","","","","","","","","[{""page_index"":0,""viewing_time"":1598}]"
"","survey-multi-choice-replacement","87","788803","0.0-40.4-0.4","88248211","wem/bandit_party_2","A3FLAPKQVDRPJE","either","4","4906","","","","","","","","","","","","","","","","","","","","","","","","Equal amounts of money will be added to the pool for <span style='color:red;'>REPUBLICANS</span> and subtracted from the pool for <span style='color:blue;'>DEMOCRATS</span>","","","","","","","attn_check","","","","","","","","","2",""
"","survey-multi-choice-replacement","88","805211","0.0-41.0-0.0","88248211","wem/bandit_party_2","A3FLAPKQVDRPJE","either","4","15377","","","","","","","","","","","","","","","","","","","","","","","","No money will be added to either pool","","","","","","","attn_check","","","","","","","","","3",""
"","bandit","89","811668","0.0-42.0-0.0","88248211","wem/bandit_party_2","A3FLAPKQVDRPJE","either","4","3901","","","","","","","1","0","0","0.7267404998","","0.4","0.6","0.8","0.2","","","","","0.7267404998","0.8209843215","0.9858900825","0.2887693562","","","","","","","","","","72","H","0","img/none_selected.jpg","","1","main_expt","",""
"","bandit","90","814627","0.0-43.0-0.0","88248211","wem/bandit_party_2","A3FLAPKQVDRPJE","either","4","1397","","","","","","","0","0","1","","0.7034907646","0.4","0.6","0.8","0.2","0.7034907646","0.8179122382","0.9854924354","0.2986217167","","","","","","","","","","","","","","72","H","0","img/none_selected.jpg","","2","main_expt","",""
"","bandit","91","817512","0.0-44.0-0.0","88248211","wem/bandit_party_2","A3FLAPKQVDRPJE","either","4","1328","","","","","","","0","1","0","","0.8301291561","0.4","0.6","0.8","0.2","0.6574847675","0.8301291561","0.9789624529","0.261346942","","","","","","","","","","","","","","74","J","1","","","3","main_expt","",""
"","bandit","92","820280","0.0-45.0-0.0","88248211","wem/bandit_party_2","A3FLAPKQVDRPJE","either","4","1234","","","","","","","1","0","0","0.9565345184","","0.4","0.6","0.8","0.2","","","","","0.5092805277","0.8219157537","0.9565345184","0.2757740293","","","","","","","","","","75","K","2","","","4","main_expt","",""
"","bandit","93","823755","0.0-46.0-0.0","88248211","wem/bandit_party_2","A3FLAPKQVDRPJE","either","4","1930","","","","","","","0","0","1","0.3329857669","","0.4","0.6","0.8","0.2","","","","","0.5952926025","0.7759220463","0.941194936","0.3329857669","","","","","","","","","","76","L","3","","","5","main_expt","",""
"","bandit","94","825691","0.0-47.0-0.0","88248211","wem/bandit_party_2","A3FLAPKQVDRPJE","either","4","380","","","","","","","1","0","0","0.9305219143","","0.4","0.6","0.8","0.2","","","","","0.6160758637","0.7495930044","0.9305219143","0.331878758","","","","","","","","","","75","K","2","","","6","main_expt","",""
"","bandit","95","827811","0.0-48.0-0.0","88248211","wem/bandit_party_2","A3FLAPKQVDRPJE","either","4","566","","","","","","","1","0","0","0.937738562","","0.4","0.6","0.8","0.2","","","","","0.6381806331","0.7078030286","0.937738562","0.3863389794","","","","","","","","","","75","K","2","","","7","main_expt","",""
"","bandit","96","829652","0.0-49.0-0.0","88248211","wem/bandit_party_2","A3FLAPKQVDRPJE","either","4","311","","","","","","","0","1","0","","0.8269671957","0.4","0.6","0.8","0.2","0.7047831713","0.689407674","0.8269671957","0.4242016385","","","","","","","","","","","","","","75","K","2","","","8","main_expt","",""
"","bandit","97","831616","0.0-50.0-0.0","88248211","wem/bandit_party_2","A3FLAPKQVDRPJE","either","4","429","","","","","","","1","0","0","0.7696709776","","0.4","0.6","0.8","0.2","","","","","0.6222923336","0.7848236408","0.7696709776","0.379169242","","","","","","","","","","75","K","2","","","9","main_expt","",""
"","bandit","98","833554","0.0-51.0-0.0","88248211","wem/bandit_party_2","A3FLAPKQVDRPJE","either","4","385","","","","","","","0","1","0","","0.7313552403","0.4","0.6","0.8","0.2","0.5629201009","0.791363481","0.7313552403","0.40569916","","","","","","","","","","","","","","75","K","2","","","10","main_expt","",""
"","bandit","99","835418","0.0-52.0-0.0","88248211","wem/bandit_party_2","A3FLAPKQVDRPJE","either","4","300","","","","","","","0","0","1","0.8129169819","","0.4","0.6","0.8","0.2","","","","","0.644159789","0.7800632456","0.8129169819","0.4188021694","","","","","","","","","","75","K","2","","","11","main_expt","",""
"","bandit","100","837496","0.0-53.0-0.0","88248211","wem/bandit_party_2","A3FLAPKQVDRPJE","either","4","540","","","","","","","1","0","0","0.7559884596","","0.4","0.6","0.8","0.2","","","","","0.6840372722","0.7559884596","0.7611571711","0.3689559917","","","","","","","","","","74","J","1","","","12","main_expt","",""
"","bandit","101","840002","0.0-54.0-0.0","88248211","wem/bandit_party_2","A3FLAPKQVDRPJE","either","4","961","","","","","","","1","0","0","0.7695577991","","0.4","0.6","0.8","0.2","","","","","0.6236151953","0.7695577991","0.7628417147","0.4584943612","","","","","","","","","","74","J","1","","","13","main_expt","",""
"","bandit","102","841923","0.0-55.0-0.0","88248211","wem/bandit_party_2","A3FLAPKQVDRPJE","either","4","369","","","","","","","1","0","0","0.8509931145","","0.4","0.6","0.8","0.2","","","","","0.5388331182","0.8509931145","0.7436451733","0.455083938","","","","","","","","","","74","J","1","","","14","main_expt","",""
"","bandit","103","843794","0.0-56.0-0.0","88248211","wem/bandit_party_2","A3FLAPKQVDRPJE","either","4","320","","","","","","","1","0","0","0.7745856811","","0.4","0.6","0.8","0.2","","","","","0.4802769188","0.7745856811","0.8256008488","0.5360112786","","","","","","","","","","74","J","1","","","15","main_expt","",""
"","bandit","104","845677","0.0-57.0-0.0","88248211","wem/bandit_party_2","A3FLAPKQVDRPJE","either","4","332","","","","","","","0","1","0","","0.7576521113","0.4","0.6","0.8","0.2","0.4688000192","0.7576521113","0.7683027423","0.4791571541","","","","","","","","","","","","","","74","J","1","","","16","main_expt","",""
"","bandit","105","847565","0.0-58.0-0.0","88248211","wem/bandit_party_2","A3FLAPKQVDRPJE","either","4","325","","","","","","","0","0","1","","0.8099558365","0.4","0.6","0.8","0.2","0.6000602573","0.8099558365","0.7857675768","0.5263630166","","","","","","","","","","","","","","74","J","1","","","17","main_expt","",""
"","bandit","106","849626","0.0-59.0-0.0","88248211","wem/bandit_party_2","A3FLAPKQVDRPJE","either","4","508","","","","","","","0","1","0","","0.6046592687","0.4","0.6","0.8","0.2","0.6046592687","0.7535280451","0.7303419725","0.543945959","","","","","","","","","","","","","","72","H","0","img/none_selected.jpg","","18","main_expt","",""
"","bandit","107","851593","0.0-60.0-0.0","88248211","wem/bandit_party_2","A3FLAPKQVDRPJE","either","4","426","","","","","","","0","0","1","","0.6177236116","0.4","0.6","0.8","0.2","0.6177236116","0.7206444799","0.7243255268","0.4579801682","","","","","","","","","","","","","","72","H","0","img/none_selected.jpg","","19","main_expt","",""
"","bandit","108","855352","0.0-61.0-0.0","88248211","wem/bandit_party_2","A3FLAPKQVDRPJE","either","4","2216","","","","","","","0","1","0","","0.5439896582","0.4","0.6","0.8","0.2","0.5484637992","0.6388551968","0.7691283854","0.5439896582","","","","","","","","","","","","","","76","L","3","","","20","main_expt","",""
"","bandit","109","857539","0.0-62.0-0.0","88248211","wem/bandit_party_2","A3FLAPKQVDRPJE","either","4","630","","","","","","","0","1","0","","0.5796019833","0.4","0.6","0.8","0.2","0.6646151354","0.4956822649","0.7068464658","0.5796019833","","","","","","","","","","","","","","76","L","3","","","21","main_expt","",""
"","bandit","110","859510","0.0-63.0-0.0","88248211","wem/bandit_party_2","A3FLAPKQVDRPJE","either","4","403","","","","","","","0","1","0","","0.5885929095","0.4","0.6","0.8","0.2","0.7223938077","0.4316307404","0.7407239748","0.5885929095","","","","","","","","","","","","","","76","L","3","","","22","main_expt","",""
"","bandit","111","861398","0.0-64.0-0.0","88248211","wem/bandit_party_2","A3FLAPKQVDRPJE","either","4","348","","","","","","","0","0","1","","0.4899642796","0.4","0.6","0.8","0.2","0.7548690184","0.4158022912","0.7300920021","0.4899642796","","","","","","","","","","","","","","76","L","3","","","23","main_expt","",""
"","bandit","112","863295","0.0-65.0-0.0","88248211","wem/bandit_party_2","A3FLAPKQVDRPJE","either","4","353","","","","","","","1","0","0","0.7074307303","","0.4","0.6","0.8","0.2","","","","","0.7794954679","0.4099928258","0.7074307303","0.4984159311","","","","","","","","","","75","K","2","","","24","main_expt","",""
"","bandit","113","865179","0.0-66.0-0.0","88248211","wem/bandit_party_2","A3FLAPKQVDRPJE","either","4","338","","","","","","","0","0","1","","0.6228099684","0.4","0.6","0.8","0.2","0.8029664172","0.4303724308","0.6228099684","0.5885503773","","","","","","","","","","","","","","75","K","2","","","25","main_expt","",""
"","bandit","114","867147","0.0-67.0-0.0","88248211","wem/bandit_party_2","A3FLAPKQVDRPJE","either","4","421","","","","","","","1","0","0","0.3291624114","","0.4","0.6","0.8","0.2","","","","","0.6980766755","0.3291624114","0.5588879168","0.6978100054","","","","","","","","","","74","J","1","","","26","main_expt","",""
"","bandit","115","869097","0.0-68.0-0.0","88248211","wem/bandit_party_2","A3FLAPKQVDRPJE","either","4","389","","","","","","","1","0","0","0.3795789415","","0.4","0.6","0.8","0.2","","","","","0.7021498626","0.3795789415","0.5033257713","0.6442468271","","","","","","","","","","74","J","1","","","27","main_expt","",""
"","bandit","116","871034","0.0-69.0-0.0","88248211","wem/bandit_party_2","A3FLAPKQVDRPJE","either","4","388","","","","","","","0","1","0","","0.3208573938","0.4","0.6","0.8","0.2","0.7802436781","0.3208573938","0.4915102133","0.7399213538","","","","","","","","","","","","","","74","J","1","","","28","main_expt","",""
"","bandit","117","872942","0.0-70.0-0.0","88248211","wem/bandit_party_2","A3FLAPKQVDRPJE","either","4","367","","","","","","","0","0","1","","0.3352919619","0.4","0.6","0.8","0.2","0.6907923131","0.3352919619","0.4291187576","0.7520253205","","","","","","","","","","","","","","74","J","1","","","29","main_expt","",""
"","bandit","118","875014","0.0-71.0-0.0","88248211","wem/bandit_party_2","A3FLAPKQVDRPJE","either","4","529","","","","","","","0","0","1","","0.6771306444","0.4","0.6","0.8","0.2","0.6771306444","0.3452717309","0.5379907803","0.7528469829","","","","","","","","","","","","","","72","H","0","img/none_selected.jpg","","30","main_expt","",""
"","bandit","119","877405","0.0-72.0-0.0","88248211","wem/bandit_party_2","A3FLAPKQVDRPJE","either","4","848","","","","","","","1","0","0","0.646046857","","0.4","0.6","0.8","0.2","","","","","0.7130915948","0.2967094522","0.646046857","0.7571908429","","","","","","","","","","75","K","2","","","31","main_expt","",""
"","bandit","120","879282","0.0-73.0-0.0","88248211","wem/bandit_party_2","A3FLAPKQVDRPJE","either","4","331","","","","","","","0","1","0","","0.5608885347","0.4","0.6","0.8","0.2","0.6849190202","0.255781972","0.5608885347","0.7530934884","","","","","","","","","","","","","","75","K","2","","","32","main_expt","",""
"","bandit","121","881156","0.0-74.0-0.0","88248211","wem/bandit_party_2","A3FLAPKQVDRPJE","either","4","323","","","","","","","1","0","0","0.5952322697","","0.4","0.6","0.8","0.2","","","","","0.7392612035","0.2703771925","0.5952322697","0.7163673585","","","","","","","","","","75","K","2","","","33","main_expt","",""
"","bandit","122","882986","0.0-75.0-0.0","88248211","wem/bandit_party_2","A3FLAPKQVDRPJE","either","4","267","","","","","","","1","0","0","0.6206609301","","0.4","0.6","0.8","0.2","","","","","0.7026009082","0.3572673824","0.6206609301","0.6817248107","","","","","","","","","","75","K","2","","","34","main_expt","",""
"","bandit","123","884794","0.0-76.0-0.0","88248211","wem/bandit_party_2","A3FLAPKQVDRPJE","either","4","272","","","","","","","1","0","0","0.6223058769","","0.4","0.6","0.8","0.2","","","","","0.632003728","0.3237575066","0.6223058769","0.6903641832","","","","","","","","","","75","K","2","","","35","main_expt","",""
"","bandit","124","886910","0.0-77.0-0.0","88248211","wem/bandit_party_2","A3FLAPKQVDRPJE","either","4","564","","","","","","","1","0","0","0.7304722347","","0.4","0.6","0.8","0.2","","","","","0.7266912659","0.3724209237","0.7304722347","0.6953747248","","","","","","","","","","75","K","2","","","36","main_expt","",""
"","bandit","125","889089","0.0-78.0-0.0","88248211","wem/bandit_party_2","A3FLAPKQVDRPJE","either","4","642","","","","","","","0","0","1","0.6789706255","","0.4","0.6","0.8","0.2","","","","","0.5512211225","0.3848591071","0.6789706255","0.7552078918","","","","","","","","","","75","K","2","","","37","main_expt","",""
"","bandit","126","891092","0.0-79.0-0.0","88248211","wem/bandit_party_2","A3FLAPKQVDRPJE","either","4","455","","","","","","","0","0","1","","0.7095976639","0.4","0.6","0.8","0.2","0.5888446875","0.4026628424","0.6758320082","0.7095976639","","","","","","","","","","","","","","76","L","3","","","38","main_expt","",""
"","bandit","127","892935","0.0-80.0-0.0","88248211","wem/bandit_party_2","A3FLAPKQVDRPJE","either","4","308","","","","","","","1","0","0","0.753286291","","0.4","0.6","0.8","0.2","","","","","0.7349010221","0.460229008","0.753286291","0.7813817897","","","","","","","","","","75","K","2","","","39","main_expt","",""
"","bandit","128","895252","0.0-81.0-0.0","88248211","wem/bandit_party_2","A3FLAPKQVDRPJE","either","4","765","","","","","","","0","1","0","","0.7527041006","0.4","0.6","0.8","0.2","0.6715391024","0.3392787789","0.7527041006","0.7604460558","","","","","","","","","","","","","","75","K","2","","","40","main_expt","",""
"","bandit","129","897299","0.0-82.0-0.0","88248211","wem/bandit_party_2","A3FLAPKQVDRPJE","either","4","500","","","","","","","1","0","0","0.7900808451","","0.4","0.6","0.8","0.2","","","","","0.688235262","0.2983701942","0.7900808451","0.7588214983","","","","","","","","","","75","K","2","","","41","main_expt","",""
"","bandit","130","899326","0.0-83.0-0.0","88248211","wem/bandit_party_2","A3FLAPKQVDRPJE","either","4","488","","","","","","","0","0","1","0.7261157662","","0.4","0.6","0.8","0.2","","","","","0.750516412","0.2390858253","0.7261157662","0.8204813903","","","","","","","","","","75","K","2","","","42","main_expt","",""
"","bandit","131","901199","0.0-84.0-0.0","88248211","wem/bandit_party_2","A3FLAPKQVDRPJE","either","4","338","","","","","","","1","0","0","0.772887471","","0.4","0.6","0.8","0.2","","","","","0.775378891","0.1877526289","0.772887471","0.8310219988","","","","","","","","","","75","K","2","","","43","main_expt","",""
"","bandit","132","903214","0.0-85.0-0.0","88248211","wem/bandit_party_2","A3FLAPKQVDRPJE","either","4","473","","","","","","","1","0","0","0.7359848823","","0.4","0.6","0.8","0.2","","","","","0.5983035632","0.2713877418","0.7359848823","0.8165903167","","","","","","","","","","75","K","2","","","44","main_expt","",""
"","bandit","133","905169","0.0-86.0-0.0","88248211","wem/bandit_party_2","A3FLAPKQVDRPJE","either","4","418","","","","","","","1","0","0","0.6223954065","","0.4","0.6","0.8","0.2","","","","","0.6453890447","0.2600408605","0.6223954065","0.6765015189","","","","","","","","","","75","K","2","","","45","main_expt","",""
"","bandit","134","907028","0.0-87.0-0.0","88248211","wem/bandit_party_2","A3FLAPKQVDRPJE","either","4","282","","","","","","","1","0","0","0.5963379238","","0.4","0.6","0.8","0.2","","","","","0.4979639723","0.2435580982","0.5963379238","0.6613510417","","","","","","","","","","75","K","2","","","46","main_expt","",""
"","bandit","135","909126","0.0-88.0-0.0","88248211","wem/bandit_party_2","A3FLAPKQVDRPJE","either","4","547","","","","","","","1","0","0","0.6161308884","","0.4","0.6","0.8","0.2","","","","","0.4475739324","0.3258971046","0.6161308884","0.7373034573","","","","","","","","","","75","K","2","","","47","main_expt","",""
"","bandit","136","911012","0.0-89.0-0.0","88248211","wem/bandit_party_2","A3FLAPKQVDRPJE","either","4","320","","","","","","","0","0","1","0.6354722558","","0.4","0.6","0.8","0.2","","","","","0.570942939","0.2934977076","0.6354722558","0.6580913366","","","","","","","","","","75","K","2","","","48","main_expt","",""
"","bandit","137","913353","0.0-90.0-0.0","88248211","wem/bandit_party_2","A3FLAPKQVDRPJE","either","4","804","","","","","","","0","0","1","","0.3381222087","0.4","0.6","0.8","0.2","0.5943858444","0.3381222087","0.5941747261","0.6518545324","","","","","","","","","","","","","","74","J","1","","","49","main_expt","",""
"","bandit","138","915259","0.0-91.0-0.0","88248211","wem/bandit_party_2","A3FLAPKQVDRPJE","either","4","353","","","","","","","0","1","0","","0.72156704","0.4","0.6","0.8","0.2","0.72156704","0.4149653651","0.5510631732","0.6362385309","","","","","","","","","","","","","","72","H","0","img/none_selected.jpg","","50","main_expt","",""
"","bandit","139","917306","0.0-92.0-0.0","88248211","wem/bandit_party_2","A3FLAPKQVDRPJE","either","4","500","","","","","","","0","1","0","","0.6453884322","0.4","0.6","0.8","0.2","0.6453884322","0.315936401","0.5580995271","0.6673370403","","","","","","","","","","","","","","72","H","0","img/none_selected.jpg","","51","main_expt","",""
"","bandit","140","919182","0.0-93.0-0.0","88248211","wem/bandit_party_2","A3FLAPKQVDRPJE","either","4","320","","","","","","","0","1","0","","0.635653338","0.4","0.6","0.8","0.2","0.635653338","0.34776451","0.4492126091","0.6614759556","","","","","","","","","","","","","","72","H","0","img/none_selected.jpg","","52","main_expt","",""
"","bandit","141","921105","0.0-94.0-0.0","88248211","wem/bandit_party_2","A3FLAPKQVDRPJE","either","4","366","","","","","","","0","0","1","","0.5700640027","0.4","0.6","0.8","0.2","0.5700640027","0.2946288454","0.4600129001","0.5099009019","","","","","","","","","","","","","","72","H","0","img/none_selected.jpg","","53","main_expt","",""
"","bandit","142","924389","0.0-95.0-0.0","88248211","wem/bandit_party_2","A3FLAPKQVDRPJE","either","4","1730","","","","","","","0","0","1","","0.5323874036","0.4","0.6","0.8","0.2","0.4535518587","0.3757560715","0.4005354829","0.5323874036","","","","","","","","","","","","","","76","L","3","","","54","main_expt","",""
"","bandit","143","926249","0.0-96.0-0.0","88248211","wem/bandit_party_2","A3FLAPKQVDRPJE","either","4","321","","","","","","","1","0","0","0.3305694417","","0.4","0.6","0.8","0.2","","","","","0.4271895083","0.3258455482","0.3305694417","0.5410243768","","","","","","","","","","75","K","2","","","55","main_expt","",""
"","bandit","144","928143","0.0-97.0-0.0","88248211","wem/bandit_party_2","A3FLAPKQVDRPJE","either","4","343","","","","","","","0","0","1","","0.3443449075","0.4","0.6","0.8","0.2","0.3506641683","0.4350401219","0.3443449075","0.5594159285","","","","","","","","","","","","","","75","K","2","","","56","main_expt","",""
"","bandit","145","930219","0.0-98.0-0.0","88248211","wem/bandit_party_2","A3FLAPKQVDRPJE","either","4","536","","","","","","","0","0","1","","0.3719720486","0.4","0.6","0.8","0.2","0.3266461122","0.3707313189","0.3719720486","0.5057935102","","","","","","","","","","","","","","75","K","2","","","57","main_expt","",""
"","bandit","146","932037","0.0-99.0-0.0","88248211","wem/bandit_party_2","A3FLAPKQVDRPJE","either","4","281","","","","","","","0","1","0","","0.5588799977","0.4","0.6","0.8","0.2","0.3024401834","0.5588799977","0.2230753252","0.4921421838","","","","","","","","","","","","","","74","J","1","","","58","main_expt","",""
"","bandit","147","933927","0.0-100.0-0.0","88248211","wem/bandit_party_2","A3FLAPKQVDRPJE","either","4","351","","","","","","","1","0","0","0.6863198467","","0.4","0.6","0.8","0.2","","","","","0.4306619987","0.6863198467","0.2255195526","0.4740341295","","","","","","","","","","74","J","1","","","59","main_expt","",""
"","bandit","148","935794","0.0-101.0-0.0","88248211","wem/bandit_party_2","A3FLAPKQVDRPJE","either","4","319","","","","","","","0","1","0","","0.6998437478","0.4","0.6","0.8","0.2","0.4710521126","0.6998437478","0.2150487889","0.4853159436","","","","","","","","","","","","","","74","J","1","","","60","main_expt","",""
"","bandit","149","937728","0.0-102.0-0.0","88248211","wem/bandit_party_2","A3FLAPKQVDRPJE","either","4","370","","","","","","","1","0","0","0.7027468204","","0.4","0.6","0.8","0.2","","","","","0.4797168847","0.7027468204","0.2670703017","0.4843563089","","","","","","","","","","74","J","1","","","61","main_expt","",""
"","bandit","150","939614","0.0-103.0-0.0","88248211","wem/bandit_party_2","A3FLAPKQVDRPJE","either","4","342","","","","","","","1","0","0","0.7461433662","","0.4","0.6","0.8","0.2","","","","","0.441351191","0.7461433662","0.1622034337","0.4970562682","","","","","","","","","","74","J","1","","","62","main_expt","",""
"","bandit","151","941527","0.0-104.0-0.0","88248211","wem/bandit_party_2","A3FLAPKQVDRPJE","either","4","337","","","","","","","1","0","0","0.7956877632","","0.4","0.6","0.8","0.2","","","","","0.6405696824","0.7956877632","0.1872430185","0.4870743105","","","","","","","","","","74","J","1","","","63","main_expt","",""
"","bandit","152","943503","0.0-105.0-0.0","88248211","wem/bandit_party_2","A3FLAPKQVDRPJE","either","4","429","","","","","","","1","0","0","0.7533911137","","0.4","0.6","0.8","0.2","","","","","0.5093225209","0.7533911137","0.1921602407","0.5297884171","","","","","","","","","","74","J","1","","","64","main_expt","",""
"","bandit","153","945370","0.0-106.0-0.0","88248211","wem/bandit_party_2","A3FLAPKQVDRPJE","either","4","324","","","","","","","0","1","0","","0.8407665504","0.4","0.6","0.8","0.2","0.5190422554","0.8407665504","0.1747679693","0.5510281753","","","","","","","","","","","","","","74","J","1","","","65","main_expt","",""
"","bandit","154","947213","0.0-107.0-0.0","88248211","wem/bandit_party_2","A3FLAPKQVDRPJE","either","4","282","","","","","","","0","1","0","","0.8392190168","0.4","0.6","0.8","0.2","0.4367989657","0.8392190168","0.149475979","0.6548378986","","","","","","","","","","","","","","74","J","1","","","66","main_expt","",""
"","bandit","155","949074","0.0-108.0-0.0","88248211","wem/bandit_party_2","A3FLAPKQVDRPJE","either","4","314","","","","","","","1","0","0","0.7998105719","","0.4","0.6","0.8","0.2","","","","","0.4515976155","0.7998105719","0.1340316754","0.7873643744","","","","","","","","","","74","J","1","","","67","main_expt","",""
"","bandit","156","950911","0.0-109.0-0.0","88248211","wem/bandit_party_2","A3FLAPKQVDRPJE","either","4","272","","","","","","","0","1","0","","0.8055175736","0.4","0.6","0.8","0.2","0.4605235732","0.8055175736","0.1635100664","0.8374830125","","","","","","","","","","","","","","74","J","1","","","68","main_expt","",""
"","bandit","157","952809","0.0-110.0-0.0","88248211","wem/bandit_party_2","A3FLAPKQVDRPJE","either","4","347","","","","","","","0","1","0","","0.9157616325","0.4","0.6","0.8","0.2","0.3799115548","0.9157616325","0.1227365859","0.7948054761","","","","","","","","","","","","","","74","J","1","","","69","main_expt","",""
"","bandit","158","954677","0.0-111.0-0.0","88248211","wem/bandit_party_2","A3FLAPKQVDRPJE","either","4","302","","","","","","","1","0","0","0.9575411193","","0.4","0.6","0.8","0.2","","","","","0.4215965018","0.9575411193","0.1248437045","0.8257183208","","","","","","","","","","74","J","1","","","70","main_expt","",""
"","bandit","159","956514","0.0-112.0-0.0","88248211","wem/bandit_party_2","A3FLAPKQVDRPJE","either","4","285","","","","","","","1","0","0","0.9604429572","","0.4","0.6","0.8","0.2","","","","","0.4069040491","0.9604429572","0.1153860856","0.7378076352","","","","","","","","","","74","J","1","","","71","main_expt","",""
"","bandit","160","958343","0.0-113.0-0.0","88248211","wem/bandit_party_2","A3FLAPKQVDRPJE","either","4","281","","","","","","","1","0","0","0.9598545795","","0.4","0.6","0.8","0.2","","","","","0.4396577013","0.9598545795","0.1355011504","0.7402058239","","","","","","","","","","74","J","1","","","72","main_expt","",""
"","bandit","161","960120","0.0-114.0-0.0","88248211","wem/bandit_party_2","A3FLAPKQVDRPJE","either","4","217","","","","","","","1","0","0","0.944667289","","0.4","0.6","0.8","0.2","","","","","0.6562772762","0.944667289","0.05996807606","0.6976791507","","","","","","","","","","74","J","1","","","73","main_expt","",""
"","bandit","162","961953","0.0-115.0-0.0","88248211","wem/bandit_party_2","A3FLAPKQVDRPJE","either","4","273","","","","","","","1","0","0","0.9226304804","","0.4","0.6","0.8","0.2","","","","","0.6973429816","0.9226304804","0.05405538329","0.7918365236","","","","","","","","","","74","J","1","","","74","main_expt","",""
"","bandit","163","963798","0.0-116.0-0.0","88248211","wem/bandit_party_2","A3FLAPKQVDRPJE","either","4","287","","","","","","","1","0","0","0.9398646798","","0.4","0.6","0.8","0.2","","","","","0.7736122178","0.9398646798","0.02989929625","0.7822783488","","","","","","","","","","74","J","1","","","75","main_expt","",""
"","bandit","164","965657","0.0-117.0-0.0","88248211","wem/bandit_party_2","A3FLAPKQVDRPJE","either","4","305","","","","","","","0","1","0","","0.9344412274","0.4","0.6","0.8","0.2","0.8130420724","0.9344412274","0.0563551135","0.7290889389","","","","","","","","","","","","","","74","J","1","","","76","main_expt","",""
"","bandit","165","967518","0.0-118.0-0.0","88248211","wem/bandit_party_2","A3FLAPKQVDRPJE","either","4","319","","","","","","","1","0","0","0.9512527415","","0.4","0.6","0.8","0.2","","","","","0.8182773084","0.9512527415","0.0510075381","0.7903383215","","","","","","","","","","74","J","1","","","77","main_expt","",""
"","bandit","166","969176","0.0-119.0-0.0","88248211","wem/bandit_party_2","A3FLAPKQVDRPJE","either","4","97","","","","","","","0","1","0","","0.945324638","0.4","0.6","0.8","0.2","0.910984946","0.945324638","0.07280641377","0.8093770606","","","","","","","","","","","","","","74","J","1","","","78","main_expt","",""
"","bandit","167","971037","0.0-120.0-0.0","88248211","wem/bandit_party_2","A3FLAPKQVDRPJE","either","4","317","","","","","","","1","0","0","0.9313693401","","0.4","0.6","0.8","0.2","","","","","0.9303795674","0.9313693401","0.06591604593","0.7310189459","","","","","","","","","","74","J","1","","","79","main_expt","",""
"","bandit","168","972894","0.0-121.0-0.0","88248211","wem/bandit_party_2","A3FLAPKQVDRPJE","either","4","299","","","","","","","1","0","0","0.9272018461","","0.4","0.6","0.8","0.2","","","","","0.9581515868","0.9272018461","0.02790121052","0.7915113188","","","","","","","","","","74","J","1","","","80","main_expt","",""
"","bandit","169","974730","0.0-122.0-0.0","88248211","wem/bandit_party_2","A3FLAPKQVDRPJE","either","4","284","","","","","","","0","1","0","","0.9340165544","0.4","0.6","0.8","0.2","0.9107397581","0.9340165544","0.03997429631","0.8463201033","","","","","","","","","","","","","","74","J","1","","","81","main_expt","",""
"","bandit","170","977574","0.0-123.0-0.0","88248211","wem/bandit_party_2","A3FLAPKQVDRPJE","either","4","1284","","","","","","","1","0","0","0.9778602254","","0.4","0.6","0.8","0.2","","","","","0.9531247327","0.9778602254","0.03692483048","0.9043915002","","","","","","","","","","74","J","1","","","82","main_expt","",""
"","bandit","171","979976","0.0-124.0-0.0","88248211","wem/bandit_party_2","A3FLAPKQVDRPJE","either","4","826","","","","","","","1","0","0","0.9593015187","","0.4","0.6","0.8","0.2","","","","","0.91574064","0.9593015187","0.04167024954","0.922294541","","","","","","","","","","74","J","1","","","83","main_expt","",""
"","bandit","172","981951","0.0-125.0-0.0","88248211","wem/bandit_party_2","A3FLAPKQVDRPJE","either","4","430","","","","","","","0","1","0","","0.9398758864","0.4","0.6","0.8","0.2","0.9287460716","0.9398758864","0.03449326924","0.9079954767","","","","","","","","","","","","","","74","J","1","","","84","main_expt","",""
"","bandit","173","984436","0.0-126.0-0.0","88248211","wem/bandit_party_2","A3FLAPKQVDRPJE","either","4","942","","","","","","","0","1","0","","0.9256746213","0.4","0.6","0.8","0.2","0.9817994773","0.9256746213","0.07382848834","0.92293493","","","","","","","","","","","","","","74","J","1","","","85","main_expt","",""
"","bandit","174","986579","0.0-127.0-0.0","88248211","wem/bandit_party_2","A3FLAPKQVDRPJE","either","4","592","","","","","","","0","1","0","","0.8910640916","0.4","0.6","0.8","0.2","0.9651028603","0.8910640916","0.08839198485","0.8831043051","","","","","","","","","","","","","","74","J","1","","","86","main_expt","",""
"","bandit","175","989111","0.0-128.0-0.0","88248211","wem/bandit_party_2","A3FLAPKQVDRPJE","either","4","955","","","","","","","1","0","0","0.8729480744","","0.4","0.6","0.8","0.2","","","","","0.9364705545","0.8729480744","0.08767612821","0.876749115","","","","","","","","","","74","J","1","","","87","main_expt","",""
"","bandit","176","991321","0.0-129.0-0.0","88248211","wem/bandit_party_2","A3FLAPKQVDRPJE","either","4","663","","","","","","","1","0","0","0.8780151739","","0.4","0.6","0.8","0.2","","","","","0.9235767634","0.8780151739","0.1606359608","0.9189432589","","","","","","","","","","74","J","1","","","88","main_expt","",""
"","bandit","177","993709","0.0-130.0-0.0","88248211","wem/bandit_party_2","A3FLAPKQVDRPJE","either","4","843","","","","","","","1","0","0","0.8856980863","","0.4","0.6","0.8","0.2","","","","","0.9375107972","0.8856980863","0.2051996915","0.8770582065","","","","","","","","","","74","J","1","","","89","main_expt","",""
"","bandit","178","995866","0.0-131.0-0.0","88248211","wem/bandit_party_2","A3FLAPKQVDRPJE","either","4","607","","","","","","","0","1","0","","0.8828292745","0.4","0.6","0.8","0.2","0.9201099193","0.8828292745","0.1757431166","0.9303780437","","","","","","","","","","","","","","74","J","1","","","90","main_expt","",""
"","bandit","179","998185","0.0-132.0-0.0","88248211","wem/bandit_party_2","A3FLAPKQVDRPJE","either","4","787","","","","","","","0","1","0","","0.9016480115","0.4","0.6","0.8","0.2","0.9416722714","0.9016480115","0.3470073597","0.8870296602","","","","","","","","","","","","","","74","J","1","","","91","main_expt","",""
"","bandit","180","1000646","0.0-133.0-0.0","88248211","wem/bandit_party_2","A3FLAPKQVDRPJE","either","4","918","","","","","","","0","1","0","","0.9077272713","0.4","0.6","0.8","0.2","0.943817784","0.9077272713","0.4969118024","0.8466670433","","","","","","","","","","","","","","74","J","1","","","92","main_expt","",""
"","bandit","181","1002725","0.0-134.0-0.0","88248211","wem/bandit_party_2","A3FLAPKQVDRPJE","either","4","534","","","","","","","0","0","1","0.875936713","","0.4","0.6","0.8","0.2","","","","","0.9078517942","0.875936713","0.5773598144","0.850017275","","","","","","","","","","74","J","1","","","93","main_expt","",""
"","bandit","182","1005395","0.0-135.0-0.0","88248211","wem/bandit_party_2","A3FLAPKQVDRPJE","either","4","1120","","","","","","","0","1","0","","0.8983200186","0.4","0.6","0.8","0.2","0.8983200186","0.8089346838","0.5513550223","0.6893652978","","","","","","","","","","","","","","72","H","0","img/none_selected.jpg","","94","main_expt","",""
"","bandit","183","1007631","0.0-136.0-0.0","88248211","wem/bandit_party_2","A3FLAPKQVDRPJE","either","4","665","","","","","","","1","0","0","0.8744309931","","0.4","0.6","0.8","0.2","","","","","0.8744309931","0.7472177953","0.5461825447","0.6025630118","","","","","","","","","","72","H","0","img/none_selected.jpg","","95","main_expt","",""
"","bandit","184","1009739","0.0-137.0-0.0","88248211","wem/bandit_party_2","A3FLAPKQVDRPJE","either","4","543","","","","","","","0","0","1","","0.8894212924","0.4","0.6","0.8","0.2","0.8894212924","0.631257407","0.5564841108","0.5565182624","","","","","","","","","","","","","","72","H","0","img/none_selected.jpg","","96","main_expt","",""
"","bandit","185","1011690","0.0-138.0-0.0","88248211","wem/bandit_party_2","A3FLAPKQVDRPJE","either","4","400","","","","","","","1","0","0","0.891162681","","0.4","0.6","0.8","0.2","","","","","0.891162681","0.7474787878","0.6513715187","0.4820287155","","","","","","","","","","72","H","0","img/none_selected.jpg","","97","main_expt","",""
"","bandit","186","1013710","0.0-139.0-0.0","88248211","wem/bandit_party_2","A3FLAPKQVDRPJE","either","4","449","","","","","","","1","0","0","0.8495400438","","0.4","0.6","0.8","0.2","","","","","0.8495400438","0.7753317291","0.7004254565","0.4599621431","","","","","","","","","","72","H","0","img/none_selected.jpg","","98","main_expt","",""
"","bandit","187","1015768","0.0-140.0-0.0","88248211","wem/bandit_party_2","A3FLAPKQVDRPJE","either","4","505","","","","","","","0","0","1","","0.8671572546","0.4","0.6","0.8","0.2","0.8671572546","0.7088399779","0.6473310623","0.4109144258","","","","","","","","","","","","","","72","H","0","img/none_selected.jpg","","99","main_expt","",""
"","bandit","188","1017794","0.0-141.0-0.0","88248211","wem/bandit_party_2","A3FLAPKQVDRPJE","either","4","453","","","","","","","0","0","1","","0.8312294914","0.4","0.6","0.8","0.2","0.8312294914","0.7328055719","0.6160818326","0.3466085394","","","","","","","","","","","","","","72","H","0","img/none_selected.jpg","","100","main_expt","",""
"","bandit","189","1020020","0.0-142.0-0.0","88248211","wem/bandit_party_2","A3FLAPKQVDRPJE","either","4","673","","","","","","","1","0","0","0.8183789849","","0.4","0.6","0.8","0.2","","","","","0.8135240708","0.8183789849","0.6963675268","0.3712289037","","","","","","","","","","74","J","1","","","101","main_expt","",""
"","bandit","190","1022021","0.0-143.0-0.0","88248211","wem/bandit_party_2","A3FLAPKQVDRPJE","either","4","456","","","","","","","1","0","0","0.7854635714","","0.4","0.6","0.8","0.2","","","","","0.8556055773","0.7854635714","0.6339579424","0.3626324234","","","","","","","","","","74","J","1","","","102","main_expt","",""
"","bandit","191","1024073","0.0-144.0-0.0","88248211","wem/bandit_party_2","A3FLAPKQVDRPJE","either","4","502","","","","","","","1","0","0","0.8481411385","","0.4","0.6","0.8","0.2","","","","","0.7632006143","0.8481411385","0.6908430899","0.2748825764","","","","","","","","","","74","J","1","","","103","main_expt","",""
"","bandit","192","1026109","0.0-145.0-0.0","88248211","wem/bandit_party_2","A3FLAPKQVDRPJE","either","4","484","","","","","","","1","0","0","0.8129446485","","0.4","0.6","0.8","0.2","","","","","0.8273213265","0.8129446485","0.6866318891","0.2381725209","","","","","","","","","","74","J","1","","","104","main_expt","",""
"","bandit","193","1028005","0.0-146.0-0.0","88248211","wem/bandit_party_2","A3FLAPKQVDRPJE","either","4","358","","","","","","","1","0","0","0.7898688037","","0.4","0.6","0.8","0.2","","","","","0.7930501456","0.7898688037","0.6749941214","0.1939551764","","","","","","","","","","74","J","1","","","105","main_expt","",""
"","bandit","194","1029993","0.0-147.0-0.0","88248211","wem/bandit_party_2","A3FLAPKQVDRPJE","either","4","430","","","","","","","0","0","1","0.7810744832","","0.4","0.6","0.8","0.2","","","","","0.7186603115","0.7810744832","0.7300347885","0.1884153881","","","","","","","","","","74","J","1","","","106","main_expt","",""
"","bandit","195","1031946","0.0-148.0-0.0","88248211","wem/bandit_party_2","A3FLAPKQVDRPJE","either","4","392","","","","","","","0","1","0","","0.7837395221","0.4","0.6","0.8","0.2","0.7155595947","0.7837395221","0.8133516847","0.1011451677","","","","","","","","","","","","","","74","J","1","","","107","main_expt","",""
"","bandit","196","1034026","0.0-149.0-0.0","88248211","wem/bandit_party_2","A3FLAPKQVDRPJE","either","4","528","","","","","","","0","0","1","0.787971135","","0.4","0.6","0.8","0.2","","","","","0.7654707556","0.787971135","0.8009432675","0.1500242655","","","","","","","","","","74","J","1","","","108","main_expt","",""
"","bandit","197","1035820","0.0-150.0-0.0","88248211","wem/bandit_party_2","A3FLAPKQVDRPJE","either","4","236","","","","","","","0","1","0","","0.7379370491","0.4","0.6","0.8","0.2","0.6288612937","0.6866525704","0.7379370491","0.1285750889","","","","","","","","","","","","","","75","K","2","","","109","main_expt","",""
"","bandit","198","1037930","0.0-151.0-0.0","88248211","wem/bandit_party_2","A3FLAPKQVDRPJE","either","4","531","","","","","","","1","0","0","0.7379992527","","0.4","0.6","0.8","0.2","","","","","0.6309058105","0.5824748378","0.7379992527","0.06279291231","","","","","","","","","","75","K","2","","","110","main_expt","",""
"","bandit","199","1040077","0.0-152.0-0.0","88248211","wem/bandit_party_2","A3FLAPKQVDRPJE","either","4","569","","","","","","","0","0","1","0.7464430213","","0.4","0.6","0.8","0.2","","","","","0.6218965746","0.659702805","0.7464430213","0.07144278273","","","","","","","","","","75","K","2","","","111","main_expt","",""
"","bandit","200","1041968","0.0-153.0-0.0","88248211","wem/bandit_party_2","A3FLAPKQVDRPJE","either","4","335","","","","","","","1","0","0","0.7736339118","","0.4","0.6","0.8","0.2","","","","","0.6741482942","0.5111205641","0.7736339118","0.06013221683","","","","","","","","","","75","K","2","","","112","main_expt","",""
"","bandit","201","1043938","0.0-154.0-0.0","88248211","wem/bandit_party_2","A3FLAPKQVDRPJE","either","4","422","","","","","","","1","0","0","0.8480767854","","0.4","0.6","0.8","0.2","","","","","0.7405202534","0.4852392648","0.8480767854","0.1442356489","","","","","","","","","","75","K","2","","","113","main_expt","",""
"","bandit","202","1046012","0.0-155.0-0.0","88248211","wem/bandit_party_2","A3FLAPKQVDRPJE","either","4","514","","","","","","","1","0","0","0.8016933152","","0.4","0.6","0.8","0.2","","","","","0.743157628","0.3531287621","0.8016933152","0.1733870882","","","","","","","","","","75","K","2","","","114","main_expt","",""
"","bandit","203","1048109","0.0-156.0-0.0","88248211","wem/bandit_party_2","A3FLAPKQVDRPJE","either","4","535","","","","","","","1","0","0","0.8200260584","","0.4","0.6","0.8","0.2","","","","","0.7732583829","0.4090792957","0.8200260584","0.2198725907","","","","","","","","","","75","K","2","","","115","main_expt","",""
"","bandit","204","1050397","0.0-157.0-0.0","88248211","wem/bandit_party_2","A3FLAPKQVDRPJE","either","4","734","","","","","","","1","0","0","0.7761954976","","0.4","0.6","0.8","0.2","","","","","0.6224016225","0.4927933112","0.7761954976","0.2116870815","","","","","","","","","","75","K","2","","","116","main_expt","",""
"","bandit","205","1052256","0.0-158.0-0.0","88248211","wem/bandit_party_2","A3FLAPKQVDRPJE","either","4","318","","","","","","","1","0","0","0.7722233998","","0.4","0.6","0.8","0.2","","","","","0.6784399158","0.4255499736","0.7722233998","0.1293815938","","","","","","","","","","75","K","2","","","117","main_expt","",""
"","bandit","206","1054359","0.0-159.0-0.0","88248211","wem/bandit_party_2","A3FLAPKQVDRPJE","either","4","562","","","","","","","0","0","1","0.8049831996","","0.4","0.6","0.8","0.2","","","","","0.7499631032","0.4073726931","0.8049831996","0.1442073762","","","","","","","","","","75","K","2","","","118","main_expt","",""
"","bandit","207","1056313","0.0-160.0-0.0","88248211","wem/bandit_party_2","A3FLAPKQVDRPJE","either","4","414","","","","","","","0","0","1","","0.2098334931","0.4","0.6","0.8","0.2","0.6258432538","0.5447318884","0.8469405197","0.2098334931","","","","","","","","","","","","","","76","L","3","","","119","main_expt","",""
"","bandit","208","1058219","0.0-161.0-0.0","88248211","wem/bandit_party_2","A3FLAPKQVDRPJE","either","4","363","","","","","","","1","0","0","0.783925966","","0.4","0.6","0.8","0.2","","","","","0.5602994123","0.5336717705","0.783925966","0.243218138","","","","","","","","","","75","K","2","","","120","main_expt","",""
"","bandit","209","1060220","0.0-162.0-0.0","88248211","wem/bandit_party_2","A3FLAPKQVDRPJE","either","4","456","","","","","","","1","0","0","0.8031476983","","0.4","0.6","0.8","0.2","","","","","0.5850644561","0.5621279662","0.8031476983","0.1595445902","","","","","","","","","","75","K","2","","","121","main_expt","",""
"","bandit","210","1062210","0.0-163.0-0.0","88248211","wem/bandit_party_2","A3FLAPKQVDRPJE","either","4","438","","","","","","","0","0","1","0.776878313","","0.4","0.6","0.8","0.2","","","","","0.6205732407","0.5664238538","0.776878313","0.1939767007","","","","","","","","","","75","K","2","","","122","main_expt","",""
"","bandit","211","1064111","0.0-164.0-0.0","88248211","wem/bandit_party_2","A3FLAPKQVDRPJE","either","4","349","","","","","","","0","0","1","","0.6501842916","0.4","0.6","0.8","0.2","0.7954206102","0.6501842916","0.7695343448","0.2265728871","","","","","","","","","","","","","","74","J","1","","","123","main_expt","",""
"","bandit","212","1066353","0.0-165.0-0.0","88248211","wem/bandit_party_2","A3FLAPKQVDRPJE","either","4","690","","","","","","","1","0","0","0.881213352","","0.4","0.6","0.8","0.2","","","","","0.881213352","0.5413703051","0.6154230174","0.2027469411","","","","","","","","","","72","H","0","img/none_selected.jpg","","124","main_expt","",""
"","bandit","213","1068310","0.0-166.0-0.0","88248211","wem/bandit_party_2","A3FLAPKQVDRPJE","either","4","411","","","","","","","1","0","0","0.8598562332","","0.4","0.6","0.8","0.2","","","","","0.8598562332","0.5191338098","0.4710930195","0.1506135949","","","","","","","","","","72","H","0","img/none_selected.jpg","","125","main_expt","",""
"","bandit","214","1070818","0.0-167.0-0.0","88248211","wem/bandit_party_2","A3FLAPKQVDRPJE","either","4","947","","","","","","","0","0","1","","0.867144728","0.4","0.6","0.8","0.2","0.867144728","0.6232591378","0.5258886302","0.1875851228","","","","","","","","","","","","","","72","H","0","img/none_selected.jpg","","126","main_expt","",""
"","bandit","215","1072734","0.0-168.0-0.0","88248211","wem/bandit_party_2","A3FLAPKQVDRPJE","either","4","344","","","","","","","1","0","0","0.8677917819","","0.4","0.6","0.8","0.2","","","","","0.8677917819","0.601333273","0.3996486754","0.2106184636","","","","","","","","","","72","H","0","img/none_selected.jpg","","127","main_expt","",""
"","bandit","216","1074743","0.0-169.0-0.0","88248211","wem/bandit_party_2","A3FLAPKQVDRPJE","either","4","438","","","","","","","0","0","1","","0.8194058857","0.4","0.6","0.8","0.2","0.8194058857","0.6312294041","0.3557241191","0.1276240755","","","","","","","","","","","","","","72","H","0","img/none_selected.jpg","","128","main_expt","",""
"","bandit","217","1076651","0.0-170.0-0.0","88248211","wem/bandit_party_2","A3FLAPKQVDRPJE","either","4","351","","","","","","","1","0","0","0.6655034733","","0.4","0.6","0.8","0.2","","","","","0.813940224","0.6655034733","0.2432070908","0.2163335705","","","","","","","","","","74","J","1","","","129","main_expt","",""
"","bandit","218","1079342","0.0-171.0-0.0","88248211","wem/bandit_party_2","A3FLAPKQVDRPJE","either","4","1119","","","","","","","1","0","0","0.6882303755","","0.4","0.6","0.8","0.2","","","","","0.7296764962","0.6882303755","0.1722843937","0.2448863899","","","","","","","","","","74","J","1","","","130","main_expt","",""
"","bandit","219","1081326","0.0-172.0-0.0","88248211","wem/bandit_party_2","A3FLAPKQVDRPJE","either","4","427","","","","","","","1","0","0","0.6772884453","","0.4","0.6","0.8","0.2","","","","","0.614258276","0.6772884453","0.1336027919","0.3447645787","","","","","","","","","","74","J","1","","","131","main_expt","",""
"","bandit","220","1083226","0.0-173.0-0.0","88248211","wem/bandit_party_2","A3FLAPKQVDRPJE","either","4","341","","","","","","","0","0","1","","0.6773684555","0.4","0.6","0.8","0.2","0.5349540706","0.6773684555","0.1351629047","0.3622527956","","","","","","","","","","","","","","74","J","1","","","132","main_expt","",""
"","bandit","221","1085064","0.0-174.0-0.0","88248211","wem/bandit_party_2","A3FLAPKQVDRPJE","either","4","297","","","","","","","0","0","1","0.2495029","","0.4","0.6","0.8","0.2","","","","","0.5449090787","0.7437755928","0.2495029","0.2961885878","","","","","","","","","","75","K","2","","","133","main_expt","",""
"","bandit","222","1087002","0.0-175.0-0.0","88248211","wem/bandit_party_2","A3FLAPKQVDRPJE","either","4","393","","","","","","","1","0","0","0.2932126781","","0.4","0.6","0.8","0.2","","","","","0.5037108559","0.7423545867","0.2118512663","0.2932126781","","","","","","","","","","76","L","3","","","134","main_expt","",""
"","bandit","223","1088925","0.0-176.0-0.0","88248211","wem/bandit_party_2","A3FLAPKQVDRPJE","either","4","372","","","","","","","0","1","0","","0.2836439675","0.4","0.6","0.8","0.2","0.5131336393","0.7462440124","0.2474577379","0.2836439675","","","","","","","","","","","","","","76","L","3","","","135","main_expt","",""
"","bandit","224","1090898","0.0-177.0-0.0","88248211","wem/bandit_party_2","A3FLAPKQVDRPJE","either","4","428","","","","","","","0","0","1","","0.1985775905","0.4","0.6","0.8","0.2","0.5847952324","0.6372772774","0.1496333288","0.1985775905","","","","","","","","","","","","","","76","L","3","","","136","main_expt","",""
"","bandit","225","1092776","0.0-178.0-0.0","88248211","wem/bandit_party_2","A3FLAPKQVDRPJE","either","4","321","","","","","","","0","1","0","","0.2655975","0.4","0.6","0.8","0.2","0.5191620222","0.6587707878","0.164835495","0.2655975","","","","","","","","","","","","","","76","L","3","","","137","main_expt","",""
"","bandit","226","1094667","0.0-179.0-0.0","88248211","wem/bandit_party_2","A3FLAPKQVDRPJE","either","4","353","","","","","","","0","0","1","","0.4066298912","0.4","0.6","0.8","0.2","0.3830682141","0.6545472314","0.1629561883","0.4066298912","","","","","","","","","","","","","","76","L","3","","","138","main_expt","",""
"","bandit","227","1096652","0.0-180.0-0.0","88248211","wem/bandit_party_2","A3FLAPKQVDRPJE","either","4","438","","","","","","","0","1","0","","0.4537429859","0.4","0.6","0.8","0.2","0.3036015776","0.5773899651","0.1162724323","0.4537429859","","","","","","","","","","","","","","76","L","3","","","139","main_expt","",""
"","bandit","228","1098892","0.0-181.0-0.0","88248211","wem/bandit_party_2","A3FLAPKQVDRPJE","either","4","677","","","","","","","0","0","1","","0.410026376","0.4","0.6","0.8","0.2","0.2541790234","0.5786924042","0.1262651596","0.410026376","","","","","","","","","","","","","","76","L","3","","","140","main_expt","",""
"","bandit","229","1100770","0.0-182.0-0.0","88248211","wem/bandit_party_2","A3FLAPKQVDRPJE","either","4","331","","","","","","","0","0","1","0.1258799353","","0.4","0.6","0.8","0.2","","","","","0.1899663758","0.4589731036","0.1258799353","0.3978668086","","","","","","","","","","75","K","2","","","141","main_expt","",""
"","bandit","230","1102793","0.0-183.0-0.0","88248211","wem/bandit_party_2","A3FLAPKQVDRPJE","either","4","450","","","","","","","0","1","0","","0.3667804619","0.4","0.6","0.8","0.2","0.214868544","0.3667804619","0.1220135665","0.4096738096","","","","","","","","","","","","","","74","J","1","","","142","main_expt","",""
"","bandit","231","1104825","0.0-184.0-0.0","88248211","wem/bandit_party_2","A3FLAPKQVDRPJE","either","4","473","","","","","","","1","0","0","0.3563831379","","0.4","0.6","0.8","0.2","","","","","0.1549416237","0.3563831379","0.1600355681","0.5422751762","","","","","","","","","","74","J","1","","","143","main_expt","",""
"","bandit","232","1106971","0.0-185.0-0.0","88248211","wem/bandit_party_2","A3FLAPKQVDRPJE","either","4","600","","","","","","","0","0","1","0.3675361202","","0.4","0.6","0.8","0.2","","","","","0.2142728447","0.3675361202","0.103653669","0.6045197677","","","","","","","","","","74","J","1","","","144","main_expt","",""
"","bandit","233","1109043","0.0-186.0-0.0","88248211","wem/bandit_party_2","A3FLAPKQVDRPJE","either","4","503","","","","","","","0","1","0","","0.3266856562","0.4","0.6","0.8","0.2","0.2166472609","0.3266856562","0.1417267119","0.6140727406","","","","","","","","","","","","","","74","J","1","","","145","main_expt","",""
"","bandit","234","1111065","0.0-187.0-0.0","88248211","wem/bandit_party_2","A3FLAPKQVDRPJE","either","4","463","","","","","","","0","0","1","0.2815179259","","0.4","0.6","0.8","0.2","","","","","0.2446047688","0.2815179259","0.1508894681","0.5553742365","","","","","","","","","","74","J","1","","","146","main_expt","",""
"","bandit","235","1113273","0.0-188.0-0.0","88248211","wem/bandit_party_2","A3FLAPKQVDRPJE","either","4","655","","","","","","","0","0","1","0.3011136322","","0.4","0.6","0.8","0.2","","","","","0.3011136322","0.3560244833","0.1207147728","0.52787167","","","","","","","","","","72","H","0","img/none_selected.jpg","","147","main_expt","",""
"","bandit","236","1115210","0.0-189.0-0.0","88248211","wem/bandit_party_2","A3FLAPKQVDRPJE","either","4","369","","","","","","","0","0","1","","0.2519777133","0.4","0.6","0.8","0.2","0.2519777133","0.3585854149","0.1362234148","0.5053851794","","","","","","","","","","","","","","72","H","0","img/none_selected.jpg","","148","main_expt","",""
"","bandit","237","1117038","0.0-190.0-0.0","88248211","wem/bandit_party_2","A3FLAPKQVDRPJE","either","4","279","","","","","","","0","0","1","0.284478414","","0.4","0.6","0.8","0.2","","","","","0.2996109941","0.284478414","0.1244444975","0.5431256022","","","","","","","","","","74","J","1","","","149","main_expt","",""
"","bandit","238","1119321","0.0-191.0-0.0","88248211","wem/bandit_party_2","A3FLAPKQVDRPJE","either","4","730","","","","","","","0","0","1","","0.1109305632","0.4","0.6","0.8","0.2","0.2963563975","0.2617238314","0.1109305632","0.422574086","","","","","","","","","","","","","","75","K","2","","","150","main_expt","",""
"","bandit","239","1121337","0.0-192.0-0.0","88248211","wem/bandit_party_2","A3FLAPKQVDRPJE","either","4","463","","","","","","","0","0","1","","0.3907227364","0.4","0.6","0.8","0.2","0.4327396174","0.2709462114","0.11412436","0.3907227364","","","","","","","","","","","","","","76","L","3","","","151","main_expt","",""
"","bandit","240","1123353","0.0-193.0-0.0","88248211","wem/bandit_party_2","A3FLAPKQVDRPJE","either","4","472","","","","","","","0","0","1","0.1469045903","","0.4","0.6","0.8","0.2","","","","","0.4303068123","0.2993716907","0.1469045903","0.5580814469","","","","","","","","","","75","K","2","","","152","main_expt","",""
"","bandit","241","1125260","0.0-194.0-0.0","88248211","wem/bandit_party_2","A3FLAPKQVDRPJE","either","4","341","","","","","","","0","0","1","0.2733354782","","0.4","0.6","0.8","0.2","","","","","0.455197397","0.2733354782","0.1633028487","0.51223936","","","","","","","","","","74","J","1","","","153","main_expt","",""
"","bandit","242","1127207","0.0-195.0-0.0","88248211","wem/bandit_party_2","A3FLAPKQVDRPJE","either","4","404","","","","","","","1","0","0","0.6184454144","","0.4","0.6","0.8","0.2","","","","","0.6184454144","0.3264007987","0.1340882311","0.4811601507","","","","","","","","","","72","H","0","img/none_selected.jpg","","154","main_expt","",""
"","bandit","243","1129206","0.0-196.0-0.0","88248211","wem/bandit_party_2","A3FLAPKQVDRPJE","either","4","448","","","","","","","0","1","0","","0.5833601464","0.4","0.6","0.8","0.2","0.5833601464","0.204433578","0.1041462846","0.575425417","","","","","","","","","","","","","","72","H","0","img/none_selected.jpg","","155","main_expt","",""
"","bandit","244","1131176","0.0-197.0-0.0","88248211","wem/bandit_party_2","A3FLAPKQVDRPJE","either","4","396","","","","","","","0","0","1","0.646897734","","0.4","0.6","0.8","0.2","","","","","0.646897734","0.07451572188","0.08564190031","0.6109018817","","","","","","","","","","72","H","0","img/none_selected.jpg","","156","main_expt","",""
"","bandit","245","1133035","0.0-198.0-0.0","88248211","wem/bandit_party_2","A3FLAPKQVDRPJE","either","4","290","","","","","","","0","1","0","","0.6912470103","0.4","0.6","0.8","0.2","0.6912470103","0.1251686374","0.06977116317","0.6812883852","","","","","","","","","","","","","","72","H","0","img/none_selected.jpg","","157","main_expt","",""
"","bandit","246","1135208","0.0-199.0-0.0","88248211","wem/bandit_party_2","A3FLAPKQVDRPJE","either","4","604","","","","","","","1","0","0","0.7865398282","","0.4","0.6","0.8","0.2","","","","","0.7865398282","0.1292052795","0.1504927074","0.73777041","","","","","","","","","","72","H","0","img/none_selected.jpg","","158","main_expt","",""
"","bandit","247","1137230","0.0-200.0-0.0","88248211","wem/bandit_party_2","A3FLAPKQVDRPJE","either","4","453","","","","","","","0","0","1","0.7220910122","","0.4","0.6","0.8","0.2","","","","","0.7220910122","0.1200050714","0.1429264201","0.8388849062","","","","","","","","","","72","H","0","img/none_selected.jpg","","159","main_expt","",""
"","bandit","248","1139133","0.0-201.0-0.0","88248211","wem/bandit_party_2","A3FLAPKQVDRPJE","either","4","344","","","","","","","0","1","0","","0.710563805","0.4","0.6","0.8","0.2","0.710563805","0.1156014834","0.1832893837","0.8006667519","","","","","","","","","","","","","","72","H","0","img/none_selected.jpg","","160","main_expt","",""
"","bandit","249","1141243","0.0-202.0-0.0","88248211","wem/bandit_party_2","A3FLAPKQVDRPJE","either","4","540","","","","","","","0","1","0","","0.6205281072","0.4","0.6","0.8","0.2","0.6205281072","0.1425751263","0.2337310763","0.7406956812","","","","","","","","","","","","","","72","H","0","img/none_selected.jpg","","161","main_expt","",""
"","bandit","250","1143212","0.0-203.0-0.0","88248211","wem/bandit_party_2","A3FLAPKQVDRPJE","either","4","411","","","","","","","0","0","1","","0.5246840185","0.4","0.6","0.8","0.2","0.5246840185","0.2108345254","0.2326198937","0.775259894","","","","","","","","","","","","","","72","H","0","img/none_selected.jpg","","162","main_expt","",""
"","bandit","251","1145166","0.0-204.0-0.0","88248211","wem/bandit_party_2","A3FLAPKQVDRPJE","either","4","395","","","","","","","0","1","0","","0.569340372","0.4","0.6","0.8","0.2","0.569340372","0.1664621688","0.1584290897","0.6539471222","","","","","","","","","","","","","","72","H","0","img/none_selected.jpg","","163","main_expt","",""
"","bandit","252","1147159","0.0-205.0-0.0","88248211","wem/bandit_party_2","A3FLAPKQVDRPJE","either","4","432","","","","","","","0","0","1","0.5688323765","","0.4","0.6","0.8","0.2","","","","","0.5688323765","0.1741279052","0.1417900361","0.7914062868","","","","","","","","","","72","H","0","img/none_selected.jpg","","164","main_expt","",""
"","bandit","253","1149039","0.0-206.0-0.0","88248211","wem/bandit_party_2","A3FLAPKQVDRPJE","either","4","330","","","","","","","1","0","0","0.1891196979","","0.4","0.6","0.8","0.2","","","","","0.5195648955","0.1891196979","0.08849486786","0.8415061218","","","","","","","","","","74","J","1","","","165","main_expt","",""
"","bandit","254","1151211","0.0-207.0-0.0","88248211","wem/bandit_party_2","A3FLAPKQVDRPJE","either","4","617","","","","","","","0","0","1","0.3016440744","","0.4","0.6","0.8","0.2","","","","","0.536500984","0.3016440744","0.1010416226","0.9084068317","","","","","","","","","","74","J","1","","","166","main_expt","",""
"","bandit","255","1153133","0.0-208.0-0.0","88248211","wem/bandit_party_2","A3FLAPKQVDRPJE","either","4","350","","","","","","","0","1","0","","0.3427468607","0.4","0.6","0.8","0.2","0.4243381616","0.3427468607","0.1506776516","0.8857506799","","","","","","","","","","","","","","74","J","1","","","167","main_expt","",""
"","bandit","256","1155228","0.0-209.0-0.0","88248211","wem/bandit_party_2","A3FLAPKQVDRPJE","either","4","540","","","","","","","0","0","1","0.3759001064","","0.4","0.6","0.8","0.2","","","","","0.4877327119","0.3759001064","0.2532220847","0.9247721234","","","","","","","","","","74","J","1","","","168","main_expt","",""
"","bandit","257","1157127","0.0-210.0-0.0","88248211","wem/bandit_party_2","A3FLAPKQVDRPJE","either","4","321","","","","","","","0","0","1","0.2223654062","","0.4","0.6","0.8","0.2","","","","","0.5096331713","0.3824832387","0.2223654062","0.8870410368","","","","","","","","","","75","K","2","","","169","main_expt","",""
"","bandit","258","1159076","0.0-211.0-0.0","88248211","wem/bandit_party_2","A3FLAPKQVDRPJE","either","4","359","","","","","","","0","1","0","","0.8782412079","0.4","0.6","0.8","0.2","0.6111595203","0.3257043992","0.2161840498","0.8782412079","","","","","","","","","","","","","","76","L","3","","","170","main_expt","",""
"","bandit","259","1161132","0.0-212.0-0.0","88248211","wem/bandit_party_2","A3FLAPKQVDRPJE","either","4","521","","","","","","","0","1","0","","0.7978982074","0.4","0.6","0.8","0.2","0.5888321224","0.2943589708","0.1996440145","0.7978982074","","","","","","","","","","","","","","76","L","3","","","171","main_expt","",""
"","bandit","260","1163243","0.0-213.0-0.0","88248211","wem/bandit_party_2","A3FLAPKQVDRPJE","either","4","538","","","","","","","0","0","1","","0.7896885826","0.4","0.6","0.8","0.2","0.6295404033","0.4298537702","0.275753823","0.7896885826","","","","","","","","","","","","","","76","L","3","","","172","main_expt","",""
"","bandit","261","1165059","0.0-214.0-0.0","88248211","wem/bandit_party_2","A3FLAPKQVDRPJE","either","4","245","","","","","","","0","0","1","","0.7771385218","0.4","0.6","0.8","0.2","0.5976712981","0.4196262671","0.2850946521","0.7771385218","","","","","","","","","","","","","","76","L","3","","","173","main_expt","",""
"","bandit","262","1166736","0.0-215.0-0.0","88248211","wem/bandit_party_2","A3FLAPKQVDRPJE","either","4","114","","","","","","","0","0","1","0.2836726952","","0.4","0.6","0.8","0.2","","","","","0.5936331925","0.4056978145","0.2836726952","0.8412209493","","","","","","","","","","75","K","2","","","174","main_expt","",""
"","bandit","263","1168611","0.0-216.0-0.0","88248211","wem/bandit_party_2","A3FLAPKQVDRPJE","either","4","320","","","","","","","0","0","1","0.3323311207","","0.4","0.6","0.8","0.2","","","","","0.544145328","0.3323311207","0.27413619","0.8433491626","","","","","","","","","","74","J","1","","","175","main_expt","",""
"","bandit","264","1170361","0.0-217.0-0.0","88248211","wem/bandit_party_2","A3FLAPKQVDRPJE","either","4","204","","","","","","","0","0","1","","0.3584947592","0.4","0.6","0.8","0.2","0.3584947592","0.3087900888","0.2369491767","0.778586436","","","","","","","","","","","","","","72","H","0","img/none_selected.jpg","","176","main_expt","",""
"","bandit","265","1172284","0.0-218.0-0.0","88248211","wem/bandit_party_2","A3FLAPKQVDRPJE","either","4","353","","","","","","","0","0","1","","0.3898613412","0.4","0.6","0.8","0.2","0.436171931","0.3898613412","0.3440943848","0.7488794252","","","","","","","","","","","","","","74","J","1","","","177","main_expt","",""
"","bandit","266","1173956","0.0-219.0-0.0","88248211","wem/bandit_party_2","A3FLAPKQVDRPJE","either","4","102","","","","","","","0","1","0","","0.3529135521","0.4","0.6","0.8","0.2","0.5193680035","0.5236321052","0.3529135521","0.7738581751","","","","","","","","","","","","","","75","K","2","","","178","main_expt","",""
"","bandit","267","1175909","0.0-220.0-0.0","88248211","wem/bandit_party_2","A3FLAPKQVDRPJE","either","4","404","","","","","","","1","0","0","0.3787243664","","0.4","0.6","0.8","0.2","","","","","0.3957798075","0.2955080601","0.3787243664","0.7527820287","","","","","","","","","","75","K","2","","","179","main_expt","",""
"","bandit","268","1177992","0.0-221.0-0.0","88248211","wem/bandit_party_2","A3FLAPKQVDRPJE","either","4","530","","","","","","","1","0","0","0.3092677326","","0.4","0.6","0.8","0.2","","","","","0.4249873197","0.3174151272","0.3092677326","0.8022950929","","","","","","","","","","75","K","2","","","180","main_expt","",""
"","bandit","269","1179992","0.0-222.0-0.0","88248211","wem/bandit_party_2","A3FLAPKQVDRPJE","either","4","446","","","","","","","1","0","0","0.3701559146","","0.4","0.6","0.8","0.2","","","","","0.4260342439","0.3560995969","0.3701559146","0.7505347306","","","","","","","","","","75","K","2","","","181","main_expt","",""
"","bandit","270","1182160","0.0-223.0-0.0","88248211","wem/bandit_party_2","A3FLAPKQVDRPJE","either","4","601","","","","","","","0","0","1","","0.2672844749","0.4","0.6","0.8","0.2","0.4305619521","0.4649908644","0.2672844749","0.603349844","","","","","","","","","","","","","","75","K","2","","","182","main_expt","",""
"","bandit","271","1184025","0.0-224.0-0.0","88248211","wem/bandit_party_2","A3FLAPKQVDRPJE","either","4","302","","","","","","","0","0","1","0.3046315644","","0.4","0.6","0.8","0.2","","","","","0.4638513582","0.4588174784","0.3046315644","0.6464544124","","","","","","","","","","75","K","2","","","183","main_expt","",""
"","bandit","272","1185876","0.0-225.0-0.0","88248211","wem/bandit_party_2","A3FLAPKQVDRPJE","either","4","301","","","","","","","0","1","0","","0.6606024443","0.4","0.6","0.8","0.2","0.5084330557","0.509799977","0.3507685813","0.6606024443","","","","","","","","","","","","","","76","L","3","","","184","main_expt","",""
"","bandit","273","1187843","0.0-226.0-0.0","88248211","wem/bandit_party_2","A3FLAPKQVDRPJE","either","4","411","","","","","","","0","1","0","","0.7034535028","0.4","0.6","0.8","0.2","0.5853778332","0.4557178443","0.3250269766","0.7034535028","","","","","","","","","","","","","","76","L","3","","","185","main_expt","",""
"","bandit","274","1189864","0.0-227.0-0.0","88248211","wem/bandit_party_2","A3FLAPKQVDRPJE","either","4","442","","","","","","","0","0","1","","0.7672503758","0.4","0.6","0.8","0.2","0.5009207633","0.3250172706","0.3636669497","0.7672503758","","","","","","","","","","","","","","76","L","3","","","186","main_expt","",""
"","bandit","275","1191782","0.0-228.0-0.0","88248211","wem/bandit_party_2","A3FLAPKQVDRPJE","either","4","350","","","","","","","0","1","0","","0.7505037824","0.4","0.6","0.8","0.2","0.4376492532","0.2982192525","0.4095027401","0.7505037824","","","","","","","","","","","","","","76","L","3","","","187","main_expt","",""
"","bandit","276","1193708","0.0-229.0-0.0","88248211","wem/bandit_party_2","A3FLAPKQVDRPJE","either","4","376","","","","","","","1","0","0","0.7458261356","","0.4","0.6","0.8","0.2","","","","","0.317868257","0.2647713636","0.3356624093","0.7458261356","","","","","","","","","","76","L","3","","","188","main_expt","",""
"","bandit","277","1195691","0.0-230.0-0.0","88248211","wem/bandit_party_2","A3FLAPKQVDRPJE","either","4","433","","","","","","","0","0","1","","0.747965221","0.4","0.6","0.8","0.2","0.3700786551","0.2798663258","0.3717951419","0.747965221","","","","","","","","","","","","","","76","L","3","","","189","main_expt","",""
"","bandit","278","1197519","0.0-231.0-0.0","88248211","wem/bandit_party_2","A3FLAPKQVDRPJE","either","4","252","","","","","","","0","0","1","0.3266606931","","0.4","0.6","0.8","0.2","","","","","0.3423477616","0.2146362806","0.3266606931","0.7459095382","","","","","","","","","","75","K","2","","","190","main_expt","",""
"","bandit","279","1199333","0.0-232.0-0.0","88248211","wem/bandit_party_2","A3FLAPKQVDRPJE","either","4","246","","","","","","","0","0","1","","0.3132783624","0.4","0.6","0.8","0.2","0.2488230813","0.3132783624","0.4206899072","0.6299055833","","","","","","","","","","","","","","74","J","1","","","191","main_expt","",""
"","bandit","280","1201265","0.0-233.0-0.0","88248211","wem/bandit_party_2","A3FLAPKQVDRPJE","either","4","364","","","","","","","0","0","1","0.2193108308","","0.4","0.6","0.8","0.2","","","","","0.2193108308","0.2488083766","0.4982817076","0.688533977","","","","","","","","","","72","H","0","img/none_selected.jpg","","192","main_expt","",""
"","bandit","281","1203123","0.0-234.0-0.0","88248211","wem/bandit_party_2","A3FLAPKQVDRPJE","either","4","283","","","","","","","0","0","1","","0.225611763","0.4","0.6","0.8","0.2","0.4057276106","0.225611763","0.4820211017","0.7176496952","","","","","","","","","","","","","","74","J","1","","","193","main_expt","",""
"","bandit","282","1204876","0.0-235.0-0.0","88248211","wem/bandit_party_2","A3FLAPKQVDRPJE","either","4","194","","","","","","","1","0","0","0.5373891537","","0.4","0.6","0.8","0.2","","","","","0.3826056333","0.2159393038","0.5373891537","0.746212457","","","","","","","","","","75","K","2","","","194","main_expt","",""
"","bandit","283","1206859","0.0-236.0-0.0","88248211","wem/bandit_party_2","A3FLAPKQVDRPJE","either","4","395","","","","","","","1","0","0","0.3890275207","","0.4","0.6","0.8","0.2","","","","","0.4922935908","0.3112228701","0.3890275207","0.6800784202","","","","","","","","","","75","K","2","","","195","main_expt","",""
"","bandit","284","1208876","0.0-237.0-0.0","88248211","wem/bandit_party_2","A3FLAPKQVDRPJE","either","4","443","","","","","","","0","0","1","0.4329462643","","0.4","0.6","0.8","0.2","","","","","0.5475793877","0.3249051539","0.4329462643","0.5986295964","","","","","","","","","","75","K","2","","","196","main_expt","",""
"","bandit","285","1210742","0.0-238.0-0.0","88248211","wem/bandit_party_2","A3FLAPKQVDRPJE","either","4","311","","","","","","","1","0","0","0.5323622673","","0.4","0.6","0.8","0.2","","","","","0.6069385875","0.2985018541","0.416825946","0.5323622673","","","","","","","","","","76","L","3","","","197","main_expt","",""
"","bandit","286","1213059","0.0-239.0-0.0","88248211","wem/bandit_party_2","A3FLAPKQVDRPJE","either","4","753","","","","","","","0","1","0","","0.5348043844","0.4","0.6","0.8","0.2","0.4946816555","0.3109366799","0.4063336836","0.5348043844","","","","","","","","","","","","","","76","L","3","","","198","main_expt","",""
"","bandit","287","1215085","0.0-240.0-0.0","88248211","wem/bandit_party_2","A3FLAPKQVDRPJE","either","4","462","","","","","","","0","1","0","","0.4534403339","0.4","0.6","0.8","0.2","0.479635203","0.3143364341","0.361264989","0.4534403339","","","","","","","","","","","","","","76","L","3","","","199","main_expt","",""
"","bandit","288","1217085","0.0-241.0-0.0","88248211","wem/bandit_party_2","A3FLAPKQVDRPJE","either","4","447","","","","","","","1","0","0","0.4185876589","","0.4","0.6","0.8","0.2","","","","","0.4969837249","0.3176919365","0.4700223374","0.4185876589","","","","","","","","","","76","L","3","","","200","main_expt","",""
"","bandit","289","1218938","0.0-242.0-0.0","88248211","wem/bandit_party_2","A3FLAPKQVDRPJE","either","4","295","","","","","","","0","0","1","","0.3812211227","0.4","0.6","0.8","0.2","0.4548125401","0.2848283651","0.4751543938","0.3812211227","","","","","","","","","","","","","","76","L","3","","","201","main_expt","",""
"","bandit","290","1220901","0.0-243.0-0.0","88248211","wem/bandit_party_2","A3FLAPKQVDRPJE","either","4","417","","","","","","","0","0","1","0.4044794657","","0.4","0.6","0.8","0.2","","","","","0.5767771981","0.2439676923","0.4044794657","0.4414728031","","","","","","","","","","75","K","2","","","202","main_expt","",""
"","bandit","291","1222759","0.0-244.0-0.0","88248211","wem/bandit_party_2","A3FLAPKQVDRPJE","either","4","318","","","","","","","0","1","0","","0.2582922662","0.4","0.6","0.8","0.2","0.6118171827","0.2582922662","0.3321077444","0.3698030662","","","","","","","","","","","","","","74","J","1","","","203","main_expt","",""
"","bandit","292","1224683","0.0-245.0-0.0","88248211","wem/bandit_party_2","A3FLAPKQVDRPJE","either","4","364","","","","","","","0","0","1","","0.3799793739","0.4","0.6","0.8","0.2","0.5373194108","0.3799793739","0.3697340749","0.4899087748","","","","","","","","","","","","","","74","J","1","","","204","main_expt","",""
"","bandit","293","1226737","0.0-246.0-0.0","88248211","wem/bandit_party_2","A3FLAPKQVDRPJE","either","4","497","","","","","","","1","0","0","0.5501461309","","0.4","0.6","0.8","0.2","","","","","0.5501461309","0.4441528059","0.3998168993","0.4310108402","","","","","","","","","","72","H","0","img/none_selected.jpg","","205","main_expt","",""
"","bandit","294","1228674","0.0-247.0-0.0","88248211","wem/bandit_party_2","A3FLAPKQVDRPJE","either","4","380","","","","","","","1","0","0","0.5094027242","","0.4","0.6","0.8","0.2","","","","","0.5094027242","0.4468516792","0.4929909192","0.3912115078","","","","","","","","","","72","H","0","img/none_selected.jpg","","206","main_expt","",""
"","bandit","295","1230738","0.0-248.0-0.0","88248211","wem/bandit_party_2","A3FLAPKQVDRPJE","either","4","514","","","","","","","0","1","0","","0.6449696869","0.4","0.6","0.8","0.2","0.6449696869","0.399366085","0.4960693894","0.3195818707","","","","","","","","","","","","","","72","H","0","img/none_selected.jpg","","207","main_expt","",""
"","bandit","296","1232792","0.0-249.0-0.0","88248211","wem/bandit_party_2","A3FLAPKQVDRPJE","either","4","484","","","","","","","0","0","1","","0.549996868","0.4","0.6","0.8","0.2","0.549996868","0.4206610772","0.3912862986","0.2378171997","","","","","","","","","","","","","","72","H","0","img/none_selected.jpg","","208","main_expt","",""
"","bandit","297","1234683","0.0-250.0-0.0","88248211","wem/bandit_party_2","A3FLAPKQVDRPJE","either","4","334","","","","","","","0","0","1","0.5145499259","","0.4","0.6","0.8","0.2","","","","","0.5258833792","0.5145499259","0.4218938049","0.2339104391","","","","","","","","","","74","J","1","","","209","main_expt","",""
"","bandit","298","1236606","0.0-251.0-0.0","88248211","wem/bandit_party_2","A3FLAPKQVDRPJE","either","4","367","","","","","","","0","0","1","0.6003160005","","0.4","0.6","0.8","0.2","","","","","0.5453980868","0.3497539355","0.6003160005","0.2506558306","","","","","","","","","","75","K","2","","","210","main_expt","",""
"","bandit","299","1238491","0.0-252.0-0.0","88248211","wem/bandit_party_2","A3FLAPKQVDRPJE","either","4","317","","","","","","","0","0","1","0.3466578502","","0.4","0.6","0.8","0.2","","","","","0.5370950561","0.3335821388","0.5481562991","0.3466578502","","","","","","","","","","76","L","3","","","211","main_expt","",""
"","bandit","300","1240340","0.0-253.0-0.0","88248211","wem/bandit_party_2","A3FLAPKQVDRPJE","either","4","282","","","","","","","0","0","1","0.6210595125","","0.4","0.6","0.8","0.2","","","","","0.5774996514","0.2778022227","0.6210595125","0.4162959965","","","","","","","","","","75","K","2","","","212","main_expt","",""
"","bandit","301","1242000","0.0-254.0-0.0","88248211","wem/bandit_party_2","A3FLAPKQVDRPJE","either","4","99","","","","","","","0","1","0","","0.2949104287","0.4","0.6","0.8","0.2","0.4826056363","0.2949104287","0.7732161257","0.545788555","","","","","","","","","","","","","","74","J","1","","","213","main_expt","",""
"","bandit","302","1244032","0.0-255.0-0.0","88248211","wem/bandit_party_2","A3FLAPKQVDRPJE","either","4","454","","","","","","","0","0","1","","0.2443343027","0.4","0.6","0.8","0.2","0.4913277851","0.2443343027","0.7689771773","0.6077749924","","","","","","","","","","","","","","74","J","1","","","214","main_expt","",""
"","bandit","303","1245938","0.0-256.0-0.0","88248211","wem/bandit_party_2","A3FLAPKQVDRPJE","either","4","341","","","","","","","0","1","0","","0.5415006571","0.4","0.6","0.8","0.2","0.5415006571","0.2232989174","0.6841712945","0.4883429648","","","","","","","","","","","","","","72","H","0","img/none_selected.jpg","","215","main_expt","",""
"","bandit","304","1247844","0.0-257.0-0.0","88248211","wem/bandit_party_2","A3FLAPKQVDRPJE","either","4","354","","","","","","","0","0","1","","0.5198015267","0.4","0.6","0.8","0.2","0.5198015267","0.2918619336","0.7019934296","0.3309854328","","","","","","","","","","","","","","72","H","0","img/none_selected.jpg","","216","main_expt","",""
"","bandit","305","1249793","0.0-258.0-0.0","88248211","wem/bandit_party_2","A3FLAPKQVDRPJE","either","4","376","","","","","","","1","0","0","0.545097872","","0.4","0.6","0.8","0.2","","","","","0.545097872","0.3571058798","0.7537099884","0.3310528633","","","","","","","","","","72","H","0","img/none_selected.jpg","","217","main_expt","",""
"","bandit","306","1251825","0.0-259.0-0.0","88248211","wem/bandit_party_2","A3FLAPKQVDRPJE","either","4","477","","","","","","","1","0","0","0.5776025334","","0.4","0.6","0.8","0.2","","","","","0.5776025334","0.3738303097","0.8428980993","0.4147218791","","","","","","","","","","72","H","0","img/none_selected.jpg","","218","main_expt","",""
"","bandit","307","1253811","0.0-260.0-0.0","88248211","wem/bandit_party_2","A3FLAPKQVDRPJE","either","4","413","","","","","","","0","0","1","","0.5616346574","0.4","0.6","0.8","0.2","0.5616346574","0.4832874948","0.8007326434","0.3402104323","","","","","","","","","","","","","","72","H","0","img/none_selected.jpg","","219","main_expt","",""
"","bandit","308","1255475","0.0-261.0-0.0","88248211","wem/bandit_party_2","A3FLAPKQVDRPJE","either","4","104","","","","","","","1","0","0","0.475455537","","0.4","0.6","0.8","0.2","","","","","0.6261942659","0.475455537","0.8518850648","0.3448871422","","","","","","","","","","74","J","1","","","220","main_expt","",""
"","bandit","309","1257360","0.0-262.0-0.0","88248211","wem/bandit_party_2","A3FLAPKQVDRPJE","either","4","325","","","","","","","0","0","1","0.3849790123","","0.4","0.6","0.8","0.2","","","","","0.6533416475","0.3849790123","0.8488451861","0.4438284365","","","","","","","","","","74","J","1","","","221","main_expt","",""
"","bandit","310","1259909","0.0-263.0-0.0","88248211","wem/bandit_party_2","A3FLAPKQVDRPJE","either","4","979","","","","","","","1","0","0","0.8202185963","","0.4","0.6","0.8","0.2","","","","","0.6780524799","0.2708628555","0.8202185963","0.3768672835","","","","","","","","","","75","K","2","","","222","main_expt","",""
"","bandit","311","1261976","0.0-264.0-0.0","88248211","wem/bandit_party_2","A3FLAPKQVDRPJE","either","4","501","","","","","","","0","1","0","","0.839196386","0.4","0.6","0.8","0.2","0.638470603","0.3886191555","0.839196386","0.4599748191","","","","","","","","","","","","","","75","K","2","","","223","main_expt","",""
"","bandit","312","1264075","0.0-265.0-0.0","88248211","wem/bandit_party_2","A3FLAPKQVDRPJE","either","4","531","","","","","","","0","0","1","0.8340435664","","0.4","0.6","0.8","0.2","","","","","0.560582988","0.3352763987","0.8340435664","0.5868274652","","","","","","","","","","75","K","2","","","224","main_expt","",""
"","bandit","313","1266045","0.0-266.0-0.0","88248211","wem/bandit_party_2","A3FLAPKQVDRPJE","either","4","424","","","","","","","0","1","0","","0.510759767","0.4","0.6","0.8","0.2","0.5004803289","0.3948846532","0.8229669419","0.510759767","","","","","","","","","","","","","","76","L","3","","","225","main_expt","",""
"","bandit","314","1268075","0.0-267.0-0.0","88248211","wem/bandit_party_2","A3FLAPKQVDRPJE","either","4","477","","","","","","","0","1","0","","0.6026028704","0.4","0.6","0.8","0.2","0.5109709899","0.385279681","0.8326575293","0.6026028704","","","","","","","","","","","","","","76","L","3","","","226","main_expt","",""
