"consent","trial_type","trial_index","time_elapsed","internal_node_id","subjID","study","MID","cond","drift","rt","responses","button_pressed","key_press","like","value","connected","gems","bombs","no_reward","GemPrChosen","BombPrChosen","GainOverPainPr_0","GainOverPainPr_1","GainOverPainPr_2","GainOverPainPr_3","LosePr_0","LosePr_1","LosePr_2","LosePr_3","WinPr_0","WinPr_1","WinPr_2","WinPr_3","Q0","Q1","Q2","gender","age","ethnicity","label","expt_phase","target","respCharCode","respKey","respChoiceNum","respChoice","practice","trial_counter","trial_label","Q0_index","view_history"
"GDM/GDM_behavioral_consent_30min_online.html","consent","0","7933","0.0-0.0","88519589","wem/bandit_party_2","A3BSE5PUEKPTRU","either","6","","","","","","","","","","","","","","","","","","","","","","","","","","","","","","","","","","","","","","","","","",""
"","survey-text","1","12529","0.0-1.0","88519589","wem/bandit_party_2","A3BSE5PUEKPTRU","either","6","3579","{""Q0"":""A3BSE5PUEKPTRU""}","","","","","","","","","","","","","","","","","","","","","","","","","","","","","","","","","","","","","","","",""
"","button-response","2","15513","0.0-2.0","88519589","wem/bandit_party_2","A3BSE5PUEKPTRU","either","6","1975","","0","","","","","","","","","","","","","","","","","","","","","","","","","","","","","","","","","","","","","","",""
"","text-replacement","3","31707","0.0-3.0","88519589","wem/bandit_party_2","A3BSE5PUEKPTRU","either","6","15175","","","32","","","","","","","","","","","","","","","","","","","","","","","","","","","","","","","","","","","","","",""
"","text-replacement","4","38050","0.0-4.0","88519589","wem/bandit_party_2","A3BSE5PUEKPTRU","either","6","6340","","","32","","","","","","","","","","","","","","","","","","","","","","","","","","","","","","","","","","","","","",""
"","identification","5","48111","0.0-6.0-0.0","88519589","wem/bandit_party_2","A3BSE5PUEKPTRU","either","6","10028","","","","6","6","6","","","","","","","","","","","","","","","","","","","","","","","","pre","identification_pre","the Republican Party","","","","","","","","",""
"","identification","6","58181","0.0-6.0-1.0","88519589","wem/bandit_party_2","A3BSE5PUEKPTRU","either","6","9040","","","","0","0","0","","","","","","","","","","","","","","","","","","","","","","","","pre","identification_pre","the Democratic Party","","","","","","","","",""
"","text-replacement","7","66032","0.0-7.0","88519589","wem/bandit_party_2","A3BSE5PUEKPTRU","either","6","6847","","","32","","","","","","","","","","","","","","","","","","","","","","","","","","","","","","","","","","","","","",""
"","text-replacement","8","71682","0.0-8.0","88519589","wem/bandit_party_2","A3BSE5PUEKPTRU","either","6","5645","","","32","","","","","","","","","","","","","","","","","","","","","","","","","","","","","","","","","","","","","",""
"","text-replacement","9","79678","0.0-9.0","88519589","wem/bandit_party_2","A3BSE5PUEKPTRU","either","6","7991","","","32","","","","","","","","","","","","","","","","","","","","","","","","","","","","","","","","","","","","","",""
"","text-replacement","10","84234","0.0-10.0","88519589","wem/bandit_party_2","A3BSE5PUEKPTRU","either","6","4553","","","32","","","","","","","","","","","","","","","","","","","","","","","","","","","","","","","","","","","","","",""
"","text-replacement","11","85611","0.0-11.0","88519589","wem/bandit_party_2","A3BSE5PUEKPTRU","either","6","1374","","","32","","","","","","","","","","","","","","","","","","","","","","","","","","","","","","","","","","","","","",""
"","bandit","12","89287","0.0-12.0-0.0","88519589","wem/bandit_party_2","A3BSE5PUEKPTRU","either","6","2157","","","","","","","0","0","1","0","0","","","","","0","","","","0","","","","","","","","","","","","","74","J","0","img/none_selected_demo.jpg","true","0","","",""
"","bandit","13","92094","0.0-13.0-0.0","88519589","wem/bandit_party_2","A3BSE5PUEKPTRU","either","6","1293","","","","","","","0","0","1","0","0","","","","","0","","","","0","","","","","","","","","","","","","75","K","0","img/none_selected_demo.jpg","true","0","","",""
"","text-replacement","14","94393","0.0-14.0","88519589","wem/bandit_party_2","A3BSE5PUEKPTRU","either","6","2294","","","32","","","","","","","","","","","","","","","","","","","","","","","","","","","","","","","","","","","","","",""
"","text-replacement","15","95715","0.0-15.0","88519589","wem/bandit_party_2","A3BSE5PUEKPTRU","either","6","1319","","","32","","","","","","","","","","","","","","","","","","","","","","","","","","","","","","","","","","","","","",""
"","text-replacement","16","98881","0.0-16.0","88519589","wem/bandit_party_2","A3BSE5PUEKPTRU","either","6","3161","","","32","","","","","","","","","","","","","","","","","","","","","","","","","","","","","","","","","","","","","",""
"","text-replacement","17","99693","0.0-17.0","88519589","wem/bandit_party_2","A3BSE5PUEKPTRU","either","6","809","","","32","","","","","","","","","","","","","","","","","","","","","","","","","","","","","","","","","","","","","",""
"","bandit","18","102219","0.0-18.0-0.0","88519589","wem/bandit_party_2","A3BSE5PUEKPTRU","either","6","1016","","","","","","","0","0","1","0.2","","0.5","0.5","","","","","","","0.8","0.2","","","","","","","","","","","","75","K","1","","true","0","80_20_practice","",""
"","bandit","19","105268","0.0-18.0-1.0","88519589","wem/bandit_party_2","A3BSE5PUEKPTRU","either","6","1540","","","","","","","0","1","0","","0.8","0.5","0.5","","","0.8","0.2","","","","","","","","","","","","","","","","74","J","0","img/none_selected_demo.jpg","true","0","80_20_practice","",""
"","bandit","20","107271","0.0-18.0-2.0","88519589","wem/bandit_party_2","A3BSE5PUEKPTRU","either","6","490","","","","","","","1","0","0","0.8","","0.5","0.5","","","","","","","0.8","0.2","","","","","","","","","","","","74","J","0","img/none_selected_demo.jpg","true","0","80_20_practice","",""
"","bandit","21","109188","0.0-18.0-3.0","88519589","wem/bandit_party_2","A3BSE5PUEKPTRU","either","6","406","","","","","","","1","0","0","0.8","","0.5","0.5","","","","","","","0.8","0.2","","","","","","","","","","","","74","J","0","img/none_selected_demo.jpg","true","0","80_20_practice","",""
"","bandit","22","111160","0.0-18.0-4.0","88519589","wem/bandit_party_2","A3BSE5PUEKPTRU","either","6","465","","","","","","","0","0","1","","0.2","0.5","0.5","","","0.8","0.2","","","","","","","","","","","","","","","","75","K","1","","true","0","80_20_practice","",""
"","bandit","23","112892","0.0-18.0-5.0","88519589","wem/bandit_party_2","A3BSE5PUEKPTRU","either","6","219","","","","","","","1","0","0","0.8","","0.5","0.5","","","","","","","0.8","0.2","","","","","","","","","","","","74","J","0","img/none_selected_demo.jpg","true","0","80_20_practice","",""
"","bandit","24","114735","0.0-18.0-6.0","88519589","wem/bandit_party_2","A3BSE5PUEKPTRU","either","6","330","","","","","","","0","1","0","","0.8","0.5","0.5","","","0.8","0.2","","","","","","","","","","","","","","","","74","J","0","img/none_selected_demo.jpg","true","0","80_20_practice","",""
"","bandit","25","116724","0.0-18.0-7.0","88519589","wem/bandit_party_2","A3BSE5PUEKPTRU","either","6","474","","","","","","","0","0","1","0.8","","0.5","0.5","","","","","","","0.8","0.2","","","","","","","","","","","","74","J","0","img/none_selected_demo.jpg","true","0","80_20_practice","",""
"","bandit","26","119129","0.0-18.0-8.0","88519589","wem/bandit_party_2","A3BSE5PUEKPTRU","either","6","892","","","","","","","0","0","1","","0.2","0.5","0.5","","","0.8","0.2","","","","","","","","","","","","","","","","75","K","1","","true","0","80_20_practice","",""
"","bandit","27","120943","0.0-18.0-9.0","88519589","wem/bandit_party_2","A3BSE5PUEKPTRU","either","6","302","","","","","","","0","0","1","","0.2","0.5","0.5","","","0.8","0.2","","","","","","","","","","","","","","","","75","K","1","","true","0","80_20_practice","",""
"","bandit","28","123534","0.0-18.0-10.0","88519589","wem/bandit_party_2","A3BSE5PUEKPTRU","either","6","1079","","","","","","","0","1","0","","0.2","0.5","0.5","","","0.8","0.2","","","","","","","","","","","","","","","","75","K","1","","true","0","80_20_practice","",""
"","bandit","29","125473","0.0-18.0-11.0","88519589","wem/bandit_party_2","A3BSE5PUEKPTRU","either","6","426","","","","","","","0","0","1","","0.2","0.5","0.5","","","0.8","0.2","","","","","","","","","","","","","","","","75","K","1","","true","0","80_20_practice","",""
"","bandit","30","127224","0.0-18.0-12.0","88519589","wem/bandit_party_2","A3BSE5PUEKPTRU","either","6","237","","","","","","","0","0","1","","0.8","0.5","0.5","","","0.8","0.2","","","","","","","","","","","","","","","","74","J","0","img/none_selected_demo.jpg","true","0","80_20_practice","",""
"","bandit","31","128943","0.0-18.0-13.0","88519589","wem/bandit_party_2","A3BSE5PUEKPTRU","either","6","208","","","","","","","0","0","1","0.8","","0.5","0.5","","","","","","","0.8","0.2","","","","","","","","","","","","74","J","0","img/none_selected_demo.jpg","true","0","80_20_practice","",""
"","bandit","32","130590","0.0-18.0-14.0","88519589","wem/bandit_party_2","A3BSE5PUEKPTRU","either","6","132","","","","","","","1","0","0","0.8","","0.5","0.5","","","","","","","0.8","0.2","","","","","","","","","","","","74","J","0","img/none_selected_demo.jpg","true","0","80_20_practice","",""
"","bandit","33","132395","0.0-18.0-15.0","88519589","wem/bandit_party_2","A3BSE5PUEKPTRU","either","6","293","","","","","","","0","0","1","0.8","","0.5","0.5","","","","","","","0.8","0.2","","","","","","","","","","","","74","J","0","img/none_selected_demo.jpg","true","0","80_20_practice","",""
"","bandit","34","134193","0.0-18.0-16.0","88519589","wem/bandit_party_2","A3BSE5PUEKPTRU","either","6","285","","","","","","","0","1","0","","0.2","0.5","0.5","","","0.8","0.2","","","","","","","","","","","","","","","","75","K","1","","true","0","80_20_practice","",""
"","bandit","35","137360","0.0-18.0-17.0","88519589","wem/bandit_party_2","A3BSE5PUEKPTRU","either","6","1655","","","","","","","0","0","1","0.2","","0.5","0.5","","","","","","","0.8","0.2","","","","","","","","","","","","75","K","1","","true","0","80_20_practice","",""
"","bandit","36","139206","0.0-18.0-18.0","88519589","wem/bandit_party_2","A3BSE5PUEKPTRU","either","6","332","","","","","","","0","1","0","","0.8","0.5","0.5","","","0.8","0.2","","","","","","","","","","","","","","","","74","J","0","img/none_selected_demo.jpg","true","0","80_20_practice","",""
"","bandit","37","141020","0.0-18.0-19.0","88519589","wem/bandit_party_2","A3BSE5PUEKPTRU","either","6","302","","","","","","","0","1","0","","0.8","0.5","0.5","","","0.8","0.2","","","","","","","","","","","","","","","","74","J","0","img/none_selected_demo.jpg","true","0","80_20_practice","",""
"","text-replacement","38","144078","0.0-19.0","88519589","wem/bandit_party_2","A3BSE5PUEKPTRU","either","6","3053","","","32","","","","","","","","","","","","","","","","","","","","","","","","","","","","","","","","","","","","","",""
"","bandit","39","146551","0.0-20.0-0.0","88519589","wem/bandit_party_2","A3BSE5PUEKPTRU","either","6","961","","","","","","","1","0","0","1","0","","","","","0","1","","","1","0","","","","","","","","","","","","74","J","0","img/none_selected_demo.jpg","true","0","","",""
"","text-replacement","40","151354","0.0-21.0","88519589","wem/bandit_party_2","A3BSE5PUEKPTRU","either","6","4796","","","32","","","","","","","","","","","","","","","","","","","","","","","","","","","","","","","","","","","","","",""
"","text-replacement","41","155754","0.0-22.0","88519589","wem/bandit_party_2","A3BSE5PUEKPTRU","either","6","4396","","","32","","","","","","","","","","","","","","","","","","","","","","","","","","","","","","","","","","","","","",""
"","text-replacement","42","157845","0.0-23.0","88519589","wem/bandit_party_2","A3BSE5PUEKPTRU","either","6","2087","","","32","","","","","","","","","","","","","","","","","","","","","","","","","","","","","","","","","","","","","",""
"","text-replacement","43","159726","0.0-24.0","88519589","wem/bandit_party_2","A3BSE5PUEKPTRU","either","6","1877","","","32","","","","","","","","","","","","","","","","","","","","","","","","","","","","","","","","","","","","","",""
"","text-replacement","44","161227","0.0-25.0","88519589","wem/bandit_party_2","A3BSE5PUEKPTRU","either","6","1497","","","32","","","","","","","","","","","","","","","","","","","","","","","","","","","","","","","","","","","","","",""
"","text-replacement","45","162164","0.0-26.0","88519589","wem/bandit_party_2","A3BSE5PUEKPTRU","either","6","931","","","32","","","","","","","","","","","","","","","","","","","","","","","","","","","","","","","","","","","","","",""
"","text-replacement","46","166559","0.0-27.0","88519589","wem/bandit_party_2","A3BSE5PUEKPTRU","either","6","4391","","","32","","","","","","","","","","","","","","","","","","","","","","","","","","","","","","","","","","","","","",""
"","text-replacement","47","174689","0.0-28.0","88519589","wem/bandit_party_2","A3BSE5PUEKPTRU","either","6","8126","","","32","","","","","","","","","","","","","","","","","","","","","","","","","","","","","","","","","","","","","",""
"","text-replacement","48","177902","0.0-29.0","88519589","wem/bandit_party_2","A3BSE5PUEKPTRU","either","6","3209","","","32","","","","","","","","","","","","","","","","","","","","","","","","","","","","","","","","","","","","","",""
"","text-replacement","49","180161","0.0-30.0","88519589","wem/bandit_party_2","A3BSE5PUEKPTRU","either","6","2255","","","32","","","","","","","","","","","","","","","","","","","","","","","","","","","","","","","","","","","","","",""
"","text-replacement","50","184763","0.0-31.0","88519589","wem/bandit_party_2","A3BSE5PUEKPTRU","either","6","4597","","","32","","","","","","","","","","","","","","","","","","","","","","","","","","","","","","","","","","","","","",""
"","bandit","51","187906","0.0-32.0-0.0","88519589","wem/bandit_party_2","A3BSE5PUEKPTRU","either","6","1632","","","","","","","0","0","1","0.6","","0.5","0.5","0.5","0.5","","","","","0.8","0.2","0.6","0.2","","","","","","","","","","75","K","2","","true","0","full_practice","",""
"","bandit","52","189668","0.0-32.0-1.0","88519589","wem/bandit_party_2","A3BSE5PUEKPTRU","either","6","246","","","","","","","1","0","0","0.8","","0.5","0.5","0.5","0.5","","","","","0.8","0.2","0.6","0.2","","","","","","","","","","72","H","0","img/none_selected.jpg","true","0","full_practice","",""
"","bandit","53","191450","0.0-32.0-2.0","88519589","wem/bandit_party_2","A3BSE5PUEKPTRU","either","6","266","","","","","","","0","1","0","","0.8","0.5","0.5","0.5","0.5","0.8","0.2","0.6","0.2","","","","","","","","","","","","","","72","H","0","img/none_selected.jpg","true","0","full_practice","",""
"","bandit","54","193369","0.0-32.0-3.0","88519589","wem/bandit_party_2","A3BSE5PUEKPTRU","either","6","403","","","","","","","0","0","1","0.2","","0.5","0.5","0.5","0.5","","","","","0.8","0.2","0.6","0.2","","","","","","","","","","76","L","3","","true","0","full_practice","",""
"","bandit","55","195142","0.0-32.0-4.0","88519589","wem/bandit_party_2","A3BSE5PUEKPTRU","either","6","259","","","","","","","0","0","1","0.2","","0.5","0.5","0.5","0.5","","","","","0.8","0.2","0.6","0.2","","","","","","","","","","74","J","1","","true","0","full_practice","",""
"","bandit","56","197065","0.0-32.0-5.0","88519589","wem/bandit_party_2","A3BSE5PUEKPTRU","either","6","406","","","","","","","0","1","0","","0.8","0.5","0.5","0.5","0.5","0.8","0.2","0.6","0.2","","","","","","","","","","","","","","72","H","0","img/none_selected.jpg","true","0","full_practice","",""
"","bandit","57","199096","0.0-32.0-6.0","88519589","wem/bandit_party_2","A3BSE5PUEKPTRU","either","6","518","","","","","","","0","1","0","","0.8","0.5","0.5","0.5","0.5","0.8","0.2","0.6","0.2","","","","","","","","","","","","","","72","H","0","img/none_selected.jpg","true","0","full_practice","",""
"","bandit","58","201575","0.0-32.0-7.0","88519589","wem/bandit_party_2","A3BSE5PUEKPTRU","either","6","965","","","","","","","0","1","0","","0.8","0.5","0.5","0.5","0.5","0.8","0.2","0.6","0.2","","","","","","","","","","","","","","72","H","0","img/none_selected.jpg","true","0","full_practice","",""
"","bandit","59","203574","0.0-32.0-8.0","88519589","wem/bandit_party_2","A3BSE5PUEKPTRU","either","6","485","","","","","","","0","1","0","","0.8","0.5","0.5","0.5","0.5","0.8","0.2","0.6","0.2","","","","","","","","","","","","","","72","H","0","img/none_selected.jpg","true","0","full_practice","",""
"","bandit","60","205361","0.0-32.0-9.0","88519589","wem/bandit_party_2","A3BSE5PUEKPTRU","either","6","273","","","","","","","1","0","0","0.8","","0.5","0.5","0.5","0.5","","","","","0.8","0.2","0.6","0.2","","","","","","","","","","72","H","0","img/none_selected.jpg","true","0","full_practice","",""
"","bandit","61","207377","0.0-32.0-10.0","88519589","wem/bandit_party_2","A3BSE5PUEKPTRU","either","6","502","","","","","","","0","0","1","","0.8","0.5","0.5","0.5","0.5","0.8","0.2","0.6","0.2","","","","","","","","","","","","","","72","H","0","img/none_selected.jpg","true","0","full_practice","",""
"","bandit","62","209402","0.0-32.0-11.0","88519589","wem/bandit_party_2","A3BSE5PUEKPTRU","either","6","516","","","","","","","1","0","0","0.6","","0.5","0.5","0.5","0.5","","","","","0.8","0.2","0.6","0.2","","","","","","","","","","75","K","2","","true","0","full_practice","",""
"","bandit","63","211319","0.0-32.0-12.0","88519589","wem/bandit_party_2","A3BSE5PUEKPTRU","either","6","402","","","","","","","0","1","0","","0.6","0.5","0.5","0.5","0.5","0.8","0.2","0.6","0.2","","","","","","","","","","","","","","75","K","2","","true","0","full_practice","",""
"","bandit","64","213210","0.0-32.0-13.0","88519589","wem/bandit_party_2","A3BSE5PUEKPTRU","either","6","376","","","","","","","0","1","0","","0.6","0.5","0.5","0.5","0.5","0.8","0.2","0.6","0.2","","","","","","","","","","","","","","75","K","2","","true","0","full_practice","",""
"","bandit","65","214969","0.0-32.0-14.0","88519589","wem/bandit_party_2","A3BSE5PUEKPTRU","either","6","242","","","","","","","1","0","0","0.2","","0.5","0.5","0.5","0.5","","","","","0.8","0.2","0.6","0.2","","","","","","","","","","74","J","1","","true","0","full_practice","",""
"","bandit","66","216784","0.0-32.0-15.0","88519589","wem/bandit_party_2","A3BSE5PUEKPTRU","either","6","299","","","","","","","0","1","0","","0.2","0.5","0.5","0.5","0.5","0.8","0.2","0.6","0.2","","","","","","","","","","","","","","76","L","3","","true","0","full_practice","",""
"","bandit","67","218447","0.0-32.0-16.0","88519589","wem/bandit_party_2","A3BSE5PUEKPTRU","either","6","149","","","","","","","0","0","1","0.2","","0.5","0.5","0.5","0.5","","","","","0.8","0.2","0.6","0.2","","","","","","","","","","74","J","1","","true","0","full_practice","",""
"","bandit","68","220002","0.0-32.0-17.0","88519589","wem/bandit_party_2","A3BSE5PUEKPTRU","either","6","41","","","","","","","0","1","0","","0.6","0.5","0.5","0.5","0.5","0.8","0.2","0.6","0.2","","","","","","","","","","","","","","75","K","2","","true","0","full_practice","",""
"","bandit","69","221673","0.0-32.0-18.0","88519589","wem/bandit_party_2","A3BSE5PUEKPTRU","either","6","154","","","","","","","0","0","1","0.2","","0.5","0.5","0.5","0.5","","","","","0.8","0.2","0.6","0.2","","","","","","","","","","76","L","3","","true","0","full_practice","",""
"","bandit","70","223316","0.0-32.0-19.0","88519589","wem/bandit_party_2","A3BSE5PUEKPTRU","either","6","126","","","","","","","1","0","0","0.8","","0.5","0.5","0.5","0.5","","","","","0.8","0.2","0.6","0.2","","","","","","","","","","72","H","0","img/none_selected.jpg","true","0","full_practice","",""
"","text","71","225549","0.0-33.0","88519589","wem/bandit_party_2","A3BSE5PUEKPTRU","either","6","2209","","","32","","","","","","","","","","","","","","","","","","","","","","","","","","","","","","","","","","","","","",""
"","text-replacement","72","233721","0.0-34.0","88519589","wem/bandit_party_2","A3BSE5PUEKPTRU","either","6","7166","","","32","","","","","","","","","","","","","","","","","","","","","","","","","","","","","","","","","","","","","",""
"","text-replacement","73","241685","0.0-35.0","88519589","wem/bandit_party_2","A3BSE5PUEKPTRU","either","6","7959","","","32","","","","","","","","","","","","","","","","","","","","","","","","","","","","","","","","","","","","","",""
"","text-replacement","74","242446","0.0-36.0","88519589","wem/bandit_party_2","A3BSE5PUEKPTRU","either","6","756","","","32","","","","","","","","","","","","","","","","","","","","","","","","","","","","","","","","","","","","","",""
"","text-replacement","75","243065","0.0-37.0","88519589","wem/bandit_party_2","A3BSE5PUEKPTRU","either","6","612","","","32","","","","","","","","","","","","","","","","","","","","","","","","","","","","","","","","","","","","","",""
"","text-replacement","76","248770","0.0-38.0","88519589","wem/bandit_party_2","A3BSE5PUEKPTRU","either","6","5699","","","32","","","","","","","","","","","","","","","","","","","","","","","","","","","","","","","","","","","","","",""
"","survey-multi-choice-replacement","77","253929","0.0-39.0-0.0","88519589","wem/bandit_party_2","A3BSE5PUEKPTRU","either","6","5142","","","","","","","","","","","","","","","","","","","","","","","","Money will be added to the pool for <span style='color:red;'>REPUBLICANS</span>","","","","","","","attn_check","","","","","","","","","0",""
"","survey-multi-choice-replacement","78","257638","0.0-40.0-0.0","88519589","wem/bandit_party_2","A3BSE5PUEKPTRU","either","6","2686","","","","","","","","","","","","","","","","","","","","","","","","Money will be subtracted from the pool for <span style='color:blue;'>DEMOCRATS</span>","","","","","","","attn_check","","","","","","","","","1",""
"","instructions","79","259918","0.0-40.0-1.0-0.0","88519589","wem/bandit_party_2","A3BSE5PUEKPTRU","either","6","1270","","","","","","","","","","","","","","","","","","","","","","","","","","","","","","","","","","","","","","","","","[{""page_index"":0,""viewing_time"":1270}]"
"","survey-multi-choice-replacement","80","264321","0.0-40.1-0.1","88519589","wem/bandit_party_2","A3BSE5PUEKPTRU","either","6","3385","","","","","","","","","","","","","","","","","","","","","","","","Equal amounts of money will be added to the pool for <span style='color:red;'>REPUBLICANS</span> and subtracted from the pool for <span style='color:blue;'>DEMOCRATS</span>","","","","","","","attn_check","","","","","","","","","2",""
"","survey-multi-choice-replacement","81","268992","0.0-41.0-0.0","88519589","wem/bandit_party_2","A3BSE5PUEKPTRU","either","6","3646","","","","","","","","","","","","","","","","","","","","","","","","No money will be added to either pool","","","","","","","attn_check","","","","","","","","","3",""
"","bandit","82","275685","0.0-42.0-0.0","88519589","wem/bandit_party_2","A3BSE5PUEKPTRU","either","6","4176","","","","","","","1","0","0","0.1947351938","","0.8","0.2","0.4","0.6","","","","","0.1947351938","0.7197236342","0.2309914537","0.3049938501","","","","","","","","","","72","H","0","img/none_selected.jpg","","1","main_expt","",""
"","bandit","83","279314","0.0-43.0-0.0","88519589","wem/bandit_party_2","A3BSE5PUEKPTRU","either","6","2112","","","","","","","0","0","1","0.1865171684","","0.8","0.2","0.4","0.6","","","","","0.1865171684","0.7453792406","0.2351366282","0.3105507028","","","","","","","","","","72","H","0","img/none_selected.jpg","","2","main_expt","",""
"","bandit","84","281358","0.0-44.0-0.0","88519589","wem/bandit_party_2","A3BSE5PUEKPTRU","either","6","529","","","","","","","0","0","1","","0.1578482069","0.8","0.2","0.4","0.6","0.1578482069","0.7422746785","0.3338792953","0.347932066","","","","","","","","","","","","","","72","H","0","img/none_selected.jpg","","3","main_expt","",""
"","bandit","85","283135","0.0-45.0-0.0","88519589","wem/bandit_party_2","A3BSE5PUEKPTRU","either","6","261","","","","","","","0","1","0","","0.8152876082","0.8","0.2","0.4","0.6","0.1733557992","0.8152876082","0.2578124611","0.294099503","","","","","","","","","","","","","","74","J","1","","","4","main_expt","",""
"","bandit","86","284999","0.0-46.0-0.0","88519589","wem/bandit_party_2","A3BSE5PUEKPTRU","either","6","347","","","","","","","0","1","0","","0.8494846052","0.8","0.2","0.4","0.6","0.1275681293","0.8494846052","0.152782507","0.256228135","","","","","","","","","","","","","","74","J","1","","","5","main_expt","",""
"","bandit","87","287000","0.0-47.0-0.0","88519589","wem/bandit_party_2","A3BSE5PUEKPTRU","either","6","487","","","","","","","0","1","0","","0.8036792828","0.8","0.2","0.4","0.6","0.1776351543","0.8036792828","0.200224935","0.3142053347","","","","","","","","","","","","","","74","J","1","","","6","main_expt","",""
"","bandit","88","288814","0.0-48.0-0.0","88519589","wem/bandit_party_2","A3BSE5PUEKPTRU","either","6","292","","","","","","","0","0","1","0.8659664865","","0.8","0.2","0.4","0.6","","","","","0.1412615145","0.8659664865","0.2200442108","0.2382568898","","","","","","","","","","74","J","1","","","7","main_expt","",""
"","bandit","89","290649","0.0-49.0-0.0","88519589","wem/bandit_party_2","A3BSE5PUEKPTRU","either","6","321","","","","","","","0","0","1","","0.1516915951","0.8","0.2","0.4","0.6","0.1508054742","0.8475436228","0.1516915951","0.220471749","","","","","","","","","","","","","","75","K","2","","","8","main_expt","",""
"","bandit","90","292821","0.0-50.0-0.0","88519589","wem/bandit_party_2","A3BSE5PUEKPTRU","either","6","655","","","","","","","0","0","1","","0.1468829212","0.8","0.2","0.4","0.6","0.1882404854","0.8034999265","0.1468829212","0.2842820234","","","","","","","","","","","","","","75","K","2","","","9","main_expt","",""
"","bandit","91","294600","0.0-51.0-0.0","88519589","wem/bandit_party_2","A3BSE5PUEKPTRU","either","6","264","","","","","","","0","0","1","","0.3392415315","0.8","0.2","0.4","0.6","0.1731305678","0.7148412232","0.1507643719","0.3392415315","","","","","","","","","","","","","","76","L","3","","","10","main_expt","",""
"","bandit","92","296381","0.0-52.0-0.0","88519589","wem/bandit_party_2","A3BSE5PUEKPTRU","either","6","265","","","","","","","0","0","1","0.2475279461","","0.8","0.2","0.4","0.6","","","","","0.2475279461","0.7213030285","0.18301","0.4470346709","","","","","","","","","","72","H","0","img/none_selected.jpg","","11","main_expt","",""
"","bandit","93","298159","0.0-53.0-0.0","88519589","wem/bandit_party_2","A3BSE5PUEKPTRU","either","6","260","","","","","","","1","0","0","0.7396148754","","0.8","0.2","0.4","0.6","","","","","0.2068792089","0.7396148754","0.209562337","0.5143820195","","","","","","","","","","74","J","1","","","12","main_expt","",""
"","bandit","94","300058","0.0-54.0-0.0","88519589","wem/bandit_party_2","A3BSE5PUEKPTRU","either","6","383","","","","","","","0","1","0","","0.6870781676","0.8","0.2","0.4","0.6","0.1594062408","0.6870781676","0.2133897639","0.4934308908","","","","","","","","","","","","","","74","J","1","","","13","main_expt","",""
"","bandit","95","302419","0.0-55.0-0.0","88519589","wem/bandit_party_2","A3BSE5PUEKPTRU","either","6","844","","","","","","","0","1","0","","0.6561171826","0.8","0.2","0.4","0.6","0.1808320347","0.6561171826","0.1865122749","0.5884397519","","","","","","","","","","","","","","74","J","1","","","14","main_expt","",""
"","bandit","96","304801","0.0-56.0-0.0","88519589","wem/bandit_party_2","A3BSE5PUEKPTRU","either","6","865","","","","","","","0","0","1","","0.6255101569","0.8","0.2","0.4","0.6","0.2401125286","0.6255101569","0.3169691733","0.425765204","","","","","","","","","","","","","","74","J","1","","","15","main_expt","",""
"","bandit","97","306679","0.0-57.0-0.0","88519589","wem/bandit_party_2","A3BSE5PUEKPTRU","either","6","363","","","","","","","0","1","0","","0.6101220295","0.8","0.2","0.4","0.6","0.1823220599","0.6101220295","0.3927767979","0.4458974369","","","","","","","","","","","","","","74","J","1","","","16","main_expt","",""
"","bandit","98","309286","0.0-58.0-0.0","88519589","wem/bandit_party_2","A3BSE5PUEKPTRU","either","6","1092","","","","","","","0","0","1","","0.6233337625","0.8","0.2","0.4","0.6","0.2076179308","0.6233337625","0.2882183284","0.4907358526","","","","","","","","","","","","","","74","J","1","","","17","main_expt","",""
"","bandit","99","310997","0.0-59.0-0.0","88519589","wem/bandit_party_2","A3BSE5PUEKPTRU","either","6","194","","","","","","","0","0","1","","0.2310064443","0.8","0.2","0.4","0.6","0.2310064443","0.598865074","0.3212622409","0.4895096529","","","","","","","","","","","","","","72","H","0","img/none_selected.jpg","","18","main_expt","",""
"","bandit","100","312767","0.0-60.0-0.0","88519589","wem/bandit_party_2","A3BSE5PUEKPTRU","either","6","255","","","","","","","0","0","1","","0.3678238944","0.8","0.2","0.4","0.6","0.1919199612","0.6318918302","0.3678238944","0.5437378015","","","","","","","","","","","","","","75","K","2","","","19","main_expt","",""
"","bandit","101","314304","0.0-61.0-0.0","88519589","wem/bandit_party_2","A3BSE5PUEKPTRU","either","6","20","","","","","","","0","1","0","","0.543071052","0.8","0.2","0.4","0.6","0.2150176637","0.5667690756","0.4357360734","0.543071052","","","","","","","","","","","","","","76","L","3","","","20","main_expt","",""
"","bandit","102","316231","0.0-62.0-0.0","88519589","wem/bandit_party_2","A3BSE5PUEKPTRU","either","6","410","","","","","","","0","1","0","","0.5457928974","0.8","0.2","0.4","0.6","0.2980309021","0.6364396753","0.4486518506","0.5457928974","","","","","","","","","","","","","","76","L","3","","","21","main_expt","",""
"","bandit","103","318032","0.0-63.0-0.0","88519589","wem/bandit_party_2","A3BSE5PUEKPTRU","either","6","283","","","","","","","0","0","1","0.4531799458","","0.8","0.2","0.4","0.6","","","","","0.3238742104","0.5563436533","0.5145372488","0.4531799458","","","","","","","","","","76","L","3","","","22","main_expt","",""
"","bandit","104","319850","0.0-64.0-0.0","88519589","wem/bandit_party_2","A3BSE5PUEKPTRU","either","6","301","","","","","","","0","0","1","","0.4555064456","0.8","0.2","0.4","0.6","0.4158928209","0.4555064456","0.6324996067","0.4321579995","","","","","","","","","","","","","","74","J","1","","","23","main_expt","",""
"","bandit","105","321742","0.0-65.0-0.0","88519589","wem/bandit_party_2","A3BSE5PUEKPTRU","either","6","377","","","","","","","1","0","0","0.2798670784","","0.8","0.2","0.4","0.6","","","","","0.2798670784","0.4398961724","0.6665025749","0.3892872195","","","","","","","","","","72","H","0","img/none_selected.jpg","","24","main_expt","",""
"","bandit","106","323529","0.0-66.0-0.0","88519589","wem/bandit_party_2","A3BSE5PUEKPTRU","either","6","271","","","","","","","0","0","1","0.3932164435","","0.8","0.2","0.4","0.6","","","","","0.3932164435","0.3810464824","0.5316582614","0.4322880781","","","","","","","","","","72","H","0","img/none_selected.jpg","","25","main_expt","",""
"","bandit","107","325300","0.0-67.0-0.0","88519589","wem/bandit_party_2","A3BSE5PUEKPTRU","either","6","255","","","","","","","0","0","1","0.4282094451","","0.8","0.2","0.4","0.6","","","","","0.3243459504","0.451695138","0.4282094451","0.4560392573","","","","","","","","","","75","K","2","","","26","main_expt","",""
"","bandit","108","327128","0.0-68.0-0.0","88519589","wem/bandit_party_2","A3BSE5PUEKPTRU","either","6","313","","","","","","","0","0","1","","0.4423729324","0.8","0.2","0.4","0.6","0.4266302179","0.4423729324","0.4711380508","0.5372901799","","","","","","","","","","","","","","74","J","1","","","27","main_expt","",""
"","bandit","109","328893","0.0-69.0-0.0","88519589","wem/bandit_party_2","A3BSE5PUEKPTRU","either","6","248","","","","","","","1","0","0","0.6619872032","","0.8","0.2","0.4","0.6","","","","","0.4206607535","0.4221124674","0.4539290932","0.6619872032","","","","","","","","","","76","L","3","","","28","main_expt","",""
"","bandit","110","330642","0.0-70.0-0.0","88519589","wem/bandit_party_2","A3BSE5PUEKPTRU","either","6","234","","","","","","","0","0","1","0.5939885142","","0.8","0.2","0.4","0.6","","","","","0.440099583","0.489207998","0.4378511583","0.5939885142","","","","","","","","","","76","L","3","","","29","main_expt","",""
"","bandit","111","332833","0.0-71.0-0.0","88519589","wem/bandit_party_2","A3BSE5PUEKPTRU","either","6","675","","","","","","","0","0","1","0.5602145404","","0.8","0.2","0.4","0.6","","","","","0.3982168329","0.4406356357","0.3425428874","0.5602145404","","","","","","","","","","76","L","3","","","30","main_expt","",""
"","bandit","112","334600","0.0-72.0-0.0","88519589","wem/bandit_party_2","A3BSE5PUEKPTRU","either","6","249","","","","","","","0","0","1","0.3573437221","","0.8","0.2","0.4","0.6","","","","","0.3573437221","0.484130952","0.2354865125","0.5376870091","","","","","","","","","","72","H","0","img/none_selected.jpg","","31","main_expt","",""
"","bandit","113","336544","0.0-73.0-0.0","88519589","wem/bandit_party_2","A3BSE5PUEKPTRU","either","6","426","","","","","","","0","0","1","0.432294219","","0.8","0.2","0.4","0.6","","","","","0.3712986889","0.432294219","0.2552437171","0.6346195819","","","","","","","","","","74","J","1","","","32","main_expt","",""
"","bandit","114","338063","0.0-74.0-0.0","88519589","wem/bandit_party_2","A3BSE5PUEKPTRU","either","6","2","","","","","","","0","1","0","","0.2470382599","0.8","0.2","0.4","0.6","0.45096985","0.4821309474","0.2470382599","0.7540961955","","","","","","","","","","","","","","75","K","2","","","33","main_expt","",""
"","bandit","115","339866","0.0-75.0-0.0","88519589","wem/bandit_party_2","A3BSE5PUEKPTRU","either","6","285","","","","","","","0","0","1","0.2951894024","","0.8","0.2","0.4","0.6","","","","","0.5559331637","0.4702474349","0.2951894024","0.699797925","","","","","","","","","","75","K","2","","","34","main_expt","",""
"","bandit","116","341748","0.0-76.0-0.0","88519589","wem/bandit_party_2","A3BSE5PUEKPTRU","either","6","372","","","","","","","0","0","1","","0.7354386419","0.8","0.2","0.4","0.6","0.7354386419","0.5363697359","0.2596626779","0.7410295452","","","","","","","","","","","","","","72","H","0","img/none_selected.jpg","","35","main_expt","",""
"","bandit","117","343870","0.0-77.0-0.0","88519589","wem/bandit_party_2","A3BSE5PUEKPTRU","either","6","606","","","","","","","0","1","0","","0.602250539","0.8","0.2","0.4","0.6","0.6934166837","0.602250539","0.3164764808","0.7332281969","","","","","","","","","","","","","","74","J","1","","","36","main_expt","",""
"","bandit","118","346645","0.0-78.0-0.0","88519589","wem/bandit_party_2","A3BSE5PUEKPTRU","either","6","1258","","","","","","","0","1","0","","0.5337433964","0.8","0.2","0.4","0.6","0.6311869688","0.5337433964","0.3672962009","0.736713329","","","","","","","","","","","","","","74","J","1","","","37","main_expt","",""
"","bandit","119","348566","0.0-79.0-0.0","88519589","wem/bandit_party_2","A3BSE5PUEKPTRU","either","6","402","","","","","","","0","1","0","","0.5970413872","0.8","0.2","0.4","0.6","0.6583504975","0.5970413872","0.4056598401","0.6860808007","","","","","","","","","","","","","","74","J","1","","","38","main_expt","",""
"","bandit","120","350388","0.0-80.0-0.0","88519589","wem/bandit_party_2","A3BSE5PUEKPTRU","either","6","305","","","","","","","0","0","1","","0.6529448079","0.8","0.2","0.4","0.6","0.5861321806","0.6529448079","0.4236995386","0.7498761973","","","","","","","","","","","","","","74","J","1","","","39","main_expt","",""
"","bandit","121","351965","0.0-81.0-0.0","88519589","wem/bandit_party_2","A3BSE5PUEKPTRU","either","6","59","","","","","","","0","1","0","","0.7043283504","0.8","0.2","0.4","0.6","0.4892836735","0.6612991154","0.4365163158","0.7043283504","","","","","","","","","","","","","","76","L","3","","","40","main_expt","",""
"","bandit","122","353749","0.0-82.0-0.0","88519589","wem/bandit_party_2","A3BSE5PUEKPTRU","either","6","266","","","","","","","1","0","0","0.6469690382","","0.8","0.2","0.4","0.6","","","","","0.3479900608","0.7390431107","0.4854269132","0.6469690382","","","","","","","","","","76","L","3","","","41","main_expt","",""
"","bandit","123","356025","0.0-83.0-0.0","88519589","wem/bandit_party_2","A3BSE5PUEKPTRU","either","6","757","","","","","","","0","1","0","","0.6388905256","0.8","0.2","0.4","0.6","0.376709287","0.7609423287","0.4753587859","0.6388905256","","","","","","","","","","","","","","76","L","3","","","42","main_expt","",""
"","bandit","124","357905","0.0-84.0-0.0","88519589","wem/bandit_party_2","A3BSE5PUEKPTRU","either","6","360","","","","","","","0","0","1","0.6383372244","","0.8","0.2","0.4","0.6","","","","","0.4319300722","0.8039673949","0.452202747","0.6383372244","","","","","","","","","","76","L","3","","","43","main_expt","",""
"","bandit","125","359818","0.0-85.0-0.0","88519589","wem/bandit_party_2","A3BSE5PUEKPTRU","either","6","393","","","","","","","1","0","0","0.5522191005","","0.8","0.2","0.4","0.6","","","","","0.4458636389","0.8216753652","0.5522191005","0.6247854939","","","","","","","","","","75","K","2","","","44","main_expt","",""
"","bandit","126","361787","0.0-86.0-0.0","88519589","wem/bandit_party_2","A3BSE5PUEKPTRU","either","6","451","","","","","","","0","0","1","","0.4878962787","0.8","0.2","0.4","0.6","0.4323480181","0.7636866317","0.4878962787","0.6341880498","","","","","","","","","","","","","","75","K","2","","","45","main_expt","",""
"","bandit","127","363554","0.0-87.0-0.0","88519589","wem/bandit_party_2","A3BSE5PUEKPTRU","either","6","249","","","","","","","0","1","0","","0.8203755575","0.8","0.2","0.4","0.6","0.4348202433","0.8203755575","0.487595293","0.5081310512","","","","","","","","","","","","","","74","J","1","","","46","main_expt","",""
"","bandit","128","365889","0.0-88.0-0.0","88519589","wem/bandit_party_2","A3BSE5PUEKPTRU","either","6","818","","","","","","","0","1","0","","0.8706375764","0.8","0.2","0.4","0.6","0.3430847618","0.8706375764","0.444754188","0.4202927251","","","","","","","","","","","","","","74","J","1","","","47","main_expt","",""
"","bandit","129","369752","0.0-89.0-0.0","88519589","wem/bandit_party_2","A3BSE5PUEKPTRU","either","6","2345","","","","","","","1","0","0","0.8019506245","","0.8","0.2","0.4","0.6","","","","","0.2601977795","0.8019506245","0.5044276746","0.4767868938","","","","","","","","","","74","J","1","","","48","main_expt","",""
"","bandit","130","373734","0.0-90.0-0.0","88519589","wem/bandit_party_2","A3BSE5PUEKPTRU","either","6","2465","","","","","","","0","1","0","","0.7331224435","0.8","0.2","0.4","0.6","0.2368144698","0.7331224435","0.3766714482","0.3749468019","","","","","","","","","","","","","","74","J","1","","","49","main_expt","",""
"","bandit","131","375548","0.0-91.0-0.0","88519589","wem/bandit_party_2","A3BSE5PUEKPTRU","either","6","295","","","","","","","0","0","1","","0.7908344101","0.8","0.2","0.4","0.6","0.2484527115","0.7908344101","0.406992786","0.3532902347","","","","","","","","","","","","","","74","J","1","","","50","main_expt","",""
"","bandit","132","377189","0.0-92.0-0.0","88519589","wem/bandit_party_2","A3BSE5PUEKPTRU","either","6","122","","","","","","","1","0","0","0.230268934","","0.8","0.2","0.4","0.6","","","","","0.230268934","0.7922828235","0.3854505747","0.2413466802","","","","","","","","","","72","H","0","img/none_selected.jpg","","51","main_expt","",""
"","bandit","133","379056","0.0-93.0-0.0","88519589","wem/bandit_party_2","A3BSE5PUEKPTRU","either","6","347","","","","","","","0","0","1","0.3429002399","","0.8","0.2","0.4","0.6","","","","","0.3429002399","0.7485378942","0.3956915145","0.2673723166","","","","","","","","","","72","H","0","img/none_selected.jpg","","52","main_expt","",""
"","bandit","134","380848","0.0-94.0-0.0","88519589","wem/bandit_party_2","A3BSE5PUEKPTRU","either","6","275","","","","","","","1","0","0","0.2871029552","","0.8","0.2","0.4","0.6","","","","","0.2871029552","0.6603794952","0.3062348001","0.2806035608","","","","","","","","","","72","H","0","img/none_selected.jpg","","53","main_expt","",""
"","bandit","135","382627","0.0-95.0-0.0","88519589","wem/bandit_party_2","A3BSE5PUEKPTRU","either","6","260","","","","","","","0","1","0","","0.2594444468","0.8","0.2","0.4","0.6","0.2594444468","0.6931449795","0.2996500993","0.2544312064","","","","","","","","","","","","","","72","H","0","img/none_selected.jpg","","54","main_expt","",""
"","bandit","136","384472","0.0-96.0-0.0","88519589","wem/bandit_party_2","A3BSE5PUEKPTRU","either","6","326","","","","","","","0","0","1","0.3333749245","","0.8","0.2","0.4","0.6","","","","","0.3333749245","0.7553272845","0.2518247787","0.3362815808","","","","","","","","","","72","H","0","img/none_selected.jpg","","55","main_expt","",""
"","bandit","137","386509","0.0-97.0-0.0","88519589","wem/bandit_party_2","A3BSE5PUEKPTRU","either","6","518","","","","","","","0","1","0","","0.7231548626","0.8","0.2","0.4","0.6","0.3049104067","0.7231548626","0.3014763065","0.3798256012","","","","","","","","","","","","","","74","J","1","","","56","main_expt","",""
"","bandit","138","388880","0.0-98.0-0.0","88519589","wem/bandit_party_2","A3BSE5PUEKPTRU","either","6","853","","","","","","","0","1","0","","0.7485901337","0.8","0.2","0.4","0.6","0.3623273811","0.7485901337","0.2730843718","0.3989549393","","","","","","","","","","","","","","74","J","1","","","57","main_expt","",""
"","bandit","139","390622","0.0-99.0-0.0","88519589","wem/bandit_party_2","A3BSE5PUEKPTRU","either","6","223","","","","","","","0","1","0","","0.797082508","0.8","0.2","0.4","0.6","0.3621169042","0.797082508","0.367239041","0.3373398956","","","","","","","","","","","","","","74","J","1","","","58","main_expt","",""
"","bandit","140","392476","0.0-100.0-0.0","88519589","wem/bandit_party_2","A3BSE5PUEKPTRU","either","6","336","","","","","","","0","1","0","","0.7466963627","0.8","0.2","0.4","0.6","0.3672848169","0.7466963627","0.4005220403","0.3381045731","","","","","","","","","","","","","","74","J","1","","","59","main_expt","",""
"","bandit","141","394345","0.0-101.0-0.0","88519589","wem/bandit_party_2","A3BSE5PUEKPTRU","either","6","352","","","","","","","0","0","1","","0.6359615323","0.8","0.2","0.4","0.6","0.5123874715","0.6359615323","0.4863912708","0.4838111383","","","","","","","","","","","","","","74","J","1","","","60","main_expt","",""
"","bandit","142","395906","0.0-102.0-0.0","88519589","wem/bandit_party_2","A3BSE5PUEKPTRU","either","6","43","","","","","","","0","0","1","","0.5220595343","0.8","0.2","0.4","0.6","0.5218319631","0.7125939799","0.5220595343","0.4290776342","","","","","","","","","","","","","","75","K","2","","","61","main_expt","",""
"","bandit","143","397775","0.0-103.0-0.0","88519589","wem/bandit_party_2","A3BSE5PUEKPTRU","either","6","350","","","","","","","1","0","0","0.4387439774","","0.8","0.2","0.4","0.6","","","","","0.6482151027","0.5978650666","0.5447889898","0.4387439774","","","","","","","","","","76","L","3","","","62","main_expt","",""
"","bandit","144","399615","0.0-104.0-0.0","88519589","wem/bandit_party_2","A3BSE5PUEKPTRU","either","6","319","","","","","","","1","0","0","0.3670418014","","0.8","0.2","0.4","0.6","","","","","0.6966290852","0.5166338879","0.5517390004","0.3670418014","","","","","","","","","","76","L","3","","","63","main_expt","",""
"","bandit","145","401407","0.0-105.0-0.0","88519589","wem/bandit_party_2","A3BSE5PUEKPTRU","either","6","273","","","","","","","0","0","1","0.3470393933","","0.8","0.2","0.4","0.6","","","","","0.6497033777","0.4901650138","0.6576188384","0.3470393933","","","","","","","","","","76","L","3","","","64","main_expt","",""
"","bandit","146","403042","0.0-106.0-0.0","88519589","wem/bandit_party_2","A3BSE5PUEKPTRU","either","6","114","","","","","","","1","0","0","0.6925184903","","0.8","0.2","0.4","0.6","","","","","0.6925184903","0.459365688","0.5156176703","0.3361574661","","","","","","","","","","72","H","0","img/none_selected.jpg","","65","main_expt","",""
"","bandit","147","405034","0.0-107.0-0.0","88519589","wem/bandit_party_2","A3BSE5PUEKPTRU","either","6","473","","","","","","","1","0","0","0.8298767513","","0.8","0.2","0.4","0.6","","","","","0.8298767513","0.4666104807","0.3851410914","0.34308242","","","","","","","","","","72","H","0","img/none_selected.jpg","","66","main_expt","",""
"","bandit","148","406876","0.0-108.0-0.0","88519589","wem/bandit_party_2","A3BSE5PUEKPTRU","either","6","324","","","","","","","1","0","0","0.8506596021","","0.8","0.2","0.4","0.6","","","","","0.8506596021","0.5547259005","0.3925250542","0.3730603492","","","","","","","","","","72","H","0","img/none_selected.jpg","","67","main_expt","",""
"","bandit","149","408660","0.0-109.0-0.0","88519589","wem/bandit_party_2","A3BSE5PUEKPTRU","either","6","266","","","","","","","1","0","0","0.8536910832","","0.8","0.2","0.4","0.6","","","","","0.8536910832","0.6038719492","0.3884113518","0.4089949532","","","","","","","","","","72","H","0","img/none_selected.jpg","","68","main_expt","",""
"","bandit","150","410508","0.0-110.0-0.0","88519589","wem/bandit_party_2","A3BSE5PUEKPTRU","either","6","328","","","","","","","1","0","0","0.8642538991","","0.8","0.2","0.4","0.6","","","","","0.8642538991","0.6148283845","0.3434478979","0.3749002533","","","","","","","","","","72","H","0","img/none_selected.jpg","","69","main_expt","",""
"","bandit","151","412304","0.0-111.0-0.0","88519589","wem/bandit_party_2","A3BSE5PUEKPTRU","either","6","276","","","","","","","1","0","0","0.8073802352","","0.8","0.2","0.4","0.6","","","","","0.8073802352","0.6683283761","0.4426642051","0.4133869845","","","","","","","","","","72","H","0","img/none_selected.jpg","","70","main_expt","",""
"","bandit","152","414083","0.0-112.0-0.0","88519589","wem/bandit_party_2","A3BSE5PUEKPTRU","either","6","260","","","","","","","0","0","1","0.8059201048","","0.8","0.2","0.4","0.6","","","","","0.8059201048","0.738459761","0.4518046004","0.3302164541","","","","","","","","","","72","H","0","img/none_selected.jpg","","71","main_expt","",""
"","bandit","153","415836","0.0-113.0-0.0","88519589","wem/bandit_party_2","A3BSE5PUEKPTRU","either","6","234","","","","","","","0","1","0","","0.6525166508","0.8","0.2","0.4","0.6","0.8262275011","0.6525166508","0.4903223245","0.2570952275","","","","","","","","","","","","","","74","J","1","","","72","main_expt","",""
"","bandit","154","418504","0.0-114.0-0.0","88519589","wem/bandit_party_2","A3BSE5PUEKPTRU","either","6","1149","","","","","","","0","0","1","0.7334390718","","0.8","0.2","0.4","0.6","","","","","0.7334390718","0.5715134512","0.5296083002","0.2042885023","","","","","","","","","","72","H","0","img/none_selected.jpg","","73","main_expt","",""
"","bandit","155","420222","0.0-115.0-0.0","88519589","wem/bandit_party_2","A3BSE5PUEKPTRU","either","6","198","","","","","","","0","0","1","0.6228045854","","0.8","0.2","0.4","0.6","","","","","0.7490977197","0.6228045854","0.4883026933","0.2152837516","","","","","","","","","","74","J","1","","","74","main_expt","",""
"","bandit","156","421953","0.0-116.0-0.0","88519589","wem/bandit_party_2","A3BSE5PUEKPTRU","either","6","212","","","","","","","0","0","1","0.4914171484","","0.8","0.2","0.4","0.6","","","","","0.7554087461","0.613630376","0.4914171484","0.2044775694","","","","","","","","","","75","K","2","","","75","main_expt","",""
"","bandit","157","423879","0.0-117.0-0.0","88519589","wem/bandit_party_2","A3BSE5PUEKPTRU","either","6","405","","","","","","","0","0","1","","0.2247613499","0.8","0.2","0.4","0.6","0.804443878","0.7047266053","0.6059218973","0.2247613499","","","","","","","","","","","","","","76","L","3","","","76","main_expt","",""
"","bandit","158","425477","0.0-118.0-0.0","88519589","wem/bandit_party_2","A3BSE5PUEKPTRU","either","6","77","","","","","","","0","1","0","","0.6656620098","0.8","0.2","0.4","0.6","0.6656620098","0.6910360943","0.553792366","0.2266335256","","","","","","","","","","","","","","72","H","0","img/none_selected.jpg","","77","main_expt","",""
"","bandit","159","427248","0.0-119.0-0.0","88519589","wem/bandit_party_2","A3BSE5PUEKPTRU","either","6","250","","","","","","","1","0","0","0.5898140708","","0.8","0.2","0.4","0.6","","","","","0.5898140708","0.5515992215","0.6884193839","0.1659731505","","","","","","","","","","72","H","0","img/none_selected.jpg","","78","main_expt","",""
"","bandit","160","429153","0.0-120.0-0.0","88519589","wem/bandit_party_2","A3BSE5PUEKPTRU","either","6","386","","","","","","","0","0","1","0.613215191","","0.8","0.2","0.4","0.6","","","","","0.613215191","0.6448399581","0.7214277645","0.2343921172","","","","","","","","","","72","H","0","img/none_selected.jpg","","79","main_expt","",""
"","bandit","161","431108","0.0-121.0-0.0","88519589","wem/bandit_party_2","A3BSE5PUEKPTRU","either","6","435","","","","","","","0","1","0","","0.739479497","0.8","0.2","0.4","0.6","0.4605925783","0.739479497","0.7328142644","0.2164054515","","","","","","","","","","","","","","74","J","1","","","80","main_expt","",""
"","bandit","162","432958","0.0-122.0-0.0","88519589","wem/bandit_party_2","A3BSE5PUEKPTRU","either","6","332","","","","","","","0","0","1","","0.6956071838","0.8","0.2","0.4","0.6","0.5390789087","0.6956071838","0.7101675561","0.1361232007","","","","","","","","","","","","","","74","J","1","","","81","main_expt","",""
"","bandit","163","434748","0.0-123.0-0.0","88519589","wem/bandit_party_2","A3BSE5PUEKPTRU","either","6","270","","","","","","","0","0","1","","0.621290364","0.8","0.2","0.4","0.6","0.621290364","0.5886517937","0.6984384541","0.2275447725","","","","","","","","","","","","","","72","H","0","img/none_selected.jpg","","82","main_expt","",""
"","bandit","164","436547","0.0-124.0-0.0","88519589","wem/bandit_party_2","A3BSE5PUEKPTRU","either","6","279","","","","","","","1","0","0","0.6359424421","","0.8","0.2","0.4","0.6","","","","","0.6359424421","0.4764182235","0.7447883659","0.1900607051","","","","","","","","","","72","H","0","img/none_selected.jpg","","83","main_expt","",""
"","bandit","165","438382","0.0-125.0-0.0","88519589","wem/bandit_party_2","A3BSE5PUEKPTRU","either","6","317","","","","","","","0","1","0","","0.6133664729","0.8","0.2","0.4","0.6","0.6133664729","0.5149027494","0.6900592863","0.1306868958","","","","","","","","","","","","","","72","H","0","img/none_selected.jpg","","84","main_expt","",""
"","bandit","166","440258","0.0-126.0-0.0","88519589","wem/bandit_party_2","A3BSE5PUEKPTRU","either","6","357","","","","","","","0","1","0","","0.7815463305","0.8","0.2","0.4","0.6","0.7815463305","0.4908067213","0.7010597455","0.1683201849","","","","","","","","","","","","","","72","H","0","img/none_selected.jpg","","85","main_expt","",""
"","bandit","167","442212","0.0-127.0-0.0","88519589","wem/bandit_party_2","A3BSE5PUEKPTRU","either","6","433","","","","","","","1","0","0","0.7355789231","","0.8","0.2","0.4","0.6","","","","","0.7355789231","0.4139472458","0.6171062652","0.1290314955","","","","","","","","","","72","H","0","img/none_selected.jpg","","86","main_expt","",""
"","bandit","168","444396","0.0-128.0-0.0","88519589","wem/bandit_party_2","A3BSE5PUEKPTRU","either","6","664","","","","","","","0","0","1","0.7267399876","","0.8","0.2","0.4","0.6","","","","","0.7267399876","0.4253818619","0.5629375242","0.2297537383","","","","","","","","","","72","H","0","img/none_selected.jpg","","87","main_expt","",""
"","bandit","169","446152","0.0-129.0-0.0","88519589","wem/bandit_party_2","A3BSE5PUEKPTRU","either","6","234","","","","","","","0","0","1","","0.4448862761","0.8","0.2","0.4","0.6","0.7703195612","0.4448862761","0.6434443074","0.1878263516","","","","","","","","","","","","","","74","J","1","","","88","main_expt","",""
"","bandit","170","447949","0.0-130.0-0.0","88519589","wem/bandit_party_2","A3BSE5PUEKPTRU","either","6","276","","","","","","","1","0","0","0.81872988","","0.8","0.2","0.4","0.6","","","","","0.81872988","0.4295642349","0.7296698787","0.1896964823","","","","","","","","","","72","H","0","img/none_selected.jpg","","89","main_expt","",""
"","bandit","171","449823","0.0-131.0-0.0","88519589","wem/bandit_party_2","A3BSE5PUEKPTRU","either","6","355","","","","","","","0","0","1","","0.8032570632","0.8","0.2","0.4","0.6","0.8032570632","0.3655203192","0.7042864347","0.1614970172","","","","","","","","","","","","","","72","H","0","img/none_selected.jpg","","90","main_expt","",""
"","bandit","172","451367","0.0-132.0-0.0","88519589","wem/bandit_party_2","A3BSE5PUEKPTRU","either","6","18","","","","","","","0","1","0","","0.7606559624","0.8","0.2","0.4","0.6","0.8257352781","0.402428746","0.7606559624","0.2107705911","","","","","","","","","","","","","","75","K","2","","","91","main_expt","",""
"","bandit","173","453121","0.0-133.0-0.0","88519589","wem/bandit_party_2","A3BSE5PUEKPTRU","either","6","233","","","","","","","0","1","0","","0.8466818248","0.8","0.2","0.4","0.6","0.7762210657","0.452733603","0.8466818248","0.1317951273","","","","","","","","","","","","","","75","K","2","","","92","main_expt","",""
"","bandit","174","454972","0.0-134.0-0.0","88519589","wem/bandit_party_2","A3BSE5PUEKPTRU","either","6","331","","","","","","","0","1","0","","0.8181600593","0.8","0.2","0.4","0.6","0.8293629201","0.5416456901","0.8181600593","0.09268613222","","","","","","","","","","","","","","75","K","2","","","93","main_expt","",""
"","bandit","175","456754","0.0-135.0-0.0","88519589","wem/bandit_party_2","A3BSE5PUEKPTRU","either","6","260","","","","","","","1","0","0","0.7259749053","","0.8","0.2","0.4","0.6","","","","","0.7849393417","0.5246039132","0.7259749053","0.06418168538","","","","","","","","","","75","K","2","","","94","main_expt","",""
"","bandit","176","458627","0.0-136.0-0.0","88519589","wem/bandit_party_2","A3BSE5PUEKPTRU","either","6","354","","","","","","","0","1","0","","0.6538641892","0.8","0.2","0.4","0.6","0.7850226125","0.606801291","0.6538641892","0.100072779","","","","","","","","","","","","","","75","K","2","","","95","main_expt","",""
"","bandit","177","460962","0.0-137.0-0.0","88519589","wem/bandit_party_2","A3BSE5PUEKPTRU","either","6","815","","","","","","","1","0","0","0.6384360591","","0.8","0.2","0.4","0.6","","","","","0.8013150942","0.7175242067","0.6384360591","0.09628221604","","","","","","","","","","75","K","2","","","96","main_expt","",""
"","bandit","178","462731","0.0-138.0-0.0","88519589","wem/bandit_party_2","A3BSE5PUEKPTRU","either","6","250","","","","","","","0","1","0","","0.6836118029","0.8","0.2","0.4","0.6","0.70340399","0.7706560561","0.6836118029","0.1335622201","","","","","","","","","","","","","","75","K","2","","","97","main_expt","",""
"","bandit","179","464663","0.0-139.0-0.0","88519589","wem/bandit_party_2","A3BSE5PUEKPTRU","either","6","409","","","","","","","0","0","1","0.659457158","","0.8","0.2","0.4","0.6","","","","","0.7562517051","0.7234704616","0.659457158","0.167202632","","","","","","","","","","75","K","2","","","98","main_expt","",""
"","bandit","180","466497","0.0-140.0-0.0","88519589","wem/bandit_party_2","A3BSE5PUEKPTRU","either","6","310","","","","","","","0","0","1","","0.7726162223","0.8","0.2","0.4","0.6","0.6514659141","0.6582042781","0.7726162223","0.1216125457","","","","","","","","","","","","","","75","K","2","","","99","main_expt","",""
"","bandit","181","468312","0.0-141.0-0.0","88519589","wem/bandit_party_2","A3BSE5PUEKPTRU","either","6","294","","","","","","","0","0","1","0.1163239148","","0.8","0.2","0.4","0.6","","","","","0.7112237606","0.6530973887","0.8446518706","0.1163239148","","","","","","","","","","76","L","3","","","100","main_expt","",""
"","bandit","182","470082","0.0-142.0-0.0","88519589","wem/bandit_party_2","A3BSE5PUEKPTRU","either","6","248","","","","","","","0","0","1","","0.6690961394","0.8","0.2","0.4","0.6","0.6865981462","0.6690961394","0.8784151442","0.1037928869","","","","","","","","","","","","","","74","J","1","","","101","main_expt","",""
"","bandit","183","471915","0.0-143.0-0.0","88519589","wem/bandit_party_2","A3BSE5PUEKPTRU","either","6","311","","","","","","","0","0","1","","0.8781202538","0.8","0.2","0.4","0.6","0.6663704066","0.6268844929","0.8781202538","0.0991068806","","","","","","","","","","","","","","75","K","2","","","102","main_expt","",""
"","bandit","184","473445","0.0-144.0-0.0","88519589","wem/bandit_party_2","A3BSE5PUEKPTRU","either","6","9","","","","","","","1","0","0","0.6006744832","","0.8","0.2","0.4","0.6","","","","","0.6006744832","0.6657789595","0.8123732176","0.1226752409","","","","","","","","","","72","H","0","img/none_selected.jpg","","103","main_expt","",""
"","bandit","185","475265","0.0-145.0-0.0","88519589","wem/bandit_party_2","A3BSE5PUEKPTRU","either","6","309","","","","","","","1","0","0","0.518723913","","0.8","0.2","0.4","0.6","","","","","0.518723913","0.6951589836","0.8461937008","0.1552466415","","","","","","","","","","72","H","0","img/none_selected.jpg","","104","main_expt","",""
"","bandit","186","477060","0.0-146.0-0.0","88519589","wem/bandit_party_2","A3BSE5PUEKPTRU","either","6","274","","","","","","","0","1","0","","0.5343999165","0.8","0.2","0.4","0.6","0.5343999165","0.6382729445","0.8664825842","0.1702138509","","","","","","","","","","","","","","72","H","0","img/none_selected.jpg","","105","main_expt","",""
"","bandit","187","478970","0.0-147.0-0.0","88519589","wem/bandit_party_2","A3BSE5PUEKPTRU","either","6","380","","","","","","","1","0","0","0.4959998489","","0.8","0.2","0.4","0.6","","","","","0.4959998489","0.7139624249","0.8703997655","0.2021425125","","","","","","","","","","72","H","0","img/none_selected.jpg","","106","main_expt","",""
"","bandit","188","480866","0.0-148.0-0.0","88519589","wem/bandit_party_2","A3BSE5PUEKPTRU","either","6","376","","","","","","","0","0","1","0.5052663648","","0.8","0.2","0.4","0.6","","","","","0.5052663648","0.7718136471","0.8964314806","0.2196373816","","","","","","","","","","72","H","0","img/none_selected.jpg","","107","main_expt","",""
"","bandit","189","482704","0.0-149.0-0.0","88519589","wem/bandit_party_2","A3BSE5PUEKPTRU","either","6","316","","","","","","","0","1","0","","0.8818715302","0.8","0.2","0.4","0.6","0.4859582203","0.8818715302","0.9080126319","0.2393661099","","","","","","","","","","","","","","74","J","1","","","108","main_expt","",""
"","bandit","190","484486","0.0-150.0-0.0","88519589","wem/bandit_party_2","A3BSE5PUEKPTRU","either","6","262","","","","","","","0","1","0","","0.8757741924","0.8","0.2","0.4","0.6","0.523617738","0.8757741924","0.8880845243","0.2516352594","","","","","","","","","","","","","","74","J","1","","","109","main_expt","",""
"","bandit","191","486273","0.0-151.0-0.0","88519589","wem/bandit_party_2","A3BSE5PUEKPTRU","either","6","268","","","","","","","0","1","0","","0.8657151097","0.8","0.2","0.4","0.6","0.5492010791","0.8657151097","0.899251136","0.2424291788","","","","","","","","","","","","","","74","J","1","","","110","main_expt","",""
"","bandit","192","488038","0.0-152.0-0.0","88519589","wem/bandit_party_2","A3BSE5PUEKPTRU","either","6","244","","","","","","","0","0","1","","0.8457624762","0.8","0.2","0.4","0.6","0.5467154696","0.8457624762","0.9019514556","0.2033086481","","","","","","","","","","","","","","74","J","1","","","111","main_expt","",""
"","bandit","193","489607","0.0-153.0-0.0","88519589","wem/bandit_party_2","A3BSE5PUEKPTRU","either","6","47","","","","","","","1","0","0","0.9315537639","","0.8","0.2","0.4","0.6","","","","","0.5396215981","0.8756116827","0.9315537639","0.208613213","","","","","","","","","","75","K","2","","","112","main_expt","",""
"","bandit","194","491570","0.0-154.0-0.0","88519589","wem/bandit_party_2","A3BSE5PUEKPTRU","either","6","442","","","","","","","1","0","0","0.9254394702","","0.8","0.2","0.4","0.6","","","","","0.5542875214","0.8773181328","0.9254394702","0.2743958833","","","","","","","","","","75","K","2","","","113","main_expt","",""
"","bandit","195","493565","0.0-155.0-0.0","88519589","wem/bandit_party_2","A3BSE5PUEKPTRU","either","6","474","","","","","","","0","1","0","","0.9394904604","0.8","0.2","0.4","0.6","0.6411428718","0.8842236373","0.9394904604","0.2657329006","","","","","","","","","","","","","","75","K","2","","","114","main_expt","",""
"","bandit","196","495416","0.0-156.0-0.0","88519589","wem/bandit_party_2","A3BSE5PUEKPTRU","either","6","329","","","","","","","0","1","0","","0.9533355239","0.8","0.2","0.4","0.6","0.7261400339","0.8499121835","0.9533355239","0.3234316928","","","","","","","","","","","","","","75","K","2","","","115","main_expt","",""
"","bandit","197","497361","0.0-157.0-0.0","88519589","wem/bandit_party_2","A3BSE5PUEKPTRU","either","6","425","","","","","","","1","0","0","0.960842596","","0.8","0.2","0.4","0.6","","","","","0.7395407697","0.7890056153","0.960842596","0.3625587123","","","","","","","","","","75","K","2","","","116","main_expt","",""
"","bandit","198","499225","0.0-158.0-0.0","88519589","wem/bandit_party_2","A3BSE5PUEKPTRU","either","6","342","","","","","","","0","1","0","","0.937733065","0.8","0.2","0.4","0.6","0.8231731708","0.7709890197","0.937733065","0.4946904956","","","","","","","","","","","","","","75","K","2","","","117","main_expt","",""
"","bandit","199","501063","0.0-159.0-0.0","88519589","wem/bandit_party_2","A3BSE5PUEKPTRU","either","6","317","","","","","","","0","1","0","","0.9561499645","0.8","0.2","0.4","0.6","0.8278750807","0.7459937787","0.9561499645","0.6246330079","","","","","","","","","","","","","","75","K","2","","","118","main_expt","",""
"","bandit","200","503082","0.0-160.0-0.0","88519589","wem/bandit_party_2","A3BSE5PUEKPTRU","either","6","496","","","","","","","0","1","0","","0.9595118281","0.8","0.2","0.4","0.6","0.8715827524","0.716881491","0.9595118281","0.5818097722","","","","","","","","","","","","","","75","K","2","","","119","main_expt","",""
"","bandit","201","504899","0.0-161.0-0.0","88519589","wem/bandit_party_2","A3BSE5PUEKPTRU","either","6","296","","","","","","","0","1","0","","0.9548463758","0.8","0.2","0.4","0.6","0.8522670476","0.6595649419","0.9548463758","0.5990025551","","","","","","","","","","","","","","75","K","2","","","120","main_expt","",""
"","bandit","202","506668","0.0-162.0-0.0","88519589","wem/bandit_party_2","A3BSE5PUEKPTRU","either","6","247","","","","","","","1","0","0","0.958085665","","0.8","0.2","0.4","0.6","","","","","0.8266542562","0.6576447048","0.958085665","0.6534424477","","","","","","","","","","75","K","2","","","121","main_expt","",""
"","bandit","203","508560","0.0-163.0-0.0","88519589","wem/bandit_party_2","A3BSE5PUEKPTRU","either","6","371","","","","","","","0","1","0","","0.9630601427","0.8","0.2","0.4","0.6","0.81688531","0.6391957719","0.9630601427","0.5952731017","","","","","","","","","","","","","","75","K","2","","","122","main_expt","",""
"","bandit","204","510481","0.0-164.0-0.0","88519589","wem/bandit_party_2","A3BSE5PUEKPTRU","either","6","407","","","","","","","0","1","0","","0.9790283764","0.8","0.2","0.4","0.6","0.8307363081","0.5873908865","0.9790283764","0.6469086187","","","","","","","","","","","","","","75","K","2","","","123","main_expt","",""
"","bandit","205","512345","0.0-165.0-0.0","88519589","wem/bandit_party_2","A3BSE5PUEKPTRU","either","6","343","","","","","","","0","1","0","","0.9718765302","0.8","0.2","0.4","0.6","0.6943824695","0.6592760984","0.9718765302","0.6911454426","","","","","","","","","","","","","","75","K","2","","","124","main_expt","",""
"","bandit","206","514213","0.0-166.0-0.0","88519589","wem/bandit_party_2","A3BSE5PUEKPTRU","either","6","347","","","","","","","1","0","0","0.9845173964","","0.8","0.2","0.4","0.6","","","","","0.7137568944","0.6012083746","0.9845173964","0.750572215","","","","","","","","","","75","K","2","","","125","main_expt","",""
"","bandit","207","516047","0.0-167.0-0.0","88519589","wem/bandit_party_2","A3BSE5PUEKPTRU","either","6","322","","","","","","","0","1","0","","0.9804670004","0.8","0.2","0.4","0.6","0.6878742658","0.6043440275","0.9804670004","0.8108432581","","","","","","","","","","","","","","75","K","2","","","126","main_expt","",""
"","bandit","208","517846","0.0-168.0-0.0","88519589","wem/bandit_party_2","A3BSE5PUEKPTRU","either","6","273","","","","","","","1","0","0","0.9792667249","","0.8","0.2","0.4","0.6","","","","","0.6175454059","0.5043142332","0.9792667249","0.8338196277","","","","","","","","","","75","K","2","","","127","main_expt","",""
"","bandit","209","519632","0.0-169.0-0.0","88519589","wem/bandit_party_2","A3BSE5PUEKPTRU","either","6","265","","","","","","","1","0","0","0.9853815399","","0.8","0.2","0.4","0.6","","","","","0.5556505876","0.5778209799","0.9853815399","0.8624128669","","","","","","","","","","75","K","2","","","128","main_expt","",""
"","bandit","210","521241","0.0-170.0-0.0","88519589","wem/bandit_party_2","A3BSE5PUEKPTRU","either","6","86","","","","","","","1","0","0","0.9838319732","","0.8","0.2","0.4","0.6","","","","","0.5948532478","0.5806273004","0.9838319732","0.9026068167","","","","","","","","","","75","K","2","","","129","main_expt","",""
"","bandit","211","523181","0.0-171.0-0.0","88519589","wem/bandit_party_2","A3BSE5PUEKPTRU","either","6","420","","","","","","","0","1","0","","0.9798768453","0.8","0.2","0.4","0.6","0.6646968067","0.4152233618","0.9798768453","0.8983636673","","","","","","","","","","","","","","75","K","2","","","130","main_expt","",""
"","bandit","212","525163","0.0-172.0-0.0","88519589","wem/bandit_party_2","A3BSE5PUEKPTRU","either","6","460","","","","","","","0","1","0","","0.9628017066","0.8","0.2","0.4","0.6","0.6676177377","0.4527057242","0.9628017066","0.888478962","","","","","","","","","","","","","","75","K","2","","","131","main_expt","",""
"","bandit","213","526982","0.0-173.0-0.0","88519589","wem/bandit_party_2","A3BSE5PUEKPTRU","either","6","295","","","","","","","0","1","0","","0.9723970119","0.8","0.2","0.4","0.6","0.7638630926","0.5185753891","0.9723970119","0.8470567254","","","","","","","","","","","","","","75","K","2","","","132","main_expt","",""
"","bandit","214","528846","0.0-174.0-0.0","88519589","wem/bandit_party_2","A3BSE5PUEKPTRU","either","6","339","","","","","","","1","0","0","0.9754432393","","0.8","0.2","0.4","0.6","","","","","0.726350598","0.4567386081","0.9754432393","0.8852081265","","","","","","","","","","75","K","2","","","133","main_expt","",""
"","bandit","215","530665","0.0-175.0-0.0","88519589","wem/bandit_party_2","A3BSE5PUEKPTRU","either","6","297","","","","","","","1","0","0","0.9635376407","","0.8","0.2","0.4","0.6","","","","","0.7638059904","0.4494056808","0.9635376407","0.8317422298","","","","","","","","","","75","K","2","","","134","main_expt","",""
"","bandit","216","532720","0.0-176.0-0.0","88519589","wem/bandit_party_2","A3BSE5PUEKPTRU","either","6","532","","","","","","","1","0","0","0.9304273523","","0.8","0.2","0.4","0.6","","","","","0.7337835984","0.4608562393","0.9304273523","0.8121858422","","","","","","","","","","75","K","2","","","135","main_expt","",""
"","bandit","217","534783","0.0-177.0-0.0","88519589","wem/bandit_party_2","A3BSE5PUEKPTRU","either","6","540","","","","","","","0","1","0","","0.9295592062","0.8","0.2","0.4","0.6","0.7869055623","0.6684020244","0.9295592062","0.8473276522","","","","","","","","","","","","","","75","K","2","","","136","main_expt","",""
"","bandit","218","536969","0.0-178.0-0.0","88519589","wem/bandit_party_2","A3BSE5PUEKPTRU","either","6","663","","","","","","","1","0","0","0.9343332129","","0.8","0.2","0.4","0.6","","","","","0.8033651193","0.614137061","0.9343332129","0.8251243182","","","","","","","","","","75","K","2","","","137","main_expt","",""
"","bandit","219","538845","0.0-179.0-0.0","88519589","wem/bandit_party_2","A3BSE5PUEKPTRU","either","6","354","","","","","","","0","1","0","","0.9325781127","0.8","0.2","0.4","0.6","0.7620089345","0.711021659","0.9325781127","0.7892590299","","","","","","","","","","","","","","75","K","2","","","138","main_expt","",""
"","bandit","220","540714","0.0-180.0-0.0","88519589","wem/bandit_party_2","A3BSE5PUEKPTRU","either","6","346","","","","","","","1","0","0","0.9687763229","","0.8","0.2","0.4","0.6","","","","","0.8098853196","0.5731932267","0.9687763229","0.753698647","","","","","","","","","","75","K","2","","","139","main_expt","",""
"","bandit","221","542555","0.0-181.0-0.0","88519589","wem/bandit_party_2","A3BSE5PUEKPTRU","either","6","319","","","","","","","0","1","0","","0.9520204639","0.8","0.2","0.4","0.6","0.8737133651","0.6553783698","0.9520204639","0.7281837229","","","","","","","","","","","","","","75","K","2","","","140","main_expt","",""
"","bandit","222","544287","0.0-182.0-0.0","88519589","wem/bandit_party_2","A3BSE5PUEKPTRU","either","6","210","","","","","","","0","1","0","","0.9615613541","0.8","0.2","0.4","0.6","0.8464817719","0.5665224918","0.9615613541","0.7913145473","","","","","","","","","","","","","","75","K","2","","","141","main_expt","",""
"","bandit","223","546866","0.0-183.0-0.0","88519589","wem/bandit_party_2","A3BSE5PUEKPTRU","either","6","1057","","","","","","","1","0","0","0.9438722422","","0.8","0.2","0.4","0.6","","","","","0.8457688645","0.5230460729","0.9438722422","0.7498898283","","","","","","","","","","75","K","2","","","142","main_expt","",""
"","bandit","224","549499","0.0-184.0-0.0","88519589","wem/bandit_party_2","A3BSE5PUEKPTRU","either","6","1110","","","","","","","1","0","0","0.9419241064","","0.8","0.2","0.4","0.6","","","","","0.8801682128","0.5401897842","0.9419241064","0.723110339","","","","","","","","","","75","K","2","","","143","main_expt","",""
"","bandit","225","551425","0.0-185.0-0.0","88519589","wem/bandit_party_2","A3BSE5PUEKPTRU","either","6","401","","","","","","","1","0","0","0.9383966058","","0.8","0.2","0.4","0.6","","","","","0.7806105972","0.5495292383","0.9383966058","0.7697142539","","","","","","","","","","75","K","2","","","144","main_expt","",""
"","bandit","226","554180","0.0-186.0-0.0","88519589","wem/bandit_party_2","A3BSE5PUEKPTRU","either","6","1228","","","","","","","0","1","0","","0.9442204223","0.8","0.2","0.4","0.6","0.7384744451","0.4718854897","0.9442204223","0.8279494337","","","","","","","","","","","","","","75","K","2","","","145","main_expt","",""
"","bandit","227","559001","0.0-187.0-0.0","88519589","wem/bandit_party_2","A3BSE5PUEKPTRU","either","6","3296","","","","","","","0","1","0","","0.9461270134","0.8","0.2","0.4","0.6","0.7078417075","0.3790577705","0.9461270134","0.747104877","","","","","","","","","","","","","","75","K","2","","","146","main_expt","",""
"","bandit","228","561225","0.0-188.0-0.0","88519589","wem/bandit_party_2","A3BSE5PUEKPTRU","either","6","701","","","","","","","1","0","0","0.9677113618","","0.8","0.2","0.4","0.6","","","","","0.7671729372","0.3671333747","0.9677113618","0.7635883185","","","","","","","","","","75","K","2","","","147","main_expt","",""
"","bandit","229","565121","0.0-189.0-0.0","88519589","wem/bandit_party_2","A3BSE5PUEKPTRU","either","6","2384","","","","","","","1","0","0","0.9603287673","","0.8","0.2","0.4","0.6","","","","","0.7515071201","0.4462771912","0.9603287673","0.6650729927","","","","","","","","","","75","K","2","","","148","main_expt","",""
"","bandit","230","570603","0.0-190.0-0.0","88519589","wem/bandit_party_2","A3BSE5PUEKPTRU","either","6","3959","","","","","","","0","1","0","","0.9256305183","0.8","0.2","0.4","0.6","0.7582160768","0.3929125452","0.9256305183","0.594527628","","","","","","","","","","","","","","75","K","2","","","149","main_expt","",""
"","bandit","231","573793","0.0-191.0-0.0","88519589","wem/bandit_party_2","A3BSE5PUEKPTRU","either","6","1668","","","","","","","0","1","0","","0.9222609783","0.8","0.2","0.4","0.6","0.6843302658","0.3825194633","0.9222609783","0.5101412162","","","","","","","","","","","","","","75","K","2","","","150","main_expt","",""
"","bandit","232","577292","0.0-192.0-0.0","88519589","wem/bandit_party_2","A3BSE5PUEKPTRU","either","6","1975","","","","","","","0","1","0","","0.9522131909","0.8","0.2","0.4","0.6","0.4980827124","0.3889652011","0.9522131909","0.5755011036","","","","","","","","","","","","","","75","K","2","","","151","main_expt","",""
"","bandit","233","580837","0.0-193.0-0.0","88519589","wem/bandit_party_2","A3BSE5PUEKPTRU","either","6","2021","","","","","","","0","1","0","","0.9351777179","0.8","0.2","0.4","0.6","0.5418861514","0.372169082","0.9351777179","0.5415628766","","","","","","","","","","","","","","75","K","2","","","152","main_expt","",""
"","bandit","234","583032","0.0-194.0-0.0","88519589","wem/bandit_party_2","A3BSE5PUEKPTRU","either","6","672","","","","","","","1","0","0","0.9526549669","","0.8","0.2","0.4","0.6","","","","","0.6424708626","0.4275919172","0.9526549669","0.6392888902","","","","","","","","","","75","K","2","","","153","main_expt","",""
"","bandit","235","588000","0.0-195.0-0.0","88519589","wem/bandit_party_2","A3BSE5PUEKPTRU","either","6","3446","","","","","","","0","0","1","","0.944677936","0.8","0.2","0.4","0.6","0.6200403258","0.3978897223","0.944677936","0.6798835142","","","","","","","","","","","","","","75","K","2","","","154","main_expt","",""
"","bandit","236","589875","0.0-196.0-0.0","88519589","wem/bandit_party_2","A3BSE5PUEKPTRU","either","6","350","","","","","","","0","0","1","0.5087788092","","0.8","0.2","0.4","0.6","","","","","0.5087788092","0.4922143253","0.9443948233","0.7376683638","","","","","","","","","","72","H","0","img/none_selected.jpg","","155","main_expt","",""
"","bandit","237","591412","0.0-197.0-0.0","88519589","wem/bandit_party_2","A3BSE5PUEKPTRU","either","6","16","","","","","","","0","0","1","","0.5060601407","0.8","0.2","0.4","0.6","0.4397360723","0.5060601407","0.9312029685","0.7740838489","","","","","","","","","","","","","","74","J","1","","","156","main_expt","",""
"","bandit","238","593179","0.0-198.0-0.0","88519589","wem/bandit_party_2","A3BSE5PUEKPTRU","either","6","243","","","","","","","1","0","0","0.7526352547","","0.8","0.2","0.4","0.6","","","","","0.4529934193","0.56460533","0.9009413449","0.7526352547","","","","","","","","","","76","L","3","","","157","main_expt","",""
"","bandit","239","595048","0.0-199.0-0.0","88519589","wem/bandit_party_2","A3BSE5PUEKPTRU","either","6","346","","","","","","","1","0","0","0.807066173","","0.8","0.2","0.4","0.6","","","","","0.522014142","0.5551408743","0.8799225656","0.807066173","","","","","","","","","","76","L","3","","","158","main_expt","",""
"","bandit","240","597717","0.0-200.0-0.0","88519589","wem/bandit_party_2","A3BSE5PUEKPTRU","either","6","1145","","","","","","","0","1","0","","0.8348587906","0.8","0.2","0.4","0.6","0.447178695","0.6362487126","0.9103166083","0.8348587906","","","","","","","","","","","","","","76","L","3","","","159","main_expt","",""
"","bandit","241","600348","0.0-201.0-0.0","88519589","wem/bandit_party_2","A3BSE5PUEKPTRU","either","6","1107","","","","","","","0","1","0","","0.8054329593","0.8","0.2","0.4","0.6","0.4293784973","0.5818198138","0.9575168601","0.8054329593","","","","","","","","","","","","","","76","L","3","","","160","main_expt","",""
"","bandit","242","602147","0.0-202.0-0.0","88519589","wem/bandit_party_2","A3BSE5PUEKPTRU","either","6","275","","","","","","","0","0","1","0.8263011938","","0.8","0.2","0.4","0.6","","","","","0.4263694152","0.5079421761","0.9323430526","0.8263011938","","","","","","","","","","76","L","3","","","161","main_expt","",""
"","bandit","243","603810","0.0-203.0-0.0","88519589","wem/bandit_party_2","A3BSE5PUEKPTRU","either","6","140","","","","","","","1","0","0","0.4394756583","","0.8","0.2","0.4","0.6","","","","","0.4394756583","0.3944353318","0.8731035433","0.8468561623","","","","","","","","","","72","H","0","img/none_selected.jpg","","162","main_expt","",""
"","bandit","244","605404","0.0-204.0-0.0","88519589","wem/bandit_party_2","A3BSE5PUEKPTRU","either","6","64","","","","","","","1","0","0","0.4632532181","","0.8","0.2","0.4","0.6","","","","","0.4632532181","0.4560534757","0.860239847","0.866861138","","","","","","","","","","72","H","0","img/none_selected.jpg","","163","main_expt","",""
"","bandit","245","607177","0.0-205.0-0.0","88519589","wem/bandit_party_2","A3BSE5PUEKPTRU","either","6","252","","","","","","","1","0","0","0.469091439","","0.8","0.2","0.4","0.6","","","","","0.469091439","0.4338988853","0.8327160304","0.8621839131","","","","","","","","","","72","H","0","img/none_selected.jpg","","164","main_expt","",""
"","bandit","246","608880","0.0-206.0-0.0","88519589","wem/bandit_party_2","A3BSE5PUEKPTRU","either","6","180","","","","","","","0","0","1","0.4691854483","","0.8","0.2","0.4","0.6","","","","","0.4691854483","0.3640020004","0.8780399083","0.8368369455","","","","","","","","","","72","H","0","img/none_selected.jpg","","165","main_expt","",""
"","bandit","247","610505","0.0-207.0-0.0","88519589","wem/bandit_party_2","A3BSE5PUEKPTRU","either","6","102","","","","","","","0","1","0","","0.4433911144","0.8","0.2","0.4","0.6","0.424594696","0.4433911144","0.8659509199","0.8543831227","","","","","","","","","","","","","","74","J","1","","","166","main_expt","",""
"","bandit","248","612208","0.0-208.0-0.0","88519589","wem/bandit_party_2","A3BSE5PUEKPTRU","either","6","177","","","","","","","0","0","1","","0.4852122499","0.8","0.2","0.4","0.6","0.4691217736","0.4852122499","0.8458676595","0.8444257961","","","","","","","","","","","","","","74","J","1","","","167","main_expt","",""
"","bandit","249","613991","0.0-209.0-0.0","88519589","wem/bandit_party_2","A3BSE5PUEKPTRU","either","6","265","","","","","","","1","0","0","0.7368025647","","0.8","0.2","0.4","0.6","","","","","0.4605946041","0.4829488348","0.7368025647","0.8895061166","","","","","","","","","","75","K","2","","","168","main_expt","",""
"","bandit","250","615844","0.0-210.0-0.0","88519589","wem/bandit_party_2","A3BSE5PUEKPTRU","either","6","329","","","","","","","1","0","0","0.6811301937","","0.8","0.2","0.4","0.6","","","","","0.4302520818","0.467087579","0.6811301937","0.8980662015","","","","","","","","","","75","K","2","","","169","main_expt","",""
"","bandit","251","617683","0.0-211.0-0.0","88519589","wem/bandit_party_2","A3BSE5PUEKPTRU","either","6","312","","","","","","","0","0","1","","0.6781719117","0.8","0.2","0.4","0.6","0.3846086554","0.3575164989","0.6781719117","0.9399190154","","","","","","","","","","","","","","75","K","2","","","170","main_expt","",""
"","bandit","252","619209","0.0-212.0-0.0","88519589","wem/bandit_party_2","A3BSE5PUEKPTRU","either","6","2","","","","","","","0","1","0","","0.9199626721","0.8","0.2","0.4","0.6","0.4938912128","0.3433755155","0.5779776893","0.9199626721","","","","","","","","","","","","","","76","L","3","","","171","main_expt","",""
"","bandit","253","621005","0.0-213.0-0.0","88519589","wem/bandit_party_2","A3BSE5PUEKPTRU","either","6","273","","","","","","","1","0","0","0.8885959212","","0.8","0.2","0.4","0.6","","","","","0.5409242696","0.2921203137","0.5461867433","0.8885959212","","","","","","","","","","76","L","3","","","172","main_expt","",""
"","bandit","254","622918","0.0-214.0-0.0","88519589","wem/bandit_party_2","A3BSE5PUEKPTRU","either","6","387","","","","","","","0","1","0","","0.8502068985","0.8","0.2","0.4","0.6","0.4899310385","0.3237382503","0.5898781272","0.8502068985","","","","","","","","","","","","","","76","L","3","","","173","main_expt","",""
"","bandit","255","624526","0.0-215.0-0.0","88519589","wem/bandit_party_2","A3BSE5PUEKPTRU","either","6","83","","","","","","","1","0","0","0.9054067092","","0.8","0.2","0.4","0.6","","","","","0.4464532747","0.2935635685","0.5990225055","0.9054067092","","","","","","","","","","76","L","3","","","174","main_expt","",""
"","bandit","256","626347","0.0-216.0-0.0","88519589","wem/bandit_party_2","A3BSE5PUEKPTRU","either","6","297","","","","","","","1","0","0","0.9096893241","","0.8","0.2","0.4","0.6","","","","","0.4363040476","0.2797951809","0.6129624105","0.9096893241","","","","","","","","","","76","L","3","","","175","main_expt","",""
"","bandit","257","628219","0.0-217.0-0.0","88519589","wem/bandit_party_2","A3BSE5PUEKPTRU","either","6","345","","","","","","","0","0","1","","0.9081003197","0.8","0.2","0.4","0.6","0.4198776974","0.2067270565","0.5434192492","0.9081003197","","","","","","","","","","","","","","76","L","3","","","176","main_expt","",""
"","bandit","258","629751","0.0-218.0-0.0","88519589","wem/bandit_party_2","A3BSE5PUEKPTRU","either","6","1","","","","","","","0","0","1","0.4001478854","","0.8","0.2","0.4","0.6","","","","","0.4001478854","0.19266164","0.5893108522","0.8417535431","","","","","","","","","","72","H","0","img/none_selected.jpg","","177","main_expt","",""
"","bandit","259","631778","0.0-219.0-0.0","88519589","wem/bandit_party_2","A3BSE5PUEKPTRU","either","6","501","","","","","","","0","0","1","","0.1393448617","0.8","0.2","0.4","0.6","0.3015477047","0.1393448617","0.4862463398","0.8045518304","","","","","","","","","","","","","","74","J","1","","","178","main_expt","",""
"","bandit","260","633792","0.0-220.0-0.0","88519589","wem/bandit_party_2","A3BSE5PUEKPTRU","either","6","489","","","","","","","0","0","1","","0.2700131006","0.8","0.2","0.4","0.6","0.2700131006","0.1149816072","0.4227787996","0.8250115846","","","","","","","","","","","","","","72","H","0","img/none_selected.jpg","","179","main_expt","",""
"","bandit","261","635560","0.0-221.0-0.0","88519589","wem/bandit_party_2","A3BSE5PUEKPTRU","either","6","242","","","","","","","0","0","1","0.3583368423","","0.8","0.2","0.4","0.6","","","","","0.3473069","0.1231561222","0.3583368423","0.7418096358","","","","","","","","","","75","K","2","","","180","main_expt","",""
"","bandit","262","637346","0.0-222.0-0.0","88519589","wem/bandit_party_2","A3BSE5PUEKPTRU","either","6","260","","","","","","","0","0","1","0.7180260456","","0.8","0.2","0.4","0.6","","","","","0.3478804011","0.1134989143","0.3820052134","0.7180260456","","","","","","","","","","76","L","3","","","181","main_expt","",""
"","bandit","263","638897","0.0-223.0-0.0","88519589","wem/bandit_party_2","A3BSE5PUEKPTRU","either","6","25","","","","","","","0","0","1","0.3304981007","","0.8","0.2","0.4","0.6","","","","","0.3304981007","0.07317944644","0.437769555","0.6777378447","","","","","","","","","","72","H","0","img/none_selected.jpg","","182","main_expt","",""
"","bandit","264","640574","0.0-224.0-0.0","88519589","wem/bandit_party_2","A3BSE5PUEKPTRU","either","6","152","","","","","","","0","0","1","0.05085611098","","0.8","0.2","0.4","0.6","","","","","0.2578466268","0.05085611098","0.3951330089","0.6331465848","","","","","","","","","","74","J","1","","","183","main_expt","",""
"","bandit","265","642368","0.0-225.0-0.0","88519589","wem/bandit_party_2","A3BSE5PUEKPTRU","either","6","268","","","","","","","0","0","1","0.4062376343","","0.8","0.2","0.4","0.6","","","","","0.3550464129","0.07152820202","0.4062376343","0.6578519513","","","","","","","","","","75","K","2","","","184","main_expt","",""
"","bandit","266","644197","0.0-226.0-0.0","88519589","wem/bandit_party_2","A3BSE5PUEKPTRU","either","6","303","","","","","","","0","0","1","0.7160298793","","0.8","0.2","0.4","0.6","","","","","0.2993299556","0.08814522307","0.4035727276","0.7160298793","","","","","","","","","","76","L","3","","","185","main_expt","",""
"","bandit","267","646149","0.0-227.0-0.0","88519589","wem/bandit_party_2","A3BSE5PUEKPTRU","either","6","426","","","","","","","0","1","0","","0.7081703269","0.8","0.2","0.4","0.6","0.3985972224","0.0931487442","0.4595565904","0.7081703269","","","","","","","","","","","","","","76","L","3","","","186","main_expt","",""
"","bandit","268","648019","0.0-228.0-0.0","88519589","wem/bandit_party_2","A3BSE5PUEKPTRU","either","6","345","","","","","","","0","0","1","0.7670757258","","0.8","0.2","0.4","0.6","","","","","0.4563810555","0.05847154344","0.4956959756","0.7670757258","","","","","","","","","","76","L","3","","","187","main_expt","",""
"","bandit","269","649683","0.0-229.0-0.0","88519589","wem/bandit_party_2","A3BSE5PUEKPTRU","either","6","136","","","","","","","1","0","0","0.4295585103","","0.8","0.2","0.4","0.6","","","","","0.4621092719","0.05005107021","0.4295585103","0.7986884496","","","","","","","","","","75","K","2","","","188","main_expt","",""
"","bandit","270","651521","0.0-230.0-0.0","88519589","wem/bandit_party_2","A3BSE5PUEKPTRU","either","6","312","","","","","","","0","0","1","","0.4121259827","0.8","0.2","0.4","0.6","0.4214675273","0.05158958255","0.4121259827","0.8113194514","","","","","","","","","","","","","","75","K","2","","","189","main_expt","",""
"","bandit","271","653295","0.0-231.0-0.0","88519589","wem/bandit_party_2","A3BSE5PUEKPTRU","either","6","247","","","","","","","0","1","0","","0.0530996007","0.8","0.2","0.4","0.6","0.4445162903","0.0530996007","0.40505342","0.8311477635","","","","","","","","","","","","","","74","J","1","","","190","main_expt","",""
"","bandit","272","655108","0.0-232.0-0.0","88519589","wem/bandit_party_2","A3BSE5PUEKPTRU","either","6","286","","","","","","","0","0","1","","0.05342003941","0.8","0.2","0.4","0.6","0.4077799102","0.05342003941","0.3671493273","0.7941336253","","","","","","","","","","","","","","74","J","1","","","191","main_expt","",""
"","bandit","273","656981","0.0-233.0-0.0","88519589","wem/bandit_party_2","A3BSE5PUEKPTRU","either","6","347","","","","","","","0","1","0","","0.413117206","0.8","0.2","0.4","0.6","0.413117206","0.05264216412","0.3367263454","0.841847859","","","","","","","","","","","","","","72","H","0","img/none_selected.jpg","","192","main_expt","",""
"","bandit","274","658905","0.0-234.0-0.0","88519589","wem/bandit_party_2","A3BSE5PUEKPTRU","either","6","391","","","","","","","0","0","1","0.374663265","","0.8","0.2","0.4","0.6","","","","","0.374663265","0.07418965368","0.2587514209","0.865127625","","","","","","","","","","72","H","0","img/none_selected.jpg","","193","main_expt","",""
"","bandit","275","661739","0.0-235.0-0.0","88519589","wem/bandit_party_2","A3BSE5PUEKPTRU","either","6","1302","","","","","","","1","0","0","0.2792309937","","0.8","0.2","0.4","0.6","","","","","0.2792309937","0.1148515542","0.2123696513","0.8369883383","","","","","","","","","","72","H","0","img/none_selected.jpg","","194","main_expt","",""
"","bandit","276","663571","0.0-236.0-0.0","88519589","wem/bandit_party_2","A3BSE5PUEKPTRU","either","6","307","","","","","","","0","0","1","0.3090424304","","0.8","0.2","0.4","0.6","","","","","0.3090424304","0.1102075851","0.2551117677","0.8226177272","","","","","","","","","","72","H","0","img/none_selected.jpg","","195","main_expt","",""
"","bandit","277","665506","0.0-237.0-0.0","88519589","wem/bandit_party_2","A3BSE5PUEKPTRU","either","6","410","","","","","","","0","0","1","0.09307195637","","0.8","0.2","0.4","0.6","","","","","0.2254203465","0.09307195637","0.2948177706","0.8759919892","","","","","","","","","","74","J","1","","","196","main_expt","",""
"","bandit","278","668255","0.0-238.0-0.0","88519589","wem/bandit_party_2","A3BSE5PUEKPTRU","either","6","1222","","","","","","","0","0","1","0.2104085952","","0.8","0.2","0.4","0.6","","","","","0.2104085952","0.08341332984","0.2864074111","0.9413038234","","","","","","","","","","72","H","0","img/none_selected.jpg","","197","main_expt","",""
"","bandit","279","670133","0.0-239.0-0.0","88519589","wem/bandit_party_2","A3BSE5PUEKPTRU","either","6","350","","","","","","","0","0","1","0.3044962429","","0.8","0.2","0.4","0.6","","","","","0.1686499416","0.06206278739","0.3044962429","0.9384937307","","","","","","","","","","75","K","2","","","198","main_expt","",""
"","bandit","280","671882","0.0-240.0-0.0","88519589","wem/bandit_party_2","A3BSE5PUEKPTRU","either","6","224","","","","","","","1","0","0","0.927250614","","0.8","0.2","0.4","0.6","","","","","0.1696058054","0.1015706687","0.2804127106","0.927250614","","","","","","","","","","76","L","3","","","199","main_expt","",""
"","bandit","281","673724","0.0-241.0-0.0","88519589","wem/bandit_party_2","A3BSE5PUEKPTRU","either","6","317","","","","","","","1","0","0","0.8840406778","","0.8","0.2","0.4","0.6","","","","","0.1940139532","0.07348353789","0.3151112274","0.8840406778","","","","","","","","","","76","L","3","","","200","main_expt","",""
"","bandit","282","675837","0.0-242.0-0.0","88519589","wem/bandit_party_2","A3BSE5PUEKPTRU","either","6","580","","","","","","","1","0","0","0.8866639954","","0.8","0.2","0.4","0.6","","","","","0.2384341862","0.09218994405","0.3124471347","0.8866639954","","","","","","","","","","76","L","3","","","201","main_expt","",""
"","bandit","283","677763","0.0-243.0-0.0","88519589","wem/bandit_party_2","A3BSE5PUEKPTRU","either","6","399","","","","","","","0","1","0","","0.8188103646","0.8","0.2","0.4","0.6","0.2069173963","0.1662378481","0.3418115628","0.8188103646","","","","","","","","","","","","","","76","L","3","","","202","main_expt","",""
"","bandit","284","680945","0.0-244.0-0.0","88519589","wem/bandit_party_2","A3BSE5PUEKPTRU","either","6","1654","","","","","","","0","1","0","","0.8026106274","0.8","0.2","0.4","0.6","0.2502389624","0.1808123801","0.2676578736","0.8026106274","","","","","","","","","","","","","","76","L","3","","","203","main_expt","",""
"","bandit","285","682949","0.0-245.0-0.0","88519589","wem/bandit_party_2","A3BSE5PUEKPTRU","either","6","478","","","","","","","1","0","0","0.6613987003","","0.8","0.2","0.4","0.6","","","","","0.2226806","0.2011980288","0.2513587973","0.6613987003","","","","","","","","","","76","L","3","","","204","main_expt","",""
"","bandit","286","685697","0.0-246.0-0.0","88519589","wem/bandit_party_2","A3BSE5PUEKPTRU","either","6","1222","","","","","","","0","1","0","","0.7402115251","0.8","0.2","0.4","0.6","0.2327973494","0.1877492959","0.2733703365","0.7402115251","","","","","","","","","","","","","","76","L","3","","","205","main_expt","",""
"","bandit","287","687800","0.0-247.0-0.0","88519589","wem/bandit_party_2","A3BSE5PUEKPTRU","either","6","575","","","","","","","1","0","0","0.6792505986","","0.8","0.2","0.4","0.6","","","","","0.3134624789","0.1891298069","0.3212331514","0.6792505986","","","","","","","","","","76","L","3","","","206","main_expt","",""
"","bandit","288","689921","0.0-248.0-0.0","88519589","wem/bandit_party_2","A3BSE5PUEKPTRU","either","6","596","","","","","","","0","0","1","","0.6510378203","0.8","0.2","0.4","0.6","0.3808856429","0.2092890992","0.3381772831","0.6510378203","","","","","","","","","","","","","","76","L","3","","","207","main_expt","",""
"","bandit","289","692083","0.0-249.0-0.0","88519589","wem/bandit_party_2","A3BSE5PUEKPTRU","either","6","635","","","","","","","1","0","0","0.5971377862","","0.8","0.2","0.4","0.6","","","","","0.318509643","0.2563161799","0.2370260631","0.5971377862","","","","","","","","","","76","L","3","","","208","main_expt","",""
"","bandit","290","693926","0.0-250.0-0.0","88519589","wem/bandit_party_2","A3BSE5PUEKPTRU","either","6","316","","","","","","","1","0","0","0.6040603887","","0.8","0.2","0.4","0.6","","","","","0.2932847295","0.2643940457","0.2157004535","0.6040603887","","","","","","","","","","76","L","3","","","209","main_expt","",""
"","bandit","291","696311","0.0-251.0-0.0","88519589","wem/bandit_party_2","A3BSE5PUEKPTRU","either","6","859","","","","","","","0","1","0","","0.7794442159","0.8","0.2","0.4","0.6","0.2230023122","0.2710870001","0.2655169153","0.7794442159","","","","","","","","","","","","","","76","L","3","","","210","main_expt","",""
"","bandit","292","698462","0.0-252.0-0.0","88519589","wem/bandit_party_2","A3BSE5PUEKPTRU","either","6","624","","","","","","","0","1","0","","0.8397026392","0.8","0.2","0.4","0.6","0.1899351836","0.2056380183","0.2359505063","0.8397026392","","","","","","","","","","","","","","76","L","3","","","211","main_expt","",""
"","bandit","293","700546","0.0-253.0-0.0","88519589","wem/bandit_party_2","A3BSE5PUEKPTRU","either","6","557","","","","","","","1","0","0","0.7883870126","","0.8","0.2","0.4","0.6","","","","","0.2593929449","0.2487045614","0.2431981852","0.7883870126","","","","","","","","","","76","L","3","","","212","main_expt","",""
"","bandit","294","702838","0.0-254.0-0.0","88519589","wem/bandit_party_2","A3BSE5PUEKPTRU","either","6","765","","","","","","","1","0","0","0.7160446845","","0.8","0.2","0.4","0.6","","","","","0.2304425673","0.3520378668","0.3385658967","0.7160446845","","","","","","","","","","76","L","3","","","213","main_expt","",""
"","bandit","295","704763","0.0-255.0-0.0","88519589","wem/bandit_party_2","A3BSE5PUEKPTRU","either","6","399","","","","","","","1","0","0","0.7501162241","","0.8","0.2","0.4","0.6","","","","","0.2849244028","0.3455661114","0.445002088","0.7501162241","","","","","","","","","","76","L","3","","","214","main_expt","",""
"","bandit","296","706952","0.0-256.0-0.0","88519589","wem/bandit_party_2","A3BSE5PUEKPTRU","either","6","661","","","","","","","1","0","0","0.7574589115","","0.8","0.2","0.4","0.6","","","","","0.3184819088","0.3290646698","0.4340580748","0.7574589115","","","","","","","","","","76","L","3","","","215","main_expt","",""
"","bandit","297","709038","0.0-257.0-0.0","88519589","wem/bandit_party_2","A3BSE5PUEKPTRU","either","6","558","","","","","","","0","1","0","","0.7376674805","0.8","0.2","0.4","0.6","0.2989728513","0.2737258078","0.3996931216","0.7376674805","","","","","","","","","","","","","","76","L","3","","","216","main_expt","",""
"","bandit","298","710573","0.0-258.0-0.0","88519589","wem/bandit_party_2","A3BSE5PUEKPTRU","either","6","8","","","","","","","1","0","0","0.67262171","","0.8","0.2","0.4","0.6","","","","","0.5538830624","0.2401291484","0.453570069","0.67262171","","","","","","","","","","76","L","3","","","217","main_expt","",""
"","bandit","299","712415","0.0-259.0-0.0","88519589","wem/bandit_party_2","A3BSE5PUEKPTRU","either","6","319","","","","","","","0","1","0","","0.6309662891","0.8","0.2","0.4","0.6","0.5331458927","0.2395298113","0.3566620654","0.6309662891","","","","","","","","","","","","","","76","L","3","","","218","main_expt","",""
"","bandit","300","714410","0.0-260.0-0.0","88519589","wem/bandit_party_2","A3BSE5PUEKPTRU","either","6","472","","","","","","","1","0","0","0.610488243","","0.8","0.2","0.4","0.6","","","","","0.409279481","0.2333127667","0.3114207129","0.610488243","","","","","","","","","","76","L","3","","","219","main_expt","",""
"","bandit","301","716399","0.0-261.0-0.0","88519589","wem/bandit_party_2","A3BSE5PUEKPTRU","either","6","461","","","","","","","1","0","0","0.6741838821","","0.8","0.2","0.4","0.6","","","","","0.3910907299","0.2097963002","0.348491043","0.6741838821","","","","","","","","","","76","L","3","","","220","main_expt","",""
"","bandit","302","718359","0.0-262.0-0.0","88519589","wem/bandit_party_2","A3BSE5PUEKPTRU","either","6","431","","","","","","","0","0","1","","0.6938787555","0.8","0.2","0.4","0.6","0.37386253","0.1761429423","0.325682353","0.6938787555","","","","","","","","","","","","","","76","L","3","","","221","main_expt","",""
"","bandit","303","720213","0.0-263.0-0.0","88519589","wem/bandit_party_2","A3BSE5PUEKPTRU","either","6","328","","","","","","","0","1","0","","0.3582518194","0.8","0.2","0.4","0.6","0.5460784034","0.1770547834","0.3582518194","0.622086605","","","","","","","","","","","","","","75","K","2","","","222","main_expt","",""
"","bandit","304","722171","0.0-264.0-0.0","88519589","wem/bandit_party_2","A3BSE5PUEKPTRU","either","6","429","","","","","","","0","0","1","","0.3596631187","0.8","0.2","0.4","0.6","0.5484594206","0.1494166006","0.3596631187","0.6190419158","","","","","","","","","","","","","","75","K","2","","","223","main_expt","",""
"","bandit","305","723930","0.0-265.0-0.0","88519589","wem/bandit_party_2","A3BSE5PUEKPTRU","either","6","227","","","","","","","1","0","0","0.6525227655","","0.8","0.2","0.4","0.6","","","","","0.5156266917","0.1444184755","0.4757784632","0.6525227655","","","","","","","","","","76","L","3","","","224","main_expt","",""
"","bandit","306","725779","0.0-266.0-0.0","88519589","wem/bandit_party_2","A3BSE5PUEKPTRU","either","6","320","","","","","","","0","1","0","","0.5739960468","0.8","0.2","0.4","0.6","0.5120039273","0.2381889698","0.5384710229","0.5739960468","","","","","","","","","","","","","","76","L","3","","","225","main_expt","",""
"","bandit","307","727617","0.0-267.0-0.0","88519589","wem/bandit_party_2","A3BSE5PUEKPTRU","either","6","313","","","","","","","1","0","0","0.6038380469","","0.8","0.2","0.4","0.6","","","","","0.5568413113","0.1429230379","0.5308581489","0.6038380469","","","","","","","","","","76","L","3","","","226","main_expt","",""
"","bandit","308","729530","0.0-268.0-0.0","88519589","wem/bandit_party_2","A3BSE5PUEKPTRU","either","6","381","","","","","","","0","0","1","","0.5203417309","0.8","0.2","0.4","0.6","0.5277183188","0.124100867","0.488482713","0.5203417309","","","","","","","","","","","","","","76","L","3","","","227","main_expt","",""
"","bandit","309","731299","0.0-269.0-0.0","88519589","wem/bandit_party_2","A3BSE5PUEKPTRU","either","6","242","","","","","","","1","0","0","0.4406219513","","0.8","0.2","0.4","0.6","","","","","0.5041270258","0.1762219884","0.4406219513","0.4263922038","","","","","","","","","","75","K","2","","","228","main_expt","",""
"","bandit","310","733091","0.0-270.0-0.0","88519589","wem/bandit_party_2","A3BSE5PUEKPTRU","either","6","264","","","","","","","0","0","1","","0.3475105047","0.8","0.2","0.4","0.6","0.4541369304","0.1910325121","0.4892119921","0.3475105047","","","","","","","","","","","","","","76","L","3","","","229","main_expt","",""
"","bandit","311","734827","0.0-271.0-0.0","88519589","wem/bandit_party_2","A3BSE5PUEKPTRU","either","6","207","","","","","","","0","0","1","0.5129573662","","0.8","0.2","0.4","0.6","","","","","0.4504381994","0.2571549068","0.5129573662","0.3353007417","","","","","","","","","","75","K","2","","","230","main_expt","",""
"","bandit","312","736578","0.0-272.0-0.0","88519589","wem/bandit_party_2","A3BSE5PUEKPTRU","either","6","225","","","","","","","0","0","1","","0.1781345747","0.8","0.2","0.4","0.6","0.4698668598","0.1781345747","0.4382888871","0.2870546929","","","","","","","","","","","","","","74","J","1","","","231","main_expt","",""
"","bandit","313","738162","0.0-273.0-0.0","88519589","wem/bandit_party_2","A3BSE5PUEKPTRU","either","6","56","","","","","","","0","0","1","0.3092655517","","0.8","0.2","0.4","0.6","","","","","0.5460008395","0.1748933913","0.42174841","0.3092655517","","","","","","","","","","76","L","3","","","232","main_expt","",""
"","bandit","314","740184","0.0-274.0-0.0","88519589","wem/bandit_party_2","A3BSE5PUEKPTRU","either","6","493","","","","","","","0","0","1","0.5345299581","","0.8","0.2","0.4","0.6","","","","","0.5345299581","0.2196371411","0.4297142637","0.4231157335","","","","","","","","","","72","H","0","img/none_selected.jpg","","233","main_expt","",""
