"consent","trial_type","trial_index","time_elapsed","internal_node_id","subjID","study","MID","cond","drift","rt","responses","button_pressed","key_press","like","value","connected","gems","bombs","no_reward","GemPrChosen","BombPrChosen","GainOverPainPr_0","GainOverPainPr_1","GainOverPainPr_2","GainOverPainPr_3","LosePr_0","LosePr_1","LosePr_2","LosePr_3","WinPr_0","WinPr_1","WinPr_2","WinPr_3","Q0","Q1","Q2","gender","age","ethnicity","label","expt_phase","target","respCharCode","respKey","respChoiceNum","respChoice","practice","trial_counter","trial_label","Q0_index"
"GDM/GDM_behavioral_consent_30min_online.html","consent","0","18991","0.0-0.0","89764657","wem/bandit_party_2","A2EH0DH8QM4ZSB","either","3","","","","","","","","","","","","","","","","","","","","","","","","","","","","","","","","","","","","","","","","",""
"","survey-text","1","25952","0.0-1.0","89764657","wem/bandit_party_2","A2EH0DH8QM4ZSB","either","3","5950","{""Q0"":""A2EH0DH8QM4ZSB""}","","","","","","","","","","","","","","","","","","","","","","","","","","","","","","","","","","","","","","",""
"","button-response","2","28856","0.0-2.0","89764657","wem/bandit_party_2","A2EH0DH8QM4ZSB","either","3","1896","","0","","","","","","","","","","","","","","","","","","","","","","","","","","","","","","","","","","","","","",""
"","text-replacement","3","61446","0.0-3.0","89764657","wem/bandit_party_2","A2EH0DH8QM4ZSB","either","3","31585","","","32","","","","","","","","","","","","","","","","","","","","","","","","","","","","","","","","","","","","",""
"","text-replacement","4","87327","0.0-4.0","89764657","wem/bandit_party_2","A2EH0DH8QM4ZSB","either","3","25878","","","32","","","","","","","","","","","","","","","","","","","","","","","","","","","","","","","","","","","","",""
"","identification","5","95504","0.0-6.0-0.0","89764657","wem/bandit_party_2","A2EH0DH8QM4ZSB","either","3","8157","","","","5","5","5","","","","","","","","","","","","","","","","","","","","","","","","pre","identification_pre","the Republican Party","","","","","","","",""
"","identification","6","102607","0.0-6.0-1.0","89764657","wem/bandit_party_2","A2EH0DH8QM4ZSB","either","3","6083","","","","2","2","2","","","","","","","","","","","","","","","","","","","","","","","","pre","identification_pre","the Democratic Party","","","","","","","",""
"","text-replacement","7","114754","0.0-7.0","89764657","wem/bandit_party_2","A2EH0DH8QM4ZSB","either","3","11144","","","32","","","","","","","","","","","","","","","","","","","","","","","","","","","","","","","","","","","","",""
"","text-replacement","8","127374","0.0-8.0","89764657","wem/bandit_party_2","A2EH0DH8QM4ZSB","either","3","12616","","","32","","","","","","","","","","","","","","","","","","","","","","","","","","","","","","","","","","","","",""
"","text-replacement","9","143372","0.0-9.0","89764657","wem/bandit_party_2","A2EH0DH8QM4ZSB","either","3","15994","","","32","","","","","","","","","","","","","","","","","","","","","","","","","","","","","","","","","","","","",""
"","text-replacement","10","151543","0.0-10.0","89764657","wem/bandit_party_2","A2EH0DH8QM4ZSB","either","3","8168","","","32","","","","","","","","","","","","","","","","","","","","","","","","","","","","","","","","","","","","",""
"","text-replacement","11","160216","0.0-11.0","89764657","wem/bandit_party_2","A2EH0DH8QM4ZSB","either","3","8670","","","32","","","","","","","","","","","","","","","","","","","","","","","","","","","","","","","","","","","","",""
"","bandit","12","166006","0.0-12.0-0.0","89764657","wem/bandit_party_2","A2EH0DH8QM4ZSB","either","3","4277","","","","","","","0","0","1","0","0","","","","","0","","","","0","","","","","","","","","","","","","74","J","0","img/none_selected_demo.jpg","true","0","",""
"","bandit","13","168606","0.0-13.0-0.0","89764657","wem/bandit_party_2","A2EH0DH8QM4ZSB","either","3","1093","","","","","","","0","0","1","0","0","","","","","0","","","","0","","","","","","","","","","","","","75","K","0","img/none_selected_demo.jpg","true","0","",""
"","text-replacement","14","177517","0.0-14.0","89764657","wem/bandit_party_2","A2EH0DH8QM4ZSB","either","3","8908","","","32","","","","","","","","","","","","","","","","","","","","","","","","","","","","","","","","","","","","",""
"","text-replacement","15","185810","0.0-15.0","89764657","wem/bandit_party_2","A2EH0DH8QM4ZSB","either","3","8291","","","32","","","","","","","","","","","","","","","","","","","","","","","","","","","","","","","","","","","","",""
"","text-replacement","16","200361","0.0-16.0","89764657","wem/bandit_party_2","A2EH0DH8QM4ZSB","either","3","14548","","","32","","","","","","","","","","","","","","","","","","","","","","","","","","","","","","","","","","","","",""
"","text-replacement","17","211128","0.0-17.0","89764657","wem/bandit_party_2","A2EH0DH8QM4ZSB","either","3","10766","","","32","","","","","","","","","","","","","","","","","","","","","","","","","","","","","","","","","","","","",""
"","bandit","18","215623","0.0-18.0-0.0","89764657","wem/bandit_party_2","A2EH0DH8QM4ZSB","either","3","2990","","","","","","","0","1","0","","0.2","0.5","0.5","","","0.8","0.2","","","","","","","","","","","","","","","","75","K","1","","true","0","80_20_practice",""
"","bandit","19","218519","0.0-18.0-1.0","89764657","wem/bandit_party_2","A2EH0DH8QM4ZSB","either","3","1389","","","","","","","1","0","0","0.8","","0.5","0.5","","","","","","","0.8","0.2","","","","","","","","","","","","74","J","0","img/none_selected_demo.jpg","true","0","80_20_practice",""
"","bandit","20","221185","0.0-18.0-2.0","89764657","wem/bandit_party_2","A2EH0DH8QM4ZSB","either","3","1163","","","","","","","1","0","0","0.8","","0.5","0.5","","","","","","","0.8","0.2","","","","","","","","","","","","74","J","0","img/none_selected_demo.jpg","true","0","80_20_practice",""
"","bandit","21","223358","0.0-18.0-3.0","89764657","wem/bandit_party_2","A2EH0DH8QM4ZSB","either","3","669","","","","","","","0","0","1","0.2","","0.5","0.5","","","","","","","0.8","0.2","","","","","","","","","","","","75","K","1","","true","0","80_20_practice",""
"","bandit","22","225789","0.0-18.0-4.0","89764657","wem/bandit_party_2","A2EH0DH8QM4ZSB","either","3","927","","","","","","","0","0","1","0.2","","0.5","0.5","","","","","","","0.8","0.2","","","","","","","","","","","","75","K","1","","true","0","80_20_practice",""
"","bandit","23","227624","0.0-18.0-5.0","89764657","wem/bandit_party_2","A2EH0DH8QM4ZSB","either","3","330","","","","","","","0","0","1","","0.8","0.5","0.5","","","0.8","0.2","","","","","","","","","","","","","","","","74","J","0","img/none_selected_demo.jpg","true","0","80_20_practice",""
"","bandit","24","229952","0.0-18.0-6.0","89764657","wem/bandit_party_2","A2EH0DH8QM4ZSB","either","3","821","","","","","","","0","1","0","","0.8","0.5","0.5","","","0.8","0.2","","","","","","","","","","","","","","","","74","J","0","img/none_selected_demo.jpg","true","0","80_20_practice",""
"","bandit","25","231907","0.0-18.0-7.0","89764657","wem/bandit_party_2","A2EH0DH8QM4ZSB","either","3","452","","","","","","","1","0","0","0.8","","0.5","0.5","","","","","","","0.8","0.2","","","","","","","","","","","","74","J","0","img/none_selected_demo.jpg","true","0","80_20_practice",""
"","bandit","26","233706","0.0-18.0-8.0","89764657","wem/bandit_party_2","A2EH0DH8QM4ZSB","either","3","293","","","","","","","0","0","1","","0.2","0.5","0.5","","","0.8","0.2","","","","","","","","","","","","","","","","75","K","1","","true","0","80_20_practice",""
"","bandit","27","235521","0.0-18.0-9.0","89764657","wem/bandit_party_2","A2EH0DH8QM4ZSB","either","3","308","","","","","","","0","0","1","0.2","","0.5","0.5","","","","","","","0.8","0.2","","","","","","","","","","","","75","K","1","","true","0","80_20_practice",""
"","bandit","28","237279","0.0-18.0-10.0","89764657","wem/bandit_party_2","A2EH0DH8QM4ZSB","either","3","253","","","","","","","0","0","1","0.2","","0.5","0.5","","","","","","","0.8","0.2","","","","","","","","","","","","75","K","1","","true","0","80_20_practice",""
"","bandit","29","239088","0.0-18.0-11.0","89764657","wem/bandit_party_2","A2EH0DH8QM4ZSB","either","3","303","","","","","","","0","0","1","","0.2","0.5","0.5","","","0.8","0.2","","","","","","","","","","","","","","","","75","K","1","","true","0","80_20_practice",""
"","bandit","30","240870","0.0-18.0-12.0","89764657","wem/bandit_party_2","A2EH0DH8QM4ZSB","either","3","273","","","","","","","1","0","0","0.8","","0.5","0.5","","","","","","","0.8","0.2","","","","","","","","","","","","74","J","0","img/none_selected_demo.jpg","true","0","80_20_practice",""
"","bandit","31","242692","0.0-18.0-13.0","89764657","wem/bandit_party_2","A2EH0DH8QM4ZSB","either","3","316","","","","","","","1","0","0","0.8","","0.5","0.5","","","","","","","0.8","0.2","","","","","","","","","","","","74","J","0","img/none_selected_demo.jpg","true","0","80_20_practice",""
"","bandit","32","244886","0.0-18.0-14.0","89764657","wem/bandit_party_2","A2EH0DH8QM4ZSB","either","3","688","","","","","","","1","0","0","0.8","","0.5","0.5","","","","","","","0.8","0.2","","","","","","","","","","","","74","J","0","img/none_selected_demo.jpg","true","0","80_20_practice",""
"","bandit","33","246730","0.0-18.0-15.0","89764657","wem/bandit_party_2","A2EH0DH8QM4ZSB","either","3","337","","","","","","","1","0","0","0.8","","0.5","0.5","","","","","","","0.8","0.2","","","","","","","","","","","","74","J","0","img/none_selected_demo.jpg","true","0","80_20_practice",""
"","bandit","34","248626","0.0-18.0-16.0","89764657","wem/bandit_party_2","A2EH0DH8QM4ZSB","either","3","391","","","","","","","1","0","0","0.8","","0.5","0.5","","","","","","","0.8","0.2","","","","","","","","","","","","74","J","0","img/none_selected_demo.jpg","true","0","80_20_practice",""
"","bandit","35","250436","0.0-18.0-17.0","89764657","wem/bandit_party_2","A2EH0DH8QM4ZSB","either","3","303","","","","","","","0","1","0","","0.8","0.5","0.5","","","0.8","0.2","","","","","","","","","","","","","","","","74","J","0","img/none_selected_demo.jpg","true","0","80_20_practice",""
"","bandit","36","252249","0.0-18.0-18.0","89764657","wem/bandit_party_2","A2EH0DH8QM4ZSB","either","3","307","","","","","","","1","0","0","0.8","","0.5","0.5","","","","","","","0.8","0.2","","","","","","","","","","","","74","J","0","img/none_selected_demo.jpg","true","0","80_20_practice",""
"","bandit","37","254021","0.0-18.0-19.0","89764657","wem/bandit_party_2","A2EH0DH8QM4ZSB","either","3","264","","","","","","","1","0","0","0.8","","0.5","0.5","","","","","","","0.8","0.2","","","","","","","","","","","","74","J","0","img/none_selected_demo.jpg","true","0","80_20_practice",""
"","text-replacement","38","260678","0.0-19.0","89764657","wem/bandit_party_2","A2EH0DH8QM4ZSB","either","3","6653","","","32","","","","","","","","","","","","","","","","","","","","","","","","","","","","","","","","","","","","",""
"","bandit","39","262873","0.0-20.0-0.0","89764657","wem/bandit_party_2","A2EH0DH8QM4ZSB","either","3","685","","","","","","","1","0","0","1","0","","","","","0","1","","","1","0","","","","","","","","","","","","74","J","0","img/none_selected_demo.jpg","true","0","",""
"","text-replacement","40","275273","0.0-21.0","89764657","wem/bandit_party_2","A2EH0DH8QM4ZSB","either","3","12397","","","32","","","","","","","","","","","","","","","","","","","","","","","","","","","","","","","","","","","","",""
"","text-replacement","41","281966","0.0-22.0","89764657","wem/bandit_party_2","A2EH0DH8QM4ZSB","either","3","6690","","","32","","","","","","","","","","","","","","","","","","","","","","","","","","","","","","","","","","","","",""
"","text-replacement","42","284954","0.0-23.0","89764657","wem/bandit_party_2","A2EH0DH8QM4ZSB","either","3","2985","","","32","","","","","","","","","","","","","","","","","","","","","","","","","","","","","","","","","","","","",""
"","text-replacement","43","289693","0.0-24.0","89764657","wem/bandit_party_2","A2EH0DH8QM4ZSB","either","3","4736","","","32","","","","","","","","","","","","","","","","","","","","","","","","","","","","","","","","","","","","",""
"","text-replacement","44","304583","0.0-25.0","89764657","wem/bandit_party_2","A2EH0DH8QM4ZSB","either","3","14887","","","32","","","","","","","","","","","","","","","","","","","","","","","","","","","","","","","","","","","","",""
"","text-replacement","45","309776","0.0-26.0","89764657","wem/bandit_party_2","A2EH0DH8QM4ZSB","either","3","5190","","","32","","","","","","","","","","","","","","","","","","","","","","","","","","","","","","","","","","","","",""
"","text-replacement","46","314615","0.0-27.0","89764657","wem/bandit_party_2","A2EH0DH8QM4ZSB","either","3","4836","","","32","","","","","","","","","","","","","","","","","","","","","","","","","","","","","","","","","","","","",""
"","text-replacement","47","323085","0.0-28.0","89764657","wem/bandit_party_2","A2EH0DH8QM4ZSB","either","3","8467","","","32","","","","","","","","","","","","","","","","","","","","","","","","","","","","","","","","","","","","",""
"","text-replacement","48","332221","0.0-29.0","89764657","wem/bandit_party_2","A2EH0DH8QM4ZSB","either","3","9132","","","32","","","","","","","","","","","","","","","","","","","","","","","","","","","","","","","","","","","","",""
"","text-replacement","49","334501","0.0-30.0","89764657","wem/bandit_party_2","A2EH0DH8QM4ZSB","either","3","2276","","","32","","","","","","","","","","","","","","","","","","","","","","","","","","","","","","","","","","","","",""
"","text-replacement","50","337007","0.0-31.0","89764657","wem/bandit_party_2","A2EH0DH8QM4ZSB","either","3","2503","","","32","","","","","","","","","","","","","","","","","","","","","","","","","","","","","","","","","","","","",""
"","bandit","51","339923","0.0-32.0-0.0","89764657","wem/bandit_party_2","A2EH0DH8QM4ZSB","either","3","1405","","","","","","","0","0","1","0.2","","0.5","0.5","0.5","0.5","","","","","0.8","0.2","0.6","0.2","","","","","","","","","","74","J","1","","true","0","full_practice",""
"","bandit","52","341805","0.0-32.0-1.0","89764657","wem/bandit_party_2","A2EH0DH8QM4ZSB","either","3","373","","","","","","","0","1","0","","0.8","0.5","0.5","0.5","0.5","0.8","0.2","0.6","0.2","","","","","","","","","","","","","","72","H","0","img/none_selected.jpg","true","0","full_practice",""
"","bandit","53","343619","0.0-32.0-2.0","89764657","wem/bandit_party_2","A2EH0DH8QM4ZSB","either","3","302","","","","","","","0","1","0","","0.8","0.5","0.5","0.5","0.5","0.8","0.2","0.6","0.2","","","","","","","","","","","","","","72","H","0","img/none_selected.jpg","true","0","full_practice",""
"","bandit","54","345432","0.0-32.0-3.0","89764657","wem/bandit_party_2","A2EH0DH8QM4ZSB","either","3","304","","","","","","","1","0","0","0.8","","0.5","0.5","0.5","0.5","","","","","0.8","0.2","0.6","0.2","","","","","","","","","","72","H","0","img/none_selected.jpg","true","0","full_practice",""
"","bandit","55","347235","0.0-32.0-4.0","89764657","wem/bandit_party_2","A2EH0DH8QM4ZSB","either","3","294","","","","","","","0","1","0","","0.8","0.5","0.5","0.5","0.5","0.8","0.2","0.6","0.2","","","","","","","","","","","","","","72","H","0","img/none_selected.jpg","true","0","full_practice",""
"","bandit","56","349126","0.0-32.0-5.0","89764657","wem/bandit_party_2","A2EH0DH8QM4ZSB","either","3","366","","","","","","","0","0","1","0.8","","0.5","0.5","0.5","0.5","","","","","0.8","0.2","0.6","0.2","","","","","","","","","","72","H","0","img/none_selected.jpg","true","0","full_practice",""
"","bandit","57","351904","0.0-32.0-6.0","89764657","wem/bandit_party_2","A2EH0DH8QM4ZSB","either","3","1266","","","","","","","0","0","1","0.2","","0.5","0.5","0.5","0.5","","","","","0.8","0.2","0.6","0.2","","","","","","","","","","76","L","3","","true","0","full_practice",""
"","bandit","58","354432","0.0-32.0-7.0","89764657","wem/bandit_party_2","A2EH0DH8QM4ZSB","either","3","1018","","","","","","","0","0","1","0.2","","0.5","0.5","0.5","0.5","","","","","0.8","0.2","0.6","0.2","","","","","","","","","","74","J","1","","true","0","full_practice",""
"","bandit","59","356307","0.0-32.0-8.0","89764657","wem/bandit_party_2","A2EH0DH8QM4ZSB","either","3","365","","","","","","","0","1","0","","0.6","0.5","0.5","0.5","0.5","0.8","0.2","0.6","0.2","","","","","","","","","","","","","","75","K","2","","true","0","full_practice",""
"","bandit","60","358093","0.0-32.0-9.0","89764657","wem/bandit_party_2","A2EH0DH8QM4ZSB","either","3","277","","","","","","","0","0","1","","0.6","0.5","0.5","0.5","0.5","0.8","0.2","0.6","0.2","","","","","","","","","","","","","","75","K","2","","true","0","full_practice",""
"","bandit","61","360006","0.0-32.0-10.0","89764657","wem/bandit_party_2","A2EH0DH8QM4ZSB","either","3","403","","","","","","","0","0","1","","0.8","0.5","0.5","0.5","0.5","0.8","0.2","0.6","0.2","","","","","","","","","","","","","","72","H","0","img/none_selected.jpg","true","0","full_practice",""
"","bandit","62","361810","0.0-32.0-11.0","89764657","wem/bandit_party_2","A2EH0DH8QM4ZSB","either","3","293","","","","","","","1","0","0","0.8","","0.5","0.5","0.5","0.5","","","","","0.8","0.2","0.6","0.2","","","","","","","","","","72","H","0","img/none_selected.jpg","true","0","full_practice",""
"","bandit","63","363599","0.0-32.0-12.0","89764657","wem/bandit_party_2","A2EH0DH8QM4ZSB","either","3","279","","","","","","","1","0","0","0.8","","0.5","0.5","0.5","0.5","","","","","0.8","0.2","0.6","0.2","","","","","","","","","","72","H","0","img/none_selected.jpg","true","0","full_practice",""
"","bandit","64","365421","0.0-32.0-13.0","89764657","wem/bandit_party_2","A2EH0DH8QM4ZSB","either","3","312","","","","","","","0","1","0","","0.8","0.5","0.5","0.5","0.5","0.8","0.2","0.6","0.2","","","","","","","","","","","","","","72","H","0","img/none_selected.jpg","true","0","full_practice",""
"","bandit","65","367229","0.0-32.0-14.0","89764657","wem/bandit_party_2","A2EH0DH8QM4ZSB","either","3","299","","","","","","","1","0","0","0.8","","0.5","0.5","0.5","0.5","","","","","0.8","0.2","0.6","0.2","","","","","","","","","","72","H","0","img/none_selected.jpg","true","0","full_practice",""
"","bandit","66","369047","0.0-32.0-15.0","89764657","wem/bandit_party_2","A2EH0DH8QM4ZSB","either","3","305","","","","","","","0","0","1","0.8","","0.5","0.5","0.5","0.5","","","","","0.8","0.2","0.6","0.2","","","","","","","","","","72","H","0","img/none_selected.jpg","true","0","full_practice",""
"","bandit","67","371321","0.0-32.0-16.0","89764657","wem/bandit_party_2","A2EH0DH8QM4ZSB","either","3","765","","","","","","","0","0","1","0.2","","0.5","0.5","0.5","0.5","","","","","0.8","0.2","0.6","0.2","","","","","","","","","","76","L","3","","true","0","full_practice",""
"","bandit","68","373381","0.0-32.0-17.0","89764657","wem/bandit_party_2","A2EH0DH8QM4ZSB","either","3","551","","","","","","","0","0","1","","0.2","0.5","0.5","0.5","0.5","0.8","0.2","0.6","0.2","","","","","","","","","","","","","","74","J","1","","true","0","full_practice",""
"","bandit","69","375205","0.0-32.0-18.0","89764657","wem/bandit_party_2","A2EH0DH8QM4ZSB","either","3","315","","","","","","","1","0","0","0.8","","0.5","0.5","0.5","0.5","","","","","0.8","0.2","0.6","0.2","","","","","","","","","","72","H","0","img/none_selected.jpg","true","0","full_practice",""
"","bandit","70","377008","0.0-32.0-19.0","89764657","wem/bandit_party_2","A2EH0DH8QM4ZSB","either","3","294","","","","","","","0","0","1","0.8","","0.5","0.5","0.5","0.5","","","","","0.8","0.2","0.6","0.2","","","","","","","","","","72","H","0","img/none_selected.jpg","true","0","full_practice",""
"","text","71","382375","0.0-33.0","89764657","wem/bandit_party_2","A2EH0DH8QM4ZSB","either","3","5349","","","32","","","","","","","","","","","","","","","","","","","","","","","","","","","","","","","","","","","","",""
"","text-replacement","72","399944","0.0-34.0","89764657","wem/bandit_party_2","A2EH0DH8QM4ZSB","either","3","16563","","","32","","","","","","","","","","","","","","","","","","","","","","","","","","","","","","","","","","","","",""
"","text-replacement","73","407091","0.0-35.0","89764657","wem/bandit_party_2","A2EH0DH8QM4ZSB","either","3","7143","","","32","","","","","","","","","","","","","","","","","","","","","","","","","","","","","","","","","","","","",""
"","text-replacement","74","410109","0.0-36.0","89764657","wem/bandit_party_2","A2EH0DH8QM4ZSB","either","3","3014","","","32","","","","","","","","","","","","","","","","","","","","","","","","","","","","","","","","","","","","",""
"","text-replacement","75","412337","0.0-37.0","89764657","wem/bandit_party_2","A2EH0DH8QM4ZSB","either","3","2225","","","32","","","","","","","","","","","","","","","","","","","","","","","","","","","","","","","","","","","","",""
"","text-replacement","76","415677","0.0-38.0","89764657","wem/bandit_party_2","A2EH0DH8QM4ZSB","either","3","3333","","","32","","","","","","","","","","","","","","","","","","","","","","","","","","","","","","","","","","","","",""
"","survey-multi-choice-replacement","77","428456","0.0-39.0-0.0","89764657","wem/bandit_party_2","A2EH0DH8QM4ZSB","either","3","12769","","","","","","","","","","","","","","","","","","","","","","","","Money will be added to the pool for <span style='color:red;'>REPUBLICANS</span>","","","","","","","attn_check","","","","","","","","","0"
"","survey-multi-choice-replacement","78","439985","0.0-40.0-0.0","89764657","wem/bandit_party_2","A2EH0DH8QM4ZSB","either","3","10515","","","","","","","","","","","","","","","","","","","","","","","","Equal amounts of money will be added to the pool for <span style='color:red;'>REPUBLICANS</span> and subtracted from the pool for <span style='color:blue;'>DEMOCRATS</span>","","","","","","","attn_check","","","","","","","","","2"
"","survey-multi-choice-replacement","79","445794","0.0-41.0-0.0","89764657","wem/bandit_party_2","A2EH0DH8QM4ZSB","either","3","4796","","","","","","","","","","","","","","","","","","","","","","","","No money will be added to either pool","","","","","","","attn_check","","","","","","","","","3"
"","bandit","80","451765","0.0-42.0-0.0","89764657","wem/bandit_party_2","A2EH0DH8QM4ZSB","either","3","3457","","","","","","","0","0","1","","0.1387034319","0.6","0.2","0.4","0.8","0.6494041588","0.1387034319","0.4261870849","0.6473934842","","","","","","","","","","","","","","74","J","1","","","1","main_expt",""
"","bandit","81","453636","0.0-43.0-0.0","89764657","wem/bandit_party_2","A2EH0DH8QM4ZSB","either","3","359","","","","","","","1","0","0","0.7608835745","","0.6","0.2","0.4","0.8","","","","","0.7608835745","0.2166337036","0.3223101542","0.5221866694","","","","","","","","","","72","H","0","img/none_selected.jpg","","2","main_expt",""
"","bandit","82","455422","0.0-44.0-0.0","89764657","wem/bandit_party_2","A2EH0DH8QM4ZSB","either","3","274","","","","","","","0","1","0","","0.7745567172","0.6","0.2","0.4","0.8","0.7745567172","0.3253899216","0.2541217019","0.5356292978","","","","","","","","","","","","","","72","H","0","img/none_selected.jpg","","3","main_expt",""
"","bandit","83","457217","0.0-45.0-0.0","89764657","wem/bandit_party_2","A2EH0DH8QM4ZSB","either","3","284","","","","","","","1","0","0","0.8315703218","","0.6","0.2","0.4","0.8","","","","","0.8315703218","0.3003293127","0.2272043942","0.5154592071","","","","","","","","","","72","H","0","img/none_selected.jpg","","4","main_expt",""
"","bandit","84","459021","0.0-46.0-0.0","89764657","wem/bandit_party_2","A2EH0DH8QM4ZSB","either","3","293","","","","","","","0","1","0","","0.8380789219","0.6","0.2","0.4","0.8","0.8380789219","0.3839660868","0.2967729676","0.4578896037","","","","","","","","","","","","","","72","H","0","img/none_selected.jpg","","5","main_expt",""
"","bandit","85","460825","0.0-47.0-0.0","89764657","wem/bandit_party_2","A2EH0DH8QM4ZSB","either","3","292","","","","","","","0","1","0","","0.8233568153","0.6","0.2","0.4","0.8","0.8233568153","0.3833463511","0.3211998527","0.4825789634","","","","","","","","","","","","","","72","H","0","img/none_selected.jpg","","6","main_expt",""
"","bandit","86","462661","0.0-48.0-0.0","89764657","wem/bandit_party_2","A2EH0DH8QM4ZSB","either","3","326","","","","","","","0","1","0","","0.8672840292","0.6","0.2","0.4","0.8","0.8672840292","0.3173395401","0.4190649117","0.4013658759","","","","","","","","","","","","","","72","H","0","img/none_selected.jpg","","7","main_expt",""
"","bandit","87","464499","0.0-49.0-0.0","89764657","wem/bandit_party_2","A2EH0DH8QM4ZSB","either","3","327","","","","","","","0","0","1","0.7921451217","","0.6","0.2","0.4","0.8","","","","","0.7921451217","0.3265190876","0.5253498774","0.3721769634","","","","","","","","","","72","H","0","img/none_selected.jpg","","8","main_expt",""
"","bandit","88","466466","0.0-50.0-0.0","89764657","wem/bandit_party_2","A2EH0DH8QM4ZSB","either","3","456","","","","","","","0","0","1","0.3934089605","","0.6","0.2","0.4","0.8","","","","","0.7826569337","0.4229840653","0.5552176016","0.3934089605","","","","","","","","","","76","L","3","","","9","main_expt",""
"","bandit","89","469212","0.0-51.0-0.0","89764657","wem/bandit_party_2","A2EH0DH8QM4ZSB","either","3","1230","","","","","","","1","0","0","0.7150392401","","0.6","0.2","0.4","0.8","","","","","0.7150392401","0.5107168356","0.654745146","0.3360942297","","","","","","","","","","72","H","0","img/none_selected.jpg","","10","main_expt",""
"","bandit","90","471072","0.0-52.0-0.0","89764657","wem/bandit_party_2","A2EH0DH8QM4ZSB","either","3","349","","","","","","","0","0","1","","0.6906605055","0.6","0.2","0.4","0.8","0.6906605055","0.4383577931","0.6089063278","0.4969537907","","","","","","","","","","","","","","72","H","0","img/none_selected.jpg","","11","main_expt",""
"","bandit","91","473035","0.0-53.0-0.0","89764657","wem/bandit_party_2","A2EH0DH8QM4ZSB","either","3","448","","","","","","","0","0","1","","0.5487148549","0.6","0.2","0.4","0.8","0.6725575113","0.5487148549","0.559155858","0.4760264401","","","","","","","","","","","","","","74","J","1","","","12","main_expt",""
"","bandit","92","475193","0.0-54.0-0.0","89764657","wem/bandit_party_2","A2EH0DH8QM4ZSB","either","3","650","","","","","","","0","0","1","0.4008761295","","0.6","0.2","0.4","0.8","","","","","0.7404599176","0.7407599438","0.6464491645","0.4008761295","","","","","","","","","","76","L","3","","","13","main_expt",""
"","bandit","93","476973","0.0-55.0-0.0","89764657","wem/bandit_party_2","A2EH0DH8QM4ZSB","either","3","268","","","","","","","0","1","0","","0.6751607758","0.6","0.2","0.4","0.8","0.6751607758","0.8307131687","0.6936958995","0.358486362","","","","","","","","","","","","","","72","H","0","img/none_selected.jpg","","14","main_expt",""
"","bandit","94","478830","0.0-56.0-0.0","89764657","wem/bandit_party_2","A2EH0DH8QM4ZSB","either","3","345","","","","","","","1","0","0","0.6115440925","","0.6","0.2","0.4","0.8","","","","","0.6115440925","0.8114394421","0.731471075","0.395258373","","","","","","","","","","72","H","0","img/none_selected.jpg","","15","main_expt",""
"","bandit","95","480669","0.0-57.0-0.0","89764657","wem/bandit_party_2","A2EH0DH8QM4ZSB","either","3","328","","","","","","","0","0","1","","0.7019001419","0.6","0.2","0.4","0.8","0.7019001419","0.8242397169","0.6487541525","0.4197334966","","","","","","","","","","","","","","72","H","0","img/none_selected.jpg","","16","main_expt",""
"","bandit","96","482564","0.0-58.0-0.0","89764657","wem/bandit_party_2","A2EH0DH8QM4ZSB","either","3","382","","","","","","","1","0","0","0.7017998","","0.6","0.2","0.4","0.8","","","","","0.7017998","0.8317633157","0.7654634758","0.2160816064","","","","","","","","","","72","H","0","img/none_selected.jpg","","17","main_expt",""
"","bandit","97","484414","0.0-59.0-0.0","89764657","wem/bandit_party_2","A2EH0DH8QM4ZSB","either","3","343","","","","","","","0","1","0","","0.7672473748","0.6","0.2","0.4","0.8","0.7672473748","0.8158638682","0.7160830043","0.2058632209","","","","","","","","","","","","","","72","H","0","img/none_selected.jpg","","18","main_expt",""
"","bandit","98","486256","0.0-60.0-0.0","89764657","wem/bandit_party_2","A2EH0DH8QM4ZSB","either","3","332","","","","","","","0","1","0","","0.7950219121","0.6","0.2","0.4","0.8","0.7950219121","0.8291878069","0.6856656502","0.2314559036","","","","","","","","","","","","","","72","H","0","img/none_selected.jpg","","19","main_expt",""
"","bandit","99","488060","0.0-61.0-0.0","89764657","wem/bandit_party_2","A2EH0DH8QM4ZSB","either","3","293","","","","","","","0","1","0","","0.8460513568","0.6","0.2","0.4","0.8","0.8460513568","0.8665153398","0.6829400921","0.1762066147","","","","","","","","","","","","","","72","H","0","img/none_selected.jpg","","20","main_expt",""
"","bandit","100","490265","0.0-62.0-0.0","89764657","wem/bandit_party_2","A2EH0DH8QM4ZSB","either","3","695","","","","","","","1","0","0","0.8571228725","","0.6","0.2","0.4","0.8","","","","","0.8571228725","0.8181415858","0.6849203215","0.150477598","","","","","","","","","","72","H","0","img/none_selected.jpg","","21","main_expt",""
"","bandit","101","492107","0.0-63.0-0.0","89764657","wem/bandit_party_2","A2EH0DH8QM4ZSB","either","3","330","","","","","","","1","0","0","0.8498483749","","0.6","0.2","0.4","0.8","","","","","0.8498483749","0.7731960963","0.6832197831","0.1957635407","","","","","","","","","","72","H","0","img/none_selected.jpg","","22","main_expt",""
"","bandit","102","493928","0.0-64.0-0.0","89764657","wem/bandit_party_2","A2EH0DH8QM4ZSB","either","3","310","","","","","","","0","1","0","","0.887495535","0.6","0.2","0.4","0.8","0.887495535","0.8004626553","0.6103957523","0.2193187944","","","","","","","","","","","","","","72","H","0","img/none_selected.jpg","","23","main_expt",""
"","bandit","103","495810","0.0-65.0-0.0","89764657","wem/bandit_party_2","A2EH0DH8QM4ZSB","either","3","371","","","","","","","1","0","0","0.918231735","","0.6","0.2","0.4","0.8","","","","","0.918231735","0.7941911222","0.5485819736","0.1836328706","","","","","","","","","","72","H","0","img/none_selected.jpg","","24","main_expt",""
"","bandit","104","498768","0.0-66.0-0.0","89764657","wem/bandit_party_2","A2EH0DH8QM4ZSB","either","3","1395","","","","","","","0","1","0","","0.9111146318","0.6","0.2","0.4","0.8","0.9111146318","0.7100633829","0.5852935809","0.1410441375","","","","","","","","","","","","","","72","H","0","img/none_selected.jpg","","25","main_expt",""
"","bandit","105","501010","0.0-67.0-0.0","89764657","wem/bandit_party_2","A2EH0DH8QM4ZSB","either","3","729","","","","","","","0","0","1","","0.9190640316","0.6","0.2","0.4","0.8","0.9190640316","0.6872129375","0.6097892937","0.1082593399","","","","","","","","","","","","","","72","H","0","img/none_selected.jpg","","26","main_expt",""
"","bandit","106","503126","0.0-68.0-0.0","89764657","wem/bandit_party_2","A2EH0DH8QM4ZSB","either","3","606","","","","","","","1","0","0","0.9372614837","","0.6","0.2","0.4","0.8","","","","","0.9372614837","0.6798864795","0.6653335402","0.1042047793","","","","","","","","","","72","H","0","img/none_selected.jpg","","27","main_expt",""
"","bandit","107","505205","0.0-69.0-0.0","89764657","wem/bandit_party_2","A2EH0DH8QM4ZSB","either","3","568","","","","","","","1","0","0","0.9269484959","","0.6","0.2","0.4","0.8","","","","","0.9269484959","0.6812343762","0.6850825106","0.1153509117","","","","","","","","","","72","H","0","img/none_selected.jpg","","28","main_expt",""
"","bandit","108","507060","0.0-70.0-0.0","89764657","wem/bandit_party_2","A2EH0DH8QM4ZSB","either","3","346","","","","","","","1","0","0","0.9376772981","","0.6","0.2","0.4","0.8","","","","","0.9376772981","0.5305157647","0.7309016742","0.1601566248","","","","","","","","","","72","H","0","img/none_selected.jpg","","29","main_expt",""
"","bandit","109","508900","0.0-71.0-0.0","89764657","wem/bandit_party_2","A2EH0DH8QM4ZSB","either","3","329","","","","","","","1","0","0","0.8795505253","","0.6","0.2","0.4","0.8","","","","","0.8795505253","0.4713174284","0.8141980113","0.09548927903","","","","","","","","","","72","H","0","img/none_selected.jpg","","30","main_expt",""
"","bandit","110","510767","0.0-72.0-0.0","89764657","wem/bandit_party_2","A2EH0DH8QM4ZSB","either","3","355","","","","","","","1","0","0","0.8605863748","","0.6","0.2","0.4","0.8","","","","","0.8605863748","0.2938490869","0.8926711601","0.09272353297","","","","","","","","","","72","H","0","img/none_selected.jpg","","31","main_expt",""
"","bandit","111","512654","0.0-73.0-0.0","89764657","wem/bandit_party_2","A2EH0DH8QM4ZSB","either","3","376","","","","","","","0","1","0","","0.757600507","0.6","0.2","0.4","0.8","0.757600507","0.3005160425","0.8397563013","0.09547929832","","","","","","","","","","","","","","72","H","0","img/none_selected.jpg","","32","main_expt",""
"","bandit","112","514467","0.0-74.0-0.0","89764657","wem/bandit_party_2","A2EH0DH8QM4ZSB","either","3","299","","","","","","","0","0","1","0.7257103923","","0.6","0.2","0.4","0.8","","","","","0.7257103923","0.3661211491","0.8251988787","0.08683876107","","","","","","","","","","72","H","0","img/none_selected.jpg","","33","main_expt",""
"","bandit","113","516218","0.0-75.0-0.0","89764657","wem/bandit_party_2","A2EH0DH8QM4ZSB","either","3","240","","","","","","","1","0","0","0.5786815464","","0.6","0.2","0.4","0.8","","","","","0.5786815464","0.4614725573","0.7303528712","0.08117088791","","","","","","","","","","72","H","0","img/none_selected.jpg","","34","main_expt",""
"","bandit","114","518028","0.0-76.0-0.0","89764657","wem/bandit_party_2","A2EH0DH8QM4ZSB","either","3","293","","","","","","","0","0","1","0.4812266686","","0.6","0.2","0.4","0.8","","","","","0.4812266686","0.4597324626","0.8093673003","0.09593582107","","","","","","","","","","72","H","0","img/none_selected.jpg","","35","main_expt",""
"","bandit","115","519821","0.0-77.0-0.0","89764657","wem/bandit_party_2","A2EH0DH8QM4ZSB","either","3","282","","","","","","","0","1","0","","0.4459447539","0.6","0.2","0.4","0.8","0.4459447539","0.4294742096","0.79718131","0.1392988708","","","","","","","","","","","","","","72","H","0","img/none_selected.jpg","","36","main_expt",""
"","bandit","116","521635","0.0-78.0-0.0","89764657","wem/bandit_party_2","A2EH0DH8QM4ZSB","either","3","302","","","","","","","0","0","1","","0.5737218407","0.6","0.2","0.4","0.8","0.5737218407","0.5301274199","0.8157762275","0.07673209605","","","","","","","","","","","","","","72","H","0","img/none_selected.jpg","","37","main_expt",""
"","bandit","117","523465","0.0-79.0-0.0","89764657","wem/bandit_party_2","A2EH0DH8QM4ZSB","either","3","318","","","","","","","0","1","0","","0.6008421093","0.6","0.2","0.4","0.8","0.6008421093","0.5746889943","0.7941499978","0.1078843958","","","","","","","","","","","","","","72","H","0","img/none_selected.jpg","","38","main_expt",""
"","bandit","118","525446","0.0-80.0-0.0","89764657","wem/bandit_party_2","A2EH0DH8QM4ZSB","either","3","469","","","","","","","0","0","1","0.6076920036","","0.6","0.2","0.4","0.8","","","","","0.6076920036","0.6621100331","0.7352357368","0.09731722171","","","","","","","","","","72","H","0","img/none_selected.jpg","","39","main_expt",""
"","bandit","119","527270","0.0-81.0-0.0","89764657","wem/bandit_party_2","A2EH0DH8QM4ZSB","either","3","314","","","","","","","1","0","0","0.6616622706","","0.6","0.2","0.4","0.8","","","","","0.6616622706","0.6794361822","0.7920886563","0.2123509389","","","","","","","","","","72","H","0","img/none_selected.jpg","","40","main_expt",""
"","bandit","120","529253","0.0-82.0-0.0","89764657","wem/bandit_party_2","A2EH0DH8QM4ZSB","either","3","472","","","","","","","0","0","1","0.1265365425","","0.6","0.2","0.4","0.8","","","","","0.6945341382","0.7140523024","0.8780543775","0.1265365425","","","","","","","","","","76","L","3","","","41","main_expt",""
"","bandit","121","531053","0.0-83.0-0.0","89764657","wem/bandit_party_2","A2EH0DH8QM4ZSB","either","3","289","","","","","","","0","0","1","0.6833149102","","0.6","0.2","0.4","0.8","","","","","0.6833149102","0.6669732994","0.9167256642","0.166138795","","","","","","","","","","72","H","0","img/none_selected.jpg","","42","main_expt",""
"","bandit","122","533265","0.0-84.0-0.0","89764657","wem/bandit_party_2","A2EH0DH8QM4ZSB","either","3","698","","","","","","","0","1","0","","0.5435093165","0.6","0.2","0.4","0.8","0.7094953576","0.5435093165","0.9407985187","0.1782339186","","","","","","","","","","","","","","74","J","1","","","43","main_expt",""
"","bandit","123","535071","0.0-85.0-0.0","89764657","wem/bandit_party_2","A2EH0DH8QM4ZSB","either","3","295","","","","","","","0","0","1","","0.6002661395","0.6","0.2","0.4","0.8","0.7519468023","0.6002661395","0.9000978766","0.1342945815","","","","","","","","","","","","","","74","J","1","","","44","main_expt",""
"","bandit","124","536882","0.0-86.0-0.0","89764657","wem/bandit_party_2","A2EH0DH8QM4ZSB","either","3","298","","","","","","","0","0","1","","0.5948203474","0.6","0.2","0.4","0.8","0.7673203249","0.5948203474","0.9190036262","0.09086288848","","","","","","","","","","","","","","74","J","1","","","45","main_expt",""
"","bandit","125","538684","0.0-87.0-0.0","89764657","wem/bandit_party_2","A2EH0DH8QM4ZSB","either","3","290","","","","","","","1","0","0","0.722836051","","0.6","0.2","0.4","0.8","","","","","0.722836051","0.6230250108","0.8865788656","0.06420934006","","","","","","","","","","72","H","0","img/none_selected.jpg","","46","main_expt",""
"","bandit","126","540545","0.0-88.0-0.0","89764657","wem/bandit_party_2","A2EH0DH8QM4ZSB","either","3","347","","","","","","","0","1","0","","0.7392487755","0.6","0.2","0.4","0.8","0.7392487755","0.7239235909","0.8207935484","0.02332738683","","","","","","","","","","","","","","72","H","0","img/none_selected.jpg","","47","main_expt",""
"","bandit","127","542352","0.0-89.0-0.0","89764657","wem/bandit_party_2","A2EH0DH8QM4ZSB","either","3","296","","","","","","","0","1","0","","0.7551111279","0.6","0.2","0.4","0.8","0.7551111279","0.7715310514","0.8170742187","0.03517565614","","","","","","","","","","","","","","72","H","0","img/none_selected.jpg","","48","main_expt",""
"","bandit","128","544139","0.0-90.0-0.0","89764657","wem/bandit_party_2","A2EH0DH8QM4ZSB","either","3","276","","","","","","","0","0","1","0.6917772817","","0.6","0.2","0.4","0.8","","","","","0.6917772817","0.822179592","0.7874830355","0.04466115719","","","","","","","","","","72","H","0","img/none_selected.jpg","","49","main_expt",""
"","bandit","129","545936","0.0-91.0-0.0","89764657","wem/bandit_party_2","A2EH0DH8QM4ZSB","either","3","289","","","","","","","0","0","1","0.6689959301","","0.6","0.2","0.4","0.8","","","","","0.6689959301","0.8108951243","0.8279472521","0.05053383529","","","","","","","","","","72","H","0","img/none_selected.jpg","","50","main_expt",""
"","bandit","130","547785","0.0-92.0-0.0","89764657","wem/bandit_party_2","A2EH0DH8QM4ZSB","either","3","337","","","","","","","0","1","0","","0.7649170446","0.6","0.2","0.4","0.8","0.6020608281","0.7649170446","0.8426817256","0.04681033125","","","","","","","","","","","","","","74","J","1","","","51","main_expt",""
"","bandit","131","549527","0.0-93.0-0.0","89764657","wem/bandit_party_2","A2EH0DH8QM4ZSB","either","3","230","","","","","","","0","1","0","","0.8169848275","0.6","0.2","0.4","0.8","0.6583182673","0.8169848275","0.8377647656","0.09308222201","","","","","","","","","","","","","","74","J","1","","","52","main_expt",""
"","bandit","132","551300","0.0-94.0-0.0","89764657","wem/bandit_party_2","A2EH0DH8QM4ZSB","either","3","260","","","","","","","0","1","0","","0.8843577791","0.6","0.2","0.4","0.8","0.5419436754","0.8843577791","0.8241398149","0.1397702629","","","","","","","","","","","","","","74","J","1","","","53","main_expt",""
"","bandit","133","553083","0.0-95.0-0.0","89764657","wem/bandit_party_2","A2EH0DH8QM4ZSB","either","3","271","","","","","","","0","1","0","","0.8854515068","0.6","0.2","0.4","0.8","0.5717614462","0.8854515068","0.7289352116","0.110287685","","","","","","","","","","","","","","74","J","1","","","54","main_expt",""
"","bandit","134","554859","0.0-96.0-0.0","89764657","wem/bandit_party_2","A2EH0DH8QM4ZSB","either","3","265","","","","","","","0","0","1","0.8884574585","","0.6","0.2","0.4","0.8","","","","","0.5497935615","0.8884574585","0.5895019519","0.1843384007","","","","","","","","","","74","J","1","","","55","main_expt",""
"","bandit","135","556617","0.0-97.0-0.0","89764657","wem/bandit_party_2","A2EH0DH8QM4ZSB","either","3","244","","","","","","","1","0","0","0.8840911236","","0.6","0.2","0.4","0.8","","","","","0.4902645195","0.8840911236","0.4622464331","0.2056752237","","","","","","","","","","74","J","1","","","56","main_expt",""
"","bandit","136","558382","0.0-98.0-0.0","89764657","wem/bandit_party_2","A2EH0DH8QM4ZSB","either","3","253","","","","","","","0","1","0","","0.864283103","0.6","0.2","0.4","0.8","0.5258365243","0.864283103","0.490024734","0.3410726922","","","","","","","","","","","","","","74","J","1","","","57","main_expt",""
"","bandit","137","560145","0.0-99.0-0.0","89764657","wem/bandit_party_2","A2EH0DH8QM4ZSB","either","3","251","","","","","","","0","0","1","","0.7377821737","0.6","0.2","0.4","0.8","0.6097664349","0.7377821737","0.6182628796","0.3873695161","","","","","","","","","","","","","","74","J","1","","","58","main_expt",""
"","bandit","138","561886","0.0-100.0-0.0","89764657","wem/bandit_party_2","A2EH0DH8QM4ZSB","either","3","229","","","","","","","0","0","1","","0.7469541206","0.6","0.2","0.4","0.8","0.6016711108","0.7469541206","0.6976829826","0.3281321534","","","","","","","","","","","","","","74","J","1","","","59","main_expt",""
"","bandit","139","563657","0.0-101.0-0.0","89764657","wem/bandit_party_2","A2EH0DH8QM4ZSB","either","3","258","","","","","","","0","0","1","0.5544917648","","0.6","0.2","0.4","0.8","","","","","0.5544917648","0.8019510571","0.675433977","0.2380439254","","","","","","","","","","72","H","0","img/none_selected.jpg","","60","main_expt",""
"","bandit","140","565418","0.0-102.0-0.0","89764657","wem/bandit_party_2","A2EH0DH8QM4ZSB","either","3","249","","","","","","","0","1","0","","0.8943887388","0.6","0.2","0.4","0.8","0.6842720067","0.8943887388","0.7206550838","0.2228222105","","","","","","","","","","","","","","74","J","1","","","61","main_expt",""
"","bandit","141","567175","0.0-103.0-0.0","89764657","wem/bandit_party_2","A2EH0DH8QM4ZSB","either","3","243","","","","","","","1","0","0","0.8942973556","","0.6","0.2","0.4","0.8","","","","","0.6824345281","0.8942973556","0.7184677658","0.2489253665","","","","","","","","","","74","J","1","","","62","main_expt",""
"","bandit","142","568957","0.0-104.0-0.0","89764657","wem/bandit_party_2","A2EH0DH8QM4ZSB","either","3","271","","","","","","","0","1","0","","0.8829609874","0.6","0.2","0.4","0.8","0.7321168219","0.8829609874","0.6785259816","0.2298237489","","","","","","","","","","","","","","74","J","1","","","63","main_expt",""
"","bandit","143","570717","0.0-105.0-0.0","89764657","wem/bandit_party_2","A2EH0DH8QM4ZSB","either","3","247","","","","","","","0","1","0","","0.8175344892","0.6","0.2","0.4","0.8","0.8123013145","0.8175344892","0.6349383059","0.1849055857","","","","","","","","","","","","","","74","J","1","","","64","main_expt",""
"","bandit","144","572462","0.0-106.0-0.0","89764657","wem/bandit_party_2","A2EH0DH8QM4ZSB","either","3","233","","","","","","","0","1","0","","0.7812905168","0.6","0.2","0.4","0.8","0.8236121316","0.7812905168","0.629769122","0.2285715909","","","","","","","","","","","","","","74","J","1","","","65","main_expt",""
"","bandit","145","574234","0.0-107.0-0.0","89764657","wem/bandit_party_2","A2EH0DH8QM4ZSB","either","3","260","","","","","","","0","1","0","","0.7848445355","0.6","0.2","0.4","0.8","0.8270077233","0.7848445355","0.7158950816","0.2477643906","","","","","","","","","","","","","","74","J","1","","","66","main_expt",""
"","bandit","146","576184","0.0-108.0-0.0","89764657","wem/bandit_party_2","A2EH0DH8QM4ZSB","either","3","437","","","","","","","1","0","0","0.763143195","","0.6","0.2","0.4","0.8","","","","","0.7601471472","0.763143195","0.6309271871","0.1801078726","","","","","","","","","","74","J","1","","","67","main_expt",""
"","bandit","147","577929","0.0-109.0-0.0","89764657","wem/bandit_party_2","A2EH0DH8QM4ZSB","either","3","237","","","","","","","0","1","0","","0.7966751536","0.6","0.2","0.4","0.8","0.7567750057","0.7966751536","0.617221228","0.08479184886","","","","","","","","","","","","","","74","J","1","","","68","main_expt",""
"","bandit","148","579825","0.0-110.0-0.0","89764657","wem/bandit_party_2","A2EH0DH8QM4ZSB","either","3","381","","","","","","","0","1","0","","0.8534335227","0.6","0.2","0.4","0.8","0.6871277649","0.8534335227","0.6235929763","0.06982522498","","","","","","","","","","","","","","74","J","1","","","69","main_expt",""
"","bandit","149","581698","0.0-111.0-0.0","89764657","wem/bandit_party_2","A2EH0DH8QM4ZSB","either","3","359","","","","","","","1","0","0","0.8915498471","","0.6","0.2","0.4","0.8","","","","","0.773099018","0.8915498471","0.5543620559","0.05029268469","","","","","","","","","","74","J","1","","","70","main_expt",""
"","bandit","150","583477","0.0-112.0-0.0","89764657","wem/bandit_party_2","A2EH0DH8QM4ZSB","either","3","268","","","","","","","0","1","0","","0.8736989015","0.6","0.2","0.4","0.8","0.7412476729","0.8736989015","0.5333999135","0.06413839938","","","","","","","","","","","","","","74","J","1","","","71","main_expt",""
"","bandit","151","585268","0.0-113.0-0.0","89764657","wem/bandit_party_2","A2EH0DH8QM4ZSB","either","3","279","","","","","","","1","0","0","0.8837551658","","0.6","0.2","0.4","0.8","","","","","0.8080704968","0.8837551658","0.5905126671","0.05155778705","","","","","","","","","","74","J","1","","","72","main_expt",""
"","bandit","152","587073","0.0-114.0-0.0","89764657","wem/bandit_party_2","A2EH0DH8QM4ZSB","either","3","292","","","","","","","0","1","0","","0.8495494246","0.6","0.2","0.4","0.8","0.8270016227","0.8495494246","0.6925119087","0.0232747386","","","","","","","","","","","","","","74","J","1","","","73","main_expt",""
"","bandit","153","588810","0.0-115.0-0.0","89764657","wem/bandit_party_2","A2EH0DH8QM4ZSB","either","3","226","","","","","","","0","1","0","","0.9127472651","0.6","0.2","0.4","0.8","0.7872017979","0.9127472651","0.7134745341","0.04751547773","","","","","","","","","","","","","","74","J","1","","","74","main_expt",""
"","bandit","154","590626","0.0-116.0-0.0","89764657","wem/bandit_party_2","A2EH0DH8QM4ZSB","either","3","302","","","","","","","0","1","0","","0.9199060817","0.6","0.2","0.4","0.8","0.6167225576","0.9199060817","0.8065440948","0.05282531612","","","","","","","","","","","","","","74","J","1","","","75","main_expt",""
"","bandit","155","593218","0.0-117.0-0.0","89764657","wem/bandit_party_2","A2EH0DH8QM4ZSB","either","3","1079","","","","","","","0","1","0","","0.8691294168","0.6","0.2","0.4","0.8","0.637182095","0.8691294168","0.7849172319","0.08738729654","","","","","","","","","","","","","","74","J","1","","","76","main_expt",""
"","bandit","156","595027","0.0-118.0-0.0","89764657","wem/bandit_party_2","A2EH0DH8QM4ZSB","either","3","295","","","","","","","1","0","0","0.9111329321","","0.6","0.2","0.4","0.8","","","","","0.7169911294","0.9111329321","0.7818962729","0.08851312664","","","","","","","","","","74","J","1","","","77","main_expt",""
"","bandit","157","596807","0.0-119.0-0.0","89764657","wem/bandit_party_2","A2EH0DH8QM4ZSB","either","3","266","","","","","","","1","0","0","0.9286966754","","0.6","0.2","0.4","0.8","","","","","0.7446448061","0.9286966754","0.7002933386","0.145228539","","","","","","","","","","74","J","1","","","78","main_expt",""
"","bandit","158","598613","0.0-120.0-0.0","89764657","wem/bandit_party_2","A2EH0DH8QM4ZSB","either","3","293","","","","","","","0","1","0","","0.9616021792","0.6","0.2","0.4","0.8","0.8152221547","0.9616021792","0.6510109529","0.1669860915","","","","","","","","","","","","","","74","J","1","","","79","main_expt",""
"","bandit","159","600388","0.0-121.0-0.0","89764657","wem/bandit_party_2","A2EH0DH8QM4ZSB","either","3","262","","","","","","","0","1","0","","0.950571795","0.6","0.2","0.4","0.8","0.810351938","0.950571795","0.6765614865","0.1922913003","","","","","","","","","","","","","","74","J","1","","","80","main_expt",""
"","bandit","160","602269","0.0-122.0-0.0","89764657","wem/bandit_party_2","A2EH0DH8QM4ZSB","either","3","367","","","","","","","1","0","0","0.9331160128","","0.6","0.2","0.4","0.8","","","","","0.8895110989","0.9331160128","0.5908869344","0.2407870914","","","","","","","","","","74","J","1","","","81","main_expt",""
"","bandit","161","604075","0.0-123.0-0.0","89764657","wem/bandit_party_2","A2EH0DH8QM4ZSB","either","3","293","","","","","","","0","1","0","","0.9465986336","0.6","0.2","0.4","0.8","0.9046816681","0.9465986336","0.5267531711","0.3077898034","","","","","","","","","","","","","","74","J","1","","","82","main_expt",""
"","bandit","162","606373","0.0-124.0-0.0","89764657","wem/bandit_party_2","A2EH0DH8QM4ZSB","either","3","786","","","","","","","0","0","1","","0.9371159138","0.6","0.2","0.4","0.8","0.8465278631","0.9371159138","0.6168373964","0.2337579628","","","","","","","","","","","","","","74","J","1","","","83","main_expt",""
"","bandit","163","608417","0.0-125.0-0.0","89764657","wem/bandit_party_2","A2EH0DH8QM4ZSB","either","3","529","","","","","","","1","0","0","0.8998840018","","0.6","0.2","0.4","0.8","","","","","0.7584930438","0.8998840018","0.5733990252","0.2781329454","","","","","","","","","","74","J","1","","","84","main_expt",""
"","bandit","164","610343","0.0-126.0-0.0","89764657","wem/bandit_party_2","A2EH0DH8QM4ZSB","either","3","411","","","","","","","0","1","0","","0.9102188985","0.6","0.2","0.4","0.8","0.7727946294","0.9102188985","0.4719695616","0.3013149798","","","","","","","","","","","","","","74","J","1","","","85","main_expt",""
"","bandit","165","612198","0.0-127.0-0.0","89764657","wem/bandit_party_2","A2EH0DH8QM4ZSB","either","3","341","","","","","","","0","1","0","","0.9000055418","0.6","0.2","0.4","0.8","0.8216594778","0.9000055418","0.6941651786","0.3231836659","","","","","","","","","","","","","","74","J","1","","","86","main_expt",""
"","bandit","166","614007","0.0-128.0-0.0","89764657","wem/bandit_party_2","A2EH0DH8QM4ZSB","either","3","294","","","","","","","0","1","0","","0.8563468124","0.6","0.2","0.4","0.8","0.7833884788","0.8563468124","0.5408952125","0.3986379136","","","","","","","","","","","","","","74","J","1","","","87","main_expt",""
"","bandit","167","615860","0.0-129.0-0.0","89764657","wem/bandit_party_2","A2EH0DH8QM4ZSB","either","3","339","","","","","","","1","0","0","0.7349543302","","0.6","0.2","0.4","0.8","","","","","0.7804426693","0.7349543302","0.5438891422","0.4230151841","","","","","","","","","","74","J","1","","","88","main_expt",""
"","bandit","168","617645","0.0-130.0-0.0","89764657","wem/bandit_party_2","A2EH0DH8QM4ZSB","either","3","271","","","","","","","0","1","0","","0.7907967515","0.6","0.2","0.4","0.8","0.7930928848","0.7907967515","0.4294971294","0.3761858397","","","","","","","","","","","","","","74","J","1","","","89","main_expt",""
"","bandit","169","619468","0.0-131.0-0.0","89764657","wem/bandit_party_2","A2EH0DH8QM4ZSB","either","3","309","","","","","","","0","1","0","","0.7883246469","0.6","0.2","0.4","0.8","0.7683039237","0.7883246469","0.4928337868","0.4799086841","","","","","","","","","","","","","","74","J","1","","","90","main_expt",""
"","bandit","170","621288","0.0-132.0-0.0","89764657","wem/bandit_party_2","A2EH0DH8QM4ZSB","either","3","306","","","","","","","1","0","0","0.8389096604","","0.6","0.2","0.4","0.8","","","","","0.8072091422","0.8389096604","0.5655090935","0.4558425901","","","","","","","","","","74","J","1","","","91","main_expt",""
"","bandit","171","623072","0.0-133.0-0.0","89764657","wem/bandit_party_2","A2EH0DH8QM4ZSB","either","3","271","","","","","","","0","1","0","","0.8064187158","0.6","0.2","0.4","0.8","0.7791444337","0.8064187158","0.6154818033","0.3781515597","","","","","","","","","","","","","","74","J","1","","","92","main_expt",""
"","bandit","172","625372","0.0-134.0-0.0","89764657","wem/bandit_party_2","A2EH0DH8QM4ZSB","either","3","786","","","","","","","0","0","1","","0.7542368763","0.6","0.2","0.4","0.8","0.8498372391","0.7542368763","0.7381217307","0.2858753042","","","","","","","","","","","","","","74","J","1","","","93","main_expt",""
"","bandit","173","627323","0.0-135.0-0.0","89764657","wem/bandit_party_2","A2EH0DH8QM4ZSB","either","3","435","","","","","","","0","0","1","0.7776388333","","0.6","0.2","0.4","0.8","","","","","0.8440610374","0.6932487021","0.7776388333","0.3914428564","","","","","","","","","","75","K","2","","","94","main_expt",""
"","bandit","174","629054","0.0-136.0-0.0","89764657","wem/bandit_party_2","A2EH0DH8QM4ZSB","either","3","218","","","","","","","1","0","0","0.6706070003","","0.6","0.2","0.4","0.8","","","","","0.8092418145","0.6706070003","0.8299152283","0.3800018616","","","","","","","","","","74","J","1","","","95","main_expt",""
"","bandit","175","631362","0.0-137.0-0.0","89764657","wem/bandit_party_2","A2EH0DH8QM4ZSB","either","3","793","","","","","","","0","1","0","","0.6670251336","0.6","0.2","0.4","0.8","0.8655172998","0.6670251336","0.7697811485","0.3078584031","","","","","","","","","","","","","","74","J","1","","","96","main_expt",""
"","bandit","176","633305","0.0-138.0-0.0","89764657","wem/bandit_party_2","A2EH0DH8QM4ZSB","either","3","429","","","","","","","1","0","0","0.7023758817","","0.6","0.2","0.4","0.8","","","","","0.8735151232","0.7023758817","0.7487724405","0.218486712","","","","","","","","","","74","J","1","","","97","main_expt",""
"","bandit","177","634920","0.0-139.0-0.0","89764657","wem/bandit_party_2","A2EH0DH8QM4ZSB","either","3","101","","","","","","","0","1","0","","0.7036518389","0.6","0.2","0.4","0.8","0.84409386","0.7036518389","0.7450583294","0.2037628256","","","","","","","","","","","","","","74","J","1","","","98","main_expt",""
"","bandit","178","637358","0.0-140.0-0.0","89764657","wem/bandit_party_2","A2EH0DH8QM4ZSB","either","3","927","","","","","","","0","0","1","","0.8401346726","0.6","0.2","0.4","0.8","0.8089648913","0.8401346726","0.7227120129","0.2400196326","","","","","","","","","","","","","","74","J","1","","","99","main_expt",""
"","bandit","179","639636","0.0-141.0-0.0","89764657","wem/bandit_party_2","A2EH0DH8QM4ZSB","either","3","763","","","","","","","0","0","1","","0.8640782416","0.6","0.2","0.4","0.8","0.7259557377","0.8640782416","0.5872141049","0.3298222115","","","","","","","","","","","","","","74","J","1","","","100","main_expt",""
"","bandit","180","641582","0.0-142.0-0.0","89764657","wem/bandit_party_2","A2EH0DH8QM4ZSB","either","3","433","","","","","","","0","0","1","0.6432213136","","0.6","0.2","0.4","0.8","","","","","0.6332869741","0.8232172207","0.6432213136","0.3108047587","","","","","","","","","","75","K","2","","","101","main_expt",""
"","bandit","181","643329","0.0-143.0-0.0","89764657","wem/bandit_party_2","A2EH0DH8QM4ZSB","either","3","235","","","","","","","0","1","0","","0.8451901448","0.6","0.2","0.4","0.8","0.659443461","0.8451901448","0.6009476408","0.2869381514","","","","","","","","","","","","","","74","J","1","","","102","main_expt",""
"","bandit","182","645178","0.0-144.0-0.0","89764657","wem/bandit_party_2","A2EH0DH8QM4ZSB","either","3","334","","","","","","","0","0","1","","0.8792283932","0.6","0.2","0.4","0.8","0.5959971703","0.8792283932","0.6120105745","0.246485708","","","","","","","","","","","","","","74","J","1","","","103","main_expt",""
"","bandit","183","646952","0.0-145.0-0.0","89764657","wem/bandit_party_2","A2EH0DH8QM4ZSB","either","3","261","","","","","","","0","0","1","0.2175667678","","0.6","0.2","0.4","0.8","","","","","0.5643630141","0.8887181638","0.6821098495","0.2175667678","","","","","","","","","","76","L","3","","","104","main_expt",""
"","bandit","184","649088","0.0-146.0-0.0","89764657","wem/bandit_party_2","A2EH0DH8QM4ZSB","either","3","622","","","","","","","0","0","1","","0.5489079514","0.6","0.2","0.4","0.8","0.5489079514","0.8013578166","0.7228510016","0.2645808036","","","","","","","","","","","","","","72","H","0","img/none_selected.jpg","","105","main_expt",""
"","bandit","185","650867","0.0-147.0-0.0","89764657","wem/bandit_party_2","A2EH0DH8QM4ZSB","either","3","265","","","","","","","0","1","0","","0.7307006529","0.6","0.2","0.4","0.8","0.4336033326","0.7307006529","0.6639212405","0.2652424516","","","","","","","","","","","","","","74","J","1","","","106","main_expt",""
"","bandit","186","652657","0.0-148.0-0.0","89764657","wem/bandit_party_2","A2EH0DH8QM4ZSB","either","3","275","","","","","","","0","0","1","","0.7519500851","0.6","0.2","0.4","0.8","0.4779201531","0.7519500851","0.6237034742","0.2481661544","","","","","","","","","","","","","","74","J","1","","","107","main_expt",""
"","bandit","187","654487","0.0-149.0-0.0","89764657","wem/bandit_party_2","A2EH0DH8QM4ZSB","either","3","316","","","","","","","1","0","0","0.7457577851","","0.6","0.2","0.4","0.8","","","","","0.5075294874","0.7457577851","0.5847293191","0.2361720859","","","","","","","","","","74","J","1","","","108","main_expt",""
"","bandit","188","656308","0.0-150.0-0.0","89764657","wem/bandit_party_2","A2EH0DH8QM4ZSB","either","3","306","","","","","","","0","1","0","","0.77583868","0.6","0.2","0.4","0.8","0.522842385","0.77583868","0.6260859175","0.2799679389","","","","","","","","","","","","","","74","J","1","","","109","main_expt",""
"","bandit","189","658115","0.0-151.0-0.0","89764657","wem/bandit_party_2","A2EH0DH8QM4ZSB","either","3","292","","","","","","","0","1","0","","0.7520827962","0.6","0.2","0.4","0.8","0.419893696","0.7520827962","0.4788227383","0.3333098602","","","","","","","","","","","","","","74","J","1","","","110","main_expt",""
"","bandit","190","660207","0.0-152.0-0.0","89764657","wem/bandit_party_2","A2EH0DH8QM4ZSB","either","3","577","","","","","","","0","1","0","","0.6512809768","0.6","0.2","0.4","0.8","0.431092028","0.6512809768","0.6019778282","0.3669732535","","","","","","","","","","","","","","74","J","1","","","111","main_expt",""
"","bandit","191","661997","0.0-153.0-0.0","89764657","wem/bandit_party_2","A2EH0DH8QM4ZSB","either","3","276","","","","","","","1","0","0","0.5891937939","","0.6","0.2","0.4","0.8","","","","","0.3590071368","0.5891937939","0.546445977","0.389765336","","","","","","","","","","74","J","1","","","112","main_expt",""
"","bandit","192","663814","0.0-154.0-0.0","89764657","wem/bandit_party_2","A2EH0DH8QM4ZSB","either","3","303","","","","","","","0","1","0","","0.6490525038","0.6","0.2","0.4","0.8","0.4498419114","0.6490525038","0.6256092846","0.3191506652","","","","","","","","","","","","","","74","J","1","","","113","main_expt",""
"","bandit","193","665397","0.0-155.0-0.0","89764657","wem/bandit_party_2","A2EH0DH8QM4ZSB","either","3","69","","","","","","","0","0","1","","0.6283680234","0.6","0.2","0.4","0.8","0.4829831469","0.6283680234","0.6577617598","0.2090321438","","","","","","","","","","","","","","74","J","1","","","114","main_expt",""
"","bandit","194","667406","0.0-156.0-0.0","89764657","wem/bandit_party_2","A2EH0DH8QM4ZSB","either","3","496","","","","","","","0","1","0","","0.6064224059","0.6","0.2","0.4","0.8","0.4846695964","0.6064224059","0.7140476354","0.2094439124","","","","","","","","","","","","","","74","J","1","","","115","main_expt",""
"","bandit","195","669311","0.0-157.0-0.0","89764657","wem/bandit_party_2","A2EH0DH8QM4ZSB","either","3","392","","","","","","","0","1","0","","0.545813367","0.6","0.2","0.4","0.8","0.5396909338","0.545813367","0.6589976567","0.2695181069","","","","","","","","","","","","","","74","J","1","","","116","main_expt",""
"","bandit","196","671592","0.0-158.0-0.0","89764657","wem/bandit_party_2","A2EH0DH8QM4ZSB","either","3","769","","","","","","","0","0","1","","0.5179373022","0.6","0.2","0.4","0.8","0.5378282835","0.5179373022","0.6937703341","0.3402036285","","","","","","","","","","","","","","74","J","1","","","117","main_expt",""
"","bandit","197","673373","0.0-159.0-0.0","89764657","wem/bandit_party_2","A2EH0DH8QM4ZSB","either","3","268","","","","","","","0","0","1","","0.4014157923","0.6","0.2","0.4","0.8","0.5729988564","0.4014157923","0.77114399","0.3101634078","","","","","","","","","","","","","","74","J","1","","","118","main_expt",""
"","bandit","198","675180","0.0-160.0-0.0","89764657","wem/bandit_party_2","A2EH0DH8QM4ZSB","either","3","294","","","","","","","0","0","1","0.3242193616","","0.6","0.2","0.4","0.8","","","","","0.5630251564","0.4360264599","0.710000291","0.3242193616","","","","","","","","","","76","L","3","","","119","main_expt",""
"","bandit","199","677296","0.0-161.0-0.0","89764657","wem/bandit_party_2","A2EH0DH8QM4ZSB","either","3","600","","","","","","","0","0","1","0.6482115929","","0.6","0.2","0.4","0.8","","","","","0.6482115929","0.3297853269","0.6767982245","0.3334277272","","","","","","","","","","72","H","0","img/none_selected.jpg","","120","main_expt",""
"","bandit","200","679071","0.0-162.0-0.0","89764657","wem/bandit_party_2","A2EH0DH8QM4ZSB","either","3","261","","","","","","","1","0","0","0.7360115258","","0.6","0.2","0.4","0.8","","","","","0.5688505083","0.3767442019","0.7360115258","0.4066521311","","","","","","","","","","75","K","2","","","121","main_expt",""
"","bandit","201","680892","0.0-163.0-0.0","89764657","wem/bandit_party_2","A2EH0DH8QM4ZSB","either","3","309","","","","","","","0","1","0","","0.7258716992","0.6","0.2","0.4","0.8","0.5349597204","0.3589515546","0.7258716992","0.5193034213","","","","","","","","","","","","","","75","K","2","","","122","main_expt",""
"","bandit","202","682687","0.0-164.0-0.0","89764657","wem/bandit_party_2","A2EH0DH8QM4ZSB","either","3","280","","","","","","","1","0","0","0.7848203729","","0.6","0.2","0.4","0.8","","","","","0.412887176","0.3461890545","0.7848203729","0.5594962391","","","","","","","","","","75","K","2","","","123","main_expt",""
"","bandit","203","684487","0.0-165.0-0.0","89764657","wem/bandit_party_2","A2EH0DH8QM4ZSB","either","3","285","","","","","","","0","1","0","","0.7673004895","0.6","0.2","0.4","0.8","0.4137060999","0.2287340519","0.7673004895","0.6876014299","","","","","","","","","","","","","","75","K","2","","","124","main_expt",""
"","bandit","204","686285","0.0-166.0-0.0","89764657","wem/bandit_party_2","A2EH0DH8QM4ZSB","either","3","281","","","","","","","1","0","0","0.8020703208","","0.6","0.2","0.4","0.8","","","","","0.3226696341","0.2900718705","0.8020703208","0.7354493796","","","","","","","","","","75","K","2","","","125","main_expt",""
"","bandit","205","688063","0.0-167.0-0.0","89764657","wem/bandit_party_2","A2EH0DH8QM4ZSB","either","3","263","","","","","","","1","0","0","0.8196031782","","0.6","0.2","0.4","0.8","","","","","0.3904211026","0.2880997441","0.8196031782","0.76840964","","","","","","","","","","75","K","2","","","126","main_expt",""
"","bandit","206","689867","0.0-168.0-0.0","89764657","wem/bandit_party_2","A2EH0DH8QM4ZSB","either","3","287","","","","","","","0","1","0","","0.7095492128","0.6","0.2","0.4","0.8","0.4227014292","0.3451069126","0.7095492128","0.7310750685","","","","","","","","","","","","","","75","K","2","","","127","main_expt",""
"","bandit","207","691678","0.0-169.0-0.0","89764657","wem/bandit_party_2","A2EH0DH8QM4ZSB","either","3","296","","","","","","","0","1","0","","0.711577854","0.6","0.2","0.4","0.8","0.543317668","0.3129298861","0.711577854","0.6582635175","","","","","","","","","","","","","","75","K","2","","","128","main_expt",""
"","bandit","208","693473","0.0-170.0-0.0","89764657","wem/bandit_party_2","A2EH0DH8QM4ZSB","either","3","282","","","","","","","1","0","0","0.7022761705","","0.6","0.2","0.4","0.8","","","","","0.5906282681","0.3507055597","0.7022761705","0.7529887683","","","","","","","","","","75","K","2","","","129","main_expt",""
"","bandit","209","695235","0.0-171.0-0.0","89764657","wem/bandit_party_2","A2EH0DH8QM4ZSB","either","3","253","","","","","","","1","0","0","0.7309419319","","0.6","0.2","0.4","0.8","","","","","0.6636268631","0.3753424236","0.7309419319","0.7929301986","","","","","","","","","","75","K","2","","","130","main_expt",""
"","bandit","210","697011","0.0-172.0-0.0","89764657","wem/bandit_party_2","A2EH0DH8QM4ZSB","either","3","260","","","","","","","1","0","0","0.6904825683","","0.6","0.2","0.4","0.8","","","","","0.5686699027","0.3473486375","0.6904825683","0.8149544693","","","","","","","","","","75","K","2","","","131","main_expt",""
"","bandit","211","698767","0.0-173.0-0.0","89764657","wem/bandit_party_2","A2EH0DH8QM4ZSB","either","3","241","","","","","","","0","0","1","0.7153166113","","0.6","0.2","0.4","0.8","","","","","0.6564012045","0.303679922","0.7153166113","0.7626544417","","","","","","","","","","75","K","2","","","132","main_expt",""
"","bandit","212","700759","0.0-174.0-0.0","89764657","wem/bandit_party_2","A2EH0DH8QM4ZSB","either","3","476","","","","","","","0","1","0","","0.8135501627","0.6","0.2","0.4","0.8","0.5876654864","0.3385565331","0.8135501627","0.7584501248","","","","","","","","","","","","","","75","K","2","","","133","main_expt",""
"","bandit","213","702541","0.0-175.0-0.0","89764657","wem/bandit_party_2","A2EH0DH8QM4ZSB","either","3","267","","","","","","","1","0","0","0.7707892239","","0.6","0.2","0.4","0.8","","","","","0.5299368298","0.3686406913","0.7707892239","0.7905015291","","","","","","","","","","75","K","2","","","134","main_expt",""
"","bandit","214","704350","0.0-176.0-0.0","89764657","wem/bandit_party_2","A2EH0DH8QM4ZSB","either","3","295","","","","","","","1","0","0","0.7689088841","","0.6","0.2","0.4","0.8","","","","","0.4547966061","0.3672202126","0.7689088841","0.7515189777","","","","","","","","","","75","K","2","","","135","main_expt",""
"","bandit","215","706104","0.0-177.0-0.0","89764657","wem/bandit_party_2","A2EH0DH8QM4ZSB","either","3","239","","","","","","","0","0","1","","0.6641324257","0.6","0.2","0.4","0.8","0.5290841583","0.4064769993","0.6641324257","0.7293518859","","","","","","","","","","","","","","75","K","2","","","136","main_expt",""
"","bandit","216","708091","0.0-178.0-0.0","89764657","wem/bandit_party_2","A2EH0DH8QM4ZSB","either","3","471","","","","","","","0","1","0","","0.635388201","0.6","0.2","0.4","0.8","0.419904672","0.3492503667","0.635388201","0.7286216209","","","","","","","","","","","","","","75","K","2","","","137","main_expt",""
"","bandit","217","709830","0.0-179.0-0.0","89764657","wem/bandit_party_2","A2EH0DH8QM4ZSB","either","3","224","","","","","","","0","1","0","","0.6889508363","0.6","0.2","0.4","0.8","0.4532768315","0.3315752647","0.6889508363","0.7425921641","","","","","","","","","","","","","","75","K","2","","","138","main_expt",""
"","bandit","218","711587","0.0-180.0-0.0","89764657","wem/bandit_party_2","A2EH0DH8QM4ZSB","either","3","241","","","","","","","0","0","1","0.6481427694","","0.6","0.2","0.4","0.8","","","","","0.4194835996","0.3080831972","0.6481427694","0.7356638012","","","","","","","","","","75","K","2","","","139","main_expt",""
"","bandit","219","713356","0.0-181.0-0.0","89764657","wem/bandit_party_2","A2EH0DH8QM4ZSB","either","3","256","","","","","","","1","0","0","0.6497449761","","0.6","0.2","0.4","0.8","","","","","0.420008375","0.3254670704","0.6497449761","0.7334346803","","","","","","","","","","75","K","2","","","140","main_expt",""
"","bandit","220","715199","0.0-182.0-0.0","89764657","wem/bandit_party_2","A2EH0DH8QM4ZSB","either","3","328","","","","","","","1","0","0","0.7328205829","","0.6","0.2","0.4","0.8","","","","","0.3908595681","0.3452870884","0.7328205829","0.7737071977","","","","","","","","","","75","K","2","","","141","main_expt",""
"","bandit","221","716978","0.0-183.0-0.0","89764657","wem/bandit_party_2","A2EH0DH8QM4ZSB","either","3","266","","","","","","","0","0","1","","0.6396752577","0.6","0.2","0.4","0.8","0.3994278682","0.2659846132","0.6396752577","0.7912630164","","","","","","","","","","","","","","75","K","2","","","142","main_expt",""
"","bandit","222","718730","0.0-184.0-0.0","89764657","wem/bandit_party_2","A2EH0DH8QM4ZSB","either","3","236","","","","","","","0","0","1","0.5974809775","","0.6","0.2","0.4","0.8","","","","","0.3137486051","0.2549781044","0.5974809775","0.7709923268","","","","","","","","","","75","K","2","","","143","main_expt",""
"","bandit","223","720562","0.0-185.0-0.0","89764657","wem/bandit_party_2","A2EH0DH8QM4ZSB","either","3","318","","","","","","","0","0","1","","0.3603981418","0.6","0.2","0.4","0.8","0.3961992406","0.3603981418","0.5953980303","0.7492848764","","","","","","","","","","","","","","74","J","1","","","144","main_expt",""
"","bandit","224","722343","0.0-186.0-0.0","89764657","wem/bandit_party_2","A2EH0DH8QM4ZSB","either","3","266","","","","","","","1","0","0","0.7343485297","","0.6","0.2","0.4","0.8","","","","","0.3186856111","0.3682949958","0.6215671736","0.7343485297","","","","","","","","","","76","L","3","","","145","main_expt",""
"","bandit","225","724183","0.0-187.0-0.0","89764657","wem/bandit_party_2","A2EH0DH8QM4ZSB","either","3","325","","","","","","","1","0","0","0.7701032705","","0.6","0.2","0.4","0.8","","","","","0.2724247948","0.5028772858","0.5766937592","0.7701032705","","","","","","","","","","76","L","3","","","146","main_expt",""
"","bandit","226","725997","0.0-188.0-0.0","89764657","wem/bandit_party_2","A2EH0DH8QM4ZSB","either","3","299","","","","","","","1","0","0","0.7521601774","","0.6","0.2","0.4","0.8","","","","","0.2844288079","0.4186890645","0.4600492943","0.7521601774","","","","","","","","","","76","L","3","","","147","main_expt",""
"","bandit","227","727785","0.0-189.0-0.0","89764657","wem/bandit_party_2","A2EH0DH8QM4ZSB","either","3","272","","","","","","","1","0","0","0.7762143641","","0.6","0.2","0.4","0.8","","","","","0.3095389551","0.3928328601","0.4575448178","0.7762143641","","","","","","","","","","76","L","3","","","148","main_expt",""
"","bandit","228","729541","0.0-190.0-0.0","89764657","wem/bandit_party_2","A2EH0DH8QM4ZSB","either","3","240","","","","","","","1","0","0","0.716016993","","0.6","0.2","0.4","0.8","","","","","0.2464654743","0.4220063763","0.3840278576","0.716016993","","","","","","","","","","76","L","3","","","149","main_expt",""
"","bandit","229","731293","0.0-191.0-0.0","89764657","wem/bandit_party_2","A2EH0DH8QM4ZSB","either","3","238","","","","","","","1","0","0","0.7182774931","","0.6","0.2","0.4","0.8","","","","","0.2088091358","0.3206822378","0.3004406684","0.7182774931","","","","","","","","","","76","L","3","","","150","main_expt",""
"","bandit","230","732996","0.0-192.0-0.0","89764657","wem/bandit_party_2","A2EH0DH8QM4ZSB","either","3","187","","","","","","","1","0","0","0.8028216805","","0.6","0.2","0.4","0.8","","","","","0.2670014618","0.3380172956","0.2769981479","0.8028216805","","","","","","","","","","76","L","3","","","151","main_expt",""
"","bandit","231","735062","0.0-193.0-0.0","89764657","wem/bandit_party_2","A2EH0DH8QM4ZSB","either","3","552","","","","","","","0","1","0","","0.8634692279","0.6","0.2","0.4","0.8","0.3100930243","0.2461440624","0.40565407","0.8634692279","","","","","","","","","","","","","","76","L","3","","","152","main_expt",""
"","bandit","232","736850","0.0-194.0-0.0","89764657","wem/bandit_party_2","A2EH0DH8QM4ZSB","either","3","272","","","","","","","1","0","0","0.7719190238","","0.6","0.2","0.4","0.8","","","","","0.3796096158","0.1852716423","0.3829351634","0.7719190238","","","","","","","","","","76","L","3","","","153","main_expt",""
"","bandit","233","738645","0.0-195.0-0.0","89764657","wem/bandit_party_2","A2EH0DH8QM4ZSB","either","3","280","","","","","","","1","0","0","0.8343429945","","0.6","0.2","0.4","0.8","","","","","0.2265028128","0.1660439368","0.4912137185","0.8343429945","","","","","","","","","","76","L","3","","","154","main_expt",""
"","bandit","234","740383","0.0-196.0-0.0","89764657","wem/bandit_party_2","A2EH0DH8QM4ZSB","either","3","223","","","","","","","1","0","0","0.7908731232","","0.6","0.2","0.4","0.8","","","","","0.2135741777","0.2241607793","0.5312535156","0.7908731232","","","","","","","","","","76","L","3","","","155","main_expt",""
"","bandit","235","742132","0.0-197.0-0.0","89764657","wem/bandit_party_2","A2EH0DH8QM4ZSB","either","3","234","","","","","","","1","0","0","0.7848911391","","0.6","0.2","0.4","0.8","","","","","0.1338357519","0.1566338899","0.5747898199","0.7848911391","","","","","","","","","","76","L","3","","","156","main_expt",""
"","bandit","236","743884","0.0-198.0-0.0","89764657","wem/bandit_party_2","A2EH0DH8QM4ZSB","either","3","235","","","","","","","1","0","0","0.7467155263","","0.6","0.2","0.4","0.8","","","","","0.1344370697","0.1839373886","0.5948125822","0.7467155263","","","","","","","","","","76","L","3","","","157","main_expt",""
"","bandit","237","745617","0.0-199.0-0.0","89764657","wem/bandit_party_2","A2EH0DH8QM4ZSB","either","3","217","","","","","","","1","0","0","0.7413618202","","0.6","0.2","0.4","0.8","","","","","0.1217930933","0.155802242","0.6533804049","0.7413618202","","","","","","","","","","76","L","3","","","158","main_expt",""
"","bandit","238","747209","0.0-200.0-0.0","89764657","wem/bandit_party_2","A2EH0DH8QM4ZSB","either","3","74","","","","","","","1","0","0","0.6882043704","","0.6","0.2","0.4","0.8","","","","","0.08524485746","0.2304237345","0.5777198579","0.6882043704","","","","","","","","","","76","L","3","","","159","main_expt",""
"","bandit","239","749332","0.0-201.0-0.0","89764657","wem/bandit_party_2","A2EH0DH8QM4ZSB","either","3","609","","","","","","","1","0","0","0.7253096401","","0.6","0.2","0.4","0.8","","","","","0.07332219892","0.2242026456","0.6777741118","0.7253096401","","","","","","","","","","76","L","3","","","160","main_expt",""
"","bandit","240","751089","0.0-202.0-0.0","89764657","wem/bandit_party_2","A2EH0DH8QM4ZSB","either","3","241","","","","","","","0","0","1","0.6989182833","","0.6","0.2","0.4","0.8","","","","","0.1063489691","0.2708915048","0.6249074267","0.6989182833","","","","","","","","","","76","L","3","","","161","main_expt",""
"","bandit","241","753259","0.0-203.0-0.0","89764657","wem/bandit_party_2","A2EH0DH8QM4ZSB","either","3","655","","","","","","","0","1","0","","0.7679575172","0.6","0.2","0.4","0.8","0.09670310095","0.2921592604","0.6755041601","0.7679575172","","","","","","","","","","","","","","76","L","3","","","162","main_expt",""
"","bandit","242","754973","0.0-204.0-0.0","89764657","wem/bandit_party_2","A2EH0DH8QM4ZSB","either","3","197","","","","","","","0","1","0","","0.6877390752","0.6","0.2","0.4","0.8","0.1266359811","0.2050535257","0.6461818487","0.6877390752","","","","","","","","","","","","","","76","L","3","","","163","main_expt",""
"","bandit","243","756562","0.0-205.0-0.0","89764657","wem/bandit_party_2","A2EH0DH8QM4ZSB","either","3","75","","","","","","","0","0","1","0.6957575266","","0.6","0.2","0.4","0.8","","","","","0.1212611996","0.1998759094","0.76368027","0.6957575266","","","","","","","","","","76","L","3","","","164","main_expt",""
"","bandit","244","758709","0.0-206.0-0.0","89764657","wem/bandit_party_2","A2EH0DH8QM4ZSB","either","3","630","","","","","","","1","0","0","0.6760148625","","0.6","0.2","0.4","0.8","","","","","0.1917887173","0.1821974317","0.8400099296","0.6760148625","","","","","","","","","","76","L","3","","","165","main_expt",""
"","bandit","245","760449","0.0-207.0-0.0","89764657","wem/bandit_party_2","A2EH0DH8QM4ZSB","either","3","221","","","","","","","1","0","0","0.6463317238","","0.6","0.2","0.4","0.8","","","","","0.1560613016","0.2916844583","0.8573275969","0.6463317238","","","","","","","","","","76","L","3","","","166","main_expt",""
"","bandit","246","762361","0.0-208.0-0.0","89764657","wem/bandit_party_2","A2EH0DH8QM4ZSB","either","3","395","","","","","","","0","0","1","","0.3087465624","0.6","0.2","0.4","0.8","0.2214887095","0.3087465624","0.7735369509","0.5613055562","","","","","","","","","","","","","","74","J","1","","","167","main_expt",""
"","bandit","247","764134","0.0-209.0-0.0","89764657","wem/bandit_party_2","A2EH0DH8QM4ZSB","either","3","259","","","","","","","1","0","0","0.5586162784","","0.6","0.2","0.4","0.8","","","","","0.3463453368","0.3896626528","0.8091314607","0.5586162784","","","","","","","","","","76","L","3","","","168","main_expt",""
"","bandit","248","765896","0.0-210.0-0.0","89764657","wem/bandit_party_2","A2EH0DH8QM4ZSB","either","3","247","","","","","","","0","0","1","","0.597448185","0.6","0.2","0.4","0.8","0.3222551453","0.4458805252","0.8364166478","0.597448185","","","","","","","","","","","","","","76","L","3","","","169","main_expt",""
"","bandit","249","767681","0.0-211.0-0.0","89764657","wem/bandit_party_2","A2EH0DH8QM4ZSB","either","3","269","","","","","","","0","1","0","","0.5351242352","0.6","0.2","0.4","0.8","0.2556410415","0.4844269655","0.7867883415","0.5351242352","","","","","","","","","","","","","","76","L","3","","","170","main_expt",""
"","bandit","250","769460","0.0-212.0-0.0","89764657","wem/bandit_party_2","A2EH0DH8QM4ZSB","either","3","264","","","","","","","1","0","0","0.4819966971","","0.6","0.2","0.4","0.8","","","","","0.2248109201","0.4858642724","0.8728822524","0.4819966971","","","","","","","","","","76","L","3","","","171","main_expt",""
"","bandit","251","771227","0.0-213.0-0.0","89764657","wem/bandit_party_2","A2EH0DH8QM4ZSB","either","3","251","","","","","","","0","0","1","","0.4038669266","0.6","0.2","0.4","0.8","0.3468742366","0.5060245996","0.7804912391","0.4038669266","","","","","","","","","","","","","","76","L","3","","","172","main_expt",""
"","bandit","252","772995","0.0-214.0-0.0","89764657","wem/bandit_party_2","A2EH0DH8QM4ZSB","either","3","250","","","","","","","1","0","0","0.3102533384","","0.6","0.2","0.4","0.8","","","","","0.234408543","0.5413528159","0.7728490534","0.3102533384","","","","","","","","","","76","L","3","","","173","main_expt",""
"","bandit","253","774823","0.0-215.0-0.0","89764657","wem/bandit_party_2","A2EH0DH8QM4ZSB","either","3","312","","","","","","","1","0","0","0.3818943333","","0.6","0.2","0.4","0.8","","","","","0.1404050277","0.6505326818","0.814185781","0.3818943333","","","","","","","","","","76","L","3","","","174","main_expt",""
"","bandit","254","776598","0.0-216.0-0.0","89764657","wem/bandit_party_2","A2EH0DH8QM4ZSB","either","3","259","","","","","","","0","0","1","0.2893198216","","0.6","0.2","0.4","0.8","","","","","0.1081611795","0.6470977149","0.8010682597","0.2893198216","","","","","","","","","","76","L","3","","","175","main_expt",""
"","bandit","255","778640","0.0-217.0-0.0","89764657","wem/bandit_party_2","A2EH0DH8QM4ZSB","either","3","524","","","","","","","0","0","1","","0.226416223","0.6","0.2","0.4","0.8","0.0730283124","0.6844229635","0.7083228223","0.226416223","","","","","","","","","","","","","","76","L","3","","","176","main_expt",""
"","bandit","256","780496","0.0-218.0-0.0","89764657","wem/bandit_party_2","A2EH0DH8QM4ZSB","either","3","338","","","","","","","0","0","1","0.2786676386","","0.6","0.2","0.4","0.8","","","","","0.07044941978","0.6883244284","0.7408938443","0.2786676386","","","","","","","","","","76","L","3","","","177","main_expt",""
"","bandit","257","782348","0.0-219.0-0.0","89764657","wem/bandit_party_2","A2EH0DH8QM4ZSB","either","3","335","","","","","","","0","0","1","0.06886985111","","0.6","0.2","0.4","0.8","","","","","0.06886985111","0.6098590842","0.6621187214","0.2279078815","","","","","","","","","","72","H","0","img/none_selected.jpg","","178","main_expt",""
"","bandit","258","784164","0.0-220.0-0.0","89764657","wem/bandit_party_2","A2EH0DH8QM4ZSB","either","3","299","","","","","","","0","0","1","","0.5924449164","0.6","0.2","0.4","0.8","0.07254371148","0.5924449164","0.6765487854","0.1690126781","","","","","","","","","","","","","","74","J","1","","","179","main_expt",""
"","bandit","259","785921","0.0-221.0-0.0","89764657","wem/bandit_party_2","A2EH0DH8QM4ZSB","either","3","239","","","","","","","1","0","0","0.7276027883","","0.6","0.2","0.4","0.8","","","","","0.055057054","0.4915111467","0.7276027883","0.1356066944","","","","","","","","","","75","K","2","","","180","main_expt",""
"","bandit","260","787720","0.0-222.0-0.0","89764657","wem/bandit_party_2","A2EH0DH8QM4ZSB","either","3","281","","","","","","","0","0","1","0.7083410305","","0.6","0.2","0.4","0.8","","","","","0.1187845962","0.4713933083","0.7083410305","0.1889441784","","","","","","","","","","75","K","2","","","181","main_expt",""
"","bandit","261","789476","0.0-223.0-0.0","89764657","wem/bandit_party_2","A2EH0DH8QM4ZSB","either","3","237","","","","","","","0","1","0","","0.6489729838","0.6","0.2","0.4","0.8","0.1304227184","0.500114893","0.6489729838","0.2163976064","","","","","","","","","","","","","","75","K","2","","","182","main_expt",""
"","bandit","262","791285","0.0-224.0-0.0","89764657","wem/bandit_party_2","A2EH0DH8QM4ZSB","either","3","291","","","","","","","1","0","0","0.6956751073","","0.6","0.2","0.4","0.8","","","","","0.1374638341","0.4949273894","0.6956751073","0.1902524086","","","","","","","","","","75","K","2","","","183","main_expt",""
"","bandit","263","793052","0.0-225.0-0.0","89764657","wem/bandit_party_2","A2EH0DH8QM4ZSB","either","3","252","","","","","","","1","0","0","0.6066537109","","0.6","0.2","0.4","0.8","","","","","0.1914365344","0.4271361476","0.6066537109","0.2265805791","","","","","","","","","","75","K","2","","","184","main_expt",""
"","bandit","264","794782","0.0-226.0-0.0","89764657","wem/bandit_party_2","A2EH0DH8QM4ZSB","either","3","214","","","","","","","1","0","0","0.6337362372","","0.6","0.2","0.4","0.8","","","","","0.1939872458","0.4558255176","0.6337362372","0.1843452782","","","","","","","","","","75","K","2","","","185","main_expt",""
"","bandit","265","796559","0.0-227.0-0.0","89764657","wem/bandit_party_2","A2EH0DH8QM4ZSB","either","3","261","","","","","","","0","1","0","","0.5908962551","0.6","0.2","0.4","0.8","0.2219937035","0.4031301461","0.5908962551","0.1898387663","","","","","","","","","","","","","","75","K","2","","","186","main_expt",""
"","bandit","266","798236","0.0-228.0-0.0","89764657","wem/bandit_party_2","A2EH0DH8QM4ZSB","either","3","160","","","","","","","0","1","0","","0.7651761031","0.6","0.2","0.4","0.8","0.2024523472","0.3993697366","0.7651761031","0.210498268","","","","","","","","","","","","","","75","K","2","","","187","main_expt",""
"","bandit","267","800020","0.0-229.0-0.0","89764657","wem/bandit_party_2","A2EH0DH8QM4ZSB","either","3","268","","","","","","","0","1","0","","0.7928336054","0.6","0.2","0.4","0.8","0.1930401344","0.4478687375","0.7928336054","0.2368649008","","","","","","","","","","","","","","75","K","2","","","188","main_expt",""
"","bandit","268","801782","0.0-230.0-0.0","89764657","wem/bandit_party_2","A2EH0DH8QM4ZSB","either","3","245","","","","","","","0","1","0","","0.8917358491","0.6","0.2","0.4","0.8","0.3255404916","0.3699601256","0.8917358491","0.291591963","","","","","","","","","","","","","","75","K","2","","","189","main_expt",""
"","bandit","269","803486","0.0-231.0-0.0","89764657","wem/bandit_party_2","A2EH0DH8QM4ZSB","either","3","186","","","","","","","0","1","0","","0.898448025","0.6","0.2","0.4","0.8","0.2364063212","0.3723251068","0.898448025","0.4411779124","","","","","","","","","","","","","","75","K","2","","","190","main_expt",""
"","bandit","270","805434","0.0-232.0-0.0","89764657","wem/bandit_party_2","A2EH0DH8QM4ZSB","either","3","432","","","","","","","0","1","0","","0.9186708851","0.6","0.2","0.4","0.8","0.2662767285","0.3309849287","0.9186708851","0.3968704403","","","","","","","","","","","","","","75","K","2","","","191","main_expt",""
"","bandit","271","807226","0.0-233.0-0.0","89764657","wem/bandit_party_2","A2EH0DH8QM4ZSB","either","3","274","","","","","","","0","0","1","","0.9314477517","0.6","0.2","0.4","0.8","0.2815174114","0.2865625263","0.9314477517","0.4512817608","","","","","","","","","","","","","","75","K","2","","","192","main_expt",""
"","bandit","272","808978","0.0-234.0-0.0","89764657","wem/bandit_party_2","A2EH0DH8QM4ZSB","either","3","234","","","","","","","0","1","0","","0.9090465067","0.6","0.2","0.4","0.8","0.3461293965","0.2862811746","0.9090465067","0.4788006455","","","","","","","","","","","","","","75","K","2","","","193","main_expt",""
"","bandit","273","810759","0.0-235.0-0.0","89764657","wem/bandit_party_2","A2EH0DH8QM4ZSB","either","3","261","","","","","","","1","0","0","0.8762249788","","0.6","0.2","0.4","0.8","","","","","0.3303735913","0.2785288642","0.8762249788","0.4651889587","","","","","","","","","","75","K","2","","","194","main_expt",""
"","bandit","274","812536","0.0-236.0-0.0","89764657","wem/bandit_party_2","A2EH0DH8QM4ZSB","either","3","258","","","","","","","0","1","0","","0.8623185747","0.6","0.2","0.4","0.8","0.3194565039","0.2283941808","0.8623185747","0.4718629942","","","","","","","","","","","","","","75","K","2","","","195","main_expt",""
"","bandit","275","814400","0.0-237.0-0.0","89764657","wem/bandit_party_2","A2EH0DH8QM4ZSB","either","3","347","","","","","","","1","0","0","0.7745977574","","0.6","0.2","0.4","0.8","","","","","0.4103944464","0.214282227","0.7745977574","0.3825708332","","","","","","","","","","75","K","2","","","196","main_expt",""
"","bandit","276","816402","0.0-238.0-0.0","89764657","wem/bandit_party_2","A2EH0DH8QM4ZSB","either","3","484","","","","","","","0","1","0","","0.7723069829","0.6","0.2","0.4","0.8","0.4445726534","0.1422959513","0.7723069829","0.4530864699","","","","","","","","","","","","","","75","K","2","","","197","main_expt",""
"","bandit","277","818212","0.0-239.0-0.0","89764657","wem/bandit_party_2","A2EH0DH8QM4ZSB","either","3","292","","","","","","","0","1","0","","0.7084082875","0.6","0.2","0.4","0.8","0.4351718099","0.1126324943","0.7084082875","0.4337652667","","","","","","","","","","","","","","75","K","2","","","198","main_expt",""
"","bandit","278","819994","0.0-240.0-0.0","89764657","wem/bandit_party_2","A2EH0DH8QM4ZSB","either","3","264","","","","","","","0","1","0","","0.7016883558","0.6","0.2","0.4","0.8","0.4641294157","0.1144166609","0.7016883558","0.4138332966","","","","","","","","","","","","","","75","K","2","","","199","main_expt",""
"","bandit","279","821802","0.0-241.0-0.0","89764657","wem/bandit_party_2","A2EH0DH8QM4ZSB","either","3","290","","","","","","","0","0","1","","0.6504384346","0.6","0.2","0.4","0.8","0.4468687069","0.1518003708","0.6504384346","0.5005175686","","","","","","","","","","","","","","75","K","2","","","200","main_expt",""
"","bandit","280","823574","0.0-242.0-0.0","89764657","wem/bandit_party_2","A2EH0DH8QM4ZSB","either","3","254","","","","","","","0","1","0","","0.7904945102","0.6","0.2","0.4","0.8","0.5087435212","0.1974433607","0.7904945102","0.5122642399","","","","","","","","","","","","","","75","K","2","","","201","main_expt",""
"","bandit","281","825429","0.0-243.0-0.0","89764657","wem/bandit_party_2","A2EH0DH8QM4ZSB","either","3","336","","","","","","","0","0","1","","0.2000842809","0.6","0.2","0.4","0.8","0.4992132835","0.2000842809","0.7039472437","0.5414597976","","","","","","","","","","","","","","74","J","1","","","202","main_expt",""
"","bandit","282","827193","0.0-244.0-0.0","89764657","wem/bandit_party_2","A2EH0DH8QM4ZSB","either","3","242","","","","","","","0","0","1","","0.7478807213","0.6","0.2","0.4","0.8","0.4859842053","0.1715580826","0.7478807213","0.4993649945","","","","","","","","","","","","","","75","K","2","","","203","main_expt",""
"","bandit","283","828979","0.0-245.0-0.0","89764657","wem/bandit_party_2","A2EH0DH8QM4ZSB","either","3","267","","","","","","","0","0","1","","0.7346150791","0.6","0.2","0.4","0.8","0.6162755314","0.3028604286","0.7346150791","0.4056752737","","","","","","","","","","","","","","75","K","2","","","204","main_expt",""
"","bandit","284","830786","0.0-246.0-0.0","89764657","wem/bandit_party_2","A2EH0DH8QM4ZSB","either","3","288","","","","","","","0","0","1","","0.3714949669","0.6","0.2","0.4","0.8","0.6204906845","0.3714949669","0.7240623961","0.4174768156","","","","","","","","","","","","","","74","J","1","","","205","main_expt",""
"","bandit","285","832570","0.0-247.0-0.0","89764657","wem/bandit_party_2","A2EH0DH8QM4ZSB","either","3","266","","","","","","","0","0","1","","0.3034865557","0.6","0.2","0.4","0.8","0.6390595606","0.3034865557","0.733657826","0.4364097613","","","","","","","","","","","","","","74","J","1","","","206","main_expt",""
"","bandit","286","834252","0.0-248.0-0.0","89764657","wem/bandit_party_2","A2EH0DH8QM4ZSB","either","3","163","","","","","","","0","0","1","","0.6022157482","0.6","0.2","0.4","0.8","0.6022157482","0.2688105372","0.6797091947","0.4666062126","","","","","","","","","","","","","","72","H","0","img/none_selected.jpg","","207","main_expt",""
"","bandit","287","836099","0.0-249.0-0.0","89764657","wem/bandit_party_2","A2EH0DH8QM4ZSB","either","3","328","","","","","","","0","0","1","0.4594719295","","0.6","0.2","0.4","0.8","","","","","0.6598502583","0.2240001326","0.472157919","0.4594719295","","","","","","","","","","76","L","3","","","208","main_expt",""
"","bandit","288","837846","0.0-250.0-0.0","89764657","wem/bandit_party_2","A2EH0DH8QM4ZSB","either","3","227","","","","","","","0","1","0","","0.4993955773","0.6","0.2","0.4","0.8","0.6329069529","0.3284172364","0.4993955773","0.5415101973","","","","","","","","","","","","","","75","K","2","","","209","main_expt",""
"","bandit","289","839574","0.0-251.0-0.0","89764657","wem/bandit_party_2","A2EH0DH8QM4ZSB","either","3","211","","","","","","","0","0","1","","0.3923888982","0.6","0.2","0.4","0.8","0.5418549626","0.3178667136","0.3923888982","0.5627952802","","","","","","","","","","","","","","75","K","2","","","210","main_expt",""
"","bandit","290","841305","0.0-252.0-0.0","89764657","wem/bandit_party_2","A2EH0DH8QM4ZSB","either","3","212","","","","","","","0","0","1","","0.4183885941","0.6","0.2","0.4","0.8","0.7265410197","0.278360526","0.4183885941","0.5779033475","","","","","","","","","","","","","","75","K","2","","","211","main_expt",""
"","bandit","291","843037","0.0-253.0-0.0","89764657","wem/bandit_party_2","A2EH0DH8QM4ZSB","either","3","213","","","","","","","0","1","0","","0.5367383083","0.6","0.2","0.4","0.8","0.6550819281","0.2720231684","0.5367383083","0.6169713091","","","","","","","","","","","","","","75","K","2","","","212","main_expt",""
"","bandit","292","845207","0.0-254.0-0.0","89764657","wem/bandit_party_2","A2EH0DH8QM4ZSB","either","3","654","","","","","","","0","0","1","","0.3445332441","0.6","0.2","0.4","0.8","0.5812500281","0.3445332441","0.5779451767","0.5688165975","","","","","","","","","","","","","","74","J","1","","","213","main_expt",""
"","bandit","293","847026","0.0-255.0-0.0","89764657","wem/bandit_party_2","A2EH0DH8QM4ZSB","either","3","299","","","","","","","1","0","0","0.5615700258","","0.6","0.2","0.4","0.8","","","","","0.6912727382","0.331154659","0.5615700258","0.5354690829","","","","","","","","","","75","K","2","","","214","main_expt",""
"","bandit","294","848822","0.0-256.0-0.0","89764657","wem/bandit_party_2","A2EH0DH8QM4ZSB","either","3","276","","","","","","","0","0","1","","0.5361399643","0.6","0.2","0.4","0.8","0.695573978","0.3168016653","0.5361399643","0.4395706401","","","","","","","","","","","","","","75","K","2","","","215","main_expt",""
"","bandit","295","850737","0.0-257.0-0.0","89764657","wem/bandit_party_2","A2EH0DH8QM4ZSB","either","3","400","","","","","","","0","0","1","","0.4522294324","0.6","0.2","0.4","0.8","0.6531454011","0.2870858596","0.620750855","0.4522294324","","","","","","","","","","","","","","76","L","3","","","216","main_expt",""
"","bandit","296","852498","0.0-258.0-0.0","89764657","wem/bandit_party_2","A2EH0DH8QM4ZSB","either","3","247","","","","","","","0","0","1","","0.4812239037","0.6","0.2","0.4","0.8","0.6459690495","0.2877345098","0.4812239037","0.4141575353","","","","","","","","","","","","","","75","K","2","","","217","main_expt",""
"","bandit","297","854805","0.0-259.0-0.0","89764657","wem/bandit_party_2","A2EH0DH8QM4ZSB","either","3","787","","","","","","","1","0","0","0.6679944541","","0.6","0.2","0.4","0.8","","","","","0.6679944541","0.3608492067","0.4028497994","0.3009722504","","","","","","","","","","72","H","0","img/none_selected.jpg","","218","main_expt",""
"","bandit","298","856580","0.0-260.0-0.0","89764657","wem/bandit_party_2","A2EH0DH8QM4ZSB","either","3","259","","","","","","","0","0","1","","0.7159195147","0.6","0.2","0.4","0.8","0.7159195147","0.4380407461","0.4441021312","0.2706893249","","","","","","","","","","","","","","72","H","0","img/none_selected.jpg","","219","main_expt",""
"","bandit","299","858373","0.0-261.0-0.0","89764657","wem/bandit_party_2","A2EH0DH8QM4ZSB","either","3","274","","","","","","","1","0","0","0.6874484601","","0.6","0.2","0.4","0.8","","","","","0.6874484601","0.4769938592","0.4867825248","0.3821277721","","","","","","","","","","72","H","0","img/none_selected.jpg","","220","main_expt",""
"","bandit","300","860197","0.0-262.0-0.0","89764657","wem/bandit_party_2","A2EH0DH8QM4ZSB","either","3","306","","","","","","","1","0","0","0.6528128226","","0.6","0.2","0.4","0.8","","","","","0.6528128226","0.4612627877","0.5428062785","0.4534214389","","","","","","","","","","72","H","0","img/none_selected.jpg","","221","main_expt",""
"","bandit","301","861997","0.0-263.0-0.0","89764657","wem/bandit_party_2","A2EH0DH8QM4ZSB","either","3","282","","","","","","","1","0","0","0.6836467719","","0.6","0.2","0.4","0.8","","","","","0.6836467719","0.4192901336","0.5993321864","0.6049712458","","","","","","","","","","72","H","0","img/none_selected.jpg","","222","main_expt",""
"","bandit","302","863812","0.0-264.0-0.0","89764657","wem/bandit_party_2","A2EH0DH8QM4ZSB","either","3","295","","","","","","","1","0","0","0.7820879334","","0.6","0.2","0.4","0.8","","","","","0.7820879334","0.5559965486","0.4920604154","0.6389506418","","","","","","","","","","72","H","0","img/none_selected.jpg","","223","main_expt",""
"","bandit","303","865582","0.0-265.0-0.0","89764657","wem/bandit_party_2","A2EH0DH8QM4ZSB","either","3","252","","","","","","","1","0","0","0.763226653","","0.6","0.2","0.4","0.8","","","","","0.763226653","0.6687933923","0.5344282052","0.6677375732","","","","","","","","","","72","H","0","img/none_selected.jpg","","224","main_expt",""
"","bandit","304","867340","0.0-266.0-0.0","89764657","wem/bandit_party_2","A2EH0DH8QM4ZSB","either","3","240","","","","","","","1","0","0","0.6931961842","","0.6","0.2","0.4","0.8","","","","","0.6931961842","0.5954484576","0.5583452501","0.7706853934","","","","","","","","","","72","H","0","img/none_selected.jpg","","225","main_expt",""
"","bandit","305","869115","0.0-267.0-0.0","89764657","wem/bandit_party_2","A2EH0DH8QM4ZSB","either","3","253","","","","","","","0","1","0","","0.6633974694","0.6","0.2","0.4","0.8","0.6633974694","0.6152447968","0.5126042404","0.7624197083","","","","","","","","","","","","","","72","H","0","img/none_selected.jpg","","226","main_expt",""
"","bandit","306","870968","0.0-268.0-0.0","89764657","wem/bandit_party_2","A2EH0DH8QM4ZSB","either","3","334","","","","","","","1","0","0","0.6567175756","","0.6","0.2","0.4","0.8","","","","","0.6567175756","0.6597553912","0.5720595628","0.7287840805","","","","","","","","","","72","H","0","img/none_selected.jpg","","227","main_expt",""
"","bandit","307","872742","0.0-269.0-0.0","89764657","wem/bandit_party_2","A2EH0DH8QM4ZSB","either","3","255","","","","","","","1","0","0","0.6052730858","","0.6","0.2","0.4","0.8","","","","","0.6052730858","0.594895186","0.6134710885","0.7993891034","","","","","","","","","","72","H","0","img/none_selected.jpg","","228","main_expt",""
"","bandit","308","874555","0.0-270.0-0.0","89764657","wem/bandit_party_2","A2EH0DH8QM4ZSB","either","3","294","","","","","","","0","0","1","","0.5548990383","0.6","0.2","0.4","0.8","0.5548990383","0.5722559027","0.5669106804","0.8374027748","","","","","","","","","","","","","","72","H","0","img/none_selected.jpg","","229","main_expt",""
"","bandit","309","876929","0.0-271.0-0.0","89764657","wem/bandit_party_2","A2EH0DH8QM4ZSB","either","3","856","","","","","","","0","0","1","0.6017114108","","0.6","0.2","0.4","0.8","","","","","0.6017114108","0.5409090622","0.6286782819","0.8414873787","","","","","","","","","","72","H","0","img/none_selected.jpg","","230","main_expt",""
"","bandit","310","878863","0.0-272.0-0.0","89764657","wem/bandit_party_2","A2EH0DH8QM4ZSB","either","3","416","","","","","","","0","0","1","","0.518727512","0.6","0.2","0.4","0.8","0.5525336349","0.518727512","0.5594948871","0.8531648874","","","","","","","","","","","","","","74","J","1","","","231","main_expt",""
"","bandit","311","880822","0.0-273.0-0.0","89764657","wem/bandit_party_2","A2EH0DH8QM4ZSB","either","3","439","","","","","","","1","0","0","0.8813812612","","0.6","0.2","0.4","0.8","","","","","0.4493361955","0.5200298571","0.5817998964","0.8813812612","","","","","","","","","","76","L","3","","","232","main_expt",""
"","bandit","312","882589","0.0-274.0-0.0","89764657","wem/bandit_party_2","A2EH0DH8QM4ZSB","either","3","252","","","","","","","1","0","0","0.8916766345","","0.6","0.2","0.4","0.8","","","","","0.5280832246","0.4564343731","0.5971875981","0.8916766345","","","","","","","","","","76","L","3","","","233","main_expt",""
"","bandit","313","884371","0.0-275.0-0.0","89764657","wem/bandit_party_2","A2EH0DH8QM4ZSB","either","3","264","","","","","","","1","0","0","0.842820862","","0.6","0.2","0.4","0.8","","","","","0.6814540918","0.4168065644","0.5227237997","0.842820862","","","","","","","","","","76","L","3","","","234","main_expt",""
"","bandit","314","886145","0.0-276.0-0.0","89764657","wem/bandit_party_2","A2EH0DH8QM4ZSB","either","3","255","","","","","","","1","0","0","0.7856269381","","0.6","0.2","0.4","0.8","","","","","0.5518959403","0.4340770274","0.6231997156","0.7856269381","","","","","","","","","","76","L","3","","","235","main_expt",""
"","bandit","315","887818","0.0-277.0-0.0","89764657","wem/bandit_party_2","A2EH0DH8QM4ZSB","either","3","153","","","","","","","0","1","0","","0.8092971262","0.6","0.2","0.4","0.8","0.4965619817","0.4489205242","0.558272317","0.8092971262","","","","","","","","","","","","","","76","L","3","","","236","main_expt",""
"","bandit","316","889445","0.0-278.0-0.0","89764657","wem/bandit_party_2","A2EH0DH8QM4ZSB","either","3","107","","","","","","","0","0","1","0.8125536838","","0.6","0.2","0.4","0.8","","","","","0.4762879104","0.4838648791","0.6118965497","0.8125536838","","","","","","","","","","76","L","3","","","237","main_expt",""
