"consent","trial_type","trial_index","time_elapsed","internal_node_id","subjID","study","MID","cond","drift","rt","responses","button_pressed","key_press","like","value","connected","gems","bombs","no_reward","GemPrChosen","BombPrChosen","GainOverPainPr_0","GainOverPainPr_1","GainOverPainPr_2","GainOverPainPr_3","LosePr_0","LosePr_1","LosePr_2","LosePr_3","WinPr_0","WinPr_1","WinPr_2","WinPr_3","Q0","Q1","Q2","gender","age","ethnicity","label","expt_phase","target","respCharCode","respKey","respChoiceNum","respChoice","practice","trial_counter","trial_label","Q0_index"
"GDM/GDM_behavioral_consent_30min_online.html","consent","0","20382","0.0-0.0","91444495","wem/bandit_party_2","A3U6IA3JUSFZ2M","either","8","","","","","","","","","","","","","","","","","","","","","","","","","","","","","","","","","","","","","","","","",""
"","survey-text","1","27967","0.0-1.0","91444495","wem/bandit_party_2","A3U6IA3JUSFZ2M","either","8","6580","{""Q0"":""A3U6IA3JUSFZ2M""}","","","","","","","","","","","","","","","","","","","","","","","","","","","","","","","","","","","","","","",""
"","button-response","2","31958","0.0-2.0","91444495","wem/bandit_party_2","A3U6IA3JUSFZ2M","either","8","2987","","1","","","","","","","","","","","","","","","","","","","","","","","","","","","","","","","","","","","","","",""
"","text-replacement","3","47670","0.0-3.0","91444495","wem/bandit_party_2","A3U6IA3JUSFZ2M","either","8","14706","","","32","","","","","","","","","","","","","","","","","","","","","","","","","","","","","","","","","","","","",""
"","text-replacement","4","55573","0.0-4.0","91444495","wem/bandit_party_2","A3U6IA3JUSFZ2M","either","8","7903","","","32","","","","","","","","","","","","","","","","","","","","","","","","","","","","","","","","","","","","",""
"","identification","5","69831","0.0-6.0-0.0","91444495","wem/bandit_party_2","A3U6IA3JUSFZ2M","either","8","14251","","","","5","5","4","","","","","","","","","","","","","","","","","","","","","","","","pre","identification_pre","the Democratic Party","","","","","","","",""
"","identification","6","76703","0.0-6.0-1.0","91444495","wem/bandit_party_2","A3U6IA3JUSFZ2M","either","8","5864","","","","0","0","0","","","","","","","","","","","","","","","","","","","","","","","","pre","identification_pre","the Republican Party","","","","","","","",""
"","text-replacement","7","84430","0.0-7.0","91444495","wem/bandit_party_2","A3U6IA3JUSFZ2M","either","8","6725","","","32","","","","","","","","","","","","","","","","","","","","","","","","","","","","","","","","","","","","",""
"","text-replacement","8","91133","0.0-8.0","91444495","wem/bandit_party_2","A3U6IA3JUSFZ2M","either","8","6703","","","32","","","","","","","","","","","","","","","","","","","","","","","","","","","","","","","","","","","","",""
"","text-replacement","9","100989","0.0-9.0","91444495","wem/bandit_party_2","A3U6IA3JUSFZ2M","either","8","9854","","","32","","","","","","","","","","","","","","","","","","","","","","","","","","","","","","","","","","","","",""
"","text-replacement","10","105357","0.0-10.0","91444495","wem/bandit_party_2","A3U6IA3JUSFZ2M","either","8","4367","","","32","","","","","","","","","","","","","","","","","","","","","","","","","","","","","","","","","","","","",""
"","text-replacement","11","110069","0.0-11.0","91444495","wem/bandit_party_2","A3U6IA3JUSFZ2M","either","8","4710","","","32","","","","","","","","","","","","","","","","","","","","","","","","","","","","","","","","","","","","",""
"","bandit","12","114503","0.0-12.0-0.0","91444495","wem/bandit_party_2","A3U6IA3JUSFZ2M","either","8","2926","","","","","","","0","0","1","0","0","","","","","0","","","","0","","","","","","","","","","","","","74","J","0","img/none_selected_demo.jpg","true","0","",""
"","bandit","13","117628","0.0-13.0-0.0","91444495","wem/bandit_party_2","A3U6IA3JUSFZ2M","either","8","1620","","","","","","","0","0","1","0","0","","","","","0","","","","0","","","","","","","","","","","","","75","K","0","img/none_selected_demo.jpg","true","0","",""
"","text-replacement","14","123349","0.0-14.0","91444495","wem/bandit_party_2","A3U6IA3JUSFZ2M","either","8","5719","","","32","","","","","","","","","","","","","","","","","","","","","","","","","","","","","","","","","","","","",""
"","text-replacement","15","128661","0.0-15.0","91444495","wem/bandit_party_2","A3U6IA3JUSFZ2M","either","8","5311","","","32","","","","","","","","","","","","","","","","","","","","","","","","","","","","","","","","","","","","",""
"","text-replacement","16","135829","0.0-16.0","91444495","wem/bandit_party_2","A3U6IA3JUSFZ2M","either","8","7167","","","32","","","","","","","","","","","","","","","","","","","","","","","","","","","","","","","","","","","","",""
"","text-replacement","17","139933","0.0-17.0","91444495","wem/bandit_party_2","A3U6IA3JUSFZ2M","either","8","4102","","","32","","","","","","","","","","","","","","","","","","","","","","","","","","","","","","","","","","","","",""
"","bandit","18","142299","0.0-18.0-0.0","91444495","wem/bandit_party_2","A3U6IA3JUSFZ2M","either","8","863","","","","","","","0","1","0","","0.8","0.5","0.5","","","0.8","0.2","","","","","","","","","","","","","","","","74","J","0","img/none_selected_demo.jpg","true","0","80_20_practice",""
"","bandit","19","144882","0.0-18.0-1.0","91444495","wem/bandit_party_2","A3U6IA3JUSFZ2M","either","8","1080","","","","","","","0","0","1","0.2","","0.5","0.5","","","","","","","0.8","0.2","","","","","","","","","","","","75","K","1","","true","0","80_20_practice",""
"","bandit","20","147044","0.0-18.0-2.0","91444495","wem/bandit_party_2","A3U6IA3JUSFZ2M","either","8","656","","","","","","","0","0","1","","0.8","0.5","0.5","","","0.8","0.2","","","","","","","","","","","","","","","","74","J","0","img/none_selected_demo.jpg","true","0","80_20_practice",""
"","bandit","21","149202","0.0-18.0-3.0","91444495","wem/bandit_party_2","A3U6IA3JUSFZ2M","either","8","656","","","","","","","0","0","1","0.2","","0.5","0.5","","","","","","","0.8","0.2","","","","","","","","","","","","75","K","1","","true","0","80_20_practice",""
"","bandit","22","151526","0.0-18.0-4.0","91444495","wem/bandit_party_2","A3U6IA3JUSFZ2M","either","8","816","","","","","","","1","0","0","0.8","","0.5","0.5","","","","","","","0.8","0.2","","","","","","","","","","","","74","J","0","img/none_selected_demo.jpg","true","0","80_20_practice",""
"","bandit","23","154202","0.0-18.0-5.0","91444495","wem/bandit_party_2","A3U6IA3JUSFZ2M","either","8","1173","","","","","","","0","1","0","","0.8","0.5","0.5","","","0.8","0.2","","","","","","","","","","","","","","","","74","J","0","img/none_selected_demo.jpg","true","0","80_20_practice",""
"","bandit","24","156156","0.0-18.0-6.0","91444495","wem/bandit_party_2","A3U6IA3JUSFZ2M","either","8","449","","","","","","","1","0","0","0.8","","0.5","0.5","","","","","","","0.8","0.2","","","","","","","","","","","","74","J","0","img/none_selected_demo.jpg","true","0","80_20_practice",""
"","bandit","25","158387","0.0-18.0-7.0","91444495","wem/bandit_party_2","A3U6IA3JUSFZ2M","either","8","728","","","","","","","0","1","0","","0.8","0.5","0.5","","","0.8","0.2","","","","","","","","","","","","","","","","74","J","0","img/none_selected_demo.jpg","true","0","80_20_practice",""
"","bandit","26","160275","0.0-18.0-8.0","91444495","wem/bandit_party_2","A3U6IA3JUSFZ2M","either","8","383","","","","","","","0","0","1","","0.8","0.5","0.5","","","0.8","0.2","","","","","","","","","","","","","","","","74","J","0","img/none_selected_demo.jpg","true","0","80_20_practice",""
"","bandit","27","162187","0.0-18.0-9.0","91444495","wem/bandit_party_2","A3U6IA3JUSFZ2M","either","8","409","","","","","","","1","0","0","0.8","","0.5","0.5","","","","","","","0.8","0.2","","","","","","","","","","","","74","J","0","img/none_selected_demo.jpg","true","0","80_20_practice",""
"","bandit","28","164036","0.0-18.0-10.0","91444495","wem/bandit_party_2","A3U6IA3JUSFZ2M","either","8","345","","","","","","","0","1","0","","0.8","0.5","0.5","","","0.8","0.2","","","","","","","","","","","","","","","","74","J","0","img/none_selected_demo.jpg","true","0","80_20_practice",""
"","bandit","29","165642","0.0-18.0-11.0","91444495","wem/bandit_party_2","A3U6IA3JUSFZ2M","either","8","102","","","","","","","1","0","0","0.8","","0.5","0.5","","","","","","","0.8","0.2","","","","","","","","","","","","74","J","0","img/none_selected_demo.jpg","true","0","80_20_practice",""
"","bandit","30","169361","0.0-18.0-12.0","91444495","wem/bandit_party_2","A3U6IA3JUSFZ2M","either","8","2215","","","","","","","0","1","0","","0.8","0.5","0.5","","","0.8","0.2","","","","","","","","","","","","","","","","74","J","0","img/none_selected_demo.jpg","true","0","80_20_practice",""
"","bandit","31","171099","0.0-18.0-13.0","91444495","wem/bandit_party_2","A3U6IA3JUSFZ2M","either","8","234","","","","","","","1","0","0","0.8","","0.5","0.5","","","","","","","0.8","0.2","","","","","","","","","","","","74","J","0","img/none_selected_demo.jpg","true","0","80_20_practice",""
"","bandit","32","174971","0.0-18.0-14.0","91444495","wem/bandit_party_2","A3U6IA3JUSFZ2M","either","8","2366","","","","","","","1","0","0","0.8","","0.5","0.5","","","","","","","0.8","0.2","","","","","","","","","","","","74","J","0","img/none_selected_demo.jpg","true","0","80_20_practice",""
"","bandit","33","177874","0.0-18.0-15.0","91444495","wem/bandit_party_2","A3U6IA3JUSFZ2M","either","8","1399","","","","","","","1","0","0","0.8","","0.5","0.5","","","","","","","0.8","0.2","","","","","","","","","","","","74","J","0","img/none_selected_demo.jpg","true","0","80_20_practice",""
"","bandit","34","179875","0.0-18.0-16.0","91444495","wem/bandit_party_2","A3U6IA3JUSFZ2M","either","8","496","","","","","","","1","0","0","0.8","","0.5","0.5","","","","","","","0.8","0.2","","","","","","","","","","","","74","J","0","img/none_selected_demo.jpg","true","0","80_20_practice",""
"","bandit","35","182970","0.0-18.0-17.0","91444495","wem/bandit_party_2","A3U6IA3JUSFZ2M","either","8","1591","","","","","","","0","1","0","","0.8","0.5","0.5","","","0.8","0.2","","","","","","","","","","","","","","","","74","J","0","img/none_selected_demo.jpg","true","0","80_20_practice",""
"","bandit","36","185289","0.0-18.0-18.0","91444495","wem/bandit_party_2","A3U6IA3JUSFZ2M","either","8","816","","","","","","","1","0","0","0.8","","0.5","0.5","","","","","","","0.8","0.2","","","","","","","","","","","","74","J","0","img/none_selected_demo.jpg","true","0","80_20_practice",""
"","bandit","37","188489","0.0-18.0-19.0","91444495","wem/bandit_party_2","A3U6IA3JUSFZ2M","either","8","1696","","","","","","","0","0","1","","0.8","0.5","0.5","","","0.8","0.2","","","","","","","","","","","","","","","","74","J","0","img/none_selected_demo.jpg","true","0","80_20_practice",""
"","text-replacement","38","193405","0.0-19.0","91444495","wem/bandit_party_2","A3U6IA3JUSFZ2M","either","8","4915","","","32","","","","","","","","","","","","","","","","","","","","","","","","","","","","","","","","","","","","",""
"","bandit","39","196674","0.0-20.0-0.0","91444495","wem/bandit_party_2","A3U6IA3JUSFZ2M","either","8","1765","","","","","","","1","0","0","1","0","","","","","0","1","","","1","0","","","","","","","","","","","","74","J","0","img/none_selected_demo.jpg","true","0","",""
"","text-replacement","40","198700","0.0-21.0","91444495","wem/bandit_party_2","A3U6IA3JUSFZ2M","either","8","2024","","","32","","","","","","","","","","","","","","","","","","","","","","","","","","","","","","","","","","","","",""
"","text-replacement","41","205244","0.0-22.0","91444495","wem/bandit_party_2","A3U6IA3JUSFZ2M","either","8","6544","","","32","","","","","","","","","","","","","","","","","","","","","","","","","","","","","","","","","","","","",""
"","text-replacement","42","208852","0.0-23.0","91444495","wem/bandit_party_2","A3U6IA3JUSFZ2M","either","8","3607","","","32","","","","","","","","","","","","","","","","","","","","","","","","","","","","","","","","","","","","",""
"","text-replacement","43","211271","0.0-24.0","91444495","wem/bandit_party_2","A3U6IA3JUSFZ2M","either","8","2418","","","32","","","","","","","","","","","","","","","","","","","","","","","","","","","","","","","","","","","","",""
"","text-replacement","44","217028","0.0-25.0","91444495","wem/bandit_party_2","A3U6IA3JUSFZ2M","either","8","5756","","","32","","","","","","","","","","","","","","","","","","","","","","","","","","","","","","","","","","","","",""
"","text-replacement","45","219803","0.0-26.0","91444495","wem/bandit_party_2","A3U6IA3JUSFZ2M","either","8","2774","","","32","","","","","","","","","","","","","","","","","","","","","","","","","","","","","","","","","","","","",""
"","text-replacement","46","220899","0.0-27.0","91444495","wem/bandit_party_2","A3U6IA3JUSFZ2M","either","8","1095","","","32","","","","","","","","","","","","","","","","","","","","","","","","","","","","","","","","","","","","",""
"","text-replacement","47","225604","0.0-28.0","91444495","wem/bandit_party_2","A3U6IA3JUSFZ2M","either","8","4703","","","32","","","","","","","","","","","","","","","","","","","","","","","","","","","","","","","","","","","","",""
"","text-replacement","48","229684","0.0-29.0","91444495","wem/bandit_party_2","A3U6IA3JUSFZ2M","either","8","4079","","","32","","","","","","","","","","","","","","","","","","","","","","","","","","","","","","","","","","","","",""
"","text-replacement","49","231404","0.0-30.0","91444495","wem/bandit_party_2","A3U6IA3JUSFZ2M","either","8","1718","","","32","","","","","","","","","","","","","","","","","","","","","","","","","","","","","","","","","","","","",""
"","text-replacement","50","233657","0.0-31.0","91444495","wem/bandit_party_2","A3U6IA3JUSFZ2M","either","8","2252","","","32","","","","","","","","","","","","","","","","","","","","","","","","","","","","","","","","","","","","",""
"","bandit","51","236090","0.0-32.0-0.0","91444495","wem/bandit_party_2","A3U6IA3JUSFZ2M","either","8","929","","","","","","","1","0","0","0.8","","0.5","0.5","0.5","0.5","","","","","0.8","0.2","0.6","0.2","","","","","","","","","","72","H","0","img/none_selected.jpg","true","0","full_practice",""
"","bandit","52","238138","0.0-32.0-1.0","91444495","wem/bandit_party_2","A3U6IA3JUSFZ2M","either","8","543","","","","","","","0","0","1","","0.2","0.5","0.5","0.5","0.5","0.8","0.2","0.6","0.2","","","","","","","","","","","","","","74","J","1","","true","0","full_practice",""
"","bandit","53","240617","0.0-32.0-2.0","91444495","wem/bandit_party_2","A3U6IA3JUSFZ2M","either","8","975","","","","","","","0","0","1","0.6","","0.5","0.5","0.5","0.5","","","","","0.8","0.2","0.6","0.2","","","","","","","","","","75","K","2","","true","0","full_practice",""
"","bandit","54","242233","0.0-32.0-3.0","91444495","wem/bandit_party_2","A3U6IA3JUSFZ2M","either","8","114","","","","","","","1","0","0","0.2","","0.5","0.5","0.5","0.5","","","","","0.8","0.2","0.6","0.2","","","","","","","","","","76","L","3","","true","0","full_practice",""
"","bandit","55","244277","0.0-32.0-4.0","91444495","wem/bandit_party_2","A3U6IA3JUSFZ2M","either","8","536","","","","","","","1","0","0","0.8","","0.5","0.5","0.5","0.5","","","","","0.8","0.2","0.6","0.2","","","","","","","","","","72","H","0","img/none_selected.jpg","true","0","full_practice",""
"","bandit","56","246043","0.0-32.0-5.0","91444495","wem/bandit_party_2","A3U6IA3JUSFZ2M","either","8","261","","","","","","","0","1","0","","0.8","0.5","0.5","0.5","0.5","0.8","0.2","0.6","0.2","","","","","","","","","","","","","","72","H","0","img/none_selected.jpg","true","0","full_practice",""
"","bandit","57","247655","0.0-32.0-6.0","91444495","wem/bandit_party_2","A3U6IA3JUSFZ2M","either","8","106","","","","","","","0","1","0","","0.8","0.5","0.5","0.5","0.5","0.8","0.2","0.6","0.2","","","","","","","","","","","","","","72","H","0","img/none_selected.jpg","true","0","full_practice",""
"","bandit","58","249802","0.0-32.0-7.0","91444495","wem/bandit_party_2","A3U6IA3JUSFZ2M","either","8","642","","","","","","","0","0","1","","0.8","0.5","0.5","0.5","0.5","0.8","0.2","0.6","0.2","","","","","","","","","","","","","","72","H","0","img/none_selected.jpg","true","0","full_practice",""
"","bandit","59","251533","0.0-32.0-8.0","91444495","wem/bandit_party_2","A3U6IA3JUSFZ2M","either","8","225","","","","","","","0","0","1","","0.8","0.5","0.5","0.5","0.5","0.8","0.2","0.6","0.2","","","","","","","","","","","","","","72","H","0","img/none_selected.jpg","true","0","full_practice",""
"","bandit","60","254546","0.0-32.0-9.0","91444495","wem/bandit_party_2","A3U6IA3JUSFZ2M","either","8","1509","","","","","","","0","0","1","","0.2","0.5","0.5","0.5","0.5","0.8","0.2","0.6","0.2","","","","","","","","","","","","","","76","L","3","","true","0","full_practice",""
"","bandit","61","257395","0.0-32.0-10.0","91444495","wem/bandit_party_2","A3U6IA3JUSFZ2M","either","8","1342","","","","","","","0","0","1","","0.2","0.5","0.5","0.5","0.5","0.8","0.2","0.6","0.2","","","","","","","","","","","","","","74","J","1","","true","0","full_practice",""
"","bandit","62","260498","0.0-32.0-11.0","91444495","wem/bandit_party_2","A3U6IA3JUSFZ2M","either","8","1599","","","","","","","0","1","0","","0.6","0.5","0.5","0.5","0.5","0.8","0.2","0.6","0.2","","","","","","","","","","","","","","75","K","2","","true","0","full_practice",""
"","bandit","63","263481","0.0-32.0-12.0","91444495","wem/bandit_party_2","A3U6IA3JUSFZ2M","either","8","1480","","","","","","","0","0","1","0.6","","0.5","0.5","0.5","0.5","","","","","0.8","0.2","0.6","0.2","","","","","","","","","","75","K","2","","true","0","full_practice",""
"","bandit","64","266314","0.0-32.0-13.0","91444495","wem/bandit_party_2","A3U6IA3JUSFZ2M","either","8","1328","","","","","","","0","0","1","","0.2","0.5","0.5","0.5","0.5","0.8","0.2","0.6","0.2","","","","","","","","","","","","","","76","L","3","","true","0","full_practice",""
"","bandit","65","269213","0.0-32.0-14.0","91444495","wem/bandit_party_2","A3U6IA3JUSFZ2M","either","8","1394","","","","","","","0","0","1","","0.8","0.5","0.5","0.5","0.5","0.8","0.2","0.6","0.2","","","","","","","","","","","","","","72","H","0","img/none_selected.jpg","true","0","full_practice",""
"","bandit","66","271131","0.0-32.0-15.0","91444495","wem/bandit_party_2","A3U6IA3JUSFZ2M","either","8","413","","","","","","","1","0","0","0.2","","0.5","0.5","0.5","0.5","","","","","0.8","0.2","0.6","0.2","","","","","","","","","","74","J","1","","true","0","full_practice",""
"","bandit","67","274467","0.0-32.0-16.0","91444495","wem/bandit_party_2","A3U6IA3JUSFZ2M","either","8","1830","","","","","","","0","0","1","0.2","","0.5","0.5","0.5","0.5","","","","","0.8","0.2","0.6","0.2","","","","","","","","","","74","J","1","","true","0","full_practice",""
"","bandit","68","277418","0.0-32.0-17.0","91444495","wem/bandit_party_2","A3U6IA3JUSFZ2M","either","8","1445","","","","","","","0","0","1","0.2","","0.5","0.5","0.5","0.5","","","","","0.8","0.2","0.6","0.2","","","","","","","","","","74","J","1","","true","0","full_practice",""
"","bandit","69","279842","0.0-32.0-18.0","91444495","wem/bandit_party_2","A3U6IA3JUSFZ2M","either","8","918","","","","","","","0","1","0","","0.6","0.5","0.5","0.5","0.5","0.8","0.2","0.6","0.2","","","","","","","","","","","","","","75","K","2","","true","0","full_practice",""
"","bandit","70","282306","0.0-32.0-19.0","91444495","wem/bandit_party_2","A3U6IA3JUSFZ2M","either","8","958","","","","","","","0","0","1","0.6","","0.5","0.5","0.5","0.5","","","","","0.8","0.2","0.6","0.2","","","","","","","","","","75","K","2","","true","0","full_practice",""
"","text","71","286717","0.0-33.0","91444495","wem/bandit_party_2","A3U6IA3JUSFZ2M","either","8","4406","","","32","","","","","","","","","","","","","","","","","","","","","","","","","","","","","","","","","","","","",""
"","text-replacement","72","297182","0.0-34.0","91444495","wem/bandit_party_2","A3U6IA3JUSFZ2M","either","8","9463","","","32","","","","","","","","","","","","","","","","","","","","","","","","","","","","","","","","","","","","",""
"","text-replacement","73","305661","0.0-35.0","91444495","wem/bandit_party_2","A3U6IA3JUSFZ2M","either","8","8477","","","32","","","","","","","","","","","","","","","","","","","","","","","","","","","","","","","","","","","","",""
"","text-replacement","74","307036","0.0-36.0","91444495","wem/bandit_party_2","A3U6IA3JUSFZ2M","either","8","1373","","","32","","","","","","","","","","","","","","","","","","","","","","","","","","","","","","","","","","","","",""
"","text-replacement","75","311172","0.0-37.0","91444495","wem/bandit_party_2","A3U6IA3JUSFZ2M","either","8","4135","","","32","","","","","","","","","","","","","","","","","","","","","","","","","","","","","","","","","","","","",""
"","text-replacement","76","313604","0.0-38.0","91444495","wem/bandit_party_2","A3U6IA3JUSFZ2M","either","8","2431","","","32","","","","","","","","","","","","","","","","","","","","","","","","","","","","","","","","","","","","",""
"","survey-multi-choice-replacement","77","320839","0.0-39.0-0.0","91444495","wem/bandit_party_2","A3U6IA3JUSFZ2M","either","8","7228","","","","","","","","","","","","","","","","","","","","","","","","Money will be added to the pool for <span style='color:blue;'>DEMOCRATS</span>","","","","","","","attn_check","","","","","","","","","0"
"","survey-multi-choice-replacement","78","326733","0.0-40.0-0.0","91444495","wem/bandit_party_2","A3U6IA3JUSFZ2M","either","8","4889","","","","","","","","","","","","","","","","","","","","","","","","Equal amounts of money will be added to the pool for <span style='color:blue;'>DEMOCRATS</span> and subtracted from the pool for <span style='color:red;'>REPUBLICANS</span>","","","","","","","attn_check","","","","","","","","","2"
"","survey-multi-choice-replacement","79","331542","0.0-41.0-0.0","91444495","wem/bandit_party_2","A3U6IA3JUSFZ2M","either","8","3800","","","","","","","","","","","","","","","","","","","","","","","","No money will be added to either pool","","","","","","","attn_check","","","","","","","","","3"
"","bandit","80","336890","0.0-42.0-0.0","91444495","wem/bandit_party_2","A3U6IA3JUSFZ2M","either","8","2842","","","","","","","0","1","0","","0.4468950172","0.2","0.8","0.4","0.6","0.4468950172","0.6337563202","0.2428949588","0.3040937467","","","","","","","","","","","","","","72","H","0","img/none_selected.jpg","","1","main_expt",""
"","bandit","81","338899","0.0-43.0-0.0","91444495","wem/bandit_party_2","A3U6IA3JUSFZ2M","either","8","504","","","","","","","0","0","1","","0.3846124694","0.2","0.8","0.4","0.6","0.3846124694","0.7380673114","0.248961424","0.2687625136","","","","","","","","","","","","","","72","H","0","img/none_selected.jpg","","2","main_expt",""
"","bandit","82","340866","0.0-44.0-0.0","91444495","wem/bandit_party_2","A3U6IA3JUSFZ2M","either","8","462","","","","","","","0","0","1","","0.3885967974","0.2","0.8","0.4","0.6","0.3885967974","0.7715549737","0.1878604038","0.3017919557","","","","","","","","","","","","","","72","H","0","img/none_selected.jpg","","3","main_expt",""
"","bandit","83","343198","0.0-45.0-0.0","91444495","wem/bandit_party_2","A3U6IA3JUSFZ2M","either","8","823","","","","","","","1","0","0","0.8257013646","","0.2","0.8","0.4","0.6","","","","","0.2891644394","0.8257013646","0.1194049449","0.3388517529","","","","","","","","","","74","J","1","","","4","main_expt",""
"","bandit","84","345403","0.0-46.0-0.0","91444495","wem/bandit_party_2","A3U6IA3JUSFZ2M","either","8","700","","","","","","","0","1","0","","0.8617886559","0.2","0.8","0.4","0.6","0.2654579937","0.8617886559","0.197046458","0.389096829","","","","","","","","","","","","","","74","J","1","","","5","main_expt",""
"","bandit","85","347627","0.0-47.0-0.0","91444495","wem/bandit_party_2","A3U6IA3JUSFZ2M","either","8","718","","","","","","","1","0","0","0.8452125903","","0.2","0.8","0.4","0.6","","","","","0.355160999","0.8452125903","0.2312720201","0.4799636182","","","","","","","","","","74","J","1","","","6","main_expt",""
"","bandit","86","349794","0.0-48.0-0.0","91444495","wem/bandit_party_2","A3U6IA3JUSFZ2M","either","8","662","","","","","","","0","1","0","","0.8765288384","0.2","0.8","0.4","0.6","0.4733904832","0.8765288384","0.3255591742","0.5316557606","","","","","","","","","","","","","","74","J","1","","","7","main_expt",""
"","bandit","87","352021","0.0-49.0-0.0","91444495","wem/bandit_party_2","A3U6IA3JUSFZ2M","either","8","720","","","","","","","1","0","0","0.8625068071","","0.2","0.8","0.4","0.6","","","","","0.4900136729","0.8625068071","0.163151729","0.4935712437","","","","","","","","","","74","J","1","","","8","main_expt",""
"","bandit","88","354050","0.0-50.0-0.0","91444495","wem/bandit_party_2","A3U6IA3JUSFZ2M","either","8","524","","","","","","","1","0","0","0.8385781597","","0.2","0.8","0.4","0.6","","","","","0.4543552171","0.8385781597","0.1671639775","0.5400450001","","","","","","","","","","74","J","1","","","9","main_expt",""
"","bandit","89","356052","0.0-51.0-0.0","91444495","wem/bandit_party_2","A3U6IA3JUSFZ2M","either","8","496","","","","","","","1","0","0","0.833356221","","0.2","0.8","0.4","0.6","","","","","0.4523920981","0.833356221","0.1315225434","0.6510952772","","","","","","","","","","74","J","1","","","10","main_expt",""
"","bandit","90","358202","0.0-52.0-0.0","91444495","wem/bandit_party_2","A3U6IA3JUSFZ2M","either","8","645","","","","","","","1","0","0","0.9030756702","","0.2","0.8","0.4","0.6","","","","","0.4053083118","0.9030756702","0.1287002637","0.6117649901","","","","","","","","","","74","J","1","","","11","main_expt",""
"","bandit","91","360811","0.0-53.0-0.0","91444495","wem/bandit_party_2","A3U6IA3JUSFZ2M","either","8","1104","","","","","","","1","0","0","0.9129290363","","0.2","0.8","0.4","0.6","","","","","0.4059907931","0.9129290363","0.1026596936","0.6360746298","","","","","","","","","","74","J","1","","","12","main_expt",""
"","bandit","92","362845","0.0-54.0-0.0","91444495","wem/bandit_party_2","A3U6IA3JUSFZ2M","either","8","530","","","","","","","1","0","0","0.8638417716","","0.2","0.8","0.4","0.6","","","","","0.2934167972","0.8638417716","0.1287514256","0.5673960652","","","","","","","","","","74","J","1","","","13","main_expt",""
"","bandit","93","364842","0.0-55.0-0.0","91444495","wem/bandit_party_2","A3U6IA3JUSFZ2M","either","8","493","","","","","","","0","1","0","","0.787806988","0.2","0.8","0.4","0.6","0.3260927596","0.787806988","0.1786171179","0.6747725803","","","","","","","","","","","","","","74","J","1","","","14","main_expt",""
"","bandit","94","366890","0.0-56.0-0.0","91444495","wem/bandit_party_2","A3U6IA3JUSFZ2M","either","8","543","","","","","","","1","0","0","0.7254212376","","0.2","0.8","0.4","0.6","","","","","0.3355382734","0.7254212376","0.1459410532","0.6277188345","","","","","","","","","","74","J","1","","","15","main_expt",""
"","bandit","95","368708","0.0-57.0-0.0","91444495","wem/bandit_party_2","A3U6IA3JUSFZ2M","either","8","311","","","","","","","0","0","1","","0.7238415528","0.2","0.8","0.4","0.6","0.3040928121","0.7238415528","0.2255600906","0.5435568235","","","","","","","","","","","","","","74","J","1","","","16","main_expt",""
"","bandit","96","370626","0.0-58.0-0.0","91444495","wem/bandit_party_2","A3U6IA3JUSFZ2M","either","8","413","","","","","","","1","0","0","0.7796243455","","0.2","0.8","0.4","0.6","","","","","0.2730366263","0.7796243455","0.2052013943","0.4180161478","","","","","","","","","","74","J","1","","","17","main_expt",""
"","bandit","97","372939","0.0-59.0-0.0","91444495","wem/bandit_party_2","A3U6IA3JUSFZ2M","either","8","808","","","","","","","0","0","1","0.6928902724","","0.2","0.8","0.4","0.6","","","","","0.4105298721","0.6928902724","0.1780354615","0.4961111773","","","","","","","","","","74","J","1","","","18","main_expt",""
"","bandit","98","375978","0.0-60.0-0.0","91444495","wem/bandit_party_2","A3U6IA3JUSFZ2M","either","8","1534","","","","","","","1","0","0","0.1576496117","","0.2","0.8","0.4","0.6","","","","","0.3586923344","0.7658630901","0.1576496117","0.445530788","","","","","","","","","","75","K","2","","","19","main_expt",""
"","bandit","99","378098","0.0-61.0-0.0","91444495","wem/bandit_party_2","A3U6IA3JUSFZ2M","either","8","614","","","","","","","0","0","1","","0.1618752313","0.2","0.8","0.4","0.6","0.3220075653","0.7584200513","0.1618752313","0.3443163705","","","","","","","","","","","","","","75","K","2","","","20","main_expt",""
"","bandit","100","380362","0.0-62.0-0.0","91444495","wem/bandit_party_2","A3U6IA3JUSFZ2M","either","8","760","","","","","","","0","1","0","","0.2152187387","0.2","0.8","0.4","0.6","0.2729660799","0.7727038765","0.2152187387","0.3012808647","","","","","","","","","","","","","","75","K","2","","","21","main_expt",""
"","bandit","101","383010","0.0-63.0-0.0","91444495","wem/bandit_party_2","A3U6IA3JUSFZ2M","either","8","1145","","","","","","","0","1","0","","0.3547982299","0.2","0.8","0.4","0.6","0.2712352107","0.8152565923","0.3547982299","0.2882062485","","","","","","","","","","","","","","75","K","2","","","22","main_expt",""
"","bandit","102","385106","0.0-64.0-0.0","91444495","wem/bandit_party_2","A3U6IA3JUSFZ2M","either","8","591","","","","","","","0","0","1","","0.323805638","0.2","0.8","0.4","0.6","0.3390855774","0.7537075358","0.323805638","0.2113421372","","","","","","","","","","","","","","75","K","2","","","23","main_expt",""
"","bandit","103","387050","0.0-65.0-0.0","91444495","wem/bandit_party_2","A3U6IA3JUSFZ2M","either","8","437","","","","","","","0","0","1","","0.3588909826","0.2","0.8","0.4","0.6","0.3483259141","0.7108822858","0.3588909826","0.2201805416","","","","","","","","","","","","","","75","K","2","","","24","main_expt",""
"","bandit","104","389082","0.0-66.0-0.0","91444495","wem/bandit_party_2","A3U6IA3JUSFZ2M","either","8","528","","","","","","","0","0","1","","0.2580956466","0.2","0.8","0.4","0.6","0.3416976173","0.6930515954","0.3885553436","0.2580956466","","","","","","","","","","","","","","76","L","3","","","25","main_expt",""
"","bandit","105","391366","0.0-67.0-0.0","91444495","wem/bandit_party_2","A3U6IA3JUSFZ2M","either","8","776","","","","","","","0","0","1","0.2153432854","","0.2","0.8","0.4","0.6","","","","","0.4243476322","0.6905393417","0.4871556374","0.2153432854","","","","","","","","","","76","L","3","","","26","main_expt",""
"","bandit","106","393507","0.0-68.0-0.0","91444495","wem/bandit_party_2","A3U6IA3JUSFZ2M","either","8","634","","","","","","","0","1","0","","0.5257754898","0.2","0.8","0.4","0.6","0.5257754898","0.7531652131","0.4934119911","0.1727955236","","","","","","","","","","","","","","72","H","0","img/none_selected.jpg","","27","main_expt",""
"","bandit","107","395515","0.0-69.0-0.0","91444495","wem/bandit_party_2","A3U6IA3JUSFZ2M","either","8","502","","","","","","","0","0","1","","0.5246232361","0.2","0.8","0.4","0.6","0.5246232361","0.8001777041","0.4322092846","0.1894296703","","","","","","","","","","","","","","72","H","0","img/none_selected.jpg","","28","main_expt",""
"","bandit","108","397715","0.0-70.0-0.0","91444495","wem/bandit_party_2","A3U6IA3JUSFZ2M","either","8","695","","","","","","","0","1","0","","0.375994784","0.2","0.8","0.4","0.6","0.375994784","0.8118404327","0.3459113699","0.2128919211","","","","","","","","","","","","","","72","H","0","img/none_selected.jpg","","29","main_expt",""
"","bandit","109","400298","0.0-71.0-0.0","91444495","wem/bandit_party_2","A3U6IA3JUSFZ2M","either","8","1078","","","","","","","0","1","0","","0.2936890161","0.2","0.8","0.4","0.6","0.2936890161","0.7839534503","0.280789843","0.206056468","","","","","","","","","","","","","","72","H","0","img/none_selected.jpg","","30","main_expt",""
"","bandit","110","402298","0.0-72.0-0.0","91444495","wem/bandit_party_2","A3U6IA3JUSFZ2M","either","8","495","","","","","","","0","0","1","","0.2878812258","0.2","0.8","0.4","0.6","0.2878812258","0.8066372971","0.2613810438","0.1725623241","","","","","","","","","","","","","","72","H","0","img/none_selected.jpg","","31","main_expt",""
"","bandit","111","405605","0.0-73.0-0.0","91444495","wem/bandit_party_2","A3U6IA3JUSFZ2M","either","8","1783","","","","","","","1","0","0","0.2451492808","","0.2","0.8","0.4","0.6","","","","","0.2451492808","0.8049259064","0.3821585683","0.1629883914","","","","","","","","","","72","H","0","img/none_selected.jpg","","32","main_expt",""
"","bandit","112","408012","0.0-74.0-0.0","91444495","wem/bandit_party_2","A3U6IA3JUSFZ2M","either","8","901","","","","","","","0","0","1","","0.2802113289","0.2","0.8","0.4","0.6","0.2802113289","0.7891664673","0.2714925976","0.2107911223","","","","","","","","","","","","","","72","H","0","img/none_selected.jpg","","33","main_expt",""
"","bandit","113","410451","0.0-75.0-0.0","91444495","wem/bandit_party_2","A3U6IA3JUSFZ2M","either","8","934","","","","","","","1","0","0","0.7854278051","","0.2","0.8","0.4","0.6","","","","","0.2892342718","0.7854278051","0.2755575364","0.1025901997","","","","","","","","","","74","J","1","","","34","main_expt",""
"","bandit","114","412515","0.0-76.0-0.0","91444495","wem/bandit_party_2","A3U6IA3JUSFZ2M","either","8","560","","","","","","","1","0","0","0.7260182018","","0.2","0.8","0.4","0.6","","","","","0.2486893666","0.7260182018","0.2697856654","0.1289879153","","","","","","","","","","74","J","1","","","35","main_expt",""
"","bandit","115","414339","0.0-77.0-0.0","91444495","wem/bandit_party_2","A3U6IA3JUSFZ2M","either","8","320","","","","","","","0","0","1","","0.7910957192","0.2","0.8","0.4","0.6","0.3536408983","0.7910957192","0.2483646443","0.1645491317","","","","","","","","","","","","","","74","J","1","","","36","main_expt",""
"","bandit","116","416356","0.0-78.0-0.0","91444495","wem/bandit_party_2","A3U6IA3JUSFZ2M","either","8","510","","","","","","","0","0","1","0.2103950957","","0.2","0.8","0.4","0.6","","","","","0.2493566902","0.7996551039","0.2103950957","0.1698046746","","","","","","","","","","75","K","2","","","37","main_expt",""
"","bandit","117","418474","0.0-79.0-0.0","91444495","wem/bandit_party_2","A3U6IA3JUSFZ2M","either","8","614","","","","","","","0","0","1","0.2281502886","","0.2","0.8","0.4","0.6","","","","","0.2948354516","0.6717479894","0.2128944509","0.2281502886","","","","","","","","","","76","L","3","","","38","main_expt",""
"","bandit","118","420971","0.0-80.0-0.0","91444495","wem/bandit_party_2","A3U6IA3JUSFZ2M","either","8","992","","","","","","","0","0","1","0.1561271762","","0.2","0.8","0.4","0.6","","","","","0.3373274679","0.7121128808","0.2965153327","0.1561271762","","","","","","","","","","76","L","3","","","39","main_expt",""
"","bandit","119","422907","0.0-81.0-0.0","91444495","wem/bandit_party_2","A3U6IA3JUSFZ2M","either","8","430","","","","","","","0","0","1","0.4447532253","","0.2","0.8","0.4","0.6","","","","","0.4138768052","0.7157410044","0.4447532253","0.1543620621","","","","","","","","","","75","K","2","","","40","main_expt",""
"","bandit","120","425051","0.0-82.0-0.0","91444495","wem/bandit_party_2","A3U6IA3JUSFZ2M","either","8","640","","","","","","","0","0","1","","0.438096834","0.2","0.8","0.4","0.6","0.438096834","0.681196038","0.5330008696","0.2271499981","","","","","","","","","","","","","","72","H","0","img/none_selected.jpg","","41","main_expt",""
"","bandit","121","426932","0.0-83.0-0.0","91444495","wem/bandit_party_2","A3U6IA3JUSFZ2M","either","8","377","","","","","","","1","0","0","0.6504320647","","0.2","0.8","0.4","0.6","","","","","0.4185173612","0.6504320647","0.573861049","0.2882452936","","","","","","","","","","74","J","1","","","42","main_expt",""
"","bandit","122","428828","0.0-84.0-0.0","91444495","wem/bandit_party_2","A3U6IA3JUSFZ2M","either","8","390","","","","","","","0","0","1","0.7369830744","","0.2","0.8","0.4","0.6","","","","","0.3796335567","0.7369830744","0.6654349765","0.298522686","","","","","","","","","","74","J","1","","","43","main_expt",""
"","bandit","123","430763","0.0-85.0-0.0","91444495","wem/bandit_party_2","A3U6IA3JUSFZ2M","either","8","431","","","","","","","1","0","0","0.6797935378","","0.2","0.8","0.4","0.6","","","","","0.31766129","0.6797935378","0.691198465","0.3188886026","","","","","","","","","","74","J","1","","","44","main_expt",""
"","bandit","124","432284","0.0-86.0-0.0","91444495","wem/bandit_party_2","A3U6IA3JUSFZ2M","either","8","15","","","","","","","0","0","1","","0.6507473666","0.2","0.8","0.4","0.6","0.4047397141","0.6507473666","0.7652674903","0.2705760174","","","","","","","","","","","","","","74","J","1","","","45","main_expt",""
"","bandit","125","434218","0.0-87.0-0.0","91444495","wem/bandit_party_2","A3U6IA3JUSFZ2M","either","8","429","","","","","","","0","0","1","","0.6334510787","0.2","0.8","0.4","0.6","0.4961613307","0.6334510787","0.8065230058","0.2506880939","","","","","","","","","","","","","","74","J","1","","","46","main_expt",""
"","bandit","126","436203","0.0-88.0-0.0","91444495","wem/bandit_party_2","A3U6IA3JUSFZ2M","either","8","481","","","","","","","0","1","0","","0.7774474893","0.2","0.8","0.4","0.6","0.4624468315","0.6143175143","0.7774474893","0.2491585872","","","","","","","","","","","","","","75","K","2","","","47","main_expt",""
"","bandit","127","438227","0.0-89.0-0.0","91444495","wem/bandit_party_2","A3U6IA3JUSFZ2M","either","8","520","","","","","","","0","1","0","","0.7693176975","0.2","0.8","0.4","0.6","0.4886537242","0.6404512611","0.7693176975","0.1997021219","","","","","","","","","","","","","","75","K","2","","","48","main_expt",""
"","bandit","128","440772","0.0-90.0-0.0","91444495","wem/bandit_party_2","A3U6IA3JUSFZ2M","either","8","1039","","","","","","","0","1","0","","0.807419373","0.2","0.8","0.4","0.6","0.4270302022","0.6758621215","0.807419373","0.2119577724","","","","","","","","","","","","","","75","K","2","","","49","main_expt",""
"","bandit","129","443045","0.0-91.0-0.0","91444495","wem/bandit_party_2","A3U6IA3JUSFZ2M","either","8","766","","","","","","","0","1","0","","0.8562769227","0.2","0.8","0.4","0.6","0.5151345658","0.6873234502","0.8562769227","0.2615271711","","","","","","","","","","","","","","75","K","2","","","50","main_expt",""
"","bandit","130","444980","0.0-92.0-0.0","91444495","wem/bandit_party_2","A3U6IA3JUSFZ2M","either","8","430","","","","","","","1","0","0","0.8705114925","","0.2","0.8","0.4","0.6","","","","","0.5134524181","0.7776044395","0.8705114925","0.2764427577","","","","","","","","","","75","K","2","","","51","main_expt",""
"","bandit","131","447206","0.0-93.0-0.0","91444495","wem/bandit_party_2","A3U6IA3JUSFZ2M","either","8","718","","","","","","","1","0","0","0.9310361031","","0.2","0.8","0.4","0.6","","","","","0.4842684999","0.8403410939","0.9310361031","0.3833776697","","","","","","","","","","75","K","2","","","52","main_expt",""
"","bandit","132","449179","0.0-94.0-0.0","91444495","wem/bandit_party_2","A3U6IA3JUSFZ2M","either","8","467","","","","","","","0","1","0","","0.905794742","0.2","0.8","0.4","0.6","0.4412850773","0.8151983534","0.905794742","0.4356502318","","","","","","","","","","","","","","75","K","2","","","53","main_expt",""
"","bandit","133","451509","0.0-95.0-0.0","91444495","wem/bandit_party_2","A3U6IA3JUSFZ2M","either","8","825","","","","","","","0","0","1","","0.9391541593","0.2","0.8","0.4","0.6","0.4397693946","0.8081222638","0.9391541593","0.4120588364","","","","","","","","","","","","","","75","K","2","","","54","main_expt",""
"","bandit","134","453435","0.0-96.0-0.0","91444495","wem/bandit_party_2","A3U6IA3JUSFZ2M","either","8","421","","","","","","","0","1","0","","0.9596285882","0.2","0.8","0.4","0.6","0.3928202278","0.742009976","0.9596285882","0.2714296105","","","","","","","","","","","","","","75","K","2","","","55","main_expt",""
"","bandit","135","455475","0.0-97.0-0.0","91444495","wem/bandit_party_2","A3U6IA3JUSFZ2M","either","8","536","","","","","","","0","1","0","","0.9565658233","0.2","0.8","0.4","0.6","0.4593665993","0.7065076074","0.9565658233","0.2122311877","","","","","","","","","","","","","","75","K","2","","","56","main_expt",""
"","bandit","136","457924","0.0-98.0-0.0","91444495","wem/bandit_party_2","A3U6IA3JUSFZ2M","either","8","944","","","","","","","0","1","0","","0.9681540372","0.2","0.8","0.4","0.6","0.4006145211","0.6860695476","0.9681540372","0.2282278588","","","","","","","","","","","","","","75","K","2","","","57","main_expt",""
"","bandit","137","460191","0.0-99.0-0.0","91444495","wem/bandit_party_2","A3U6IA3JUSFZ2M","either","8","762","","","","","","","0","1","0","","0.9207083952","0.2","0.8","0.4","0.6","0.4597890412","0.742301155","0.9207083952","0.1392076118","","","","","","","","","","","","","","75","K","2","","","58","main_expt",""
"","bandit","138","462268","0.0-100.0-0.0","91444495","wem/bandit_party_2","A3U6IA3JUSFZ2M","either","8","570","","","","","","","0","0","1","","0.9178227258","0.2","0.8","0.4","0.6","0.4232266093","0.5291004622","0.9178227258","0.1706239206","","","","","","","","","","","","","","75","K","2","","","59","main_expt",""
"","bandit","139","464188","0.0-101.0-0.0","91444495","wem/bandit_party_2","A3U6IA3JUSFZ2M","either","8","415","","","","","","","0","1","0","","0.8951285427","0.2","0.8","0.4","0.6","0.3565880291","0.6348838793","0.8951285427","0.1674269281","","","","","","","","","","","","","","75","K","2","","","60","main_expt",""
"","bandit","140","466322","0.0-102.0-0.0","91444495","wem/bandit_party_2","A3U6IA3JUSFZ2M","either","8","630","","","","","","","1","0","0","0.8506814954","","0.2","0.8","0.4","0.6","","","","","0.3663276413","0.6796423313","0.8506814954","0.2182313474","","","","","","","","","","75","K","2","","","61","main_expt",""
"","bandit","141","468588","0.0-103.0-0.0","91444495","wem/bandit_party_2","A3U6IA3JUSFZ2M","either","8","761","","","","","","","1","0","0","0.8513854559","","0.2","0.8","0.4","0.6","","","","","0.3193005293","0.6928172916","0.8513854559","0.2949218256","","","","","","","","","","75","K","2","","","62","main_expt",""
"","bandit","142","470707","0.0-104.0-0.0","91444495","wem/bandit_party_2","A3U6IA3JUSFZ2M","either","8","614","","","","","","","0","1","0","","0.8927579502","0.2","0.8","0.4","0.6","0.1562068481","0.6996506825","0.8927579502","0.3170222383","","","","","","","","","","","","","","75","K","2","","","63","main_expt",""
"","bandit","143","472563","0.0-105.0-0.0","91444495","wem/bandit_party_2","A3U6IA3JUSFZ2M","either","8","351","","","","","","","1","0","0","0.9217936765","","0.2","0.8","0.4","0.6","","","","","0.2300477965","0.7294442249","0.9217936765","0.3033511374","","","","","","","","","","75","K","2","","","64","main_expt",""
"","bandit","144","474926","0.0-106.0-0.0","91444495","wem/bandit_party_2","A3U6IA3JUSFZ2M","either","8","854","","","","","","","0","1","0","","0.9357047413","0.2","0.8","0.4","0.6","0.2869838185","0.6605354899","0.9357047413","0.3973690147","","","","","","","","","","","","","","75","K","2","","","65","main_expt",""
"","bandit","145","476727","0.0-107.0-0.0","91444495","wem/bandit_party_2","A3U6IA3JUSFZ2M","either","8","293","","","","","","","1","0","0","0.910343843","","0.2","0.8","0.4","0.6","","","","","0.3287476356","0.6959621059","0.910343843","0.4320294497","","","","","","","","","","75","K","2","","","66","main_expt",""
"","bandit","146","478564","0.0-108.0-0.0","91444495","wem/bandit_party_2","A3U6IA3JUSFZ2M","either","8","331","","","","","","","0","1","0","","0.9022080512","0.2","0.8","0.4","0.6","0.3018365728","0.653899752","0.9022080512","0.3208465419","","","","","","","","","","","","","","75","K","2","","","67","main_expt",""
"","bandit","147","480476","0.0-109.0-0.0","91444495","wem/bandit_party_2","A3U6IA3JUSFZ2M","either","8","406","","","","","","","0","1","0","","0.8492414063","0.2","0.8","0.4","0.6","0.3208616414","0.6517851336","0.8492414063","0.3570730799","","","","","","","","","","","","","","75","K","2","","","68","main_expt",""
"","bandit","148","482498","0.0-110.0-0.0","91444495","wem/bandit_party_2","A3U6IA3JUSFZ2M","either","8","518","","","","","","","0","1","0","","0.768219052","0.2","0.8","0.4","0.6","0.386863802","0.7011615004","0.768219052","0.3451514791","","","","","","","","","","","","","","75","K","2","","","69","main_expt",""
"","bandit","149","484269","0.0-111.0-0.0","91444495","wem/bandit_party_2","A3U6IA3JUSFZ2M","either","8","265","","","","","","","0","1","0","","0.7996218848","0.2","0.8","0.4","0.6","0.3628244161","0.6278947594","0.7996218848","0.3127714871","","","","","","","","","","","","","","75","K","2","","","70","main_expt",""
"","bandit","150","486860","0.0-112.0-0.0","91444495","wem/bandit_party_2","A3U6IA3JUSFZ2M","either","8","1086","","","","","","","0","1","0","","0.9130189757","0.2","0.8","0.4","0.6","0.2969295023","0.688517509","0.9130189757","0.3855297895","","","","","","","","","","","","","","75","K","2","","","71","main_expt",""
"","bandit","151","488652","0.0-113.0-0.0","91444495","wem/bandit_party_2","A3U6IA3JUSFZ2M","either","8","287","","","","","","","0","1","0","","0.9016843832","0.2","0.8","0.4","0.6","0.3512325323","0.6125440106","0.9016843832","0.3555010044","","","","","","","","","","","","","","75","K","2","","","72","main_expt",""
"","bandit","152","491525","0.0-114.0-0.0","91444495","wem/bandit_party_2","A3U6IA3JUSFZ2M","either","8","1365","","","","","","","0","0","1","0.9166584401","","0.2","0.8","0.4","0.6","","","","","0.3845321254","0.4884410468","0.9166584401","0.3278360739","","","","","","","","","","75","K","2","","","73","main_expt",""
"","bandit","153","493747","0.0-115.0-0.0","91444495","wem/bandit_party_2","A3U6IA3JUSFZ2M","either","8","718","","","","","","","1","0","0","0.8699410266","","0.2","0.8","0.4","0.6","","","","","0.3760614253","0.5800760741","0.8699410266","0.3275161349","","","","","","","","","","75","K","2","","","74","main_expt",""
"","bandit","154","495675","0.0-116.0-0.0","91444495","wem/bandit_party_2","A3U6IA3JUSFZ2M","either","8","423","","","","","","","0","1","0","","0.8192171788","0.2","0.8","0.4","0.6","0.370831352","0.6614390465","0.8192171788","0.3454333807","","","","","","","","","","","","","","75","K","2","","","75","main_expt",""
"","bandit","155","497643","0.0-117.0-0.0","91444495","wem/bandit_party_2","A3U6IA3JUSFZ2M","either","8","464","","","","","","","0","1","0","","0.8990587115","0.2","0.8","0.4","0.6","0.4008199491","0.6861570843","0.8990587115","0.4213924804","","","","","","","","","","","","","","75","K","2","","","76","main_expt",""
"","bandit","156","499820","0.0-118.0-0.0","91444495","wem/bandit_party_2","A3U6IA3JUSFZ2M","either","8","672","","","","","","","0","1","0","","0.9062137116","0.2","0.8","0.4","0.6","0.3928984844","0.5980737028","0.9062137116","0.439510692","","","","","","","","","","","","","","75","K","2","","","77","main_expt",""
"","bandit","157","502852","0.0-119.0-0.0","91444495","wem/bandit_party_2","A3U6IA3JUSFZ2M","either","8","1527","","","","","","","1","0","0","0.9215914722","","0.2","0.8","0.4","0.6","","","","","0.4709058574","0.6754083514","0.9215914722","0.4419424199","","","","","","","","","","75","K","2","","","78","main_expt",""
"","bandit","158","505035","0.0-120.0-0.0","91444495","wem/bandit_party_2","A3U6IA3JUSFZ2M","either","8","679","","","","","","","0","1","0","","0.895443078","0.2","0.8","0.4","0.6","0.4971614577","0.7012934339","0.895443078","0.5056762283","","","","","","","","","","","","","","75","K","2","","","79","main_expt",""
"","bandit","159","508168","0.0-121.0-0.0","91444495","wem/bandit_party_2","A3U6IA3JUSFZ2M","either","8","1627","","","","","","","0","1","0","","0.7789772955","0.2","0.8","0.4","0.6","0.4828267768","0.7067798052","0.7789772955","0.4558190996","","","","","","","","","","","","","","75","K","2","","","80","main_expt",""
"","bandit","160","510603","0.0-122.0-0.0","91444495","wem/bandit_party_2","A3U6IA3JUSFZ2M","either","8","931","","","","","","","1","0","0","0.755426824","","0.2","0.8","0.4","0.6","","","","","0.4280570329","0.7259433061","0.755426824","0.4774921548","","","","","","","","","","75","K","2","","","81","main_expt",""
"","bandit","161","512923","0.0-123.0-0.0","91444495","wem/bandit_party_2","A3U6IA3JUSFZ2M","either","8","816","","","","","","","0","1","0","","0.8356426425","0.2","0.8","0.4","0.6","0.486136241","0.7022130872","0.8356426425","0.3611036613","","","","","","","","","","","","","","75","K","2","","","82","main_expt",""
"","bandit","162","515461","0.0-124.0-0.0","91444495","wem/bandit_party_2","A3U6IA3JUSFZ2M","either","8","1032","","","","","","","1","0","0","0.8783145762","","0.2","0.8","0.4","0.6","","","","","0.3539143083","0.75927227","0.8783145762","0.3341354767","","","","","","","","","","75","K","2","","","83","main_expt",""
"","bandit","163","517346","0.0-125.0-0.0","91444495","wem/bandit_party_2","A3U6IA3JUSFZ2M","either","8","381","","","","","","","0","1","0","","0.9087743635","0.2","0.8","0.4","0.6","0.374811954","0.8556046088","0.9087743635","0.288479151","","","","","","","","","","","","","","75","K","2","","","84","main_expt",""
"","bandit","164","519386","0.0-126.0-0.0","91444495","wem/bandit_party_2","A3U6IA3JUSFZ2M","either","8","536","","","","","","","0","1","0","","0.8632011641","0.2","0.8","0.4","0.6","0.4518264681","0.7835234447","0.8632011641","0.3061923995","","","","","","","","","","","","","","75","K","2","","","85","main_expt",""
"","bandit","165","521127","0.0-127.0-0.0","91444495","wem/bandit_party_2","A3U6IA3JUSFZ2M","either","8","235","","","","","","","0","1","0","","0.8341253046","0.2","0.8","0.4","0.6","0.461936863","0.7037548709","0.8341253046","0.3370204437","","","","","","","","","","","","","","75","K","2","","","86","main_expt",""
"","bandit","166","523484","0.0-128.0-0.0","91444495","wem/bandit_party_2","A3U6IA3JUSFZ2M","either","8","853","","","","","","","1","0","0","0.8728746981","","0.2","0.8","0.4","0.6","","","","","0.3681660755","0.6903674631","0.8728746981","0.3900809043","","","","","","","","","","75","K","2","","","87","main_expt",""
"","bandit","167","526076","0.0-129.0-0.0","91444495","wem/bandit_party_2","A3U6IA3JUSFZ2M","either","8","1086","","","","","","","0","1","0","","0.8408980459","0.2","0.8","0.4","0.6","0.3788462328","0.5883284312","0.8408980459","0.4296615172","","","","","","","","","","","","","","75","K","2","","","88","main_expt",""
"","bandit","168","528261","0.0-130.0-0.0","91444495","wem/bandit_party_2","A3U6IA3JUSFZ2M","either","8","679","","","","","","","1","0","0","0.8585781628","","0.2","0.8","0.4","0.6","","","","","0.3316952272","0.5258490985","0.8585781628","0.4636560077","","","","","","","","","","75","K","2","","","89","main_expt",""
"","bandit","169","530434","0.0-131.0-0.0","91444495","wem/bandit_party_2","A3U6IA3JUSFZ2M","either","8","669","","","","","","","1","0","0","0.925840658","","0.2","0.8","0.4","0.6","","","","","0.438068917","0.6395041767","0.925840658","0.4463585346","","","","","","","","","","75","K","2","","","90","main_expt",""
"","bandit","170","532349","0.0-132.0-0.0","91444495","wem/bandit_party_2","A3U6IA3JUSFZ2M","either","8","408","","","","","","","0","1","0","","0.9201841885","0.2","0.8","0.4","0.6","0.5158843935","0.6931091445","0.9201841885","0.4734463503","","","","","","","","","","","","","","75","K","2","","","91","main_expt",""
"","bandit","171","534332","0.0-133.0-0.0","91444495","wem/bandit_party_2","A3U6IA3JUSFZ2M","either","8","477","","","","","","","0","0","1","0.8508076908","","0.2","0.8","0.4","0.6","","","","","0.5182757575","0.6725373887","0.8508076908","0.5248255385","","","","","","","","","","75","K","2","","","92","main_expt",""
"","bandit","172","536492","0.0-134.0-0.0","91444495","wem/bandit_party_2","A3U6IA3JUSFZ2M","either","8","654","","","","","","","1","0","0","0.8106711147","","0.2","0.8","0.4","0.6","","","","","0.5498130742","0.7388835399","0.8106711147","0.3386726181","","","","","","","","","","75","K","2","","","93","main_expt",""
"","bandit","173","538322","0.0-135.0-0.0","91444495","wem/bandit_party_2","A3U6IA3JUSFZ2M","either","8","324","","","","","","","0","1","0","","0.8543263914","0.2","0.8","0.4","0.6","0.6049407638","0.697373586","0.8543263914","0.3718894848","","","","","","","","","","","","","","75","K","2","","","94","main_expt",""
"","bandit","174","540370","0.0-136.0-0.0","91444495","wem/bandit_party_2","A3U6IA3JUSFZ2M","either","8","543","","","","","","","0","1","0","","0.8387782901","0.2","0.8","0.4","0.6","0.6604115927","0.7550322224","0.8387782901","0.4005278521","","","","","","","","","","","","","","75","K","2","","","95","main_expt",""
"","bandit","175","542868","0.0-137.0-0.0","91444495","wem/bandit_party_2","A3U6IA3JUSFZ2M","either","8","992","","","","","","","1","0","0","0.8208071174","","0.2","0.8","0.4","0.6","","","","","0.7003847986","0.6576962358","0.8208071174","0.3694595514","","","","","","","","","","75","K","2","","","96","main_expt",""
"","bandit","176","545698","0.0-138.0-0.0","91444495","wem/bandit_party_2","A3U6IA3JUSFZ2M","either","8","1324","","","","","","","0","1","0","","0.765358829","0.2","0.8","0.4","0.6","0.6793148949","0.6802484638","0.765358829","0.3186037095","","","","","","","","","","","","","","75","K","2","","","97","main_expt",""
"","bandit","177","547876","0.0-139.0-0.0","91444495","wem/bandit_party_2","A3U6IA3JUSFZ2M","either","8","670","","","","","","","0","1","0","","0.7823463211","0.2","0.8","0.4","0.6","0.6204607354","0.7042077447","0.7823463211","0.2786717818","","","","","","","","","","","","","","75","K","2","","","98","main_expt",""
"","bandit","178","550214","0.0-140.0-0.0","91444495","wem/bandit_party_2","A3U6IA3JUSFZ2M","either","8","830","","","","","","","0","1","0","","0.7523003034","0.2","0.8","0.4","0.6","0.6166262367","0.7355617892","0.7523003034","0.32929866","","","","","","","","","","","","","","75","K","2","","","99","main_expt",""
"","bandit","179","552615","0.0-141.0-0.0","91444495","wem/bandit_party_2","A3U6IA3JUSFZ2M","either","8","892","","","","","","","1","0","0","0.7174790615","","0.2","0.8","0.4","0.6","","","","","0.5347115766","0.7117411671","0.7174790615","0.3115323478","","","","","","","","","","75","K","2","","","100","main_expt",""
"","bandit","180","554702","0.0-142.0-0.0","91444495","wem/bandit_party_2","A3U6IA3JUSFZ2M","either","8","451","","","","","","","0","1","0","","0.7660578318","0.2","0.8","0.4","0.6","0.3418016043","0.7263903312","0.7660578318","0.4221749579","","","","","","","","","","","","","","75","K","2","","","101","main_expt",""
"","bandit","181","557004","0.0-143.0-0.0","91444495","wem/bandit_party_2","A3U6IA3JUSFZ2M","either","8","763","","","","","","","0","0","1","","0.7201180075","0.2","0.8","0.4","0.6","0.2550922237","0.7357346189","0.7201180075","0.2718078598","","","","","","","","","","","","","","75","K","2","","","102","main_expt",""
"","bandit","182","558827","0.0-144.0-0.0","91444495","wem/bandit_party_2","A3U6IA3JUSFZ2M","either","8","317","","","","","","","0","1","0","","0.8452780714","0.2","0.8","0.4","0.6","0.3181696353","0.7026134783","0.8452780714","0.3011307106","","","","","","","","","","","","","","75","K","2","","","103","main_expt",""
"","bandit","183","561419","0.0-145.0-0.0","91444495","wem/bandit_party_2","A3U6IA3JUSFZ2M","either","8","1086","","","","","","","0","0","1","","0.7236924273","0.2","0.8","0.4","0.6","0.3383579412","0.8073666152","0.7236924273","0.3659291838","","","","","","","","","","","","","","75","K","2","","","104","main_expt",""
"","bandit","184","563277","0.0-146.0-0.0","91444495","wem/bandit_party_2","A3U6IA3JUSFZ2M","either","8","351","","","","","","","1","0","0","0.743719778","","0.2","0.8","0.4","0.6","","","","","0.2354673658","0.824483439","0.743719778","0.3499435223","","","","","","","","","","75","K","2","","","105","main_expt",""
"","bandit","185","565023","0.0-147.0-0.0","91444495","wem/bandit_party_2","A3U6IA3JUSFZ2M","either","8","236","","","","","","","1","0","0","0.7985687284","","0.2","0.8","0.4","0.6","","","","","0.159398249","0.9208810438","0.7985687284","0.3602262465","","","","","","","","","","75","K","2","","","106","main_expt",""
"","bandit","186","566795","0.0-148.0-0.0","91444495","wem/bandit_party_2","A3U6IA3JUSFZ2M","either","8","266","","","","","","","0","1","0","","0.799345197","0.2","0.8","0.4","0.6","0.1295169146","0.8911910097","0.799345197","0.3252215163","","","","","","","","","","","","","","75","K","2","","","107","main_expt",""
"","bandit","187","569291","0.0-149.0-0.0","91444495","wem/bandit_party_2","A3U6IA3JUSFZ2M","either","8","990","","","","","","","0","1","0","","0.8681690713","0.2","0.8","0.4","0.6","0.07754053308","0.8450149587","0.8681690713","0.2812406992","","","","","","","","","","","","","","75","K","2","","","108","main_expt",""
"","bandit","188","571250","0.0-150.0-0.0","91444495","wem/bandit_party_2","A3U6IA3JUSFZ2M","either","8","454","","","","","","","1","0","0","0.8556732204","","0.2","0.8","0.4","0.6","","","","","0.06591215473","0.868327257","0.8556732204","0.2559497519","","","","","","","","","","75","K","2","","","109","main_expt",""
"","bandit","189","573297","0.0-151.0-0.0","91444495","wem/bandit_party_2","A3U6IA3JUSFZ2M","either","8","535","","","","","","","0","1","0","","0.8669893864","0.2","0.8","0.4","0.6","0.1189546392","0.8868335222","0.8669893864","0.2817400418","","","","","","","","","","","","","","75","K","2","","","110","main_expt",""
"","bandit","190","575139","0.0-152.0-0.0","91444495","wem/bandit_party_2","A3U6IA3JUSFZ2M","either","8","336","","","","","","","0","1","0","","0.799383849","0.2","0.8","0.4","0.6","0.09523351692","0.8770728171","0.799383849","0.2773620367","","","","","","","","","","","","","","75","K","2","","","111","main_expt",""
"","bandit","191","577035","0.0-153.0-0.0","91444495","wem/bandit_party_2","A3U6IA3JUSFZ2M","either","8","390","","","","","","","0","1","0","","0.859799476","0.2","0.8","0.4","0.6","0.107489667","0.8481710002","0.859799476","0.2833316415","","","","","","","","","","","","","","75","K","2","","","112","main_expt",""
"","bandit","192","578802","0.0-154.0-0.0","91444495","wem/bandit_party_2","A3U6IA3JUSFZ2M","either","8","262","","","","","","","1","0","0","0.7932436089","","0.2","0.8","0.4","0.6","","","","","0.1026187258","0.8573528835","0.7932436089","0.3433702059","","","","","","","","","","75","K","2","","","113","main_expt",""
"","bandit","193","580321","0.0-155.0-0.0","91444495","wem/bandit_party_2","A3U6IA3JUSFZ2M","either","8","15","","","","","","","1","0","0","0.849407262","","0.2","0.8","0.4","0.6","","","","","0.1044839951","0.8291807482","0.849407262","0.4828882278","","","","","","","","","","75","K","2","","","114","main_expt",""
"","bandit","194","582411","0.0-156.0-0.0","91444495","wem/bandit_party_2","A3U6IA3JUSFZ2M","either","8","584","","","","","","","0","1","0","","0.8882716547","0.2","0.8","0.4","0.6","0.1213931844","0.761972944","0.8882716547","0.54932579","","","","","","","","","","","","","","75","K","2","","","115","main_expt",""
"","bandit","195","584452","0.0-157.0-0.0","91444495","wem/bandit_party_2","A3U6IA3JUSFZ2M","either","8","533","","","","","","","1","0","0","0.8741354715","","0.2","0.8","0.4","0.6","","","","","0.1184144227","0.786197192","0.8741354715","0.6971345968","","","","","","","","","","75","K","2","","","116","main_expt",""
"","bandit","196","586021","0.0-158.0-0.0","91444495","wem/bandit_party_2","A3U6IA3JUSFZ2M","either","8","61","","","","","","","1","0","0","0.8083823922","","0.2","0.8","0.4","0.6","","","","","0.1983931569","0.7834453561","0.8083823922","0.5396272374","","","","","","","","","","75","K","2","","","117","main_expt",""
"","bandit","197","588581","0.0-159.0-0.0","91444495","wem/bandit_party_2","A3U6IA3JUSFZ2M","either","8","1045","","","","","","","1","0","0","0.868525306","","0.2","0.8","0.4","0.6","","","","","0.2840039584","0.6742380839","0.868525306","0.5544567993","","","","","","","","","","75","K","2","","","118","main_expt",""
"","bandit","198","590826","0.0-160.0-0.0","91444495","wem/bandit_party_2","A3U6IA3JUSFZ2M","either","8","740","","","","","","","0","1","0","","0.8386471998","0.2","0.8","0.4","0.6","0.3563325119","0.7350700153","0.8386471998","0.5504896642","","","","","","","","","","","","","","75","K","2","","","119","main_expt",""
"","bandit","199","592972","0.0-161.0-0.0","91444495","wem/bandit_party_2","A3U6IA3JUSFZ2M","either","8","638","","","","","","","0","1","0","","0.8103559508","0.2","0.8","0.4","0.6","0.5682387565","0.70601835","0.8103559508","0.5812137135","","","","","","","","","","","","","","75","K","2","","","120","main_expt",""
"","bandit","200","595667","0.0-162.0-0.0","91444495","wem/bandit_party_2","A3U6IA3JUSFZ2M","either","8","1189","","","","","","","0","0","1","","0.8193015173","0.2","0.8","0.4","0.6","0.5189107771","0.7347719752","0.8193015173","0.6033058466","","","","","","","","","","","","","","75","K","2","","","121","main_expt",""
"","bandit","201","598003","0.0-163.0-0.0","91444495","wem/bandit_party_2","A3U6IA3JUSFZ2M","either","8","832","","","","","","","0","1","0","","0.8025146027","0.2","0.8","0.4","0.6","0.4428493372","0.8270923978","0.8025146027","0.6102220397","","","","","","","","","","","","","","75","K","2","","","122","main_expt",""
"","bandit","202","600044","0.0-164.0-0.0","91444495","wem/bandit_party_2","A3U6IA3JUSFZ2M","either","8","535","","","","","","","0","1","0","","0.8121847492","0.2","0.8","0.4","0.6","0.472724465","0.7980631313","0.8121847492","0.6108151959","","","","","","","","","","","","","","75","K","2","","","123","main_expt",""
"","bandit","203","602627","0.0-165.0-0.0","91444495","wem/bandit_party_2","A3U6IA3JUSFZ2M","either","8","1070","","","","","","","1","0","0","0.8299418439","","0.2","0.8","0.4","0.6","","","","","0.4799585558","0.7369852887","0.8299418439","0.7117385939","","","","","","","","","","75","K","2","","","124","main_expt",""
"","bandit","204","604523","0.0-166.0-0.0","91444495","wem/bandit_party_2","A3U6IA3JUSFZ2M","either","8","382","","","","","","","1","0","0","0.825688343","","0.2","0.8","0.4","0.6","","","","","0.5080184993","0.7465944313","0.825688343","0.7554186078","","","","","","","","","","75","K","2","","","125","main_expt",""
"","bandit","205","606523","0.0-167.0-0.0","91444495","wem/bandit_party_2","A3U6IA3JUSFZ2M","either","8","493","","","","","","","1","0","0","0.8372054396","","0.2","0.8","0.4","0.6","","","","","0.4555098289","0.7596834852","0.8372054396","0.8855751833","","","","","","","","","","75","K","2","","","126","main_expt",""
"","bandit","206","609267","0.0-168.0-0.0","91444495","wem/bandit_party_2","A3U6IA3JUSFZ2M","either","8","1238","","","","","","","0","1","0","","0.7906689898","0.2","0.8","0.4","0.6","0.5475411796","0.7398299979","0.7906689898","0.8003015049","","","","","","","","","","","","","","75","K","2","","","127","main_expt",""
"","bandit","207","613611","0.0-169.0-0.0","91444495","wem/bandit_party_2","A3U6IA3JUSFZ2M","either","8","2838","","","","","","","0","1","0","","0.8008571507","0.2","0.8","0.4","0.6","0.612647382","0.7764866849","0.8008571507","0.8403113951","","","","","","","","","","","","","","75","K","2","","","128","main_expt",""
"","bandit","208","619152","0.0-170.0-0.0","91444495","wem/bandit_party_2","A3U6IA3JUSFZ2M","either","8","4030","","","","","","","1","0","0","0.7829297973","","0.2","0.8","0.4","0.6","","","","","0.7128970287","0.6435675963","0.7829297973","0.8826872071","","","","","","","","","","75","K","2","","","129","main_expt",""
"","bandit","209","622829","0.0-171.0-0.0","91444495","wem/bandit_party_2","A3U6IA3JUSFZ2M","either","8","2168","","","","","","","0","0","1","","0.6898445721","0.2","0.8","0.4","0.6","0.7309911721","0.7030252038","0.6898445721","0.8641000085","","","","","","","","","","","","","","75","K","2","","","130","main_expt",""
"","bandit","210","627850","0.0-172.0-0.0","91444495","wem/bandit_party_2","A3U6IA3JUSFZ2M","either","8","3515","","","","","","","0","1","0","","0.5864867529","0.2","0.8","0.4","0.6","0.73180147","0.6829232191","0.5864867529","0.8752037592","","","","","","","","","","","","","","75","K","2","","","131","main_expt",""
"","bandit","211","630554","0.0-173.0-0.0","91444495","wem/bandit_party_2","A3U6IA3JUSFZ2M","either","8","1199","","","","","","","0","0","1","0.560122833","","0.2","0.8","0.4","0.6","","","","","0.8467134838","0.7406452387","0.560122833","0.8279556795","","","","","","","","","","75","K","2","","","132","main_expt",""
"","bandit","212","632909","0.0-174.0-0.0","91444495","wem/bandit_party_2","A3U6IA3JUSFZ2M","either","8","848","","","","","","","0","0","1","0.48439517","","0.2","0.8","0.4","0.6","","","","","0.8481264083","0.6666234363","0.48439517","0.8194722428","","","","","","","","","","75","K","2","","","133","main_expt",""
"","bandit","213","638035","0.0-175.0-0.0","91444495","wem/bandit_party_2","A3U6IA3JUSFZ2M","either","8","3620","","","","","","","0","0","1","0.3919863126","","0.2","0.8","0.4","0.6","","","","","0.8771050955","0.680542061","0.3919863126","0.8037084922","","","","","","","","","","75","K","2","","","134","main_expt",""
"","bandit","214","639980","0.0-176.0-0.0","91444495","wem/bandit_party_2","A3U6IA3JUSFZ2M","either","8","438","","","","","","","0","0","1","","0.5174750093","0.2","0.8","0.4","0.6","0.9103241533","0.7006187635","0.5174750093","0.8155916457","","","","","","","","","","","","","","75","K","2","","","135","main_expt",""
"","bandit","215","641900","0.0-177.0-0.0","91444495","wem/bandit_party_2","A3U6IA3JUSFZ2M","either","8","412","","","","","","","1","0","0","0.8281957705","","0.2","0.8","0.4","0.6","","","","","0.9126032517","0.6936815578","0.4264762493","0.8281957705","","","","","","","","","","76","L","3","","","136","main_expt",""
"","bandit","216","643523","0.0-178.0-0.0","91444495","wem/bandit_party_2","A3U6IA3JUSFZ2M","either","8","117","","","","","","","0","1","0","","0.7055403129","0.2","0.8","0.4","0.6","0.8983360858","0.6531428085","0.5351999402","0.7055403129","","","","","","","","","","","","","","76","L","3","","","137","main_expt",""
"","bandit","217","645130","0.0-179.0-0.0","91444495","wem/bandit_party_2","A3U6IA3JUSFZ2M","either","8","102","","","","","","","0","0","1","0.6884351598","","0.2","0.8","0.4","0.6","","","","","0.8851370462","0.6769758131","0.4758748922","0.6884351598","","","","","","","","","","76","L","3","","","138","main_expt",""
"","bandit","218","647050","0.0-180.0-0.0","91444495","wem/bandit_party_2","A3U6IA3JUSFZ2M","either","8","415","","","","","","","0","1","0","","0.6090423031","0.2","0.8","0.4","0.6","0.8662270416","0.7649589049","0.4039793023","0.6090423031","","","","","","","","","","","","","","76","L","3","","","139","main_expt",""
"","bandit","219","649060","0.0-181.0-0.0","91444495","wem/bandit_party_2","A3U6IA3JUSFZ2M","either","8","504","","","","","","","0","0","1","","0.7000077187","0.2","0.8","0.4","0.6","0.8345767194","0.7674202191","0.384774136","0.7000077187","","","","","","","","","","","","","","76","L","3","","","140","main_expt",""
"","bandit","220","651436","0.0-182.0-0.0","91444495","wem/bandit_party_2","A3U6IA3JUSFZ2M","either","8","869","","","","","","","0","1","0","","0.6643185619","0.2","0.8","0.4","0.6","0.8783670964","0.8575114448","0.327254859","0.6643185619","","","","","","","","","","","","","","76","L","3","","","141","main_expt",""
"","bandit","221","653698","0.0-183.0-0.0","91444495","wem/bandit_party_2","A3U6IA3JUSFZ2M","either","8","757","","","","","","","0","1","0","","0.7079845674","0.2","0.8","0.4","0.6","0.8895828315","0.8134430427","0.4536641492","0.7079845674","","","","","","","","","","","","","","76","L","3","","","142","main_expt",""
"","bandit","222","655698","0.0-184.0-0.0","91444495","wem/bandit_party_2","A3U6IA3JUSFZ2M","either","8","495","","","","","","","0","0","1","0.6624187643","","0.2","0.8","0.4","0.6","","","","","0.9053928798","0.8345505038","0.4348486293","0.6624187643","","","","","","","","","","76","L","3","","","143","main_expt",""
"","bandit","223","658523","0.0-185.0-0.0","91444495","wem/bandit_party_2","A3U6IA3JUSFZ2M","either","8","1319","","","","","","","0","1","0","","0.6779247185","0.2","0.8","0.4","0.6","0.9033088386","0.7482817554","0.4086594597","0.6779247185","","","","","","","","","","","","","","76","L","3","","","144","main_expt",""
"","bandit","224","661019","0.0-186.0-0.0","91444495","wem/bandit_party_2","A3U6IA3JUSFZ2M","either","8","990","","","","","","","0","0","1","","0.7216102374","0.2","0.8","0.4","0.6","0.8572864227","0.7400387939","0.4420772456","0.7216102374","","","","","","","","","","","","","","76","L","3","","","145","main_expt",""
"","bandit","225","663210","0.0-187.0-0.0","91444495","wem/bandit_party_2","A3U6IA3JUSFZ2M","either","8","686","","","","","","","1","0","0","0.7837267619","","0.2","0.8","0.4","0.6","","","","","0.8687508917","0.795971973","0.508741462","0.7837267619","","","","","","","","","","76","L","3","","","146","main_expt",""
"","bandit","226","666595","0.0-188.0-0.0","91444495","wem/bandit_party_2","A3U6IA3JUSFZ2M","either","8","1879","","","","","","","1","0","0","0.7652264833","","0.2","0.8","0.4","0.6","","","","","0.8657621525","0.7503502301","0.4624398998","0.7652264833","","","","","","","","","","76","L","3","","","147","main_expt",""
"","bandit","227","668219","0.0-189.0-0.0","91444495","wem/bandit_party_2","A3U6IA3JUSFZ2M","either","8","119","","","","","","","1","0","0","0.7358716413","","0.2","0.8","0.4","0.6","","","","","0.8362891365","0.8200474043","0.4062589849","0.7358716413","","","","","","","","","","76","L","3","","","148","main_expt",""
"","bandit","228","670283","0.0-190.0-0.0","91444495","wem/bandit_party_2","A3U6IA3JUSFZ2M","either","8","559","","","","","","","1","0","0","0.7129200786","","0.2","0.8","0.4","0.6","","","","","0.8144386017","0.8509010271","0.4895331913","0.7129200786","","","","","","","","","","76","L","3","","","149","main_expt",""
"","bandit","229","672014","0.0-191.0-0.0","91444495","wem/bandit_party_2","A3U6IA3JUSFZ2M","either","8","222","","","","","","","1","0","0","0.705531668","","0.2","0.8","0.4","0.6","","","","","0.6948055455","0.8298908313","0.4704746919","0.705531668","","","","","","","","","","76","L","3","","","150","main_expt",""
"","bandit","230","673604","0.0-192.0-0.0","91444495","wem/bandit_party_2","A3U6IA3JUSFZ2M","either","8","84","","","","","","","0","0","1","0.5744604188","","0.2","0.8","0.4","0.6","","","","","0.6231991314","0.7362749002","0.4725745774","0.5744604188","","","","","","","","","","76","L","3","","","151","main_expt",""
"","bandit","231","675549","0.0-193.0-0.0","91444495","wem/bandit_party_2","A3U6IA3JUSFZ2M","either","8","437","","","","","","","0","1","0","","0.5372669321","0.2","0.8","0.4","0.6","0.7045057733","0.7601791643","0.4943906398","0.5372669321","","","","","","","","","","","","","","76","L","3","","","152","main_expt",""
"","bandit","232","677534","0.0-194.0-0.0","91444495","wem/bandit_party_2","A3U6IA3JUSFZ2M","either","8","476","","","","","","","0","1","0","","0.5447545218","0.2","0.8","0.4","0.6","0.5331338622","0.7590648118","0.4639524782","0.5447545218","","","","","","","","","","","","","","76","L","3","","","153","main_expt",""
"","bandit","233","679867","0.0-195.0-0.0","91444495","wem/bandit_party_2","A3U6IA3JUSFZ2M","either","8","827","","","","","","","1","0","0","0.4191749193","","0.2","0.8","0.4","0.6","","","","","0.5096720896","0.7805387907","0.3935792086","0.4191749193","","","","","","","","","","76","L","3","","","154","main_expt",""
"","bandit","234","681490","0.0-196.0-0.0","91444495","wem/bandit_party_2","A3U6IA3JUSFZ2M","either","8","118","","","","","","","0","0","1","0.4269770229","","0.2","0.8","0.4","0.6","","","","","0.4719011365","0.8450805748","0.4127348605","0.4269770229","","","","","","","","","","76","L","3","","","155","main_expt",""
"","bandit","235","683267","0.0-197.0-0.0","91444495","wem/bandit_party_2","A3U6IA3JUSFZ2M","either","8","271","","","","","","","0","0","1","0.4589862704","","0.2","0.8","0.4","0.6","","","","","0.5818713095","0.8513110265","0.3697675558","0.4589862704","","","","","","","","","","76","L","3","","","156","main_expt",""
"","bandit","236","685219","0.0-198.0-0.0","91444495","wem/bandit_party_2","A3U6IA3JUSFZ2M","either","8","443","","","","","","","0","1","0","","0.5804022203","0.2","0.8","0.4","0.6","0.5804022203","0.8226236001","0.3604398023","0.5370818316","","","","","","","","","","","","","","72","H","0","img/none_selected.jpg","","157","main_expt",""
"","bandit","237","687152","0.0-199.0-0.0","91444495","wem/bandit_party_2","A3U6IA3JUSFZ2M","either","8","422","","","","","","","0","0","1","","0.4773166223","0.2","0.8","0.4","0.6","0.4773166223","0.8843141367","0.4061750625","0.4757376888","","","","","","","","","","","","","","72","H","0","img/none_selected.jpg","","158","main_expt",""
"","bandit","238","689027","0.0-200.0-0.0","91444495","wem/bandit_party_2","A3U6IA3JUSFZ2M","either","8","371","","","","","","","0","0","1","","0.419048585","0.2","0.8","0.4","0.6","0.419048585","0.8078798749","0.4696417586","0.4887287223","","","","","","","","","","","","","","72","H","0","img/none_selected.jpg","","159","main_expt",""
"","bandit","239","691466","0.0-201.0-0.0","91444495","wem/bandit_party_2","A3U6IA3JUSFZ2M","either","8","933","","","","","","","1","0","0","0.7689164465","","0.2","0.8","0.4","0.6","","","","","0.4672574386","0.7689164465","0.4659569923","0.4588489809","","","","","","","","","","74","J","1","","","160","main_expt",""
"","bandit","240","693011","0.0-202.0-0.0","91444495","wem/bandit_party_2","A3U6IA3JUSFZ2M","either","8","39","","","","","","","1","0","0","0.7863156869","","0.2","0.8","0.4","0.6","","","","","0.5612985374","0.7863156869","0.3947207546","0.4920004413","","","","","","","","","","74","J","1","","","161","main_expt",""
"","bandit","241","695266","0.0-203.0-0.0","91444495","wem/bandit_party_2","A3U6IA3JUSFZ2M","either","8","750","","","","","","","1","0","0","0.8098475403","","0.2","0.8","0.4","0.6","","","","","0.5288680036","0.8098475403","0.2460097942","0.5389881207","","","","","","","","","","74","J","1","","","162","main_expt",""
"","bandit","242","696802","0.0-204.0-0.0","91444495","wem/bandit_party_2","A3U6IA3JUSFZ2M","either","8","30","","","","","","","1","0","0","0.8222712862","","0.2","0.8","0.4","0.6","","","","","0.6096883849","0.8222712862","0.3603606056","0.6040136001","","","","","","","","","","74","J","1","","","163","main_expt",""
"","bandit","243","698659","0.0-205.0-0.0","91444495","wem/bandit_party_2","A3U6IA3JUSFZ2M","either","8","352","","","","","","","1","0","0","0.7876031225","","0.2","0.8","0.4","0.6","","","","","0.4868922288","0.7876031225","0.2507209727","0.623756827","","","","","","","","","","74","J","1","","","164","main_expt",""
"","bandit","244","700611","0.0-206.0-0.0","91444495","wem/bandit_party_2","A3U6IA3JUSFZ2M","either","8","445","","","","","","","0","0","1","0.7435052823","","0.2","0.8","0.4","0.6","","","","","0.4055552053","0.7435052823","0.2162043423","0.6164515281","","","","","","","","","","74","J","1","","","165","main_expt",""
"","bandit","245","702506","0.0-207.0-0.0","91444495","wem/bandit_party_2","A3U6IA3JUSFZ2M","either","8","390","","","","","","","1","0","0","0.6545739251","","0.2","0.8","0.4","0.6","","","","","0.4748236382","0.6545739251","0.2573409732","0.4660222187","","","","","","","","","","74","J","1","","","166","main_expt",""
"","bandit","246","704155","0.0-208.0-0.0","91444495","wem/bandit_party_2","A3U6IA3JUSFZ2M","either","8","144","","","","","","","0","0","1","0.6645907447","","0.2","0.8","0.4","0.6","","","","","0.4725242185","0.6645907447","0.4016088623","0.3336058786","","","","","","","","","","74","J","1","","","167","main_expt",""
"","bandit","247","705956","0.0-209.0-0.0","91444495","wem/bandit_party_2","A3U6IA3JUSFZ2M","either","8","295","","","","","","","0","0","1","0.7243751722","","0.2","0.8","0.4","0.6","","","","","0.4775208721","0.7243751722","0.5522858252","0.2887723434","","","","","","","","","","74","J","1","","","168","main_expt",""
"","bandit","248","708010","0.0-210.0-0.0","91444495","wem/bandit_party_2","A3U6IA3JUSFZ2M","either","8","549","","","","","","","0","0","1","0.5461138513","","0.2","0.8","0.4","0.6","","","","","0.4682732781","0.6453105543","0.5461138513","0.3357056981","","","","","","","","","","75","K","2","","","169","main_expt",""
"","bandit","249","709940","0.0-211.0-0.0","91444495","wem/bandit_party_2","A3U6IA3JUSFZ2M","either","8","424","","","","","","","1","0","0","0.4402798015","","0.2","0.8","0.4","0.6","","","","","0.4246621539","0.5334010147","0.4402798015","0.4179693295","","","","","","","","","","75","K","2","","","170","main_expt",""
"","bandit","250","712150","0.0-212.0-0.0","91444495","wem/bandit_party_2","A3U6IA3JUSFZ2M","either","8","702","","","","","","","0","0","1","0.450294849","","0.2","0.8","0.4","0.6","","","","","0.2843380906","0.498122785","0.450294849","0.3050406521","","","","","","","","","","75","K","2","","","171","main_expt",""
"","bandit","251","714068","0.0-213.0-0.0","91444495","wem/bandit_party_2","A3U6IA3JUSFZ2M","either","8","412","","","","","","","0","1","0","","0.6475755847","0.2","0.8","0.4","0.6","0.2668952485","0.4356988635","0.6475755847","0.3364500029","","","","","","","","","","","","","","75","K","2","","","172","main_expt",""
"","bandit","252","716212","0.0-214.0-0.0","91444495","wem/bandit_party_2","A3U6IA3JUSFZ2M","either","8","637","","","","","","","0","0","1","","0.6095255177","0.2","0.8","0.4","0.6","0.3802819164","0.3964199688","0.6095255177","0.421339117","","","","","","","","","","","","","","75","K","2","","","173","main_expt",""
"","bandit","253","718031","0.0-215.0-0.0","91444495","wem/bandit_party_2","A3U6IA3JUSFZ2M","either","8","309","","","","","","","0","0","1","","0.4913704717","0.2","0.8","0.4","0.6","0.4042455133","0.3194345802","0.5003628493","0.4913704717","","","","","","","","","","","","","","76","L","3","","","174","main_expt",""
"","bandit","254","719860","0.0-216.0-0.0","91444495","wem/bandit_party_2","A3U6IA3JUSFZ2M","either","8","323","","","","","","","0","0","1","0.5882611891","","0.2","0.8","0.4","0.6","","","","","0.4393989914","0.2865230234","0.5576212716","0.5882611891","","","","","","","","","","76","L","3","","","175","main_expt",""
"","bandit","255","722107","0.0-217.0-0.0","91444495","wem/bandit_party_2","A3U6IA3JUSFZ2M","either","8","742","","","","","","","0","1","0","","0.4705173801","0.2","0.8","0.4","0.6","0.4705173801","0.3352692614","0.6230679906","0.6313830356","","","","","","","","","","","","","","72","H","0","img/none_selected.jpg","","176","main_expt",""
"","bandit","256","723860","0.0-218.0-0.0","91444495","wem/bandit_party_2","A3U6IA3JUSFZ2M","either","8","248","","","","","","","1","0","0","0.4698597734","","0.2","0.8","0.4","0.6","","","","","0.4698597734","0.3389264817","0.6501784685","0.5531265137","","","","","","","","","","72","H","0","img/none_selected.jpg","","177","main_expt",""
"","bandit","257","725723","0.0-219.0-0.0","91444495","wem/bandit_party_2","A3U6IA3JUSFZ2M","either","8","358","","","","","","","0","0","1","","0.3570804947","0.2","0.8","0.4","0.6","0.3570804947","0.3709673039","0.6334155083","0.4621004187","","","","","","","","","","","","","","72","H","0","img/none_selected.jpg","","178","main_expt",""
"","bandit","258","727531","0.0-220.0-0.0","91444495","wem/bandit_party_2","A3U6IA3JUSFZ2M","either","8","303","","","","","","","0","0","1","","0.3441184995","0.2","0.8","0.4","0.6","0.3441184995","0.2940579202","0.7548338289","0.512884041","","","","","","","","","","","","","","72","H","0","img/none_selected.jpg","","179","main_expt",""
"","bandit","259","729365","0.0-221.0-0.0","91444495","wem/bandit_party_2","A3U6IA3JUSFZ2M","either","8","327","","","","","","","0","0","1","","0.3646136501","0.2","0.8","0.4","0.6","0.3646136501","0.3218724025","0.8074073351","0.506744284","","","","","","","","","","","","","","72","H","0","img/none_selected.jpg","","180","main_expt",""
"","bandit","260","731339","0.0-222.0-0.0","91444495","wem/bandit_party_2","A3U6IA3JUSFZ2M","either","8","468","","","","","","","0","1","0","","0.3777688814","0.2","0.8","0.4","0.6","0.3777688814","0.3633286182","0.780721516","0.4556494723","","","","","","","","","","","","","","72","H","0","img/none_selected.jpg","","181","main_expt",""
"","bandit","261","733036","0.0-223.0-0.0","91444495","wem/bandit_party_2","A3U6IA3JUSFZ2M","either","8","192","","","","","","","0","0","1","","0.4578236703","0.2","0.8","0.4","0.6","0.4578236703","0.3324048704","0.7647415088","0.4494525508","","","","","","","","","","","","","","72","H","0","img/none_selected.jpg","","182","main_expt",""
"","bandit","262","734843","0.0-224.0-0.0","91444495","wem/bandit_party_2","A3U6IA3JUSFZ2M","either","8","301","","","","","","","0","1","0","","0.4244895098","0.2","0.8","0.4","0.6","0.4244895098","0.3092830871","0.7349307529","0.5189143621","","","","","","","","","","","","","","72","H","0","img/none_selected.jpg","","183","main_expt",""
"","bandit","263","736708","0.0-225.0-0.0","91444495","wem/bandit_party_2","A3U6IA3JUSFZ2M","either","8","359","","","","","","","0","0","1","","0.3566779322","0.2","0.8","0.4","0.6","0.3566779322","0.3905692936","0.8298088288","0.5167606333","","","","","","","","","","","","","","72","H","0","img/none_selected.jpg","","184","main_expt",""
"","bandit","264","738508","0.0-226.0-0.0","91444495","wem/bandit_party_2","A3U6IA3JUSFZ2M","either","8","293","","","","","","","1","0","0","0.3737416658","","0.2","0.8","0.4","0.6","","","","","0.3737416658","0.4626192444","0.7894193193","0.5270237034","","","","","","","","","","72","H","0","img/none_selected.jpg","","185","main_expt",""
"","bandit","265","740581","0.0-227.0-0.0","91444495","wem/bandit_party_2","A3U6IA3JUSFZ2M","either","8","549","","","","","","","0","0","1","","0.3120176694","0.2","0.8","0.4","0.6","0.3120176694","0.6061762586","0.7665022487","0.5556036571","","","","","","","","","","","","","","72","H","0","img/none_selected.jpg","","186","main_expt",""
"","bandit","266","742383","0.0-228.0-0.0","91444495","wem/bandit_party_2","A3U6IA3JUSFZ2M","either","8","292","","","","","","","0","1","0","","0.4134691065","0.2","0.8","0.4","0.6","0.4134691065","0.530958695","0.7394266891","0.5865134094","","","","","","","","","","","","","","72","H","0","img/none_selected.jpg","","187","main_expt",""
"","bandit","267","744372","0.0-229.0-0.0","91444495","wem/bandit_party_2","A3U6IA3JUSFZ2M","either","8","483","","","","","","","1","0","0","0.380024655","","0.2","0.8","0.4","0.6","","","","","0.4637770407","0.380024655","0.6567361442","0.5034866795","","","","","","","","","","74","J","1","","","188","main_expt",""
"","bandit","268","746323","0.0-230.0-0.0","91444495","wem/bandit_party_2","A3U6IA3JUSFZ2M","either","8","445","","","","","","","1","0","0","0.4563575644","","0.2","0.8","0.4","0.6","","","","","0.5739034088","0.4563575644","0.6572443956","0.5761715841","","","","","","","","","","74","J","1","","","189","main_expt",""
"","bandit","269","748276","0.0-231.0-0.0","91444495","wem/bandit_party_2","A3U6IA3JUSFZ2M","either","8","447","","","","","","","1","0","0","0.4540853102","","0.2","0.8","0.4","0.6","","","","","0.5859504021","0.4540853102","0.6735764162","0.5325489933","","","","","","","","","","74","J","1","","","190","main_expt",""
"","bandit","270","750292","0.0-232.0-0.0","91444495","wem/bandit_party_2","A3U6IA3JUSFZ2M","either","8","510","","","","","","","0","0","1","0.4328006462","","0.2","0.8","0.4","0.6","","","","","0.5325822721","0.4328006462","0.5997518312","0.5614919892","","","","","","","","","","74","J","1","","","191","main_expt",""
"","bandit","271","752341","0.0-233.0-0.0","91444495","wem/bandit_party_2","A3U6IA3JUSFZ2M","either","8","543","","","","","","","1","0","0","0.4979354652","","0.2","0.8","0.4","0.6","","","","","0.4622441745","0.4979354652","0.6582178794","0.5972832049","","","","","","","","","","74","J","1","","","192","main_expt",""
"","bandit","272","754150","0.0-234.0-0.0","91444495","wem/bandit_party_2","A3U6IA3JUSFZ2M","either","8","302","","","","","","","0","0","1","","0.4887187701","0.2","0.8","0.4","0.6","0.4765036663","0.4887187701","0.7246172867","0.6997951875","","","","","","","","","","","","","","74","J","1","","","193","main_expt",""
"","bandit","273","755899","0.0-235.0-0.0","91444495","wem/bandit_party_2","A3U6IA3JUSFZ2M","either","8","244","","","","","","","1","0","0","0.4993882896","","0.2","0.8","0.4","0.6","","","","","0.4504155567","0.4993882896","0.7721250451","0.7511051992","","","","","","","","","","74","J","1","","","194","main_expt",""
"","bandit","274","758115","0.0-236.0-0.0","91444495","wem/bandit_party_2","A3U6IA3JUSFZ2M","either","8","711","","","","","","","0","0","1","","0.5011331455","0.2","0.8","0.4","0.6","0.4354252764","0.5011331455","0.8366496483","0.8281457055","","","","","","","","","","","","","","74","J","1","","","195","main_expt",""
"","bandit","275","760229","0.0-237.0-0.0","91444495","wem/bandit_party_2","A3U6IA3JUSFZ2M","either","8","608","","","","","","","0","1","0","","0.8484646997","0.2","0.8","0.4","0.6","0.4170899215","0.4487960683","0.8484646997","0.8248544968","","","","","","","","","","","","","","75","K","2","","","196","main_expt",""
"","bandit","276","762132","0.0-238.0-0.0","91444495","wem/bandit_party_2","A3U6IA3JUSFZ2M","either","8","397","","","","","","","0","0","1","","0.8734060335","0.2","0.8","0.4","0.6","0.4149059055","0.3975590019","0.8734060335","0.8532714289","","","","","","","","","","","","","","75","K","2","","","197","main_expt",""
"","bandit","277","764355","0.0-239.0-0.0","91444495","wem/bandit_party_2","A3U6IA3JUSFZ2M","either","8","717","","","","","","","0","1","0","","0.8515360685","0.2","0.8","0.4","0.6","0.4737306044","0.4161601929","0.8515360685","0.7587337752","","","","","","","","","","","","","","75","K","2","","","198","main_expt",""
"","bandit","278","766676","0.0-240.0-0.0","91444495","wem/bandit_party_2","A3U6IA3JUSFZ2M","either","8","815","","","","","","","1","0","0","0.8805923715","","0.2","0.8","0.4","0.6","","","","","0.4541760911","0.4483979408","0.8805923715","0.8124408481","","","","","","","","","","75","K","2","","","199","main_expt",""
"","bandit","279","768652","0.0-241.0-0.0","91444495","wem/bandit_party_2","A3U6IA3JUSFZ2M","either","8","470","","","","","","","0","1","0","","0.9645818821","0.2","0.8","0.4","0.6","0.3964714959","0.5303380975","0.9645818821","0.7935778268","","","","","","","","","","","","","","75","K","2","","","200","main_expt",""
"","bandit","280","770589","0.0-242.0-0.0","91444495","wem/bandit_party_2","A3U6IA3JUSFZ2M","either","8","431","","","","","","","1","0","0","0.9689478708","","0.2","0.8","0.4","0.6","","","","","0.3815447649","0.4014045657","0.9689478708","0.736942723","","","","","","","","","","75","K","2","","","201","main_expt",""
"","bandit","281","772507","0.0-243.0-0.0","91444495","wem/bandit_party_2","A3U6IA3JUSFZ2M","either","8","413","","","","","","","1","0","0","0.9678291885","","0.2","0.8","0.4","0.6","","","","","0.3726367513","0.5115169607","0.9678291885","0.7001951276","","","","","","","","","","75","K","2","","","202","main_expt",""
"","bandit","282","775109","0.0-244.0-0.0","91444495","wem/bandit_party_2","A3U6IA3JUSFZ2M","either","8","1095","","","","","","","0","1","0","","0.9633244117","0.2","0.8","0.4","0.6","0.3062653216","0.5026191452","0.9633244117","0.7209300446","","","","","","","","","","","","","","75","K","2","","","203","main_expt",""
"","bandit","283","778012","0.0-245.0-0.0","91444495","wem/bandit_party_2","A3U6IA3JUSFZ2M","either","8","1397","","","","","","","1","0","0","0.9730812582","","0.2","0.8","0.4","0.6","","","","","0.2848501254","0.4736298566","0.9730812582","0.8574132932","","","","","","","","","","75","K","2","","","204","main_expt",""
"","bandit","284","780475","0.0-246.0-0.0","91444495","wem/bandit_party_2","A3U6IA3JUSFZ2M","either","8","958","","","","","","","0","1","0","","0.9521206422","0.2","0.8","0.4","0.6","0.3457586416","0.6121858428","0.9521206422","0.9038760074","","","","","","","","","","","","","","75","K","2","","","205","main_expt",""
"","bandit","285","782267","0.0-247.0-0.0","91444495","wem/bandit_party_2","A3U6IA3JUSFZ2M","either","8","287","","","","","","","0","1","0","","0.9614764056","0.2","0.8","0.4","0.6","0.4609097875","0.6377028942","0.9614764056","0.9273356803","","","","","","","","","","","","","","75","K","2","","","206","main_expt",""
"","bandit","286","784213","0.0-248.0-0.0","91444495","wem/bandit_party_2","A3U6IA3JUSFZ2M","either","8","442","","","","","","","0","1","0","","0.9625830716","0.2","0.8","0.4","0.6","0.4980316736","0.5700483165","0.9625830716","0.9502037039","","","","","","","","","","","","","","75","K","2","","","207","main_expt",""
"","bandit","287","786308","0.0-249.0-0.0","91444495","wem/bandit_party_2","A3U6IA3JUSFZ2M","either","8","590","","","","","","","0","1","0","","0.9359306517","0.2","0.8","0.4","0.6","0.4537691537","0.624428721","0.9359306517","0.944094639","","","","","","","","","","","","","","75","K","2","","","208","main_expt",""
"","bandit","288","788043","0.0-250.0-0.0","91444495","wem/bandit_party_2","A3U6IA3JUSFZ2M","either","8","231","","","","","","","1","0","0","0.9632917203","","0.2","0.8","0.4","0.6","","","","","0.4475842875","0.4861871301","0.9632917203","0.9070839441","","","","","","","","","","75","K","2","","","209","main_expt",""
"","bandit","289","790656","0.0-251.0-0.0","91444495","wem/bandit_party_2","A3U6IA3JUSFZ2M","either","8","1108","","","","","","","1","0","0","0.9633226214","","0.2","0.8","0.4","0.6","","","","","0.4803454055","0.3956361612","0.9633226214","0.8960653589","","","","","","","","","","75","K","2","","","210","main_expt",""
"","bandit","290","792604","0.0-252.0-0.0","91444495","wem/bandit_party_2","A3U6IA3JUSFZ2M","either","8","443","","","","","","","0","1","0","","0.9719781217","0.2","0.8","0.4","0.6","0.4126443349","0.3599204452","0.9719781217","0.9155455821","","","","","","","","","","","","","","75","K","2","","","211","main_expt",""
"","bandit","291","794589","0.0-253.0-0.0","91444495","wem/bandit_party_2","A3U6IA3JUSFZ2M","either","8","478","","","","","","","1","0","0","0.9700781686","","0.2","0.8","0.4","0.6","","","","","0.3384802849","0.3349000901","0.9700781686","0.9087954588","","","","","","","","","","75","K","2","","","212","main_expt",""
"","bandit","292","796443","0.0-254.0-0.0","91444495","wem/bandit_party_2","A3U6IA3JUSFZ2M","either","8","346","","","","","","","0","0","1","","0.971165811","0.2","0.8","0.4","0.6","0.3039242722","0.3183344176","0.971165811","0.8528540962","","","","","","","","","","","","","","75","K","2","","","213","main_expt",""
"","bandit","293","798254","0.0-255.0-0.0","91444495","wem/bandit_party_2","A3U6IA3JUSFZ2M","either","8","302","","","","","","","0","1","0","","0.9627117","0.2","0.8","0.4","0.6","0.4541530846","0.2390758011","0.9627117","0.8506041988","","","","","","","","","","","","","","75","K","2","","","214","main_expt",""
"","bandit","294","800643","0.0-256.0-0.0","91444495","wem/bandit_party_2","A3U6IA3JUSFZ2M","either","8","884","","","","","","","0","1","0","","0.9552130497","0.2","0.8","0.4","0.6","0.5101749692","0.1997060473","0.9552130497","0.8001829978","","","","","","","","","","","","","","75","K","2","","","215","main_expt",""
"","bandit","295","802460","0.0-257.0-0.0","91444495","wem/bandit_party_2","A3U6IA3JUSFZ2M","either","8","312","","","","","","","0","1","0","","0.9220350188","0.2","0.8","0.4","0.6","0.5580520347","0.2326539104","0.9220350188","0.733614842","","","","","","","","","","","","","","75","K","2","","","216","main_expt",""
"","bandit","296","805355","0.0-258.0-0.0","91444495","wem/bandit_party_2","A3U6IA3JUSFZ2M","either","8","1390","","","","","","","0","0","1","","0.8736667029","0.2","0.8","0.4","0.6","0.4368451062","0.2319826337","0.8736667029","0.7479737912","","","","","","","","","","","","","","75","K","2","","","217","main_expt",""
"","bandit","297","807347","0.0-259.0-0.0","91444495","wem/bandit_party_2","A3U6IA3JUSFZ2M","either","8","487","","","","","","","1","0","0","0.7602784417","","0.2","0.8","0.4","0.6","","","","","0.3963441813","0.3143382807","0.7602784417","0.7713398237","","","","","","","","","","75","K","2","","","218","main_expt",""
"","bandit","298","809140","0.0-260.0-0.0","91444495","wem/bandit_party_2","A3U6IA3JUSFZ2M","either","8","287","","","","","","","0","1","0","","0.7643050859","0.2","0.8","0.4","0.6","0.4809426617","0.3304972923","0.7643050859","0.8077055691","","","","","","","","","","","","","","75","K","2","","","219","main_expt",""
"","bandit","299","810740","0.0-261.0-0.0","91444495","wem/bandit_party_2","A3U6IA3JUSFZ2M","either","8","94","","","","","","","0","1","0","","0.7793587236","0.2","0.8","0.4","0.6","0.397759556","0.2866104843","0.7793587236","0.7778114837","","","","","","","","","","","","","","75","K","2","","","220","main_expt",""
"","bandit","300","813013","0.0-262.0-0.0","91444495","wem/bandit_party_2","A3U6IA3JUSFZ2M","either","8","766","","","","","","","1","0","0","0.82086311","","0.2","0.8","0.4","0.6","","","","","0.4087677593","0.3602561646","0.82086311","0.7214198583","","","","","","","","","","75","K","2","","","221","main_expt",""
"","bandit","301","815860","0.0-263.0-0.0","91444495","wem/bandit_party_2","A3U6IA3JUSFZ2M","either","8","1341","","","","","","","0","1","0","","0.8543662658","0.2","0.8","0.4","0.6","0.4561280915","0.3228749062","0.8543662658","0.8091526303","","","","","","","","","","","","","","75","K","2","","","222","main_expt",""
"","bandit","302","819229","0.0-264.0-0.0","91444495","wem/bandit_party_2","A3U6IA3JUSFZ2M","either","8","1862","","","","","","","1","0","0","0.8599459829","","0.2","0.8","0.4","0.6","","","","","0.4419858618","0.2549485676","0.8599459829","0.8240838469","","","","","","","","","","75","K","2","","","223","main_expt",""
"","bandit","303","821381","0.0-265.0-0.0","91444495","wem/bandit_party_2","A3U6IA3JUSFZ2M","either","8","645","","","","","","","0","1","0","","0.8747991669","0.2","0.8","0.4","0.6","0.494409337","0.2389333491","0.8747991669","0.7670685714","","","","","","","","","","","","","","75","K","2","","","224","main_expt",""
"","bandit","304","823228","0.0-266.0-0.0","91444495","wem/bandit_party_2","A3U6IA3JUSFZ2M","either","8","342","","","","","","","0","1","0","","0.7910409491","0.2","0.8","0.4","0.6","0.3713348049","0.1517307125","0.7910409491","0.8775689376","","","","","","","","","","","","","","75","K","2","","","225","main_expt",""
"","bandit","305","825267","0.0-267.0-0.0","91444495","wem/bandit_party_2","A3U6IA3JUSFZ2M","either","8","534","","","","","","","0","1","0","","0.7212928749","0.2","0.8","0.4","0.6","0.4013452417","0.1002450003","0.7212928749","0.8846504348","","","","","","","","","","","","","","75","K","2","","","226","main_expt",""
"","bandit","306","827406","0.0-268.0-0.0","91444495","wem/bandit_party_2","A3U6IA3JUSFZ2M","either","8","630","","","","","","","1","0","0","0.7090989562","","0.2","0.8","0.4","0.6","","","","","0.393451628","0.1049945928","0.7090989562","0.851087938","","","","","","","","","","75","K","2","","","227","main_expt",""
"","bandit","307","829779","0.0-269.0-0.0","91444495","wem/bandit_party_2","A3U6IA3JUSFZ2M","either","8","869","","","","","","","0","1","0","","0.6606736223","0.2","0.8","0.4","0.6","0.4175844788","0.03915988122","0.6606736223","0.9074720337","","","","","","","","","","","","","","75","K","2","","","228","main_expt",""
"","bandit","308","831602","0.0-270.0-0.0","91444495","wem/bandit_party_2","A3U6IA3JUSFZ2M","either","8","319","","","","","","","0","1","0","","0.6893924153","0.2","0.8","0.4","0.6","0.408368909","0.03767516843","0.6893924153","0.872332114","","","","","","","","","","","","","","75","K","2","","","229","main_expt",""
"","bandit","309","833564","0.0-271.0-0.0","91444495","wem/bandit_party_2","A3U6IA3JUSFZ2M","either","8","455","","","","","","","0","1","0","","0.6067604319","0.2","0.8","0.4","0.6","0.4777699032","0.05804790214","0.6067604319","0.7967167456","","","","","","","","","","","","","","75","K","2","","","230","main_expt",""
"","bandit","310","835492","0.0-272.0-0.0","91444495","wem/bandit_party_2","A3U6IA3JUSFZ2M","either","8","422","","","","","","","1","0","0","0.5037419277","","0.2","0.8","0.4","0.6","","","","","0.4935442242","0.04963095007","0.5037419277","0.7760618079","","","","","","","","","","75","K","2","","","231","main_expt",""
"","bandit","311","837516","0.0-273.0-0.0","91444495","wem/bandit_party_2","A3U6IA3JUSFZ2M","either","8","517","","","","","","","0","0","1","","0.4339479185","0.2","0.8","0.4","0.6","0.4889590317","0.03759782928","0.4339479185","0.7765467853","","","","","","","","","","","","","","75","K","2","","","232","main_expt",""
"","bandit","312","839318","0.0-274.0-0.0","91444495","wem/bandit_party_2","A3U6IA3JUSFZ2M","either","8","297","","","","","","","0","1","0","","0.4525546635","0.2","0.8","0.4","0.6","0.5212294662","0.03147013274","0.4525546635","0.7895219362","","","","","","","","","","","","","","75","K","2","","","233","main_expt",""
"","bandit","313","841285","0.0-275.0-0.0","91444495","wem/bandit_party_2","A3U6IA3JUSFZ2M","either","8","462","","","","","","","1","0","0","0.3680080929","","0.2","0.8","0.4","0.6","","","","","0.4420617392","0.03547440544","0.3680080929","0.7491899586","","","","","","","","","","75","K","2","","","234","main_expt",""
"","bandit","314","843163","0.0-276.0-0.0","91444495","wem/bandit_party_2","A3U6IA3JUSFZ2M","either","8","373","","","","","","","0","1","0","","0.3416373547","0.2","0.8","0.4","0.6","0.4816955248","0.04486782706","0.3416373547","0.7397351474","","","","","","","","","","","","","","75","K","2","","","235","main_expt",""
"","bandit","315","845068","0.0-277.0-0.0","91444495","wem/bandit_party_2","A3U6IA3JUSFZ2M","either","8","397","","","","","","","0","0","1","","0.3722877153","0.2","0.8","0.4","0.6","0.3028121716","0.03122339122","0.3722877153","0.6587673302","","","","","","","","","","","","","","75","K","2","","","236","main_expt",""
"","bandit","316","846780","0.0-278.0-0.0","91444495","wem/bandit_party_2","A3U6IA3JUSFZ2M","either","8","206","","","","","","","0","0","1","0.3081002542","","0.2","0.8","0.4","0.6","","","","","0.3802502189","0.04191117605","0.3081002542","0.7534934878","","","","","","","","","","75","K","2","","","237","main_expt",""
"","bandit","317","848563","0.0-279.0-0.0","91444495","wem/bandit_party_2","A3U6IA3JUSFZ2M","either","8","279","","","","","","","0","0","1","","0.2546656634","0.2","0.8","0.4","0.6","0.4160754302","0.06367740527","0.2546656634","0.8023031038","","","","","","","","","","","","","","75","K","2","","","238","main_expt",""
"","bandit","318","850364","0.0-280.0-0.0","91444495","wem/bandit_party_2","A3U6IA3JUSFZ2M","either","8","295","","","","","","","0","1","0","","0.8333986962","0.2","0.8","0.4","0.6","0.3510440385","0.06315957527","0.3038323055","0.8333986962","","","","","","","","","","","","","","76","L","3","","","239","main_expt",""
