"consent","trial_type","trial_index","time_elapsed","internal_node_id","subjID","study","MID","cond","drift","rt","responses","button_pressed","key_press","like","value","connected","gems","bombs","no_reward","GemPrChosen","BombPrChosen","GainOverPainPr_0","GainOverPainPr_1","GainOverPainPr_2","GainOverPainPr_3","LosePr_0","LosePr_1","LosePr_2","LosePr_3","WinPr_0","WinPr_1","WinPr_2","WinPr_3","Q0","Q1","Q2","gender","age","ethnicity","label","expt_phase","target","respCharCode","respKey","respChoiceNum","respChoice","practice","trial_counter","trial_label","Q0_index","view_history"
"GDM/GDM_behavioral_consent_30min_online.html","consent","0","8534","0.0-0.0","92179012","wem/bandit_party_2","A15Y1NIIP9O5F3","either","3","","","","","","","","","","","","","","","","","","","","","","","","","","","","","","","","","","","","","","","","","",""
"","survey-text","1","23871","0.0-1.0","92179012","wem/bandit_party_2","A15Y1NIIP9O5F3","either","3","14320","{""Q0"":""A15Y1NIIP9O5F3""}","","","","","","","","","","","","","","","","","","","","","","","","","","","","","","","","","","","","","","","",""
"","button-response","2","27198","0.0-2.0","92179012","wem/bandit_party_2","A15Y1NIIP9O5F3","either","3","2317","","1","","","","","","","","","","","","","","","","","","","","","","","","","","","","","","","","","","","","","","",""
"","text-replacement","3","45407","0.0-3.0","92179012","wem/bandit_party_2","A15Y1NIIP9O5F3","either","3","17203","","","32","","","","","","","","","","","","","","","","","","","","","","","","","","","","","","","","","","","","","",""
"","text-replacement","4","73426","0.0-4.0","92179012","wem/bandit_party_2","A15Y1NIIP9O5F3","either","3","28017","","","32","","","","","","","","","","","","","","","","","","","","","","","","","","","","","","","","","","","","","",""
"","identification","5","81492","0.0-6.0-0.0","92179012","wem/bandit_party_2","A15Y1NIIP9O5F3","either","3","8050","","","","4","5","4","","","","","","","","","","","","","","","","","","","","","","","","pre","identification_pre","the Democratic Party","","","","","","","","",""
"","identification","6","85869","0.0-6.0-1.0","92179012","wem/bandit_party_2","A15Y1NIIP9O5F3","either","3","3361","","","","3","3","3","","","","","","","","","","","","","","","","","","","","","","","","pre","identification_pre","the Republican Party","","","","","","","","",""
"","text-replacement","7","93476","0.0-7.0","92179012","wem/bandit_party_2","A15Y1NIIP9O5F3","either","3","6599","","","32","","","","","","","","","","","","","","","","","","","","","","","","","","","","","","","","","","","","","",""
"","text-replacement","8","101350","0.0-8.0","92179012","wem/bandit_party_2","A15Y1NIIP9O5F3","either","3","7872","","","32","","","","","","","","","","","","","","","","","","","","","","","","","","","","","","","","","","","","","",""
"","text-replacement","9","111422","0.0-9.0","92179012","wem/bandit_party_2","A15Y1NIIP9O5F3","either","3","10071","","","32","","","","","","","","","","","","","","","","","","","","","","","","","","","","","","","","","","","","","",""
"","text-replacement","10","117640","0.0-10.0","92179012","wem/bandit_party_2","A15Y1NIIP9O5F3","either","3","6216","","","32","","","","","","","","","","","","","","","","","","","","","","","","","","","","","","","","","","","","","",""
"","text-replacement","11","125483","0.0-11.0","92179012","wem/bandit_party_2","A15Y1NIIP9O5F3","either","3","7842","","","32","","","","","","","","","","","","","","","","","","","","","","","","","","","","","","","","","","","","","",""
"","bandit","12","129142","0.0-12.0-0.0","92179012","wem/bandit_party_2","A15Y1NIIP9O5F3","either","3","2149","","","","","","","0","0","1","0","0","","","","","0","","","","0","","","","","","","","","","","","","74","J","0","img/none_selected_demo.jpg","true","0","","",""
"","bandit","13","131503","0.0-13.0-0.0","92179012","wem/bandit_party_2","A15Y1NIIP9O5F3","either","3","853","","","","","","","0","0","1","0","0","","","","","0","","","","0","","","","","","","","","","","","","75","K","0","img/none_selected_demo.jpg","true","0","","",""
"","text-replacement","14","149933","0.0-14.0","92179012","wem/bandit_party_2","A15Y1NIIP9O5F3","either","3","18427","","","32","","","","","","","","","","","","","","","","","","","","","","","","","","","","","","","","","","","","","",""
"","text-replacement","15","156956","0.0-15.0","92179012","wem/bandit_party_2","A15Y1NIIP9O5F3","either","3","7022","","","32","","","","","","","","","","","","","","","","","","","","","","","","","","","","","","","","","","","","","",""
"","text-replacement","16","168982","0.0-16.0","92179012","wem/bandit_party_2","A15Y1NIIP9O5F3","either","3","12024","","","32","","","","","","","","","","","","","","","","","","","","","","","","","","","","","","","","","","","","","",""
"","text-replacement","17","178501","0.0-17.0","92179012","wem/bandit_party_2","A15Y1NIIP9O5F3","either","3","9517","","","32","","","","","","","","","","","","","","","","","","","","","","","","","","","","","","","","","","","","","",""
"","bandit","18","180745","0.0-18.0-0.0","92179012","wem/bandit_party_2","A15Y1NIIP9O5F3","either","3","735","","","","","","","1","0","0","0.8","","0.5","0.5","","","","","","","0.8","0.2","","","","","","","","","","","","74","J","0","img/none_selected_demo.jpg","true","0","80_20_practice","",""
"","bandit","19","182637","0.0-18.0-1.0","92179012","wem/bandit_party_2","A15Y1NIIP9O5F3","either","3","382","","","","","","","0","1","0","","0.8","0.5","0.5","","","0.8","0.2","","","","","","","","","","","","","","","","74","J","0","img/none_selected_demo.jpg","true","0","80_20_practice","",""
"","bandit","20","184518","0.0-18.0-2.0","92179012","wem/bandit_party_2","A15Y1NIIP9O5F3","either","3","369","","","","","","","0","0","1","0.8","","0.5","0.5","","","","","","","0.8","0.2","","","","","","","","","","","","74","J","0","img/none_selected_demo.jpg","true","0","80_20_practice","",""
"","bandit","21","186213","0.0-18.0-3.0","92179012","wem/bandit_party_2","A15Y1NIIP9O5F3","either","3","181","","","","","","","0","0","1","","0.8","0.5","0.5","","","0.8","0.2","","","","","","","","","","","","","","","","74","J","0","img/none_selected_demo.jpg","true","0","80_20_practice","",""
"","bandit","22","187826","0.0-18.0-4.0","92179012","wem/bandit_party_2","A15Y1NIIP9O5F3","either","3","100","","","","","","","0","1","0","","0.8","0.5","0.5","","","0.8","0.2","","","","","","","","","","","","","","","","74","J","0","img/none_selected_demo.jpg","true","0","80_20_practice","",""
"","bandit","23","189355","0.0-18.0-5.0","92179012","wem/bandit_party_2","A15Y1NIIP9O5F3","either","3","18","","","","","","","0","0","1","0.2","","0.5","0.5","","","","","","","0.8","0.2","","","","","","","","","","","","75","K","1","","true","0","80_20_practice","",""
"","bandit","24","190989","0.0-18.0-6.0","92179012","wem/bandit_party_2","A15Y1NIIP9O5F3","either","3","127","","","","","","","0","0","1","0.2","","0.5","0.5","","","","","","","0.8","0.2","","","","","","","","","","","","75","K","1","","true","0","80_20_practice","",""
"","bandit","25","192522","0.0-18.0-7.0","92179012","wem/bandit_party_2","A15Y1NIIP9O5F3","either","3","20","","","","","","","0","0","1","","0.2","0.5","0.5","","","0.8","0.2","","","","","","","","","","","","","","","","75","K","1","","true","0","80_20_practice","",""
"","bandit","26","194077","0.0-18.0-8.0","92179012","wem/bandit_party_2","A15Y1NIIP9O5F3","either","3","47","","","","","","","0","0","1","","0.2","0.5","0.5","","","0.8","0.2","","","","","","","","","","","","","","","","75","K","1","","true","0","80_20_practice","",""
"","bandit","27","195638","0.0-18.0-9.0","92179012","wem/bandit_party_2","A15Y1NIIP9O5F3","either","3","48","","","","","","","1","0","0","0.2","","0.5","0.5","","","","","","","0.8","0.2","","","","","","","","","","","","75","K","1","","true","0","80_20_practice","",""
"","bandit","28","197182","0.0-18.0-10.0","92179012","wem/bandit_party_2","A15Y1NIIP9O5F3","either","3","34","","","","","","","0","0","1","","0.2","0.5","0.5","","","0.8","0.2","","","","","","","","","","","","","","","","75","K","1","","true","0","80_20_practice","",""
"","bandit","29","198933","0.0-18.0-11.0","92179012","wem/bandit_party_2","A15Y1NIIP9O5F3","either","3","242","","","","","","","1","0","0","0.2","","0.5","0.5","","","","","","","0.8","0.2","","","","","","","","","","","","75","K","1","","true","0","80_20_practice","",""
"","bandit","30","200537","0.0-18.0-12.0","92179012","wem/bandit_party_2","A15Y1NIIP9O5F3","either","3","95","","","","","","","0","0","1","","0.2","0.5","0.5","","","0.8","0.2","","","","","","","","","","","","","","","","75","K","1","","true","0","80_20_practice","",""
"","bandit","31","202052","0.0-18.0-13.0","92179012","wem/bandit_party_2","A15Y1NIIP9O5F3","either","3","0","","","","","","","0","0","1","","0.2","0.5","0.5","","","0.8","0.2","","","","","","","","","","","","","","","","75","K","1","","true","0","80_20_practice","",""
"","bandit","32","203840","0.0-18.0-14.0","92179012","wem/bandit_party_2","A15Y1NIIP9O5F3","either","3","274","","","","","","","0","0","1","0.2","","0.5","0.5","","","","","","","0.8","0.2","","","","","","","","","","","","75","K","1","","true","0","80_20_practice","",""
"","bandit","33","205996","0.0-18.0-15.0","92179012","wem/bandit_party_2","A15Y1NIIP9O5F3","either","3","648","","","","","","","0","0","1","","0.2","0.5","0.5","","","0.8","0.2","","","","","","","","","","","","","","","","75","K","1","","true","0","80_20_practice","",""
"","bandit","34","208295","0.0-18.0-16.0","92179012","wem/bandit_party_2","A15Y1NIIP9O5F3","either","3","791","","","","","","","0","0","1","0.2","","0.5","0.5","","","","","","","0.8","0.2","","","","","","","","","","","","75","K","1","","true","0","80_20_practice","",""
"","bandit","35","210137","0.0-18.0-17.0","92179012","wem/bandit_party_2","A15Y1NIIP9O5F3","either","3","333","","","","","","","0","1","0","","0.8","0.5","0.5","","","0.8","0.2","","","","","","","","","","","","","","","","74","J","0","img/none_selected_demo.jpg","true","0","80_20_practice","",""
"","bandit","36","211757","0.0-18.0-18.0","92179012","wem/bandit_party_2","A15Y1NIIP9O5F3","either","3","112","","","","","","","1","0","0","0.2","","0.5","0.5","","","","","","","0.8","0.2","","","","","","","","","","","","75","K","1","","true","0","80_20_practice","",""
"","bandit","37","213432","0.0-18.0-19.0","92179012","wem/bandit_party_2","A15Y1NIIP9O5F3","either","3","164","","","","","","","0","0","1","0.2","","0.5","0.5","","","","","","","0.8","0.2","","","","","","","","","","","","75","K","1","","true","0","80_20_practice","",""
"","text-replacement","38","224081","0.0-19.0","92179012","wem/bandit_party_2","A15Y1NIIP9O5F3","either","3","10646","","","32","","","","","","","","","","","","","","","","","","","","","","","","","","","","","","","","","","","","","",""
"","bandit","39","229698","0.0-20.0-0.0","92179012","wem/bandit_party_2","A15Y1NIIP9O5F3","either","3","4101","","","","","","","0","1","0","0","1","","","","","0","1","","","1","0","","","","","","","","","","","","75","K","1","","true","0","","",""
"","text-replacement","40","239439","0.0-21.0","92179012","wem/bandit_party_2","A15Y1NIIP9O5F3","either","3","9739","","","74","","","","","","","","","","","","","","","","","","","","","","","","","","","","","","","","","","","","","",""
"","text-replacement","41","243763","0.0-22.0","92179012","wem/bandit_party_2","A15Y1NIIP9O5F3","either","3","4321","","","32","","","","","","","","","","","","","","","","","","","","","","","","","","","","","","","","","","","","","",""
"","text-replacement","42","248215","0.0-23.0","92179012","wem/bandit_party_2","A15Y1NIIP9O5F3","either","3","4449","","","32","","","","","","","","","","","","","","","","","","","","","","","","","","","","","","","","","","","","","",""
"","text-replacement","43","251805","0.0-24.0","92179012","wem/bandit_party_2","A15Y1NIIP9O5F3","either","3","3586","","","32","","","","","","","","","","","","","","","","","","","","","","","","","","","","","","","","","","","","","",""
"","text-replacement","44","257842","0.0-25.0","92179012","wem/bandit_party_2","A15Y1NIIP9O5F3","either","3","6036","","","32","","","","","","","","","","","","","","","","","","","","","","","","","","","","","","","","","","","","","",""
"","text-replacement","45","261236","0.0-26.0","92179012","wem/bandit_party_2","A15Y1NIIP9O5F3","either","3","3391","","","32","","","","","","","","","","","","","","","","","","","","","","","","","","","","","","","","","","","","","",""
"","text-replacement","46","265216","0.0-27.0","92179012","wem/bandit_party_2","A15Y1NIIP9O5F3","either","3","3977","","","32","","","","","","","","","","","","","","","","","","","","","","","","","","","","","","","","","","","","","",""
"","text-replacement","47","270293","0.0-28.0","92179012","wem/bandit_party_2","A15Y1NIIP9O5F3","either","3","5074","","","32","","","","","","","","","","","","","","","","","","","","","","","","","","","","","","","","","","","","","",""
"","text-replacement","48","279615","0.0-29.0","92179012","wem/bandit_party_2","A15Y1NIIP9O5F3","either","3","9319","","","32","","","","","","","","","","","","","","","","","","","","","","","","","","","","","","","","","","","","","",""
"","text-replacement","49","280938","0.0-30.0","92179012","wem/bandit_party_2","A15Y1NIIP9O5F3","either","3","1320","","","32","","","","","","","","","","","","","","","","","","","","","","","","","","","","","","","","","","","","","",""
"","text-replacement","50","282817","0.0-31.0","92179012","wem/bandit_party_2","A15Y1NIIP9O5F3","either","3","1876","","","32","","","","","","","","","","","","","","","","","","","","","","","","","","","","","","","","","","","","","",""
"","bandit","51","284842","0.0-32.0-0.0","92179012","wem/bandit_party_2","A15Y1NIIP9O5F3","either","3","517","","","","","","","0","1","0","","0.8","0.5","0.5","0.5","0.5","0.8","0.2","0.6","0.2","","","","","","","","","","","","","","72","H","0","img/none_selected.jpg","true","0","full_practice","",""
"","bandit","52","286937","0.0-32.0-1.0","92179012","wem/bandit_party_2","A15Y1NIIP9O5F3","either","3","586","","","","","","","0","1","0","","0.8","0.5","0.5","0.5","0.5","0.8","0.2","0.6","0.2","","","","","","","","","","","","","","72","H","0","img/none_selected.jpg","true","0","full_practice","",""
"","bandit","53","288655","0.0-32.0-2.0","92179012","wem/bandit_party_2","A15Y1NIIP9O5F3","either","3","208","","","","","","","0","1","0","","0.8","0.5","0.5","0.5","0.5","0.8","0.2","0.6","0.2","","","","","","","","","","","","","","72","H","0","img/none_selected.jpg","true","0","full_practice","",""
"","bandit","54","290272","0.0-32.0-3.0","92179012","wem/bandit_party_2","A15Y1NIIP9O5F3","either","3","107","","","","","","","0","0","1","0.2","","0.5","0.5","0.5","0.5","","","","","0.8","0.2","0.6","0.2","","","","","","","","","","74","J","1","","true","0","full_practice","",""
"","bandit","55","291928","0.0-32.0-4.0","92179012","wem/bandit_party_2","A15Y1NIIP9O5F3","either","3","144","","","","","","","0","0","1","","0.2","0.5","0.5","0.5","0.5","0.8","0.2","0.6","0.2","","","","","","","","","","","","","","74","J","1","","true","0","full_practice","",""
"","bandit","56","293577","0.0-32.0-5.0","92179012","wem/bandit_party_2","A15Y1NIIP9O5F3","either","3","137","","","","","","","1","0","0","0.6","","0.5","0.5","0.5","0.5","","","","","0.8","0.2","0.6","0.2","","","","","","","","","","75","K","2","","true","0","full_practice","",""
"","bandit","57","295550","0.0-32.0-6.0","92179012","wem/bandit_party_2","A15Y1NIIP9O5F3","either","3","464","","","","","","","0","1","0","","0.6","0.5","0.5","0.5","0.5","0.8","0.2","0.6","0.2","","","","","","","","","","","","","","75","K","2","","true","0","full_practice","",""
"","bandit","58","297323","0.0-32.0-7.0","92179012","wem/bandit_party_2","A15Y1NIIP9O5F3","either","3","265","","","","","","","0","0","1","0.6","","0.5","0.5","0.5","0.5","","","","","0.8","0.2","0.6","0.2","","","","","","","","","","75","K","2","","true","0","full_practice","",""
"","bandit","59","299021","0.0-32.0-8.0","92179012","wem/bandit_party_2","A15Y1NIIP9O5F3","either","3","188","","","","","","","0","0","1","0.6","","0.5","0.5","0.5","0.5","","","","","0.8","0.2","0.6","0.2","","","","","","","","","","75","K","2","","true","0","full_practice","",""
"","bandit","60","300791","0.0-32.0-9.0","92179012","wem/bandit_party_2","A15Y1NIIP9O5F3","either","3","259","","","","","","","0","1","0","","0.6","0.5","0.5","0.5","0.5","0.8","0.2","0.6","0.2","","","","","","","","","","","","","","75","K","2","","true","0","full_practice","",""
"","bandit","61","302596","0.0-32.0-10.0","92179012","wem/bandit_party_2","A15Y1NIIP9O5F3","either","3","294","","","","","","","0","1","0","","0.2","0.5","0.5","0.5","0.5","0.8","0.2","0.6","0.2","","","","","","","","","","","","","","76","L","3","","true","0","full_practice","",""
"","bandit","62","304361","0.0-32.0-11.0","92179012","wem/bandit_party_2","A15Y1NIIP9O5F3","either","3","251","","","","","","","0","0","1","0.2","","0.5","0.5","0.5","0.5","","","","","0.8","0.2","0.6","0.2","","","","","","","","","","76","L","3","","true","0","full_practice","",""
"","bandit","63","306215","0.0-32.0-12.0","92179012","wem/bandit_party_2","A15Y1NIIP9O5F3","either","3","342","","","","","","","0","0","1","","0.2","0.5","0.5","0.5","0.5","0.8","0.2","0.6","0.2","","","","","","","","","","","","","","76","L","3","","true","0","full_practice","",""
"","bandit","64","309323","0.0-32.0-13.0","92179012","wem/bandit_party_2","A15Y1NIIP9O5F3","either","3","1596","","","","","","","0","0","1","0.2","","0.5","0.5","0.5","0.5","","","","","0.8","0.2","0.6","0.2","","","","","","","","","","76","L","3","","true","0","full_practice","",""
"","bandit","65","310866","0.0-32.0-14.0","92179012","wem/bandit_party_2","A15Y1NIIP9O5F3","either","3","31","","","","","","","0","0","1","","0.2","0.5","0.5","0.5","0.5","0.8","0.2","0.6","0.2","","","","","","","","","","","","","","76","L","3","","true","0","full_practice","",""
"","bandit","66","314550","0.0-32.0-15.0","92179012","wem/bandit_party_2","A15Y1NIIP9O5F3","either","3","2175","","","","","","","0","0","1","0.2","","0.5","0.5","0.5","0.5","","","","","0.8","0.2","0.6","0.2","","","","","","","","","","76","L","3","","true","0","full_practice","",""
"","bandit","67","317074","0.0-32.0-16.0","92179012","wem/bandit_party_2","A15Y1NIIP9O5F3","either","3","1015","","","","","","","0","0","1","0.2","","0.5","0.5","0.5","0.5","","","","","0.8","0.2","0.6","0.2","","","","","","","","","","76","L","3","","true","0","full_practice","",""
"","bandit","68","318691","0.0-32.0-17.0","92179012","wem/bandit_party_2","A15Y1NIIP9O5F3","either","3","104","","","","","","","1","0","0","0.6","","0.5","0.5","0.5","0.5","","","","","0.8","0.2","0.6","0.2","","","","","","","","","","75","K","2","","true","0","full_practice","",""
"","bandit","69","322325","0.0-32.0-18.0","92179012","wem/bandit_party_2","A15Y1NIIP9O5F3","either","3","2120","","","","","","","1","0","0","0.2","","0.5","0.5","0.5","0.5","","","","","0.8","0.2","0.6","0.2","","","","","","","","","","76","L","3","","true","0","full_practice","",""
"","bandit","70","323839","0.0-32.0-19.0","92179012","wem/bandit_party_2","A15Y1NIIP9O5F3","either","3","0","","","","","","","1","0","0","0.6","","0.5","0.5","0.5","0.5","","","","","0.8","0.2","0.6","0.2","","","","","","","","","","75","K","2","","true","0","full_practice","",""
"","text","71","329611","0.0-33.0","92179012","wem/bandit_party_2","A15Y1NIIP9O5F3","either","3","5764","","","32","","","","","","","","","","","","","","","","","","","","","","","","","","","","","","","","","","","","","",""
"","text-replacement","72","345117","0.0-34.0","92179012","wem/bandit_party_2","A15Y1NIIP9O5F3","either","3","14499","","","32","","","","","","","","","","","","","","","","","","","","","","","","","","","","","","","","","","","","","",""
"","text-replacement","73","359621","0.0-35.0","92179012","wem/bandit_party_2","A15Y1NIIP9O5F3","either","3","14501","","","32","","","","","","","","","","","","","","","","","","","","","","","","","","","","","","","","","","","","","",""
"","text-replacement","74","366866","0.0-36.0","92179012","wem/bandit_party_2","A15Y1NIIP9O5F3","either","3","7243","","","32","","","","","","","","","","","","","","","","","","","","","","","","","","","","","","","","","","","","","",""
"","text-replacement","75","374338","0.0-37.0","92179012","wem/bandit_party_2","A15Y1NIIP9O5F3","either","3","7470","","","32","","","","","","","","","","","","","","","","","","","","","","","","","","","","","","","","","","","","","",""
"","text-replacement","76","433413","0.0-38.0","92179012","wem/bandit_party_2","A15Y1NIIP9O5F3","either","3","59072","","","32","","","","","","","","","","","","","","","","","","","","","","","","","","","","","","","","","","","","","",""
"","survey-multi-choice-replacement","77","457015","0.0-39.0-0.0","92179012","wem/bandit_party_2","A15Y1NIIP9O5F3","either","3","23593","","","","","","","","","","","","","","","","","","","","","","","","Money will be added to the pool for <span style='color:blue;'>DEMOCRATS</span>","","","","","","","attn_check","","","","","","","","","0",""
"","survey-multi-choice-replacement","78","460877","0.0-40.0-0.0","92179012","wem/bandit_party_2","A15Y1NIIP9O5F3","either","3","2847","","","","","","","","","","","","","","","","","","","","","","","","Money will be subtracted from the pool for <span style='color:red;'>REPUBLICANS</span>","","","","","","","attn_check","","","","","","","","","1",""
"","instructions","79","463711","0.0-40.0-1.0-0.0","92179012","wem/bandit_party_2","A15Y1NIIP9O5F3","either","3","1827","","","","","","","","","","","","","","","","","","","","","","","","","","","","","","","","","","","","","","","","","[{""page_index"":0,""viewing_time"":1827}]"
"","survey-multi-choice-replacement","80","472450","0.0-40.1-0.1","92179012","wem/bandit_party_2","A15Y1NIIP9O5F3","either","3","7730","","","","","","","","","","","","","","","","","","","","","","","","Equal amounts of money will be added to the pool for <span style='color:blue;'>DEMOCRATS</span> and subtracted from the pool for <span style='color:red;'>REPUBLICANS</span>","","","","","","","attn_check","","","","","","","","","2",""
"","survey-multi-choice-replacement","81","476505","0.0-41.0-0.0","92179012","wem/bandit_party_2","A15Y1NIIP9O5F3","either","3","3040","","","","","","","","","","","","","","","","","","","","","","","","No money will be added to either pool","","","","","","","attn_check","","","","","","","","","3",""
"","bandit","82","480287","0.0-42.0-0.0","92179012","wem/bandit_party_2","A15Y1NIIP9O5F3","either","3","1269","","","","","","","0","0","1","0.1387034319","","0.6","0.8","0.2","0.4","","","","","0.4261870849","0.1387034319","0.6473934842","0.6494041588","","","","","","","","","","74","J","1","","","1","main_expt","",""
"","bandit","83","482094","0.0-43.0-0.0","92179012","wem/bandit_party_2","A15Y1NIIP9O5F3","either","3","293","","","","","","","0","0","1","","0.5221866694","0.6","0.8","0.2","0.4","0.3223101542","0.2166337036","0.5221866694","0.7608835745","","","","","","","","","","","","","","75","K","2","","","2","main_expt","",""
"","bandit","84","483858","0.0-44.0-0.0","92179012","wem/bandit_party_2","A15Y1NIIP9O5F3","either","3","253","","","","","","","0","0","1","","0.7745567172","0.6","0.8","0.2","0.4","0.2541217019","0.3253899216","0.5356292978","0.7745567172","","","","","","","","","","","","","","76","L","3","","","3","main_expt","",""
"","bandit","85","486317","0.0-45.0-0.0","92179012","wem/bandit_party_2","A15Y1NIIP9O5F3","either","3","948","","","","","","","0","0","1","","0.2272043942","0.6","0.8","0.2","0.4","0.2272043942","0.3003293127","0.5154592071","0.8315703218","","","","","","","","","","","","","","72","H","0","img/none_selected.jpg","","4","main_expt","",""
"","bandit","86","488186","0.0-46.0-0.0","92179012","wem/bandit_party_2","A15Y1NIIP9O5F3","either","3","360","","","","","","","0","0","1","0.4578896037","","0.6","0.8","0.2","0.4","","","","","0.2967729676","0.3839660868","0.4578896037","0.8380789219","","","","","","","","","","75","K","2","","","5","main_expt","",""
"","bandit","87","489958","0.0-47.0-0.0","92179012","wem/bandit_party_2","A15Y1NIIP9O5F3","either","3","258","","","","","","","0","0","1","","0.8233568153","0.6","0.8","0.2","0.4","0.3211998527","0.3833463511","0.4825789634","0.8233568153","","","","","","","","","","","","","","76","L","3","","","6","main_expt","",""
"","bandit","88","491484","0.0-48.0-0.0","92179012","wem/bandit_party_2","A15Y1NIIP9O5F3","either","3","9","","","","","","","1","0","0","0.3173395401","","0.6","0.8","0.2","0.4","","","","","0.4190649117","0.3173395401","0.4013658759","0.8672840292","","","","","","","","","","74","J","1","","","7","main_expt","",""
"","bandit","89","493040","0.0-49.0-0.0","92179012","wem/bandit_party_2","A15Y1NIIP9O5F3","either","3","45","","","","","","","0","0","1","0.3265190876","","0.6","0.8","0.2","0.4","","","","","0.5253498774","0.3265190876","0.3721769634","0.7921451217","","","","","","","","","","74","J","1","","","8","main_expt","",""
"","bandit","90","495066","0.0-50.0-0.0","92179012","wem/bandit_party_2","A15Y1NIIP9O5F3","either","3","510","","","","","","","0","0","1","","0.4229840653","0.6","0.8","0.2","0.4","0.5552176016","0.4229840653","0.3934089605","0.7826569337","","","","","","","","","","","","","","74","J","1","","","9","main_expt","",""
"","bandit","91","496894","0.0-51.0-0.0","92179012","wem/bandit_party_2","A15Y1NIIP9O5F3","either","3","315","","","","","","","0","0","1","0.5107168356","","0.6","0.8","0.2","0.4","","","","","0.654745146","0.5107168356","0.3360942297","0.7150392401","","","","","","","","","","74","J","1","","","10","main_expt","",""
"","bandit","92","498473","0.0-52.0-0.0","92179012","wem/bandit_party_2","A15Y1NIIP9O5F3","either","3","63","","","","","","","0","1","0","","0.6089063278","0.6","0.8","0.2","0.4","0.6089063278","0.4383577931","0.4969537907","0.6906605055","","","","","","","","","","","","","","72","H","0","img/none_selected.jpg","","11","main_expt","",""
"","bandit","93","500312","0.0-53.0-0.0","92179012","wem/bandit_party_2","A15Y1NIIP9O5F3","either","3","325","","","","","","","0","0","1","0.559155858","","0.6","0.8","0.2","0.4","","","","","0.559155858","0.5487148549","0.4760264401","0.6725575113","","","","","","","","","","72","H","0","img/none_selected.jpg","","12","main_expt","",""
"","bandit","94","501967","0.0-54.0-0.0","92179012","wem/bandit_party_2","A15Y1NIIP9O5F3","either","3","139","","","","","","","0","1","0","","0.6464491645","0.6","0.8","0.2","0.4","0.6464491645","0.7407599438","0.4008761295","0.7404599176","","","","","","","","","","","","","","72","H","0","img/none_selected.jpg","","13","main_expt","",""
"","bandit","95","503731","0.0-55.0-0.0","92179012","wem/bandit_party_2","A15Y1NIIP9O5F3","either","3","252","","","","","","","1","0","0","0.6936958995","","0.6","0.8","0.2","0.4","","","","","0.6936958995","0.8307131687","0.358486362","0.6751607758","","","","","","","","","","72","H","0","img/none_selected.jpg","","14","main_expt","",""
"","bandit","96","505518","0.0-56.0-0.0","92179012","wem/bandit_party_2","A15Y1NIIP9O5F3","either","3","278","","","","","","","1","0","0","0.731471075","","0.6","0.8","0.2","0.4","","","","","0.731471075","0.8114394421","0.395258373","0.6115440925","","","","","","","","","","72","H","0","img/none_selected.jpg","","15","main_expt","",""
"","bandit","97","507102","0.0-57.0-0.0","92179012","wem/bandit_party_2","A15Y1NIIP9O5F3","either","3","70","","","","","","","0","0","1","","0.6487541525","0.6","0.8","0.2","0.4","0.6487541525","0.8242397169","0.4197334966","0.7019001419","","","","","","","","","","","","","","72","H","0","img/none_selected.jpg","","16","main_expt","",""
"","bandit","98","508798","0.0-58.0-0.0","92179012","wem/bandit_party_2","A15Y1NIIP9O5F3","either","3","185","","","","","","","0","1","0","","0.7654634758","0.6","0.8","0.2","0.4","0.7654634758","0.8317633157","0.2160816064","0.7017998","","","","","","","","","","","","","","72","H","0","img/none_selected.jpg","","17","main_expt","",""
"","bandit","99","510563","0.0-59.0-0.0","92179012","wem/bandit_party_2","A15Y1NIIP9O5F3","either","3","250","","","","","","","0","0","1","0.7160830043","","0.6","0.8","0.2","0.4","","","","","0.7160830043","0.8158638682","0.2058632209","0.7672473748","","","","","","","","","","72","H","0","img/none_selected.jpg","","18","main_expt","",""
"","bandit","100","512495","0.0-60.0-0.0","92179012","wem/bandit_party_2","A15Y1NIIP9O5F3","either","3","419","","","","","","","1","0","0","0.6856656502","","0.6","0.8","0.2","0.4","","","","","0.6856656502","0.8291878069","0.2314559036","0.7950219121","","","","","","","","","","72","H","0","img/none_selected.jpg","","19","main_expt","",""
"","bandit","101","514463","0.0-61.0-0.0","92179012","wem/bandit_party_2","A15Y1NIIP9O5F3","either","3","455","","","","","","","1","0","0","0.6829400921","","0.6","0.8","0.2","0.4","","","","","0.6829400921","0.8665153398","0.1762066147","0.8460513568","","","","","","","","","","72","H","0","img/none_selected.jpg","","20","main_expt","",""
"","bandit","102","516175","0.0-62.0-0.0","92179012","wem/bandit_party_2","A15Y1NIIP9O5F3","either","3","199","","","","","","","0","0","1","","0.6849203215","0.6","0.8","0.2","0.4","0.6849203215","0.8181415858","0.150477598","0.8571228725","","","","","","","","","","","","","","72","H","0","img/none_selected.jpg","","21","main_expt","",""
"","bandit","103","517835","0.0-63.0-0.0","92179012","wem/bandit_party_2","A15Y1NIIP9O5F3","either","3","146","","","","","","","0","0","1","0.6832197831","","0.6","0.8","0.2","0.4","","","","","0.6832197831","0.7731960963","0.1957635407","0.8498483749","","","","","","","","","","72","H","0","img/none_selected.jpg","","22","main_expt","",""
"","bandit","104","519853","0.0-64.0-0.0","92179012","wem/bandit_party_2","A15Y1NIIP9O5F3","either","3","510","","","","","","","0","0","1","0.6103957523","","0.6","0.8","0.2","0.4","","","","","0.6103957523","0.8004626553","0.2193187944","0.887495535","","","","","","","","","","72","H","0","img/none_selected.jpg","","23","main_expt","",""
"","bandit","105","521672","0.0-65.0-0.0","92179012","wem/bandit_party_2","A15Y1NIIP9O5F3","either","3","305","","","","","","","1","0","0","0.5485819736","","0.6","0.8","0.2","0.4","","","","","0.5485819736","0.7941911222","0.1836328706","0.918231735","","","","","","","","","","72","H","0","img/none_selected.jpg","","24","main_expt","",""
"","bandit","106","523767","0.0-66.0-0.0","92179012","wem/bandit_party_2","A15Y1NIIP9O5F3","either","3","581","","","","","","","0","0","1","","0.5852935809","0.6","0.8","0.2","0.4","0.5852935809","0.7100633829","0.1410441375","0.9111146318","","","","","","","","","","","","","","72","H","0","img/none_selected.jpg","","25","main_expt","",""
"","bandit","107","526274","0.0-67.0-0.0","92179012","wem/bandit_party_2","A15Y1NIIP9O5F3","either","3","994","","","","","","","0","0","1","","0.6097892937","0.6","0.8","0.2","0.4","0.6097892937","0.6872129375","0.1082593399","0.9190640316","","","","","","","","","","","","","","72","H","0","img/none_selected.jpg","","26","main_expt","",""
"","bandit","108","528349","0.0-68.0-0.0","92179012","wem/bandit_party_2","A15Y1NIIP9O5F3","either","3","565","","","","","","","1","0","0","0.6653335402","","0.6","0.8","0.2","0.4","","","","","0.6653335402","0.6798864795","0.1042047793","0.9372614837","","","","","","","","","","72","H","0","img/none_selected.jpg","","27","main_expt","",""
"","bandit","109","530302","0.0-69.0-0.0","92179012","wem/bandit_party_2","A15Y1NIIP9O5F3","either","3","441","","","","","","","0","1","0","","0.6850825106","0.6","0.8","0.2","0.4","0.6850825106","0.6812343762","0.1153509117","0.9269484959","","","","","","","","","","","","","","72","H","0","img/none_selected.jpg","","28","main_expt","",""
"","bandit","110","531985","0.0-70.0-0.0","92179012","wem/bandit_party_2","A15Y1NIIP9O5F3","either","3","168","","","","","","","1","0","0","0.7309016742","","0.6","0.8","0.2","0.4","","","","","0.7309016742","0.5305157647","0.1601566248","0.9376772981","","","","","","","","","","72","H","0","img/none_selected.jpg","","29","main_expt","",""
"","bandit","111","533553","0.0-71.0-0.0","92179012","wem/bandit_party_2","A15Y1NIIP9O5F3","either","3","53","","","","","","","1","0","0","0.8141980113","","0.6","0.8","0.2","0.4","","","","","0.8141980113","0.4713174284","0.09548927903","0.8795505253","","","","","","","","","","72","H","0","img/none_selected.jpg","","30","main_expt","",""
"","bandit","112","535863","0.0-72.0-0.0","92179012","wem/bandit_party_2","A15Y1NIIP9O5F3","either","3","796","","","","","","","1","0","0","0.8926711601","","0.6","0.8","0.2","0.4","","","","","0.8926711601","0.2938490869","0.09272353297","0.8605863748","","","","","","","","","","72","H","0","img/none_selected.jpg","","31","main_expt","",""
"","bandit","113","537465","0.0-73.0-0.0","92179012","wem/bandit_party_2","A15Y1NIIP9O5F3","either","3","92","","","","","","","1","0","0","0.8397563013","","0.6","0.8","0.2","0.4","","","","","0.8397563013","0.3005160425","0.09547929832","0.757600507","","","","","","","","","","72","H","0","img/none_selected.jpg","","32","main_expt","",""
"","bandit","114","539531","0.0-74.0-0.0","92179012","wem/bandit_party_2","A15Y1NIIP9O5F3","either","3","552","","","","","","","1","0","0","0.8251988787","","0.6","0.8","0.2","0.4","","","","","0.8251988787","0.3661211491","0.08683876107","0.7257103923","","","","","","","","","","72","H","0","img/none_selected.jpg","","33","main_expt","",""
"","bandit","115","542955","0.0-75.0-0.0","92179012","wem/bandit_party_2","A15Y1NIIP9O5F3","either","3","1913","","","","","","","0","1","0","","0.7303528712","0.6","0.8","0.2","0.4","0.7303528712","0.4614725573","0.08117088791","0.5786815464","","","","","","","","","","","","","","72","H","0","img/none_selected.jpg","","34","main_expt","",""
"","bandit","116","544755","0.0-76.0-0.0","92179012","wem/bandit_party_2","A15Y1NIIP9O5F3","either","3","287","","","","","","","0","0","1","0.8093673003","","0.6","0.8","0.2","0.4","","","","","0.8093673003","0.4597324626","0.09593582107","0.4812266686","","","","","","","","","","72","H","0","img/none_selected.jpg","","35","main_expt","",""
"","bandit","117","547134","0.0-77.0-0.0","92179012","wem/bandit_party_2","A15Y1NIIP9O5F3","either","3","866","","","","","","","0","1","0","","0.79718131","0.6","0.8","0.2","0.4","0.79718131","0.4294742096","0.1392988708","0.4459447539","","","","","","","","","","","","","","72","H","0","img/none_selected.jpg","","36","main_expt","",""
"","bandit","118","549943","0.0-78.0-0.0","92179012","wem/bandit_party_2","A15Y1NIIP9O5F3","either","3","1292","","","","","","","1","0","0","0.8157762275","","0.6","0.8","0.2","0.4","","","","","0.8157762275","0.5301274199","0.07673209605","0.5737218407","","","","","","","","","","72","H","0","img/none_selected.jpg","","37","main_expt","",""
"","bandit","119","552443","0.0-79.0-0.0","92179012","wem/bandit_party_2","A15Y1NIIP9O5F3","either","3","990","","","","","","","0","1","0","","0.7941499978","0.6","0.8","0.2","0.4","0.7941499978","0.5746889943","0.1078843958","0.6008421093","","","","","","","","","","","","","","72","H","0","img/none_selected.jpg","","38","main_expt","",""
"","bandit","120","556003","0.0-80.0-0.0","92179012","wem/bandit_party_2","A15Y1NIIP9O5F3","either","3","2046","","","","","","","0","0","1","","0.7352357368","0.6","0.8","0.2","0.4","0.7352357368","0.6621100331","0.09731722171","0.6076920036","","","","","","","","","","","","","","72","H","0","img/none_selected.jpg","","39","main_expt","",""
"","bandit","121","558615","0.0-81.0-0.0","92179012","wem/bandit_party_2","A15Y1NIIP9O5F3","either","3","1100","","","","","","","0","1","0","","0.7920886563","0.6","0.8","0.2","0.4","0.7920886563","0.6794361822","0.2123509389","0.6616622706","","","","","","","","","","","","","","72","H","0","img/none_selected.jpg","","40","main_expt","",""
"","bandit","122","560965","0.0-82.0-0.0","92179012","wem/bandit_party_2","A15Y1NIIP9O5F3","either","3","836","","","","","","","1","0","0","0.8780543775","","0.6","0.8","0.2","0.4","","","","","0.8780543775","0.7140523024","0.1265365425","0.6945341382","","","","","","","","","","72","H","0","img/none_selected.jpg","","41","main_expt","",""
"","bandit","123","563211","0.0-83.0-0.0","92179012","wem/bandit_party_2","A15Y1NIIP9O5F3","either","3","735","","","","","","","0","1","0","","0.9167256642","0.6","0.8","0.2","0.4","0.9167256642","0.6669732994","0.166138795","0.6833149102","","","","","","","","","","","","","","72","H","0","img/none_selected.jpg","","42","main_expt","",""
"","bandit","124","565804","0.0-84.0-0.0","92179012","wem/bandit_party_2","A15Y1NIIP9O5F3","either","3","1080","","","","","","","0","0","1","","0.9407985187","0.6","0.8","0.2","0.4","0.9407985187","0.5435093165","0.1782339186","0.7094953576","","","","","","","","","","","","","","72","H","0","img/none_selected.jpg","","43","main_expt","",""
"","bandit","125","567344","0.0-85.0-0.0","92179012","wem/bandit_party_2","A15Y1NIIP9O5F3","either","3","27","","","","","","","1","0","0","0.9000978766","","0.6","0.8","0.2","0.4","","","","","0.9000978766","0.6002661395","0.1342945815","0.7519468023","","","","","","","","","","72","H","0","img/none_selected.jpg","","44","main_expt","",""
"","bandit","126","569152","0.0-86.0-0.0","92179012","wem/bandit_party_2","A15Y1NIIP9O5F3","either","3","293","","","","","","","1","0","0","0.9190036262","","0.6","0.8","0.2","0.4","","","","","0.9190036262","0.5948203474","0.09086288848","0.7673203249","","","","","","","","","","72","H","0","img/none_selected.jpg","","45","main_expt","",""
"","bandit","127","572190","0.0-87.0-0.0","92179012","wem/bandit_party_2","A15Y1NIIP9O5F3","either","3","1522","","","","","","","0","1","0","","0.8865788656","0.6","0.8","0.2","0.4","0.8865788656","0.6230250108","0.06420934006","0.722836051","","","","","","","","","","","","","","72","H","0","img/none_selected.jpg","","46","main_expt","",""
"","bandit","128","577470","0.0-88.0-0.0","92179012","wem/bandit_party_2","A15Y1NIIP9O5F3","either","3","3767","","","","","","","0","0","1","0.8207935484","","0.6","0.8","0.2","0.4","","","","","0.8207935484","0.7239235909","0.02332738683","0.7392487755","","","","","","","","","","72","H","0","img/none_selected.jpg","","47","main_expt","",""
"","bandit","129","581494","0.0-89.0-0.0","92179012","wem/bandit_party_2","A15Y1NIIP9O5F3","either","3","2508","","","","","","","0","1","0","","0.8170742187","0.6","0.8","0.2","0.4","0.8170742187","0.7715310514","0.03517565614","0.7551111279","","","","","","","","","","","","","","72","H","0","img/none_selected.jpg","","48","main_expt","",""
"","bandit","130","583454","0.0-90.0-0.0","92179012","wem/bandit_party_2","A15Y1NIIP9O5F3","either","3","445","","","","","","","0","0","1","0.7874830355","","0.6","0.8","0.2","0.4","","","","","0.7874830355","0.822179592","0.04466115719","0.6917772817","","","","","","","","","","72","H","0","img/none_selected.jpg","","49","main_expt","",""
"","bandit","131","585639","0.0-91.0-0.0","92179012","wem/bandit_party_2","A15Y1NIIP9O5F3","either","3","672","","","","","","","1","0","0","0.8279472521","","0.6","0.8","0.2","0.4","","","","","0.8279472521","0.8108951243","0.05053383529","0.6689959301","","","","","","","","","","72","H","0","img/none_selected.jpg","","50","main_expt","",""
"","bandit","132","587282","0.0-92.0-0.0","92179012","wem/bandit_party_2","A15Y1NIIP9O5F3","either","3","128","","","","","","","0","1","0","","0.8426817256","0.6","0.8","0.2","0.4","0.8426817256","0.7649170446","0.04681033125","0.6020608281","","","","","","","","","","","","","","72","H","0","img/none_selected.jpg","","51","main_expt","",""
"","bandit","133","588964","0.0-93.0-0.0","92179012","wem/bandit_party_2","A15Y1NIIP9O5F3","either","3","172","","","","","","","0","1","0","","0.8377647656","0.6","0.8","0.2","0.4","0.8377647656","0.8169848275","0.09308222201","0.6583182673","","","","","","","","","","","","","","72","H","0","img/none_selected.jpg","","52","main_expt","",""
"","bandit","134","590769","0.0-94.0-0.0","92179012","wem/bandit_party_2","A15Y1NIIP9O5F3","either","3","291","","","","","","","0","0","1","0.8241398149","","0.6","0.8","0.2","0.4","","","","","0.8241398149","0.8843577791","0.1397702629","0.5419436754","","","","","","","","","","72","H","0","img/none_selected.jpg","","53","main_expt","",""
"","bandit","135","593086","0.0-95.0-0.0","92179012","wem/bandit_party_2","A15Y1NIIP9O5F3","either","3","804","","","","","","","0","0","1","0.7289352116","","0.6","0.8","0.2","0.4","","","","","0.7289352116","0.8854515068","0.110287685","0.5717614462","","","","","","","","","","72","H","0","img/none_selected.jpg","","54","main_expt","",""
"","bandit","136","595092","0.0-96.0-0.0","92179012","wem/bandit_party_2","A15Y1NIIP9O5F3","either","3","493","","","","","","","0","1","0","","0.5895019519","0.6","0.8","0.2","0.4","0.5895019519","0.8884574585","0.1843384007","0.5497935615","","","","","","","","","","","","","","72","H","0","img/none_selected.jpg","","55","main_expt","",""
"","bandit","137","597577","0.0-97.0-0.0","92179012","wem/bandit_party_2","A15Y1NIIP9O5F3","either","3","974","","","","","","","0","1","0","","0.4622464331","0.6","0.8","0.2","0.4","0.4622464331","0.8840911236","0.2056752237","0.4902645195","","","","","","","","","","","","","","72","H","0","img/none_selected.jpg","","56","main_expt","",""
"","bandit","138","601309","0.0-98.0-0.0","92179012","wem/bandit_party_2","A15Y1NIIP9O5F3","either","3","2221","","","","","","","1","0","0","0.490024734","","0.6","0.8","0.2","0.4","","","","","0.490024734","0.864283103","0.3410726922","0.5258365243","","","","","","","","","","72","H","0","img/none_selected.jpg","","57","main_expt","",""
"","bandit","139","605436","0.0-99.0-0.0","92179012","wem/bandit_party_2","A15Y1NIIP9O5F3","either","3","2614","","","","","","","1","0","0","0.6182628796","","0.6","0.8","0.2","0.4","","","","","0.6182628796","0.7377821737","0.3873695161","0.6097664349","","","","","","","","","","72","H","0","img/none_selected.jpg","","58","main_expt","",""
"","bandit","140","608216","0.0-100.0-0.0","92179012","wem/bandit_party_2","A15Y1NIIP9O5F3","either","3","1266","","","","","","","0","0","1","","0.6976829826","0.6","0.8","0.2","0.4","0.6976829826","0.7469541206","0.3281321534","0.6016711108","","","","","","","","","","","","","","72","H","0","img/none_selected.jpg","","59","main_expt","",""
"","bandit","141","610062","0.0-101.0-0.0","92179012","wem/bandit_party_2","A15Y1NIIP9O5F3","either","3","329","","","","","","","1","0","0","0.675433977","","0.6","0.8","0.2","0.4","","","","","0.675433977","0.8019510571","0.2380439254","0.5544917648","","","","","","","","","","72","H","0","img/none_selected.jpg","","60","main_expt","",""
"","bandit","142","612088","0.0-102.0-0.0","92179012","wem/bandit_party_2","A15Y1NIIP9O5F3","either","3","512","","","","","","","0","0","1","","0.7206550838","0.6","0.8","0.2","0.4","0.7206550838","0.8943887388","0.2228222105","0.6842720067","","","","","","","","","","","","","","72","H","0","img/none_selected.jpg","","61","main_expt","",""
"","bandit","143","614123","0.0-103.0-0.0","92179012","wem/bandit_party_2","A15Y1NIIP9O5F3","either","3","522","","","","","","","0","0","1","0.7184677658","","0.6","0.8","0.2","0.4","","","","","0.7184677658","0.8942973556","0.2489253665","0.6824345281","","","","","","","","","","72","H","0","img/none_selected.jpg","","62","main_expt","",""
"","bandit","144","615662","0.0-104.0-0.0","92179012","wem/bandit_party_2","A15Y1NIIP9O5F3","either","3","27","","","","","","","0","0","1","0.6785259816","","0.6","0.8","0.2","0.4","","","","","0.6785259816","0.8829609874","0.2298237489","0.7321168219","","","","","","","","","","72","H","0","img/none_selected.jpg","","63","main_expt","",""
"","bandit","145","617642","0.0-105.0-0.0","92179012","wem/bandit_party_2","A15Y1NIIP9O5F3","either","3","469","","","","","","","0","0","1","0.6349383059","","0.6","0.8","0.2","0.4","","","","","0.6349383059","0.8175344892","0.1849055857","0.8123013145","","","","","","","","","","72","H","0","img/none_selected.jpg","","64","main_expt","",""
"","bandit","146","619476","0.0-106.0-0.0","92179012","wem/bandit_party_2","A15Y1NIIP9O5F3","either","3","318","","","","","","","1","0","0","0.629769122","","0.6","0.8","0.2","0.4","","","","","0.629769122","0.7812905168","0.2285715909","0.8236121316","","","","","","","","","","72","H","0","img/none_selected.jpg","","65","main_expt","",""
"","bandit","147","621189","0.0-107.0-0.0","92179012","wem/bandit_party_2","A15Y1NIIP9O5F3","either","3","202","","","","","","","1","0","0","0.7158950816","","0.6","0.8","0.2","0.4","","","","","0.7158950816","0.7848445355","0.2477643906","0.8270077233","","","","","","","","","","72","H","0","img/none_selected.jpg","","66","main_expt","",""
"","bandit","148","623034","0.0-108.0-0.0","92179012","wem/bandit_party_2","A15Y1NIIP9O5F3","either","3","332","","","","","","","0","1","0","","0.6309271871","0.6","0.8","0.2","0.4","0.6309271871","0.763143195","0.1801078726","0.7601471472","","","","","","","","","","","","","","72","H","0","img/none_selected.jpg","","67","main_expt","",""
"","bandit","149","625008","0.0-109.0-0.0","92179012","wem/bandit_party_2","A15Y1NIIP9O5F3","either","3","461","","","","","","","0","0","1","","0.617221228","0.6","0.8","0.2","0.4","0.617221228","0.7966751536","0.08479184886","0.7567750057","","","","","","","","","","","","","","72","H","0","img/none_selected.jpg","","68","main_expt","",""
"","bandit","150","626720","0.0-110.0-0.0","92179012","wem/bandit_party_2","A15Y1NIIP9O5F3","either","3","201","","","","","","","0","0","1","","0.6235929763","0.6","0.8","0.2","0.4","0.6235929763","0.8534335227","0.06982522498","0.6871277649","","","","","","","","","","","","","","72","H","0","img/none_selected.jpg","","69","main_expt","",""
"","bandit","151","628525","0.0-111.0-0.0","92179012","wem/bandit_party_2","A15Y1NIIP9O5F3","either","3","289","","","","","","","0","1","0","","0.5543620559","0.6","0.8","0.2","0.4","0.5543620559","0.8915498471","0.05029268469","0.773099018","","","","","","","","","","","","","","72","H","0","img/none_selected.jpg","","70","main_expt","",""
"","bandit","152","630133","0.0-112.0-0.0","92179012","wem/bandit_party_2","A15Y1NIIP9O5F3","either","3","93","","","","","","","0","1","0","","0.5333999135","0.6","0.8","0.2","0.4","0.5333999135","0.8736989015","0.06413839938","0.7412476729","","","","","","","","","","","","","","72","H","0","img/none_selected.jpg","","71","main_expt","",""
"","bandit","153","631888","0.0-113.0-0.0","92179012","wem/bandit_party_2","A15Y1NIIP9O5F3","either","3","245","","","","","","","1","0","0","0.5905126671","","0.6","0.8","0.2","0.4","","","","","0.5905126671","0.8837551658","0.05155778705","0.8080704968","","","","","","","","","","72","H","0","img/none_selected.jpg","","72","main_expt","",""
"","bandit","154","633400","0.0-114.0-0.0","92179012","wem/bandit_party_2","A15Y1NIIP9O5F3","either","3","0","","","","","","","0","0","1","0.6925119087","","0.6","0.8","0.2","0.4","","","","","0.6925119087","0.8495494246","0.0232747386","0.8270016227","","","","","","","","","","72","H","0","img/none_selected.jpg","","73","main_expt","",""
"","bandit","155","635136","0.0-115.0-0.0","92179012","wem/bandit_party_2","A15Y1NIIP9O5F3","either","3","223","","","","","","","0","0","1","0.7134745341","","0.6","0.8","0.2","0.4","","","","","0.7134745341","0.9127472651","0.04751547773","0.7872017979","","","","","","","","","","72","H","0","img/none_selected.jpg","","74","main_expt","",""
"","bandit","156","636981","0.0-116.0-0.0","92179012","wem/bandit_party_2","A15Y1NIIP9O5F3","either","3","334","","","","","","","0","0","1","0.8065440948","","0.6","0.8","0.2","0.4","","","","","0.8065440948","0.9199060817","0.05282531612","0.6167225576","","","","","","","","","","72","H","0","img/none_selected.jpg","","75","main_expt","",""
"","bandit","157","638775","0.0-117.0-0.0","92179012","wem/bandit_party_2","A15Y1NIIP9O5F3","either","3","280","","","","","","","0","0","1","","0.7849172319","0.6","0.8","0.2","0.4","0.7849172319","0.8691294168","0.08738729654","0.637182095","","","","","","","","","","","","","","72","H","0","img/none_selected.jpg","","76","main_expt","",""
"","bandit","158","640800","0.0-118.0-0.0","92179012","wem/bandit_party_2","A15Y1NIIP9O5F3","either","3","510","","","","","","","0","1","0","","0.7818962729","0.6","0.8","0.2","0.4","0.7818962729","0.9111329321","0.08851312664","0.7169911294","","","","","","","","","","","","","","72","H","0","img/none_selected.jpg","","77","main_expt","",""
"","bandit","159","643023","0.0-119.0-0.0","92179012","wem/bandit_party_2","A15Y1NIIP9O5F3","either","3","712","","","","","","","1","0","0","0.7002933386","","0.6","0.8","0.2","0.4","","","","","0.7002933386","0.9286966754","0.145228539","0.7446448061","","","","","","","","","","72","H","0","img/none_selected.jpg","","78","main_expt","",""
"","bandit","160","645064","0.0-120.0-0.0","92179012","wem/bandit_party_2","A15Y1NIIP9O5F3","either","3","530","","","","","","","0","0","1","0.6510109529","","0.6","0.8","0.2","0.4","","","","","0.6510109529","0.9616021792","0.1669860915","0.8152221547","","","","","","","","","","72","H","0","img/none_selected.jpg","","79","main_expt","",""
"","bandit","161","648096","0.0-121.0-0.0","92179012","wem/bandit_party_2","A15Y1NIIP9O5F3","either","3","1519","","","","","","","1","0","0","0.6765614865","","0.6","0.8","0.2","0.4","","","","","0.6765614865","0.950571795","0.1922913003","0.810351938","","","","","","","","","","72","H","0","img/none_selected.jpg","","80","main_expt","",""
"","bandit","162","651492","0.0-122.0-0.0","92179012","wem/bandit_party_2","A15Y1NIIP9O5F3","either","3","1882","","","","","","","0","0","1","0.5908869344","","0.6","0.8","0.2","0.4","","","","","0.5908869344","0.9331160128","0.2407870914","0.8895110989","","","","","","","","","","72","H","0","img/none_selected.jpg","","81","main_expt","",""
"","bandit","163","653581","0.0-123.0-0.0","92179012","wem/bandit_party_2","A15Y1NIIP9O5F3","either","3","577","","","","","","","0","0","1","","0.5267531711","0.6","0.8","0.2","0.4","0.5267531711","0.9465986336","0.3077898034","0.9046816681","","","","","","","","","","","","","","72","H","0","img/none_selected.jpg","","82","main_expt","",""
"","bandit","164","655450","0.0-124.0-0.0","92179012","wem/bandit_party_2","A15Y1NIIP9O5F3","either","3","356","","","","","","","0","0","1","","0.6168373964","0.6","0.8","0.2","0.4","0.6168373964","0.9371159138","0.2337579628","0.8465278631","","","","","","","","","","","","","","72","H","0","img/none_selected.jpg","","83","main_expt","",""
"","bandit","165","657308","0.0-125.0-0.0","92179012","wem/bandit_party_2","A15Y1NIIP9O5F3","either","3","344","","","","","","","0","0","1","","0.5733990252","0.6","0.8","0.2","0.4","0.5733990252","0.8998840018","0.2781329454","0.7584930438","","","","","","","","","","","","","","72","H","0","img/none_selected.jpg","","84","main_expt","",""
"","bandit","166","659182","0.0-126.0-0.0","92179012","wem/bandit_party_2","A15Y1NIIP9O5F3","either","3","361","","","","","","","0","1","0","","0.4719695616","0.6","0.8","0.2","0.4","0.4719695616","0.9102188985","0.3013149798","0.7727946294","","","","","","","","","","","","","","72","H","0","img/none_selected.jpg","","85","main_expt","",""
"","bandit","167","661215","0.0-127.0-0.0","92179012","wem/bandit_party_2","A15Y1NIIP9O5F3","either","3","517","","","","","","","1","0","0","0.6941651786","","0.6","0.8","0.2","0.4","","","","","0.6941651786","0.9000055418","0.3231836659","0.8216594778","","","","","","","","","","72","H","0","img/none_selected.jpg","","86","main_expt","",""
"","bandit","168","663117","0.0-128.0-0.0","92179012","wem/bandit_party_2","A15Y1NIIP9O5F3","either","3","391","","","","","","","0","0","1","0.5408952125","","0.6","0.8","0.2","0.4","","","","","0.5408952125","0.8563468124","0.3986379136","0.7833884788","","","","","","","","","","72","H","0","img/none_selected.jpg","","87","main_expt","",""
"","bandit","169","665265","0.0-129.0-0.0","92179012","wem/bandit_party_2","A15Y1NIIP9O5F3","either","3","630","","","","","","","0","0","1","0.5438891422","","0.6","0.8","0.2","0.4","","","","","0.5438891422","0.7349543302","0.4230151841","0.7804426693","","","","","","","","","","72","H","0","img/none_selected.jpg","","88","main_expt","",""
"","bandit","170","667691","0.0-130.0-0.0","92179012","wem/bandit_party_2","A15Y1NIIP9O5F3","either","3","910","","","","","","","1","0","0","0.4294971294","","0.6","0.8","0.2","0.4","","","","","0.4294971294","0.7907967515","0.3761858397","0.7930928848","","","","","","","","","","72","H","0","img/none_selected.jpg","","89","main_expt","",""
"","bandit","171","669652","0.0-131.0-0.0","92179012","wem/bandit_party_2","A15Y1NIIP9O5F3","either","3","446","","","","","","","1","0","0","0.4928337868","","0.6","0.8","0.2","0.4","","","","","0.4928337868","0.7883246469","0.4799086841","0.7683039237","","","","","","","","","","72","H","0","img/none_selected.jpg","","90","main_expt","",""
"","bandit","172","671568","0.0-132.0-0.0","92179012","wem/bandit_party_2","A15Y1NIIP9O5F3","either","3","397","","","","","","","0","0","1","0.5655090935","","0.6","0.8","0.2","0.4","","","","","0.5655090935","0.8389096604","0.4558425901","0.8072091422","","","","","","","","","","72","H","0","img/none_selected.jpg","","91","main_expt","",""
"","bandit","173","673565","0.0-133.0-0.0","92179012","wem/bandit_party_2","A15Y1NIIP9O5F3","either","3","480","","","","","","","1","0","0","0.6154818033","","0.6","0.8","0.2","0.4","","","","","0.6154818033","0.8064187158","0.3781515597","0.7791444337","","","","","","","","","","72","H","0","img/none_selected.jpg","","92","main_expt","",""
"","bandit","174","675374","0.0-134.0-0.0","92179012","wem/bandit_party_2","A15Y1NIIP9O5F3","either","3","296","","","","","","","1","0","0","0.7381217307","","0.6","0.8","0.2","0.4","","","","","0.7381217307","0.7542368763","0.2858753042","0.8498372391","","","","","","","","","","72","H","0","img/none_selected.jpg","","93","main_expt","",""
"","bandit","175","677279","0.0-135.0-0.0","92179012","wem/bandit_party_2","A15Y1NIIP9O5F3","either","3","392","","","","","","","0","1","0","","0.7776388333","0.6","0.8","0.2","0.4","0.7776388333","0.6932487021","0.3914428564","0.8440610374","","","","","","","","","","","","","","72","H","0","img/none_selected.jpg","","94","main_expt","",""
"","bandit","176","679218","0.0-136.0-0.0","92179012","wem/bandit_party_2","A15Y1NIIP9O5F3","either","3","424","","","","","","","1","0","0","0.8299152283","","0.6","0.8","0.2","0.4","","","","","0.8299152283","0.6706070003","0.3800018616","0.8092418145","","","","","","","","","","72","H","0","img/none_selected.jpg","","95","main_expt","",""
"","bandit","177","680968","0.0-137.0-0.0","92179012","wem/bandit_party_2","A15Y1NIIP9O5F3","either","3","236","","","","","","","1","0","0","0.7697811485","","0.6","0.8","0.2","0.4","","","","","0.7697811485","0.6670251336","0.3078584031","0.8655172998","","","","","","","","","","72","H","0","img/none_selected.jpg","","96","main_expt","",""
"","bandit","178","682944","0.0-138.0-0.0","92179012","wem/bandit_party_2","A15Y1NIIP9O5F3","either","3","459","","","","","","","0","1","0","","0.7487724405","0.6","0.8","0.2","0.4","0.7487724405","0.7023758817","0.218486712","0.8735151232","","","","","","","","","","","","","","72","H","0","img/none_selected.jpg","","97","main_expt","",""
"","bandit","179","684468","0.0-139.0-0.0","92179012","wem/bandit_party_2","A15Y1NIIP9O5F3","either","3","12","","","","","","","0","1","0","","0.7450583294","0.6","0.8","0.2","0.4","0.7450583294","0.7036518389","0.2037628256","0.84409386","","","","","","","","","","","","","","72","H","0","img/none_selected.jpg","","98","main_expt","",""
"","bandit","180","686270","0.0-140.0-0.0","92179012","wem/bandit_party_2","A15Y1NIIP9O5F3","either","3","289","","","","","","","0","0","1","","0.7227120129","0.6","0.8","0.2","0.4","0.7227120129","0.8401346726","0.2400196326","0.8089648913","","","","","","","","","","","","","","72","H","0","img/none_selected.jpg","","99","main_expt","",""
"","bandit","181","687947","0.0-141.0-0.0","92179012","wem/bandit_party_2","A15Y1NIIP9O5F3","either","3","162","","","","","","","0","1","0","","0.5872141049","0.6","0.8","0.2","0.4","0.5872141049","0.8640782416","0.3298222115","0.7259557377","","","","","","","","","","","","","","72","H","0","img/none_selected.jpg","","100","main_expt","",""
"","bandit","182","689859","0.0-142.0-0.0","92179012","wem/bandit_party_2","A15Y1NIIP9O5F3","either","3","392","","","","","","","0","1","0","","0.6432213136","0.6","0.8","0.2","0.4","0.6432213136","0.8232172207","0.3108047587","0.6332869741","","","","","","","","","","","","","","72","H","0","img/none_selected.jpg","","101","main_expt","",""
"","bandit","183","691655","0.0-143.0-0.0","92179012","wem/bandit_party_2","A15Y1NIIP9O5F3","either","3","282","","","","","","","0","0","1","0.6009476408","","0.6","0.8","0.2","0.4","","","","","0.6009476408","0.8451901448","0.2869381514","0.659443461","","","","","","","","","","72","H","0","img/none_selected.jpg","","102","main_expt","",""
"","bandit","184","693623","0.0-144.0-0.0","92179012","wem/bandit_party_2","A15Y1NIIP9O5F3","either","3","452","","","","","","","0","1","0","","0.6120105745","0.6","0.8","0.2","0.4","0.6120105745","0.8792283932","0.246485708","0.5959971703","","","","","","","","","","","","","","72","H","0","img/none_selected.jpg","","103","main_expt","",""
"","bandit","185","695394","0.0-145.0-0.0","92179012","wem/bandit_party_2","A15Y1NIIP9O5F3","either","3","256","","","","","","","1","0","0","0.6821098495","","0.6","0.8","0.2","0.4","","","","","0.6821098495","0.8887181638","0.2175667678","0.5643630141","","","","","","","","","","72","H","0","img/none_selected.jpg","","104","main_expt","",""
"","bandit","186","697344","0.0-146.0-0.0","92179012","wem/bandit_party_2","A15Y1NIIP9O5F3","either","3","438","","","","","","","1","0","0","0.7228510016","","0.6","0.8","0.2","0.4","","","","","0.7228510016","0.8013578166","0.2645808036","0.5489079514","","","","","","","","","","72","H","0","img/none_selected.jpg","","105","main_expt","",""
"","bandit","187","698928","0.0-147.0-0.0","92179012","wem/bandit_party_2","A15Y1NIIP9O5F3","either","3","71","","","","","","","0","0","1","","0.6639212405","0.6","0.8","0.2","0.4","0.6639212405","0.7307006529","0.2652424516","0.4336033326","","","","","","","","","","","","","","72","H","0","img/none_selected.jpg","","106","main_expt","",""
"","bandit","188","700675","0.0-148.0-0.0","92179012","wem/bandit_party_2","A15Y1NIIP9O5F3","either","3","235","","","","","","","0","0","1","","0.6237034742","0.6","0.8","0.2","0.4","0.6237034742","0.7519500851","0.2481661544","0.4779201531","","","","","","","","","","","","","","72","H","0","img/none_selected.jpg","","107","main_expt","",""
"","bandit","189","703618","0.0-149.0-0.0","92179012","wem/bandit_party_2","A15Y1NIIP9O5F3","either","3","1429","","","","","","","0","1","0","","0.5847293191","0.6","0.8","0.2","0.4","0.5847293191","0.7457577851","0.2361720859","0.5075294874","","","","","","","","","","","","","","72","H","0","img/none_selected.jpg","","108","main_expt","",""
"","bandit","190","705330","0.0-150.0-0.0","92179012","wem/bandit_party_2","A15Y1NIIP9O5F3","either","3","199","","","","","","","0","0","1","0.6260859175","","0.6","0.8","0.2","0.4","","","","","0.6260859175","0.77583868","0.2799679389","0.522842385","","","","","","","","","","72","H","0","img/none_selected.jpg","","109","main_expt","",""
"","bandit","191","707095","0.0-151.0-0.0","92179012","wem/bandit_party_2","A15Y1NIIP9O5F3","either","3","250","","","","","","","0","0","1","0.4788227383","","0.6","0.8","0.2","0.4","","","","","0.4788227383","0.7520827962","0.3333098602","0.419893696","","","","","","","","","","72","H","0","img/none_selected.jpg","","110","main_expt","",""
"","bandit","192","709085","0.0-152.0-0.0","92179012","wem/bandit_party_2","A15Y1NIIP9O5F3","either","3","479","","","","","","","0","1","0","","0.6019778282","0.6","0.8","0.2","0.4","0.6019778282","0.6512809768","0.3669732535","0.431092028","","","","","","","","","","","","","","72","H","0","img/none_selected.jpg","","111","main_expt","",""
"","bandit","193","711378","0.0-153.0-0.0","92179012","wem/bandit_party_2","A15Y1NIIP9O5F3","either","3","777","","","","","","","0","1","0","","0.546445977","0.6","0.8","0.2","0.4","0.546445977","0.5891937939","0.389765336","0.3590071368","","","","","","","","","","","","","","72","H","0","img/none_selected.jpg","","112","main_expt","",""
"","bandit","194","713444","0.0-154.0-0.0","92179012","wem/bandit_party_2","A15Y1NIIP9O5F3","either","3","551","","","","","","","1","0","0","0.6256092846","","0.6","0.8","0.2","0.4","","","","","0.6256092846","0.6490525038","0.3191506652","0.4498419114","","","","","","","","","","72","H","0","img/none_selected.jpg","","113","main_expt","",""
"","bandit","195","715342","0.0-155.0-0.0","92179012","wem/bandit_party_2","A15Y1NIIP9O5F3","either","3","381","","","","","","","0","0","1","0.6577617598","","0.6","0.8","0.2","0.4","","","","","0.6577617598","0.6283680234","0.2090321438","0.4829831469","","","","","","","","","","72","H","0","img/none_selected.jpg","","114","main_expt","",""
"","bandit","196","717211","0.0-156.0-0.0","92179012","wem/bandit_party_2","A15Y1NIIP9O5F3","either","3","353","","","","","","","0","0","1","","0.7140476354","0.6","0.8","0.2","0.4","0.7140476354","0.6064224059","0.2094439124","0.4846695964","","","","","","","","","","","","","","72","H","0","img/none_selected.jpg","","115","main_expt","",""
"","bandit","197","719411","0.0-157.0-0.0","92179012","wem/bandit_party_2","A15Y1NIIP9O5F3","either","3","682","","","","","","","0","0","1","0.6589976567","","0.6","0.8","0.2","0.4","","","","","0.6589976567","0.545813367","0.2695181069","0.5396909338","","","","","","","","","","72","H","0","img/none_selected.jpg","","116","main_expt","",""
"","bandit","198","722661","0.0-158.0-0.0","92179012","wem/bandit_party_2","A15Y1NIIP9O5F3","either","3","1736","","","","","","","1","0","0","0.5179373022","","0.6","0.8","0.2","0.4","","","","","0.6937703341","0.5179373022","0.3402036285","0.5378282835","","","","","","","","","","74","J","1","","","117","main_expt","",""
"","bandit","199","724612","0.0-159.0-0.0","92179012","wem/bandit_party_2","A15Y1NIIP9O5F3","either","3","432","","","","","","","0","1","0","","0.4014157923","0.6","0.8","0.2","0.4","0.77114399","0.4014157923","0.3101634078","0.5729988564","","","","","","","","","","","","","","74","J","1","","","118","main_expt","",""
"","bandit","200","726655","0.0-160.0-0.0","92179012","wem/bandit_party_2","A15Y1NIIP9O5F3","either","3","530","","","","","","","0","0","1","0.4360264599","","0.6","0.8","0.2","0.4","","","","","0.710000291","0.4360264599","0.3242193616","0.5630251564","","","","","","","","","","74","J","1","","","119","main_expt","",""
"","bandit","201","728338","0.0-161.0-0.0","92179012","wem/bandit_party_2","A15Y1NIIP9O5F3","either","3","170","","","","","","","1","0","0","0.3297853269","","0.6","0.8","0.2","0.4","","","","","0.6767982245","0.3297853269","0.3334277272","0.6482115929","","","","","","","","","","74","J","1","","","120","main_expt","",""
"","bandit","202","730172","0.0-162.0-0.0","92179012","wem/bandit_party_2","A15Y1NIIP9O5F3","either","3","318","","","","","","","1","0","0","0.3767442019","","0.6","0.8","0.2","0.4","","","","","0.7360115258","0.3767442019","0.4066521311","0.5688505083","","","","","","","","","","74","J","1","","","121","main_expt","",""
"","bandit","203","732034","0.0-163.0-0.0","92179012","wem/bandit_party_2","A15Y1NIIP9O5F3","either","3","347","","","","","","","0","0","1","0.3589515546","","0.6","0.8","0.2","0.4","","","","","0.7258716992","0.3589515546","0.5193034213","0.5349597204","","","","","","","","","","74","J","1","","","122","main_expt","",""
"","bandit","204","733829","0.0-164.0-0.0","92179012","wem/bandit_party_2","A15Y1NIIP9O5F3","either","3","279","","","","","","","1","0","0","0.3461890545","","0.6","0.8","0.2","0.4","","","","","0.7848203729","0.3461890545","0.5594962391","0.412887176","","","","","","","","","","74","J","1","","","123","main_expt","",""
"","bandit","205","735799","0.0-165.0-0.0","92179012","wem/bandit_party_2","A15Y1NIIP9O5F3","either","3","456","","","","","","","1","0","0","0.2287340519","","0.6","0.8","0.2","0.4","","","","","0.7673004895","0.2287340519","0.6876014299","0.4137060999","","","","","","","","","","74","J","1","","","124","main_expt","",""
"","bandit","206","738460","0.0-166.0-0.0","92179012","wem/bandit_party_2","A15Y1NIIP9O5F3","either","3","1143","","","","","","","0","0","1","","0.2900718705","0.6","0.8","0.2","0.4","0.8020703208","0.2900718705","0.7354493796","0.3226696341","","","","","","","","","","","","","","74","J","1","","","125","main_expt","",""
"","bandit","207","739981","0.0-167.0-0.0","92179012","wem/bandit_party_2","A15Y1NIIP9O5F3","either","3","6","","","","","","","0","0","1","0.2880997441","","0.6","0.8","0.2","0.4","","","","","0.8196031782","0.2880997441","0.76840964","0.3904211026","","","","","","","","","","74","J","1","","","126","main_expt","",""
"","bandit","208","741936","0.0-168.0-0.0","92179012","wem/bandit_party_2","A15Y1NIIP9O5F3","either","3","440","","","","","","","0","0","1","","0.3451069126","0.6","0.8","0.2","0.4","0.7095492128","0.3451069126","0.7310750685","0.4227014292","","","","","","","","","","","","","","74","J","1","","","127","main_expt","",""
"","bandit","209","744160","0.0-169.0-0.0","92179012","wem/bandit_party_2","A15Y1NIIP9O5F3","either","3","710","","","","","","","1","0","0","0.3129298861","","0.6","0.8","0.2","0.4","","","","","0.711577854","0.3129298861","0.6582635175","0.543317668","","","","","","","","","","74","J","1","","","128","main_expt","",""
"","bandit","210","746120","0.0-170.0-0.0","92179012","wem/bandit_party_2","A15Y1NIIP9O5F3","either","3","447","","","","","","","0","0","1","0.3507055597","","0.6","0.8","0.2","0.4","","","","","0.7022761705","0.3507055597","0.7529887683","0.5906282681","","","","","","","","","","74","J","1","","","129","main_expt","",""
"","bandit","211","747718","0.0-171.0-0.0","92179012","wem/bandit_party_2","A15Y1NIIP9O5F3","either","3","81","","","","","","","0","0","1","","0.3753424236","0.6","0.8","0.2","0.4","0.7309419319","0.3753424236","0.7929301986","0.6636268631","","","","","","","","","","","","","","74","J","1","","","130","main_expt","",""
"","bandit","212","749331","0.0-172.0-0.0","92179012","wem/bandit_party_2","A15Y1NIIP9O5F3","either","3","100","","","","","","","0","0","1","","0.6904825683","0.6","0.8","0.2","0.4","0.6904825683","0.3473486375","0.8149544693","0.5686699027","","","","","","","","","","","","","","72","H","0","img/none_selected.jpg","","131","main_expt","",""
"","bandit","213","751113","0.0-173.0-0.0","92179012","wem/bandit_party_2","A15Y1NIIP9O5F3","either","3","267","","","","","","","0","1","0","","0.7626544417","0.6","0.8","0.2","0.4","0.7153166113","0.303679922","0.7626544417","0.6564012045","","","","","","","","","","","","","","75","K","2","","","132","main_expt","",""
"","bandit","214","752825","0.0-174.0-0.0","92179012","wem/bandit_party_2","A15Y1NIIP9O5F3","either","3","196","","","","","","","0","1","0","","0.7584501248","0.6","0.8","0.2","0.4","0.8135501627","0.3385565331","0.7584501248","0.5876654864","","","","","","","","","","","","","","75","K","2","","","133","main_expt","",""
"","bandit","215","754642","0.0-175.0-0.0","92179012","wem/bandit_party_2","A15Y1NIIP9O5F3","either","3","304","","","","","","","0","1","0","","0.7905015291","0.6","0.8","0.2","0.4","0.7707892239","0.3686406913","0.7905015291","0.5299368298","","","","","","","","","","","","","","75","K","2","","","134","main_expt","",""
"","bandit","216","756876","0.0-176.0-0.0","92179012","wem/bandit_party_2","A15Y1NIIP9O5F3","either","3","721","","","","","","","0","0","1","","0.7515189777","0.6","0.8","0.2","0.4","0.7689088841","0.3672202126","0.7515189777","0.4547966061","","","","","","","","","","","","","","75","K","2","","","135","main_expt","",""
"","bandit","217","758554","0.0-177.0-0.0","92179012","wem/bandit_party_2","A15Y1NIIP9O5F3","either","3","164","","","","","","","0","1","0","","0.7293518859","0.6","0.8","0.2","0.4","0.6641324257","0.4064769993","0.7293518859","0.5290841583","","","","","","","","","","","","","","75","K","2","","","136","main_expt","",""
"","bandit","218","760587","0.0-178.0-0.0","92179012","wem/bandit_party_2","A15Y1NIIP9O5F3","either","3","515","","","","","","","0","1","0","","0.7286216209","0.6","0.8","0.2","0.4","0.635388201","0.3492503667","0.7286216209","0.419904672","","","","","","","","","","","","","","75","K","2","","","137","main_expt","",""
"","bandit","219","762245","0.0-179.0-0.0","92179012","wem/bandit_party_2","A15Y1NIIP9O5F3","either","3","145","","","","","","","1","0","0","0.7425921641","","0.6","0.8","0.2","0.4","","","","","0.6889508363","0.3315752647","0.7425921641","0.4532768315","","","","","","","","","","75","K","2","","","138","main_expt","",""
"","bandit","220","763952","0.0-180.0-0.0","92179012","wem/bandit_party_2","A15Y1NIIP9O5F3","either","3","193","","","","","","","0","0","1","0.7356638012","","0.6","0.8","0.2","0.4","","","","","0.6481427694","0.3080831972","0.7356638012","0.4194835996","","","","","","","","","","75","K","2","","","139","main_expt","",""
"","bandit","221","765750","0.0-181.0-0.0","92179012","wem/bandit_party_2","A15Y1NIIP9O5F3","either","3","285","","","","","","","0","1","0","","0.7334346803","0.6","0.8","0.2","0.4","0.6497449761","0.3254670704","0.7334346803","0.420008375","","","","","","","","","","","","","","75","K","2","","","140","main_expt","",""
"","bandit","222","767550","0.0-182.0-0.0","92179012","wem/bandit_party_2","A15Y1NIIP9O5F3","either","3","285","","","","","","","0","0","1","","0.7737071977","0.6","0.8","0.2","0.4","0.7328205829","0.3452870884","0.7737071977","0.3908595681","","","","","","","","","","","","","","75","K","2","","","141","main_expt","",""
"","bandit","223","769320","0.0-183.0-0.0","92179012","wem/bandit_party_2","A15Y1NIIP9O5F3","either","3","254","","","","","","","0","1","0","","0.7912630164","0.6","0.8","0.2","0.4","0.6396752577","0.2659846132","0.7912630164","0.3994278682","","","","","","","","","","","","","","75","K","2","","","142","main_expt","",""
"","bandit","224","771143","0.0-184.0-0.0","92179012","wem/bandit_party_2","A15Y1NIIP9O5F3","either","3","308","","","","","","","0","1","0","","0.7709923268","0.6","0.8","0.2","0.4","0.5974809775","0.2549781044","0.7709923268","0.3137486051","","","","","","","","","","","","","","75","K","2","","","143","main_expt","",""
"","bandit","225","772878","0.0-185.0-0.0","92179012","wem/bandit_party_2","A15Y1NIIP9O5F3","either","3","221","","","","","","","1","0","0","0.7492848764","","0.6","0.8","0.2","0.4","","","","","0.5953980303","0.3603981418","0.7492848764","0.3961992406","","","","","","","","","","75","K","2","","","144","main_expt","",""
"","bandit","226","774770","0.0-186.0-0.0","92179012","wem/bandit_party_2","A15Y1NIIP9O5F3","either","3","380","","","","","","","0","0","1","","0.7343485297","0.6","0.8","0.2","0.4","0.6215671736","0.3682949958","0.7343485297","0.3186856111","","","","","","","","","","","","","","75","K","2","","","145","main_expt","",""
"","bandit","227","776453","0.0-187.0-0.0","92179012","wem/bandit_party_2","A15Y1NIIP9O5F3","either","3","169","","","","","","","0","0","1","","0.7701032705","0.6","0.8","0.2","0.4","0.5766937592","0.5028772858","0.7701032705","0.2724247948","","","","","","","","","","","","","","75","K","2","","","146","main_expt","",""
"","bandit","228","778096","0.0-188.0-0.0","92179012","wem/bandit_party_2","A15Y1NIIP9O5F3","either","3","126","","","","","","","0","0","1","","0.7521601774","0.6","0.8","0.2","0.4","0.4600492943","0.4186890645","0.7521601774","0.2844288079","","","","","","","","","","","","","","75","K","2","","","147","main_expt","",""
"","bandit","229","779926","0.0-189.0-0.0","92179012","wem/bandit_party_2","A15Y1NIIP9O5F3","either","3","318","","","","","","","1","0","0","0.7762143641","","0.6","0.8","0.2","0.4","","","","","0.4575448178","0.3928328601","0.7762143641","0.3095389551","","","","","","","","","","75","K","2","","","148","main_expt","",""
"","bandit","230","782531","0.0-190.0-0.0","92179012","wem/bandit_party_2","A15Y1NIIP9O5F3","either","3","1094","","","","","","","0","0","1","","0.716016993","0.6","0.8","0.2","0.4","0.3840278576","0.4220063763","0.716016993","0.2464654743","","","","","","","","","","","","","","75","K","2","","","149","main_expt","",""
"","bandit","231","787207","0.0-191.0-0.0","92179012","wem/bandit_party_2","A15Y1NIIP9O5F3","either","3","3159","","","","","","","0","1","0","","0.7182774931","0.6","0.8","0.2","0.4","0.3004406684","0.3206822378","0.7182774931","0.2088091358","","","","","","","","","","","","","","75","K","2","","","150","main_expt","",""
"","bandit","232","788787","0.0-192.0-0.0","92179012","wem/bandit_party_2","A15Y1NIIP9O5F3","either","3","70","","","","","","","1","0","0","0.8028216805","","0.6","0.8","0.2","0.4","","","","","0.2769981479","0.3380172956","0.8028216805","0.2670014618","","","","","","","","","","75","K","2","","","151","main_expt","",""
"","bandit","233","791974","0.0-193.0-0.0","92179012","wem/bandit_party_2","A15Y1NIIP9O5F3","either","3","1666","","","","","","","0","1","0","","0.8634692279","0.6","0.8","0.2","0.4","0.40565407","0.2461440624","0.8634692279","0.3100930243","","","","","","","","","","","","","","75","K","2","","","152","main_expt","",""
"","bandit","234","793517","0.0-194.0-0.0","92179012","wem/bandit_party_2","A15Y1NIIP9O5F3","either","3","29","","","","","","","0","1","0","","0.7719190238","0.6","0.8","0.2","0.4","0.3829351634","0.1852716423","0.7719190238","0.3796096158","","","","","","","","","","","","","","75","K","2","","","153","main_expt","",""
"","bandit","235","795277","0.0-195.0-0.0","92179012","wem/bandit_party_2","A15Y1NIIP9O5F3","either","3","243","","","","","","","0","0","1","0.8343429945","","0.6","0.8","0.2","0.4","","","","","0.4912137185","0.1660439368","0.8343429945","0.2265028128","","","","","","","","","","75","K","2","","","154","main_expt","",""
"","bandit","236","797267","0.0-196.0-0.0","92179012","wem/bandit_party_2","A15Y1NIIP9O5F3","either","3","476","","","","","","","0","0","1","","0.7908731232","0.6","0.8","0.2","0.4","0.5312535156","0.2241607793","0.7908731232","0.2135741777","","","","","","","","","","","","","","75","K","2","","","155","main_expt","",""
"","bandit","237","799658","0.0-197.0-0.0","92179012","wem/bandit_party_2","A15Y1NIIP9O5F3","either","3","874","","","","","","","0","1","0","","0.7848911391","0.6","0.8","0.2","0.4","0.5747898199","0.1566338899","0.7848911391","0.1338357519","","","","","","","","","","","","","","75","K","2","","","156","main_expt","",""
"","bandit","238","802288","0.0-198.0-0.0","92179012","wem/bandit_party_2","A15Y1NIIP9O5F3","either","3","1112","","","","","","","0","0","1","","0.7467155263","0.6","0.8","0.2","0.4","0.5948125822","0.1839373886","0.7467155263","0.1344370697","","","","","","","","","","","","","","75","K","2","","","157","main_expt","",""
"","bandit","239","805272","0.0-199.0-0.0","92179012","wem/bandit_party_2","A15Y1NIIP9O5F3","either","3","1466","","","","","","","0","0","1","","0.7413618202","0.6","0.8","0.2","0.4","0.6533804049","0.155802242","0.7413618202","0.1217930933","","","","","","","","","","","","","","75","K","2","","","158","main_expt","",""
"","bandit","240","807059","0.0-200.0-0.0","92179012","wem/bandit_party_2","A15Y1NIIP9O5F3","either","3","270","","","","","","","0","0","1","","0.08524485746","0.6","0.8","0.2","0.4","0.5777198579","0.2304237345","0.6882043704","0.08524485746","","","","","","","","","","","","","","76","L","3","","","159","main_expt","",""
"","bandit","241","808806","0.0-201.0-0.0","92179012","wem/bandit_party_2","A15Y1NIIP9O5F3","either","3","227","","","","","","","0","1","0","","0.07332219892","0.6","0.8","0.2","0.4","0.6777741118","0.2242026456","0.7253096401","0.07332219892","","","","","","","","","","","","","","76","L","3","","","160","main_expt","",""
"","bandit","242","810447","0.0-202.0-0.0","92179012","wem/bandit_party_2","A15Y1NIIP9O5F3","either","3","126","","","","","","","0","0","1","","0.1063489691","0.6","0.8","0.2","0.4","0.6249074267","0.2708915048","0.6989182833","0.1063489691","","","","","","","","","","","","","","76","L","3","","","161","main_expt","",""
"","bandit","243","812234","0.0-203.0-0.0","92179012","wem/bandit_party_2","A15Y1NIIP9O5F3","either","3","272","","","","","","","1","0","0","0.6755041601","","0.6","0.8","0.2","0.4","","","","","0.6755041601","0.2921592604","0.7679575172","0.09670310095","","","","","","","","","","72","H","0","img/none_selected.jpg","","162","main_expt","",""
"","bandit","244","813825","0.0-204.0-0.0","92179012","wem/bandit_party_2","A15Y1NIIP9O5F3","either","3","72","","","","","","","0","0","1","0.6461818487","","0.6","0.8","0.2","0.4","","","","","0.6461818487","0.2050535257","0.6877390752","0.1266359811","","","","","","","","","","72","H","0","img/none_selected.jpg","","163","main_expt","",""
"","bandit","245","815428","0.0-205.0-0.0","92179012","wem/bandit_party_2","A15Y1NIIP9O5F3","either","3","87","","","","","","","1","0","0","0.76368027","","0.6","0.8","0.2","0.4","","","","","0.76368027","0.1998759094","0.6957575266","0.1212611996","","","","","","","","","","72","H","0","img/none_selected.jpg","","164","main_expt","",""
"","bandit","246","817819","0.0-206.0-0.0","92179012","wem/bandit_party_2","A15Y1NIIP9O5F3","either","3","875","","","","","","","1","0","0","0.8400099296","","0.6","0.8","0.2","0.4","","","","","0.8400099296","0.1821974317","0.6760148625","0.1917887173","","","","","","","","","","72","H","0","img/none_selected.jpg","","165","main_expt","",""
"","bandit","247","822364","0.0-207.0-0.0","92179012","wem/bandit_party_2","A15Y1NIIP9O5F3","either","3","3028","","","","","","","0","1","0","","0.8573275969","0.6","0.8","0.2","0.4","0.8573275969","0.2916844583","0.6463317238","0.1560613016","","","","","","","","","","","","","","72","H","0","img/none_selected.jpg","","166","main_expt","",""
"","bandit","248","824796","0.0-208.0-0.0","92179012","wem/bandit_party_2","A15Y1NIIP9O5F3","either","3","917","","","","","","","1","0","0","0.7735369509","","0.6","0.8","0.2","0.4","","","","","0.7735369509","0.3087465624","0.5613055562","0.2214887095","","","","","","","","","","72","H","0","img/none_selected.jpg","","167","main_expt","",""
"","bandit","249","827871","0.0-209.0-0.0","92179012","wem/bandit_party_2","A15Y1NIIP9O5F3","either","3","1564","","","","","","","0","0","1","0.8091314607","","0.6","0.8","0.2","0.4","","","","","0.8091314607","0.3896626528","0.5586162784","0.3463453368","","","","","","","","","","72","H","0","img/none_selected.jpg","","168","main_expt","",""
"","bandit","250","830948","0.0-210.0-0.0","92179012","wem/bandit_party_2","A15Y1NIIP9O5F3","either","3","1557","","","","","","","1","0","0","0.8364166478","","0.6","0.8","0.2","0.4","","","","","0.8364166478","0.4458805252","0.597448185","0.3222551453","","","","","","","","","","72","H","0","img/none_selected.jpg","","169","main_expt","",""
"","bandit","251","835181","0.0-211.0-0.0","92179012","wem/bandit_party_2","A15Y1NIIP9O5F3","either","3","2715","","","","","","","0","0","1","0.7867883415","","0.6","0.8","0.2","0.4","","","","","0.7867883415","0.4844269655","0.5351242352","0.2556410415","","","","","","","","","","72","H","0","img/none_selected.jpg","","170","main_expt","",""
"","bandit","252","838540","0.0-212.0-0.0","92179012","wem/bandit_party_2","A15Y1NIIP9O5F3","either","3","1845","","","","","","","0","1","0","","0.8728822524","0.6","0.8","0.2","0.4","0.8728822524","0.4858642724","0.4819966971","0.2248109201","","","","","","","","","","","","","","72","H","0","img/none_selected.jpg","","171","main_expt","",""
"","bandit","253","841174","0.0-213.0-0.0","92179012","wem/bandit_party_2","A15Y1NIIP9O5F3","either","3","1117","","","","","","","1","0","0","0.7804912391","","0.6","0.8","0.2","0.4","","","","","0.7804912391","0.5060245996","0.4038669266","0.3468742366","","","","","","","","","","72","H","0","img/none_selected.jpg","","172","main_expt","",""
"","bandit","254","844797","0.0-214.0-0.0","92179012","wem/bandit_party_2","A15Y1NIIP9O5F3","either","3","2107","","","","","","","0","1","0","","0.7728490534","0.6","0.8","0.2","0.4","0.7728490534","0.5413528159","0.3102533384","0.234408543","","","","","","","","","","","","","","72","H","0","img/none_selected.jpg","","173","main_expt","",""
"","bandit","255","849746","0.0-215.0-0.0","92179012","wem/bandit_party_2","A15Y1NIIP9O5F3","either","3","3436","","","","","","","0","1","0","","0.814185781","0.6","0.8","0.2","0.4","0.814185781","0.6505326818","0.3818943333","0.1404050277","","","","","","","","","","","","","","72","H","0","img/none_selected.jpg","","174","main_expt","",""
"","bandit","256","851762","0.0-216.0-0.0","92179012","wem/bandit_party_2","A15Y1NIIP9O5F3","either","3","502","","","","","","","1","0","0","0.8010682597","","0.6","0.8","0.2","0.4","","","","","0.8010682597","0.6470977149","0.2893198216","0.1081611795","","","","","","","","","","72","H","0","img/none_selected.jpg","","175","main_expt","",""
"","bandit","257","855117","0.0-217.0-0.0","92179012","wem/bandit_party_2","A15Y1NIIP9O5F3","either","3","1838","","","","","","","1","0","0","0.7083228223","","0.6","0.8","0.2","0.4","","","","","0.7083228223","0.6844229635","0.226416223","0.0730283124","","","","","","","","","","72","H","0","img/none_selected.jpg","","176","main_expt","",""
"","bandit","258","857165","0.0-218.0-0.0","92179012","wem/bandit_party_2","A15Y1NIIP9O5F3","either","3","532","","","","","","","0","0","1","","0.7408938443","0.6","0.8","0.2","0.4","0.7408938443","0.6883244284","0.2786676386","0.07044941978","","","","","","","","","","","","","","72","H","0","img/none_selected.jpg","","177","main_expt","",""
"","bandit","259","859427","0.0-219.0-0.0","92179012","wem/bandit_party_2","A15Y1NIIP9O5F3","either","3","747","","","","","","","1","0","0","0.6621187214","","0.6","0.8","0.2","0.4","","","","","0.6621187214","0.6098590842","0.2279078815","0.06886985111","","","","","","","","","","72","H","0","img/none_selected.jpg","","178","main_expt","",""
"","bandit","260","863811","0.0-220.0-0.0","92179012","wem/bandit_party_2","A15Y1NIIP9O5F3","either","3","2871","","","","","","","0","0","1","0.6765487854","","0.6","0.8","0.2","0.4","","","","","0.6765487854","0.5924449164","0.1690126781","0.07254371148","","","","","","","","","","72","H","0","img/none_selected.jpg","","179","main_expt","",""
"","bandit","261","866394","0.0-221.0-0.0","92179012","wem/bandit_party_2","A15Y1NIIP9O5F3","either","3","1067","","","","","","","1","0","0","0.7276027883","","0.6","0.8","0.2","0.4","","","","","0.7276027883","0.4915111467","0.1356066944","0.055057054","","","","","","","","","","72","H","0","img/none_selected.jpg","","180","main_expt","",""
"","bandit","262","868182","0.0-222.0-0.0","92179012","wem/bandit_party_2","A15Y1NIIP9O5F3","either","3","271","","","","","","","1","0","0","0.7083410305","","0.6","0.8","0.2","0.4","","","","","0.7083410305","0.4713933083","0.1889441784","0.1187845962","","","","","","","","","","72","H","0","img/none_selected.jpg","","181","main_expt","",""
"","bandit","263","871240","0.0-223.0-0.0","92179012","wem/bandit_party_2","A15Y1NIIP9O5F3","either","3","1544","","","","","","","0","0","1","0.6489729838","","0.6","0.8","0.2","0.4","","","","","0.6489729838","0.500114893","0.2163976064","0.1304227184","","","","","","","","","","72","H","0","img/none_selected.jpg","","182","main_expt","",""
"","bandit","264","872772","0.0-224.0-0.0","92179012","wem/bandit_party_2","A15Y1NIIP9O5F3","either","3","20","","","","","","","0","0","1","0.6956751073","","0.6","0.8","0.2","0.4","","","","","0.6956751073","0.4949273894","0.1902524086","0.1374638341","","","","","","","","","","72","H","0","img/none_selected.jpg","","183","main_expt","",""
"","bandit","265","874473","0.0-225.0-0.0","92179012","wem/bandit_party_2","A15Y1NIIP9O5F3","either","3","182","","","","","","","0","0","1","0.6066537109","","0.6","0.8","0.2","0.4","","","","","0.6066537109","0.4271361476","0.2265805791","0.1914365344","","","","","","","","","","72","H","0","img/none_selected.jpg","","184","main_expt","",""
"","bandit","266","880028","0.0-226.0-0.0","92179012","wem/bandit_party_2","A15Y1NIIP9O5F3","either","3","4037","","","","","","","0","0","1","","0.6337362372","0.6","0.8","0.2","0.4","0.6337362372","0.4558255176","0.1843452782","0.1939872458","","","","","","","","","","","","","","72","H","0","img/none_selected.jpg","","185","main_expt","",""
"","bandit","267","882028","0.0-227.0-0.0","92179012","wem/bandit_party_2","A15Y1NIIP9O5F3","either","3","486","","","","","","","0","0","1","0.5908962551","","0.6","0.8","0.2","0.4","","","","","0.5908962551","0.4031301461","0.1898387663","0.2219937035","","","","","","","","","","72","H","0","img/none_selected.jpg","","186","main_expt","",""
"","bandit","268","887886","0.0-228.0-0.0","92179012","wem/bandit_party_2","A15Y1NIIP9O5F3","either","3","4340","","","","","","","0","1","0","","0.7651761031","0.6","0.8","0.2","0.4","0.7651761031","0.3993697366","0.210498268","0.2024523472","","","","","","","","","","","","","","72","H","0","img/none_selected.jpg","","187","main_expt","",""
"","bandit","269","891293","0.0-229.0-0.0","92179012","wem/bandit_party_2","A15Y1NIIP9O5F3","either","3","1889","","","","","","","0","0","1","0.7928336054","","0.6","0.8","0.2","0.4","","","","","0.7928336054","0.4478687375","0.2368649008","0.1930401344","","","","","","","","","","72","H","0","img/none_selected.jpg","","188","main_expt","",""
"","bandit","270","896133","0.0-230.0-0.0","92179012","wem/bandit_party_2","A15Y1NIIP9O5F3","either","3","3326","","","","","","","0","1","0","","0.291591963","0.6","0.8","0.2","0.4","0.8917358491","0.3699601256","0.291591963","0.3255404916","","","","","","","","","","","","","","75","K","2","","","189","main_expt","",""
"","bandit","271","897933","0.0-231.0-0.0","92179012","wem/bandit_party_2","A15Y1NIIP9O5F3","either","3","287","","","","","","","1","0","0","0.898448025","","0.6","0.8","0.2","0.4","","","","","0.898448025","0.3723251068","0.4411779124","0.2364063212","","","","","","","","","","72","H","0","img/none_selected.jpg","","190","main_expt","",""
"","bandit","272","899994","0.0-232.0-0.0","92179012","wem/bandit_party_2","A15Y1NIIP9O5F3","either","3","545","","","","","","","0","1","0","","0.9186708851","0.6","0.8","0.2","0.4","0.9186708851","0.3309849287","0.3968704403","0.2662767285","","","","","","","","","","","","","","72","H","0","img/none_selected.jpg","","191","main_expt","",""
"","bandit","273","901863","0.0-233.0-0.0","92179012","wem/bandit_party_2","A15Y1NIIP9O5F3","either","3","349","","","","","","","0","1","0","","0.9314477517","0.6","0.8","0.2","0.4","0.9314477517","0.2865625263","0.4512817608","0.2815174114","","","","","","","","","","","","","","72","H","0","img/none_selected.jpg","","192","main_expt","",""
"","bandit","274","906210","0.0-234.0-0.0","92179012","wem/bandit_party_2","A15Y1NIIP9O5F3","either","3","2833","","","","","","","0","0","1","","0.9090465067","0.6","0.8","0.2","0.4","0.9090465067","0.2862811746","0.4788006455","0.3461293965","","","","","","","","","","","","","","72","H","0","img/none_selected.jpg","","193","main_expt","",""
"","bandit","275","908357","0.0-235.0-0.0","92179012","wem/bandit_party_2","A15Y1NIIP9O5F3","either","3","627","","","","","","","0","1","0","","0.8762249788","0.6","0.8","0.2","0.4","0.8762249788","0.2785288642","0.4651889587","0.3303735913","","","","","","","","","","","","","","72","H","0","img/none_selected.jpg","","194","main_expt","",""
"","bandit","276","909901","0.0-236.0-0.0","92179012","wem/bandit_party_2","A15Y1NIIP9O5F3","either","3","27","","","","","","","0","0","1","0.8623185747","","0.6","0.8","0.2","0.4","","","","","0.8623185747","0.2283941808","0.4718629942","0.3194565039","","","","","","","","","","72","H","0","img/none_selected.jpg","","195","main_expt","",""
"","bandit","277","913419","0.0-237.0-0.0","92179012","wem/bandit_party_2","A15Y1NIIP9O5F3","either","3","2003","","","","","","","0","0","1","","0.7745977574","0.6","0.8","0.2","0.4","0.7745977574","0.214282227","0.3825708332","0.4103944464","","","","","","","","","","","","","","72","H","0","img/none_selected.jpg","","196","main_expt","",""
"","bandit","278","918979","0.0-238.0-0.0","92179012","wem/bandit_party_2","A15Y1NIIP9O5F3","either","3","4045","","","","","","","0","0","1","","0.7723069829","0.6","0.8","0.2","0.4","0.7723069829","0.1422959513","0.4530864699","0.4445726534","","","","","","","","","","","","","","72","H","0","img/none_selected.jpg","","197","main_expt","",""
"","bandit","279","920620","0.0-239.0-0.0","92179012","wem/bandit_party_2","A15Y1NIIP9O5F3","either","3","124","","","","","","","0","0","1","","0.7084082875","0.6","0.8","0.2","0.4","0.7084082875","0.1126324943","0.4337652667","0.4351718099","","","","","","","","","","","","","","72","H","0","img/none_selected.jpg","","198","main_expt","",""
"","bandit","280","923796","0.0-240.0-0.0","92179012","wem/bandit_party_2","A15Y1NIIP9O5F3","either","3","1661","","","","","","","0","0","1","0.7016883558","","0.6","0.8","0.2","0.4","","","","","0.7016883558","0.1144166609","0.4138332966","0.4641294157","","","","","","","","","","72","H","0","img/none_selected.jpg","","199","main_expt","",""
"","bandit","281","928863","0.0-241.0-0.0","92179012","wem/bandit_party_2","A15Y1NIIP9O5F3","either","3","3549","","","","","","","0","0","1","0.6504384346","","0.6","0.8","0.2","0.4","","","","","0.6504384346","0.1518003708","0.5005175686","0.4468687069","","","","","","","","","","72","H","0","img/none_selected.jpg","","200","main_expt","",""
"","bandit","282","933640","0.0-242.0-0.0","92179012","wem/bandit_party_2","A15Y1NIIP9O5F3","either","3","3263","","","","","","","0","1","0","","0.7904945102","0.6","0.8","0.2","0.4","0.7904945102","0.1974433607","0.5122642399","0.5087435212","","","","","","","","","","","","","","72","H","0","img/none_selected.jpg","","201","main_expt","",""
"","bandit","283","938005","0.0-243.0-0.0","92179012","wem/bandit_party_2","A15Y1NIIP9O5F3","either","3","2850","","","","","","","0","0","1","","0.7039472437","0.6","0.8","0.2","0.4","0.7039472437","0.2000842809","0.5414597976","0.4992132835","","","","","","","","","","","","","","72","H","0","img/none_selected.jpg","","202","main_expt","",""
"","bandit","284","942886","0.0-244.0-0.0","92179012","wem/bandit_party_2","A15Y1NIIP9O5F3","either","3","3363","","","","","","","1","0","0","0.7478807213","","0.6","0.8","0.2","0.4","","","","","0.7478807213","0.1715580826","0.4993649945","0.4859842053","","","","","","","","","","72","H","0","img/none_selected.jpg","","203","main_expt","",""
"","bandit","285","946888","0.0-245.0-0.0","92179012","wem/bandit_party_2","A15Y1NIIP9O5F3","either","3","2486","","","","","","","1","0","0","0.7346150791","","0.6","0.8","0.2","0.4","","","","","0.7346150791","0.3028604286","0.4056752737","0.6162755314","","","","","","","","","","72","H","0","img/none_selected.jpg","","204","main_expt","",""
"","bandit","286","948816","0.0-246.0-0.0","92179012","wem/bandit_party_2","A15Y1NIIP9O5F3","either","3","406","","","","","","","1","0","0","0.7240623961","","0.6","0.8","0.2","0.4","","","","","0.7240623961","0.3714949669","0.4174768156","0.6204906845","","","","","","","","","","72","H","0","img/none_selected.jpg","","205","main_expt","",""
"","bandit","287","950615","0.0-247.0-0.0","92179012","wem/bandit_party_2","A15Y1NIIP9O5F3","either","3","282","","","","","","","1","0","0","0.733657826","","0.6","0.8","0.2","0.4","","","","","0.733657826","0.3034865557","0.4364097613","0.6390595606","","","","","","","","","","72","H","0","img/none_selected.jpg","","206","main_expt","",""
"","bandit","288","952399","0.0-248.0-0.0","92179012","wem/bandit_party_2","A15Y1NIIP9O5F3","either","3","271","","","","","","","0","0","1","","0.6797091947","0.6","0.8","0.2","0.4","0.6797091947","0.2688105372","0.4666062126","0.6022157482","","","","","","","","","","","","","","72","H","0","img/none_selected.jpg","","207","main_expt","",""
"","bandit","289","954190","0.0-249.0-0.0","92179012","wem/bandit_party_2","A15Y1NIIP9O5F3","either","3","276","","","","","","","0","0","1","0.472157919","","0.6","0.8","0.2","0.4","","","","","0.472157919","0.2240001326","0.4594719295","0.6598502583","","","","","","","","","","72","H","0","img/none_selected.jpg","","208","main_expt","",""
"","bandit","290","956653","0.0-250.0-0.0","92179012","wem/bandit_party_2","A15Y1NIIP9O5F3","either","3","949","","","","","","","1","0","0","0.4993955773","","0.6","0.8","0.2","0.4","","","","","0.4993955773","0.3284172364","0.5415101973","0.6329069529","","","","","","","","","","72","H","0","img/none_selected.jpg","","209","main_expt","",""
"","bandit","291","958568","0.0-251.0-0.0","92179012","wem/bandit_party_2","A15Y1NIIP9O5F3","either","3","400","","","","","","","0","0","1","","0.3923888982","0.6","0.8","0.2","0.4","0.3923888982","0.3178667136","0.5627952802","0.5418549626","","","","","","","","","","","","","","72","H","0","img/none_selected.jpg","","210","main_expt","",""
"","bandit","292","961430","0.0-252.0-0.0","92179012","wem/bandit_party_2","A15Y1NIIP9O5F3","either","3","1345","","","","","","","0","0","1","","0.4183885941","0.6","0.8","0.2","0.4","0.4183885941","0.278360526","0.5779033475","0.7265410197","","","","","","","","","","","","","","72","H","0","img/none_selected.jpg","","211","main_expt","",""
"","bandit","293","964106","0.0-253.0-0.0","92179012","wem/bandit_party_2","A15Y1NIIP9O5F3","either","3","1155","","","","","","","1","0","0","0.5367383083","","0.6","0.8","0.2","0.4","","","","","0.5367383083","0.2720231684","0.6169713091","0.6550819281","","","","","","","","","","72","H","0","img/none_selected.jpg","","212","main_expt","",""
"","bandit","294","965742","0.0-254.0-0.0","92179012","wem/bandit_party_2","A15Y1NIIP9O5F3","either","3","120","","","","","","","0","1","0","","0.5779451767","0.6","0.8","0.2","0.4","0.5779451767","0.3445332441","0.5688165975","0.5812500281","","","","","","","","","","","","","","72","H","0","img/none_selected.jpg","","213","main_expt","",""
"","bandit","295","968418","0.0-255.0-0.0","92179012","wem/bandit_party_2","A15Y1NIIP9O5F3","either","3","1163","","","","","","","0","0","1","","0.5615700258","0.6","0.8","0.2","0.4","0.5615700258","0.331154659","0.5354690829","0.6912727382","","","","","","","","","","","","","","72","H","0","img/none_selected.jpg","","214","main_expt","",""
"","bandit","296","970111","0.0-256.0-0.0","92179012","wem/bandit_party_2","A15Y1NIIP9O5F3","either","3","177","","","","","","","0","0","1","0.5361399643","","0.6","0.8","0.2","0.4","","","","","0.5361399643","0.3168016653","0.4395706401","0.695573978","","","","","","","","","","72","H","0","img/none_selected.jpg","","215","main_expt","",""
"","bandit","297","972466","0.0-257.0-0.0","92179012","wem/bandit_party_2","A15Y1NIIP9O5F3","either","3","840","","","","","","","0","0","1","0.620750855","","0.6","0.8","0.2","0.4","","","","","0.620750855","0.2870858596","0.4522294324","0.6531454011","","","","","","","","","","72","H","0","img/none_selected.jpg","","216","main_expt","",""
"","bandit","298","974896","0.0-258.0-0.0","92179012","wem/bandit_party_2","A15Y1NIIP9O5F3","either","3","914","","","","","","","1","0","0","0.4812239037","","0.6","0.8","0.2","0.4","","","","","0.4812239037","0.2877345098","0.4141575353","0.6459690495","","","","","","","","","","72","H","0","img/none_selected.jpg","","217","main_expt","",""
"","bandit","299","978198","0.0-259.0-0.0","92179012","wem/bandit_party_2","A15Y1NIIP9O5F3","either","3","1783","","","","","","","1","0","0","0.4028497994","","0.6","0.8","0.2","0.4","","","","","0.4028497994","0.3608492067","0.3009722504","0.6679944541","","","","","","","","","","72","H","0","img/none_selected.jpg","","218","main_expt","",""
"","bandit","300","980537","0.0-260.0-0.0","92179012","wem/bandit_party_2","A15Y1NIIP9O5F3","either","3","824","","","","","","","0","0","1","0.4441021312","","0.6","0.8","0.2","0.4","","","","","0.4441021312","0.4380407461","0.2706893249","0.7159195147","","","","","","","","","","72","H","0","img/none_selected.jpg","","219","main_expt","",""
"","bandit","301","982619","0.0-261.0-0.0","92179012","wem/bandit_party_2","A15Y1NIIP9O5F3","either","3","569","","","","","","","0","0","1","0.4867825248","","0.6","0.8","0.2","0.4","","","","","0.4867825248","0.4769938592","0.3821277721","0.6874484601","","","","","","","","","","72","H","0","img/none_selected.jpg","","220","main_expt","",""
"","bandit","302","984989","0.0-262.0-0.0","92179012","wem/bandit_party_2","A15Y1NIIP9O5F3","either","3","849","","","","","","","0","0","1","0.4612627877","","0.6","0.8","0.2","0.4","","","","","0.5428062785","0.4612627877","0.4534214389","0.6528128226","","","","","","","","","","74","J","1","","","221","main_expt","",""
"","bandit","303","986968","0.0-263.0-0.0","92179012","wem/bandit_party_2","A15Y1NIIP9O5F3","either","3","463","","","","","","","1","0","0","0.4192901336","","0.6","0.8","0.2","0.4","","","","","0.5993321864","0.4192901336","0.6049712458","0.6836467719","","","","","","","","","","74","J","1","","","222","main_expt","",""
"","bandit","304","992192","0.0-264.0-0.0","92179012","wem/bandit_party_2","A15Y1NIIP9O5F3","either","3","3709","","","","","","","1","0","0","0.5559965486","","0.6","0.8","0.2","0.4","","","","","0.4920604154","0.5559965486","0.6389506418","0.7820879334","","","","","","","","","","74","J","1","","","223","main_expt","",""
"","bandit","305","994699","0.0-265.0-0.0","92179012","wem/bandit_party_2","A15Y1NIIP9O5F3","either","3","994","","","","","","","1","0","0","0.6687933923","","0.6","0.8","0.2","0.4","","","","","0.5344282052","0.6687933923","0.6677375732","0.763226653","","","","","","","","","","74","J","1","","","224","main_expt","",""
"","bandit","306","996585","0.0-266.0-0.0","92179012","wem/bandit_party_2","A15Y1NIIP9O5F3","either","3","372","","","","","","","1","0","0","0.5954484576","","0.6","0.8","0.2","0.4","","","","","0.5583452501","0.5954484576","0.7706853934","0.6931961842","","","","","","","","","","74","J","1","","","225","main_expt","",""
"","bandit","307","998506","0.0-267.0-0.0","92179012","wem/bandit_party_2","A15Y1NIIP9O5F3","either","3","404","","","","","","","1","0","0","0.6152447968","","0.6","0.8","0.2","0.4","","","","","0.5126042404","0.6152447968","0.7624197083","0.6633974694","","","","","","","","","","74","J","1","","","226","main_expt","",""
