"consent","trial_type","trial_index","time_elapsed","internal_node_id","subjID","study","MID","cond","drift","rt","responses","button_pressed","key_press","like","value","connected","gems","bombs","no_reward","GemPrChosen","BombPrChosen","GainOverPainPr_0","GainOverPainPr_1","GainOverPainPr_2","GainOverPainPr_3","LosePr_0","LosePr_1","LosePr_2","LosePr_3","WinPr_0","WinPr_1","WinPr_2","WinPr_3","Q0","Q1","Q2","gender","age","ethnicity","label","expt_phase","target","respCharCode","respKey","respChoiceNum","respChoice","practice","trial_counter","trial_label","Q0_index"
"GDM/GDM_behavioral_consent_30min_online.html","consent","0","23702","0.0-0.0","92305700","wem/bandit_party_2","A2V35L3RIRYYXV","either","8","","","","","","","","","","","","","","","","","","","","","","","","","","","","","","","","","","","","","","","","",""
"","survey-text","1","28371","0.0-1.0","92305700","wem/bandit_party_2","A2V35L3RIRYYXV","either","8","3651","{""Q0"":""A2V35L3RIRYYXV""}","","","","","","","","","","","","","","","","","","","","","","","","","","","","","","","","","","","","","","",""
"","button-response","2","31107","0.0-2.0","92305700","wem/bandit_party_2","A2V35L3RIRYYXV","either","8","1727","","0","","","","","","","","","","","","","","","","","","","","","","","","","","","","","","","","","","","","","",""
"","text-replacement","3","40936","0.0-3.0","92305700","wem/bandit_party_2","A2V35L3RIRYYXV","either","8","8824","","","32","","","","","","","","","","","","","","","","","","","","","","","","","","","","","","","","","","","","",""
"","text-replacement","4","48001","0.0-4.0","92305700","wem/bandit_party_2","A2V35L3RIRYYXV","either","8","7062","","","32","","","","","","","","","","","","","","","","","","","","","","","","","","","","","","","","","","","","",""
"","identification","5","56432","0.0-6.0-0.0","92305700","wem/bandit_party_2","A2V35L3RIRYYXV","either","8","8406","","","","5","5","6","","","","","","","","","","","","","","","","","","","","","","","","pre","identification_pre","the Republican Party","","","","","","","",""
"","identification","6","62926","0.0-6.0-1.0","92305700","wem/bandit_party_2","A2V35L3RIRYYXV","either","8","5473","","","","1","1","0","","","","","","","","","","","","","","","","","","","","","","","","pre","identification_pre","the Democratic Party","","","","","","","",""
"","text-replacement","7","68053","0.0-7.0","92305700","wem/bandit_party_2","A2V35L3RIRYYXV","either","8","4123","","","32","","","","","","","","","","","","","","","","","","","","","","","","","","","","","","","","","","","","",""
"","text-replacement","8","73152","0.0-8.0","92305700","wem/bandit_party_2","A2V35L3RIRYYXV","either","8","5097","","","32","","","","","","","","","","","","","","","","","","","","","","","","","","","","","","","","","","","","",""
"","text-replacement","9","80204","0.0-9.0","92305700","wem/bandit_party_2","A2V35L3RIRYYXV","either","8","7048","","","32","","","","","","","","","","","","","","","","","","","","","","","","","","","","","","","","","","","","",""
"","text-replacement","10","84220","0.0-10.0","92305700","wem/bandit_party_2","A2V35L3RIRYYXV","either","8","4012","","","32","","","","","","","","","","","","","","","","","","","","","","","","","","","","","","","","","","","","",""
"","text-replacement","11","92702","0.0-11.0","92305700","wem/bandit_party_2","A2V35L3RIRYYXV","either","8","8480","","","32","","","","","","","","","","","","","","","","","","","","","","","","","","","","","","","","","","","","",""
"","bandit","12","96296","0.0-12.0-0.0","92305700","wem/bandit_party_2","A2V35L3RIRYYXV","either","8","2083","","","","","","","0","0","1","0","0","","","","","0","","","","0","","","","","","","","","","","","","74","J","0","img/none_selected_demo.jpg","true","0","",""
"","bandit","13","98438","0.0-13.0-0.0","92305700","wem/bandit_party_2","A2V35L3RIRYYXV","either","8","634","","","","","","","0","0","1","0","0","","","","","0","","","","0","","","","","","","","","","","","","75","K","0","img/none_selected_demo.jpg","true","0","",""
"","text-replacement","14","103761","0.0-14.0","92305700","wem/bandit_party_2","A2V35L3RIRYYXV","either","8","5320","","","32","","","","","","","","","","","","","","","","","","","","","","","","","","","","","","","","","","","","",""
"","text-replacement","15","110601","0.0-15.0","92305700","wem/bandit_party_2","A2V35L3RIRYYXV","either","8","6837","","","32","","","","","","","","","","","","","","","","","","","","","","","","","","","","","","","","","","","","",""
"","text-replacement","16","117170","0.0-16.0","92305700","wem/bandit_party_2","A2V35L3RIRYYXV","either","8","6566","","","32","","","","","","","","","","","","","","","","","","","","","","","","","","","","","","","","","","","","",""
"","text-replacement","17","121730","0.0-17.0","92305700","wem/bandit_party_2","A2V35L3RIRYYXV","either","8","4556","","","32","","","","","","","","","","","","","","","","","","","","","","","","","","","","","","","","","","","","",""
"","bandit","18","124224","0.0-18.0-0.0","92305700","wem/bandit_party_2","A2V35L3RIRYYXV","either","8","985","","","","","","","1","0","0","0.8","","0.5","0.5","","","","","","","0.8","0.2","","","","","","","","","","","","74","J","0","img/none_selected_demo.jpg","true","0","80_20_practice",""
"","bandit","19","126198","0.0-18.0-1.0","92305700","wem/bandit_party_2","A2V35L3RIRYYXV","either","8","467","","","","","","","0","0","1","0.8","","0.5","0.5","","","","","","","0.8","0.2","","","","","","","","","","","","74","J","0","img/none_selected_demo.jpg","true","0","80_20_practice",""
"","bandit","20","128169","0.0-18.0-2.0","92305700","wem/bandit_party_2","A2V35L3RIRYYXV","either","8","463","","","","","","","0","0","1","0.8","","0.5","0.5","","","","","","","0.8","0.2","","","","","","","","","","","","74","J","0","img/none_selected_demo.jpg","true","0","80_20_practice",""
"","bandit","21","130003","0.0-18.0-3.0","92305700","wem/bandit_party_2","A2V35L3RIRYYXV","either","8","328","","","","","","","0","0","1","","0.2","0.5","0.5","","","0.8","0.2","","","","","","","","","","","","","","","","75","K","1","","true","0","80_20_practice",""
"","bandit","22","131956","0.0-18.0-4.0","92305700","wem/bandit_party_2","A2V35L3RIRYYXV","either","8","444","","","","","","","0","0","1","","0.2","0.5","0.5","","","0.8","0.2","","","","","","","","","","","","","","","","75","K","1","","true","0","80_20_practice",""
"","bandit","23","134127","0.0-18.0-5.0","92305700","wem/bandit_party_2","A2V35L3RIRYYXV","either","8","665","","","","","","","0","0","1","","0.2","0.5","0.5","","","0.8","0.2","","","","","","","","","","","","","","","","75","K","1","","true","0","80_20_practice",""
"","bandit","24","136442","0.0-18.0-6.0","92305700","wem/bandit_party_2","A2V35L3RIRYYXV","either","8","807","","","","","","","0","0","1","","0.2","0.5","0.5","","","0.8","0.2","","","","","","","","","","","","","","","","75","K","1","","true","0","80_20_practice",""
"","bandit","25","138323","0.0-18.0-7.0","92305700","wem/bandit_party_2","A2V35L3RIRYYXV","either","8","372","","","","","","","1","0","0","0.8","","0.5","0.5","","","","","","","0.8","0.2","","","","","","","","","","","","74","J","0","img/none_selected_demo.jpg","true","0","80_20_practice",""
"","bandit","26","140268","0.0-18.0-8.0","92305700","wem/bandit_party_2","A2V35L3RIRYYXV","either","8","435","","","","","","","0","0","1","0.8","","0.5","0.5","","","","","","","0.8","0.2","","","","","","","","","","","","74","J","0","img/none_selected_demo.jpg","true","0","80_20_practice",""
"","bandit","27","142037","0.0-18.0-9.0","92305700","wem/bandit_party_2","A2V35L3RIRYYXV","either","8","261","","","","","","","0","1","0","","0.8","0.5","0.5","","","0.8","0.2","","","","","","","","","","","","","","","","74","J","0","img/none_selected_demo.jpg","true","0","80_20_practice",""
"","bandit","28","143883","0.0-18.0-10.0","92305700","wem/bandit_party_2","A2V35L3RIRYYXV","either","8","338","","","","","","","0","1","0","","0.8","0.5","0.5","","","0.8","0.2","","","","","","","","","","","","","","","","74","J","0","img/none_selected_demo.jpg","true","0","80_20_practice",""
"","bandit","29","145734","0.0-18.0-11.0","92305700","wem/bandit_party_2","A2V35L3RIRYYXV","either","8","342","","","","","","","1","0","0","0.8","","0.5","0.5","","","","","","","0.8","0.2","","","","","","","","","","","","74","J","0","img/none_selected_demo.jpg","true","0","80_20_practice",""
"","bandit","30","147562","0.0-18.0-12.0","92305700","wem/bandit_party_2","A2V35L3RIRYYXV","either","8","322","","","","","","","0","1","0","","0.8","0.5","0.5","","","0.8","0.2","","","","","","","","","","","","","","","","74","J","0","img/none_selected_demo.jpg","true","0","80_20_practice",""
"","bandit","31","149355","0.0-18.0-13.0","92305700","wem/bandit_party_2","A2V35L3RIRYYXV","either","8","267","","","","","","","1","0","0","0.8","","0.5","0.5","","","","","","","0.8","0.2","","","","","","","","","","","","74","J","0","img/none_selected_demo.jpg","true","0","80_20_practice",""
"","bandit","32","151197","0.0-18.0-14.0","92305700","wem/bandit_party_2","A2V35L3RIRYYXV","either","8","334","","","","","","","0","1","0","","0.8","0.5","0.5","","","0.8","0.2","","","","","","","","","","","","","","","","74","J","0","img/none_selected_demo.jpg","true","0","80_20_practice",""
"","bandit","33","154374","0.0-18.0-15.0","92305700","wem/bandit_party_2","A2V35L3RIRYYXV","either","8","1669","","","","","","","0","1","0","","0.8","0.5","0.5","","","0.8","0.2","","","","","","","","","","","","","","","","74","J","0","img/none_selected_demo.jpg","true","0","80_20_practice",""
"","bandit","34","156117","0.0-18.0-16.0","92305700","wem/bandit_party_2","A2V35L3RIRYYXV","either","8","233","","","","","","","0","1","0","","0.8","0.5","0.5","","","0.8","0.2","","","","","","","","","","","","","","","","74","J","0","img/none_selected_demo.jpg","true","0","80_20_practice",""
"","bandit","35","158167","0.0-18.0-17.0","92305700","wem/bandit_party_2","A2V35L3RIRYYXV","either","8","540","","","","","","","0","1","0","","0.8","0.5","0.5","","","0.8","0.2","","","","","","","","","","","","","","","","74","J","0","img/none_selected_demo.jpg","true","0","80_20_practice",""
"","bandit","36","159838","0.0-18.0-18.0","92305700","wem/bandit_party_2","A2V35L3RIRYYXV","either","8","163","","","","","","","1","0","0","0.8","","0.5","0.5","","","","","","","0.8","0.2","","","","","","","","","","","","74","J","0","img/none_selected_demo.jpg","true","0","80_20_practice",""
"","bandit","37","162239","0.0-18.0-19.0","92305700","wem/bandit_party_2","A2V35L3RIRYYXV","either","8","894","","","","","","","0","1","0","","0.8","0.5","0.5","","","0.8","0.2","","","","","","","","","","","","","","","","74","J","0","img/none_selected_demo.jpg","true","0","80_20_practice",""
"","text-replacement","38","166600","0.0-19.0","92305700","wem/bandit_party_2","A2V35L3RIRYYXV","either","8","4357","","","32","","","","","","","","","","","","","","","","","","","","","","","","","","","","","","","","","","","","",""
"","bandit","39","169120","0.0-20.0-0.0","92305700","wem/bandit_party_2","A2V35L3RIRYYXV","either","8","1011","","","","","","","1","0","0","1","0","","","","","0","1","","","1","0","","","","","","","","","","","","74","J","0","img/none_selected_demo.jpg","true","0","",""
"","text-replacement","40","177360","0.0-21.0","92305700","wem/bandit_party_2","A2V35L3RIRYYXV","either","8","8235","","","32","","","","","","","","","","","","","","","","","","","","","","","","","","","","","","","","","","","","",""
"","text-replacement","41","182010","0.0-22.0","92305700","wem/bandit_party_2","A2V35L3RIRYYXV","either","8","4647","","","32","","","","","","","","","","","","","","","","","","","","","","","","","","","","","","","","","","","","",""
"","text-replacement","42","186281","0.0-23.0","92305700","wem/bandit_party_2","A2V35L3RIRYYXV","either","8","4268","","","32","","","","","","","","","","","","","","","","","","","","","","","","","","","","","","","","","","","","",""
"","text-replacement","43","188885","0.0-24.0","92305700","wem/bandit_party_2","A2V35L3RIRYYXV","either","8","2601","","","32","","","","","","","","","","","","","","","","","","","","","","","","","","","","","","","","","","","","",""
"","text-replacement","44","192215","0.0-25.0","92305700","wem/bandit_party_2","A2V35L3RIRYYXV","either","8","3327","","","32","","","","","","","","","","","","","","","","","","","","","","","","","","","","","","","","","","","","",""
"","text-replacement","45","194958","0.0-26.0","92305700","wem/bandit_party_2","A2V35L3RIRYYXV","either","8","2740","","","32","","","","","","","","","","","","","","","","","","","","","","","","","","","","","","","","","","","","",""
"","text-replacement","46","198096","0.0-27.0","92305700","wem/bandit_party_2","A2V35L3RIRYYXV","either","8","3133","","","32","","","","","","","","","","","","","","","","","","","","","","","","","","","","","","","","","","","","",""
"","text-replacement","47","200200","0.0-28.0","92305700","wem/bandit_party_2","A2V35L3RIRYYXV","either","8","2100","","","32","","","","","","","","","","","","","","","","","","","","","","","","","","","","","","","","","","","","",""
"","text-replacement","48","204186","0.0-29.0","92305700","wem/bandit_party_2","A2V35L3RIRYYXV","either","8","3983","","","32","","","","","","","","","","","","","","","","","","","","","","","","","","","","","","","","","","","","",""
"","text-replacement","49","205948","0.0-30.0","92305700","wem/bandit_party_2","A2V35L3RIRYYXV","either","8","1758","","","32","","","","","","","","","","","","","","","","","","","","","","","","","","","","","","","","","","","","",""
"","text-replacement","50","209162","0.0-31.0","92305700","wem/bandit_party_2","A2V35L3RIRYYXV","either","8","3209","","","32","","","","","","","","","","","","","","","","","","","","","","","","","","","","","","","","","","","","",""
"","bandit","51","211630","0.0-32.0-0.0","92305700","wem/bandit_party_2","A2V35L3RIRYYXV","either","8","960","","","","","","","0","0","1","0.8","","0.5","0.5","0.5","0.5","","","","","0.8","0.2","0.6","0.2","","","","","","","","","","72","H","0","img/none_selected.jpg","true","0","full_practice",""
"","bandit","52","213638","0.0-32.0-1.0","92305700","wem/bandit_party_2","A2V35L3RIRYYXV","either","8","498","","","","","","","1","0","0","0.2","","0.5","0.5","0.5","0.5","","","","","0.8","0.2","0.6","0.2","","","","","","","","","","74","J","1","","true","0","full_practice",""
"","bandit","53","215626","0.0-32.0-2.0","92305700","wem/bandit_party_2","A2V35L3RIRYYXV","either","8","481","","","","","","","0","0","1","","0.2","0.5","0.5","0.5","0.5","0.8","0.2","0.6","0.2","","","","","","","","","","","","","","74","J","1","","true","0","full_practice",""
"","bandit","54","217517","0.0-32.0-3.0","92305700","wem/bandit_party_2","A2V35L3RIRYYXV","either","8","379","","","","","","","1","0","0","0.6","","0.5","0.5","0.5","0.5","","","","","0.8","0.2","0.6","0.2","","","","","","","","","","75","K","2","","true","0","full_practice",""
"","bandit","55","219378","0.0-32.0-4.0","92305700","wem/bandit_party_2","A2V35L3RIRYYXV","either","8","352","","","","","","","0","0","1","","0.6","0.5","0.5","0.5","0.5","0.8","0.2","0.6","0.2","","","","","","","","","","","","","","75","K","2","","true","0","full_practice",""
"","bandit","56","221311","0.0-32.0-5.0","92305700","wem/bandit_party_2","A2V35L3RIRYYXV","either","8","423","","","","","","","0","0","1","","0.2","0.5","0.5","0.5","0.5","0.8","0.2","0.6","0.2","","","","","","","","","","","","","","76","L","3","","true","0","full_practice",""
"","bandit","57","224894","0.0-32.0-6.0","92305700","wem/bandit_party_2","A2V35L3RIRYYXV","either","8","2075","","","","","","","0","0","1","0.2","","0.5","0.5","0.5","0.5","","","","","0.8","0.2","0.6","0.2","","","","","","","","","","76","L","3","","true","0","full_practice",""
"","bandit","58","226725","0.0-32.0-7.0","92305700","wem/bandit_party_2","A2V35L3RIRYYXV","either","8","323","","","","","","","0","0","1","","0.6","0.5","0.5","0.5","0.5","0.8","0.2","0.6","0.2","","","","","","","","","","","","","","75","K","2","","true","0","full_practice",""
"","bandit","59","228517","0.0-32.0-8.0","92305700","wem/bandit_party_2","A2V35L3RIRYYXV","either","8","283","","","","","","","0","0","1","","0.2","0.5","0.5","0.5","0.5","0.8","0.2","0.6","0.2","","","","","","","","","","","","","","74","J","1","","true","0","full_practice",""
"","bandit","60","230349","0.0-32.0-9.0","92305700","wem/bandit_party_2","A2V35L3RIRYYXV","either","8","323","","","","","","","1","0","0","0.8","","0.5","0.5","0.5","0.5","","","","","0.8","0.2","0.6","0.2","","","","","","","","","","72","H","0","img/none_selected.jpg","true","0","full_practice",""
"","bandit","61","232131","0.0-32.0-10.0","92305700","wem/bandit_party_2","A2V35L3RIRYYXV","either","8","271","","","","","","","1","0","0","0.8","","0.5","0.5","0.5","0.5","","","","","0.8","0.2","0.6","0.2","","","","","","","","","","72","H","0","img/none_selected.jpg","true","0","full_practice",""
"","bandit","62","233971","0.0-32.0-11.0","92305700","wem/bandit_party_2","A2V35L3RIRYYXV","either","8","331","","","","","","","0","0","1","0.8","","0.5","0.5","0.5","0.5","","","","","0.8","0.2","0.6","0.2","","","","","","","","","","72","H","0","img/none_selected.jpg","true","0","full_practice",""
"","bandit","63","235578","0.0-32.0-12.0","92305700","wem/bandit_party_2","A2V35L3RIRYYXV","either","8","99","","","","","","","0","0","1","0.2","","0.5","0.5","0.5","0.5","","","","","0.8","0.2","0.6","0.2","","","","","","","","","","74","J","1","","true","0","full_practice",""
"","bandit","64","237321","0.0-32.0-13.0","92305700","wem/bandit_party_2","A2V35L3RIRYYXV","either","8","234","","","","","","","0","0","1","","0.2","0.5","0.5","0.5","0.5","0.8","0.2","0.6","0.2","","","","","","","","","","","","","","74","J","1","","true","0","full_practice",""
"","bandit","65","239024","0.0-32.0-14.0","92305700","wem/bandit_party_2","A2V35L3RIRYYXV","either","8","193","","","","","","","0","0","1","","0.6","0.5","0.5","0.5","0.5","0.8","0.2","0.6","0.2","","","","","","","","","","","","","","75","K","2","","true","0","full_practice",""
"","bandit","66","240590","0.0-32.0-15.0","92305700","wem/bandit_party_2","A2V35L3RIRYYXV","either","8","58","","","","","","","0","0","1","","0.6","0.5","0.5","0.5","0.5","0.8","0.2","0.6","0.2","","","","","","","","","","","","","","75","K","2","","true","0","full_practice",""
"","bandit","67","242382","0.0-32.0-16.0","92305700","wem/bandit_party_2","A2V35L3RIRYYXV","either","8","280","","","","","","","0","0","1","0.2","","0.5","0.5","0.5","0.5","","","","","0.8","0.2","0.6","0.2","","","","","","","","","","76","L","3","","true","0","full_practice",""
"","bandit","68","245756","0.0-32.0-17.0","92305700","wem/bandit_party_2","A2V35L3RIRYYXV","either","8","1865","","","","","","","0","0","1","0.2","","0.5","0.5","0.5","0.5","","","","","0.8","0.2","0.6","0.2","","","","","","","","","","76","L","3","","true","0","full_practice",""
"","bandit","69","249168","0.0-32.0-18.0","92305700","wem/bandit_party_2","A2V35L3RIRYYXV","either","8","1902","","","","","","","0","1","0","","0.8","0.5","0.5","0.5","0.5","0.8","0.2","0.6","0.2","","","","","","","","","","","","","","72","H","0","img/none_selected.jpg","true","0","full_practice",""
"","bandit","70","251135","0.0-32.0-19.0","92305700","wem/bandit_party_2","A2V35L3RIRYYXV","either","8","456","","","","","","","0","1","0","","0.8","0.5","0.5","0.5","0.5","0.8","0.2","0.6","0.2","","","","","","","","","","","","","","72","H","0","img/none_selected.jpg","true","0","full_practice",""
"","text","71","254411","0.0-33.0","92305700","wem/bandit_party_2","A2V35L3RIRYYXV","either","8","3261","","","32","","","","","","","","","","","","","","","","","","","","","","","","","","","","","","","","","","","","",""
"","text-replacement","72","268195","0.0-34.0","92305700","wem/bandit_party_2","A2V35L3RIRYYXV","either","8","12779","","","32","","","","","","","","","","","","","","","","","","","","","","","","","","","","","","","","","","","","",""
"","text-replacement","73","284870","0.0-35.0","92305700","wem/bandit_party_2","A2V35L3RIRYYXV","either","8","16671","","","32","","","","","","","","","","","","","","","","","","","","","","","","","","","","","","","","","","","","",""
"","text-replacement","74","288352","0.0-36.0","92305700","wem/bandit_party_2","A2V35L3RIRYYXV","either","8","3476","","","32","","","","","","","","","","","","","","","","","","","","","","","","","","","","","","","","","","","","",""
"","text-replacement","75","291746","0.0-37.0","92305700","wem/bandit_party_2","A2V35L3RIRYYXV","either","8","3389","","","32","","","","","","","","","","","","","","","","","","","","","","","","","","","","","","","","","","","","",""
"","text-replacement","76","298148","0.0-38.0","92305700","wem/bandit_party_2","A2V35L3RIRYYXV","either","8","6398","","","32","","","","","","","","","","","","","","","","","","","","","","","","","","","","","","","","","","","","",""
"","survey-multi-choice-replacement","77","303014","0.0-39.0-0.0","92305700","wem/bandit_party_2","A2V35L3RIRYYXV","either","8","4852","","","","","","","","","","","","","","","","","","","","","","","","Money will be added to the pool for <span style='color:red;'>REPUBLICANS</span>","","","","","","","attn_check","","","","","","","","","0"
"","survey-multi-choice-replacement","78","306911","0.0-40.0-0.0","92305700","wem/bandit_party_2","A2V35L3RIRYYXV","either","8","2882","","","","","","","","","","","","","","","","","","","","","","","","Equal amounts of money will be added to the pool for <span style='color:red;'>REPUBLICANS</span> and subtracted from the pool for <span style='color:blue;'>DEMOCRATS</span>","","","","","","","attn_check","","","","","","","","","2"
"","survey-multi-choice-replacement","79","310980","0.0-41.0-0.0","92305700","wem/bandit_party_2","A2V35L3RIRYYXV","either","8","3054","","","","","","","","","","","","","","","","","","","","","","","","No money will be added to either pool","","","","","","","attn_check","","","","","","","","","3"
"","bandit","80","315649","0.0-42.0-0.0","92305700","wem/bandit_party_2","A2V35L3RIRYYXV","either","8","2154","","","","","","","1","0","0","0.6337563202","","0.8","0.6","0.2","0.4","","","","","0.6337563202","0.2428949588","0.3040937467","0.4468950172","","","","","","","","","","72","H","0","img/none_selected.jpg","","1","main_expt",""
"","bandit","81","318070","0.0-43.0-0.0","92305700","wem/bandit_party_2","A2V35L3RIRYYXV","either","8","911","","","","","","","1","0","0","0.7380673114","","0.8","0.6","0.2","0.4","","","","","0.7380673114","0.248961424","0.2687625136","0.3846124694","","","","","","","","","","72","H","0","img/none_selected.jpg","","2","main_expt",""
"","bandit","82","320295","0.0-44.0-0.0","92305700","wem/bandit_party_2","A2V35L3RIRYYXV","either","8","716","","","","","","","0","1","0","","0.7715549737","0.8","0.6","0.2","0.4","0.7715549737","0.1878604038","0.3017919557","0.3885967974","","","","","","","","","","","","","","72","H","0","img/none_selected.jpg","","3","main_expt",""
"","bandit","83","322324","0.0-45.0-0.0","92305700","wem/bandit_party_2","A2V35L3RIRYYXV","either","8","517","","","","","","","1","0","0","0.8257013646","","0.8","0.6","0.2","0.4","","","","","0.8257013646","0.1194049449","0.3388517529","0.2891644394","","","","","","","","","","72","H","0","img/none_selected.jpg","","4","main_expt",""
"","bandit","84","324465","0.0-46.0-0.0","92305700","wem/bandit_party_2","A2V35L3RIRYYXV","either","8","630","","","","","","","1","0","0","0.8617886559","","0.8","0.6","0.2","0.4","","","","","0.8617886559","0.197046458","0.389096829","0.2654579937","","","","","","","","","","72","H","0","img/none_selected.jpg","","5","main_expt",""
"","bandit","85","326520","0.0-47.0-0.0","92305700","wem/bandit_party_2","A2V35L3RIRYYXV","either","8","545","","","","","","","0","0","1","","0.8452125903","0.8","0.6","0.2","0.4","0.8452125903","0.2312720201","0.4799636182","0.355160999","","","","","","","","","","","","","","72","H","0","img/none_selected.jpg","","6","main_expt",""
"","bandit","86","328772","0.0-48.0-0.0","92305700","wem/bandit_party_2","A2V35L3RIRYYXV","either","8","742","","","","","","","1","0","0","0.8765288384","","0.8","0.6","0.2","0.4","","","","","0.8765288384","0.3255591742","0.5316557606","0.4733904832","","","","","","","","","","72","H","0","img/none_selected.jpg","","7","main_expt",""
"","bandit","87","331000","0.0-49.0-0.0","92305700","wem/bandit_party_2","A2V35L3RIRYYXV","either","8","720","","","","","","","1","0","0","0.8625068071","","0.8","0.6","0.2","0.4","","","","","0.8625068071","0.163151729","0.4935712437","0.4900136729","","","","","","","","","","72","H","0","img/none_selected.jpg","","8","main_expt",""
"","bandit","88","332876","0.0-50.0-0.0","92305700","wem/bandit_party_2","A2V35L3RIRYYXV","either","8","367","","","","","","","0","1","0","","0.8385781597","0.8","0.6","0.2","0.4","0.8385781597","0.1671639775","0.5400450001","0.4543552171","","","","","","","","","","","","","","72","H","0","img/none_selected.jpg","","9","main_expt",""
"","bandit","89","334834","0.0-51.0-0.0","92305700","wem/bandit_party_2","A2V35L3RIRYYXV","either","8","443","","","","","","","0","0","1","0.833356221","","0.8","0.6","0.2","0.4","","","","","0.833356221","0.1315225434","0.6510952772","0.4523920981","","","","","","","","","","72","H","0","img/none_selected.jpg","","10","main_expt",""
"","bandit","90","336644","0.0-52.0-0.0","92305700","wem/bandit_party_2","A2V35L3RIRYYXV","either","8","302","","","","","","","1","0","0","0.9030756702","","0.8","0.6","0.2","0.4","","","","","0.9030756702","0.1287002637","0.6117649901","0.4053083118","","","","","","","","","","72","H","0","img/none_selected.jpg","","11","main_expt",""
"","bandit","91","338508","0.0-53.0-0.0","92305700","wem/bandit_party_2","A2V35L3RIRYYXV","either","8","353","","","","","","","0","1","0","","0.9129290363","0.8","0.6","0.2","0.4","0.9129290363","0.1026596936","0.6360746298","0.4059907931","","","","","","","","","","","","","","72","H","0","img/none_selected.jpg","","12","main_expt",""
"","bandit","92","340124","0.0-54.0-0.0","92305700","wem/bandit_party_2","A2V35L3RIRYYXV","either","8","108","","","","","","","1","0","0","0.8638417716","","0.8","0.6","0.2","0.4","","","","","0.8638417716","0.1287514256","0.5673960652","0.2934167972","","","","","","","","","","72","H","0","img/none_selected.jpg","","13","main_expt",""
"","bandit","93","343179","0.0-55.0-0.0","92305700","wem/bandit_party_2","A2V35L3RIRYYXV","either","8","1544","","","","","","","1","0","0","0.787806988","","0.8","0.6","0.2","0.4","","","","","0.787806988","0.1786171179","0.6747725803","0.3260927596","","","","","","","","","","72","H","0","img/none_selected.jpg","","14","main_expt",""
"","bandit","94","346278","0.0-56.0-0.0","92305700","wem/bandit_party_2","A2V35L3RIRYYXV","either","8","1588","","","","","","","0","1","0","","0.7254212376","0.8","0.6","0.2","0.4","0.7254212376","0.1459410532","0.6277188345","0.3355382734","","","","","","","","","","","","","","72","H","0","img/none_selected.jpg","","15","main_expt",""
"","bandit","95","347993","0.0-57.0-0.0","92305700","wem/bandit_party_2","A2V35L3RIRYYXV","either","8","205","","","","","","","0","0","1","0.7238415528","","0.8","0.6","0.2","0.4","","","","","0.7238415528","0.2255600906","0.5435568235","0.3040928121","","","","","","","","","","72","H","0","img/none_selected.jpg","","16","main_expt",""
"","bandit","96","350460","0.0-58.0-0.0","92305700","wem/bandit_party_2","A2V35L3RIRYYXV","either","8","956","","","","","","","0","0","1","0.7796243455","","0.8","0.6","0.2","0.4","","","","","0.7796243455","0.2052013943","0.4180161478","0.2730366263","","","","","","","","","","72","H","0","img/none_selected.jpg","","17","main_expt",""
"","bandit","97","352326","0.0-59.0-0.0","92305700","wem/bandit_party_2","A2V35L3RIRYYXV","either","8","354","","","","","","","0","0","1","0.1780354615","","0.8","0.6","0.2","0.4","","","","","0.6928902724","0.1780354615","0.4961111773","0.4105298721","","","","","","","","","","74","J","1","","","18","main_expt",""
"","bandit","98","354284","0.0-60.0-0.0","92305700","wem/bandit_party_2","A2V35L3RIRYYXV","either","8","449","","","","","","","0","0","1","","0.445530788","0.8","0.6","0.2","0.4","0.7658630901","0.1576496117","0.445530788","0.3586923344","","","","","","","","","","","","","","75","K","2","","","19","main_expt",""
"","bandit","99","356226","0.0-61.0-0.0","92305700","wem/bandit_party_2","A2V35L3RIRYYXV","either","8","433","","","","","","","0","0","1","","0.3220075653","0.8","0.6","0.2","0.4","0.7584200513","0.1618752313","0.3443163705","0.3220075653","","","","","","","","","","","","","","76","L","3","","","20","main_expt",""
"","bandit","100","358592","0.0-62.0-0.0","92305700","wem/bandit_party_2","A2V35L3RIRYYXV","either","8","855","","","","","","","0","0","1","0.7727038765","","0.8","0.6","0.2","0.4","","","","","0.7727038765","0.2152187387","0.3012808647","0.2729660799","","","","","","","","","","72","H","0","img/none_selected.jpg","","21","main_expt",""
"","bandit","101","360488","0.0-63.0-0.0","92305700","wem/bandit_party_2","A2V35L3RIRYYXV","either","8","386","","","","","","","0","0","1","","0.3547982299","0.8","0.6","0.2","0.4","0.8152565923","0.3547982299","0.2882062485","0.2712352107","","","","","","","","","","","","","","74","J","1","","","22","main_expt",""
"","bandit","102","362456","0.0-64.0-0.0","92305700","wem/bandit_party_2","A2V35L3RIRYYXV","either","8","458","","","","","","","0","0","1","0.2113421372","","0.8","0.6","0.2","0.4","","","","","0.7537075358","0.323805638","0.2113421372","0.3390855774","","","","","","","","","","75","K","2","","","23","main_expt",""
"","bandit","103","364730","0.0-65.0-0.0","92305700","wem/bandit_party_2","A2V35L3RIRYYXV","either","8","763","","","","","","","1","0","0","0.3483259141","","0.8","0.6","0.2","0.4","","","","","0.7108822858","0.3588909826","0.2201805416","0.3483259141","","","","","","","","","","76","L","3","","","24","main_expt",""
"","bandit","104","366731","0.0-66.0-0.0","92305700","wem/bandit_party_2","A2V35L3RIRYYXV","either","8","491","","","","","","","0","1","0","","0.3416976173","0.8","0.6","0.2","0.4","0.6930515954","0.3885553436","0.2580956466","0.3416976173","","","","","","","","","","","","","","76","L","3","","","25","main_expt",""
"","bandit","105","368858","0.0-67.0-0.0","92305700","wem/bandit_party_2","A2V35L3RIRYYXV","either","8","614","","","","","","","0","0","1","0.4243476322","","0.8","0.6","0.2","0.4","","","","","0.6905393417","0.4871556374","0.2153432854","0.4243476322","","","","","","","","","","76","L","3","","","26","main_expt",""
"","bandit","106","370593","0.0-68.0-0.0","92305700","wem/bandit_party_2","A2V35L3RIRYYXV","either","8","223","","","","","","","0","0","1","","0.5257754898","0.8","0.6","0.2","0.4","0.7531652131","0.4934119911","0.1727955236","0.5257754898","","","","","","","","","","","","","","76","L","3","","","27","main_expt",""
"","bandit","107","372179","0.0-69.0-0.0","92305700","wem/bandit_party_2","A2V35L3RIRYYXV","either","8","76","","","","","","","0","0","1","","0.5246232361","0.8","0.6","0.2","0.4","0.8001777041","0.4322092846","0.1894296703","0.5246232361","","","","","","","","","","","","","","76","L","3","","","28","main_expt",""
"","bandit","108","374271","0.0-70.0-0.0","92305700","wem/bandit_party_2","A2V35L3RIRYYXV","either","8","581","","","","","","","0","0","1","0.2128919211","","0.8","0.6","0.2","0.4","","","","","0.8118404327","0.3459113699","0.2128919211","0.375994784","","","","","","","","","","75","K","2","","","29","main_expt",""
"","bandit","109","376147","0.0-71.0-0.0","92305700","wem/bandit_party_2","A2V35L3RIRYYXV","either","8","363","","","","","","","0","0","1","0.280789843","","0.8","0.6","0.2","0.4","","","","","0.7839534503","0.280789843","0.206056468","0.2936890161","","","","","","","","","","74","J","1","","","30","main_expt",""
"","bandit","110","378150","0.0-72.0-0.0","92305700","wem/bandit_party_2","A2V35L3RIRYYXV","either","8","490","","","","","","","1","0","0","0.8066372971","","0.8","0.6","0.2","0.4","","","","","0.8066372971","0.2613810438","0.1725623241","0.2878812258","","","","","","","","","","72","H","0","img/none_selected.jpg","","31","main_expt",""
"","bandit","111","380176","0.0-73.0-0.0","92305700","wem/bandit_party_2","A2V35L3RIRYYXV","either","8","515","","","","","","","1","0","0","0.8049259064","","0.8","0.6","0.2","0.4","","","","","0.8049259064","0.3821585683","0.1629883914","0.2451492808","","","","","","","","","","72","H","0","img/none_selected.jpg","","32","main_expt",""
"","bandit","112","382393","0.0-74.0-0.0","92305700","wem/bandit_party_2","A2V35L3RIRYYXV","either","8","708","","","","","","","1","0","0","0.7891664673","","0.8","0.6","0.2","0.4","","","","","0.7891664673","0.2714925976","0.2107911223","0.2802113289","","","","","","","","","","72","H","0","img/none_selected.jpg","","33","main_expt",""
"","bandit","113","384509","0.0-75.0-0.0","92305700","wem/bandit_party_2","A2V35L3RIRYYXV","either","8","601","","","","","","","1","0","0","0.7854278051","","0.8","0.6","0.2","0.4","","","","","0.7854278051","0.2755575364","0.1025901997","0.2892342718","","","","","","","","","","72","H","0","img/none_selected.jpg","","34","main_expt",""
"","bandit","114","386924","0.0-76.0-0.0","92305700","wem/bandit_party_2","A2V35L3RIRYYXV","either","8","901","","","","","","","1","0","0","0.7260182018","","0.8","0.6","0.2","0.4","","","","","0.7260182018","0.2697856654","0.1289879153","0.2486893666","","","","","","","","","","72","H","0","img/none_selected.jpg","","35","main_expt",""
"","bandit","115","389120","0.0-77.0-0.0","92305700","wem/bandit_party_2","A2V35L3RIRYYXV","either","8","685","","","","","","","1","0","0","0.7910957192","","0.8","0.6","0.2","0.4","","","","","0.7910957192","0.2483646443","0.1645491317","0.3536408983","","","","","","","","","","72","H","0","img/none_selected.jpg","","36","main_expt",""
"","bandit","116","391411","0.0-78.0-0.0","92305700","wem/bandit_party_2","A2V35L3RIRYYXV","either","8","779","","","","","","","0","0","1","","0.7996551039","0.8","0.6","0.2","0.4","0.7996551039","0.2103950957","0.1698046746","0.2493566902","","","","","","","","","","","","","","72","H","0","img/none_selected.jpg","","37","main_expt",""
"","bandit","117","393363","0.0-79.0-0.0","92305700","wem/bandit_party_2","A2V35L3RIRYYXV","either","8","442","","","","","","","0","0","1","","0.2128944509","0.8","0.6","0.2","0.4","0.6717479894","0.2128944509","0.2281502886","0.2948354516","","","","","","","","","","","","","","74","J","1","","","38","main_expt",""
"","bandit","118","395253","0.0-80.0-0.0","92305700","wem/bandit_party_2","A2V35L3RIRYYXV","either","8","375","","","","","","","0","0","1","","0.1561271762","0.8","0.6","0.2","0.4","0.7121128808","0.2965153327","0.1561271762","0.3373274679","","","","","","","","","","","","","","75","K","2","","","39","main_expt",""
"","bandit","119","397108","0.0-81.0-0.0","92305700","wem/bandit_party_2","A2V35L3RIRYYXV","either","8","344","","","","","","","0","0","1","0.4138768052","","0.8","0.6","0.2","0.4","","","","","0.7157410044","0.4447532253","0.1543620621","0.4138768052","","","","","","","","","","76","L","3","","","40","main_expt",""
"","bandit","120","398907","0.0-82.0-0.0","92305700","wem/bandit_party_2","A2V35L3RIRYYXV","either","8","289","","","","","","","0","1","0","","0.438096834","0.8","0.6","0.2","0.4","0.681196038","0.5330008696","0.2271499981","0.438096834","","","","","","","","","","","","","","76","L","3","","","41","main_expt",""
"","bandit","121","401026","0.0-83.0-0.0","92305700","wem/bandit_party_2","A2V35L3RIRYYXV","either","8","609","","","","","","","0","0","1","","0.4185173612","0.8","0.6","0.2","0.4","0.6504320647","0.573861049","0.2882452936","0.4185173612","","","","","","","","","","","","","","76","L","3","","","42","main_expt",""
"","bandit","122","402869","0.0-84.0-0.0","92305700","wem/bandit_party_2","A2V35L3RIRYYXV","either","8","332","","","","","","","0","1","0","","0.3796335567","0.8","0.6","0.2","0.4","0.7369830744","0.6654349765","0.298522686","0.3796335567","","","","","","","","","","","","","","76","L","3","","","43","main_expt",""
"","bandit","123","404817","0.0-85.0-0.0","92305700","wem/bandit_party_2","A2V35L3RIRYYXV","either","8","438","","","","","","","0","0","1","","0.31766129","0.8","0.6","0.2","0.4","0.6797935378","0.691198465","0.3188886026","0.31766129","","","","","","","","","","","","","","76","L","3","","","44","main_expt",""
"","bandit","124","406850","0.0-86.0-0.0","92305700","wem/bandit_party_2","A2V35L3RIRYYXV","either","8","521","","","","","","","0","0","1","0.4047397141","","0.8","0.6","0.2","0.4","","","","","0.6507473666","0.7652674903","0.2705760174","0.4047397141","","","","","","","","","","76","L","3","","","45","main_expt",""
"","bandit","125","408933","0.0-87.0-0.0","92305700","wem/bandit_party_2","A2V35L3RIRYYXV","either","8","573","","","","","","","1","0","0","0.6334510787","","0.8","0.6","0.2","0.4","","","","","0.6334510787","0.8065230058","0.2506880939","0.4961613307","","","","","","","","","","72","H","0","img/none_selected.jpg","","46","main_expt",""
"","bandit","126","410984","0.0-88.0-0.0","92305700","wem/bandit_party_2","A2V35L3RIRYYXV","either","8","539","","","","","","","0","0","1","0.6143175143","","0.8","0.6","0.2","0.4","","","","","0.6143175143","0.7774474893","0.2491585872","0.4624468315","","","","","","","","","","72","H","0","img/none_selected.jpg","","47","main_expt",""
"","bandit","127","412792","0.0-89.0-0.0","92305700","wem/bandit_party_2","A2V35L3RIRYYXV","either","8","297","","","","","","","0","1","0","","0.6404512611","0.8","0.6","0.2","0.4","0.6404512611","0.7693176975","0.1997021219","0.4886537242","","","","","","","","","","","","","","72","H","0","img/none_selected.jpg","","48","main_expt",""
"","bandit","128","414820","0.0-90.0-0.0","92305700","wem/bandit_party_2","A2V35L3RIRYYXV","either","8","518","","","","","","","1","0","0","0.6758621215","","0.8","0.6","0.2","0.4","","","","","0.6758621215","0.807419373","0.2119577724","0.4270302022","","","","","","","","","","72","H","0","img/none_selected.jpg","","49","main_expt",""
"","bandit","129","416948","0.0-91.0-0.0","92305700","wem/bandit_party_2","A2V35L3RIRYYXV","either","8","617","","","","","","","0","0","1","0.6873234502","","0.8","0.6","0.2","0.4","","","","","0.6873234502","0.8562769227","0.2615271711","0.5151345658","","","","","","","","","","72","H","0","img/none_selected.jpg","","50","main_expt",""
"","bandit","130","418969","0.0-92.0-0.0","92305700","wem/bandit_party_2","A2V35L3RIRYYXV","either","8","507","","","","","","","0","1","0","","0.5134524181","0.8","0.6","0.2","0.4","0.7776044395","0.8705114925","0.2764427577","0.5134524181","","","","","","","","","","","","","","76","L","3","","","51","main_expt",""
"","bandit","131","421308","0.0-93.0-0.0","92305700","wem/bandit_party_2","A2V35L3RIRYYXV","either","8","827","","","","","","","0","1","0","","0.4842684999","0.8","0.6","0.2","0.4","0.8403410939","0.9310361031","0.3833776697","0.4842684999","","","","","","","","","","","","","","76","L","3","","","52","main_expt",""
"","bandit","132","423474","0.0-94.0-0.0","92305700","wem/bandit_party_2","A2V35L3RIRYYXV","either","8","655","","","","","","","0","1","0","","0.4412850773","0.8","0.6","0.2","0.4","0.8151983534","0.905794742","0.4356502318","0.4412850773","","","","","","","","","","","","","","76","L","3","","","53","main_expt",""
"","bandit","133","425618","0.0-95.0-0.0","92305700","wem/bandit_party_2","A2V35L3RIRYYXV","either","8","631","","","","","","","0","0","1","0.4397693946","","0.8","0.6","0.2","0.4","","","","","0.8081222638","0.9391541593","0.4120588364","0.4397693946","","","","","","","","","","76","L","3","","","54","main_expt",""
"","bandit","134","427478","0.0-96.0-0.0","92305700","wem/bandit_party_2","A2V35L3RIRYYXV","either","8","346","","","","","","","1","0","0","0.742009976","","0.8","0.6","0.2","0.4","","","","","0.742009976","0.9596285882","0.2714296105","0.3928202278","","","","","","","","","","72","H","0","img/none_selected.jpg","","55","main_expt",""
"","bandit","135","429417","0.0-97.0-0.0","92305700","wem/bandit_party_2","A2V35L3RIRYYXV","either","8","427","","","","","","","0","1","0","","0.7065076074","0.8","0.6","0.2","0.4","0.7065076074","0.9565658233","0.2122311877","0.4593665993","","","","","","","","","","","","","","72","H","0","img/none_selected.jpg","","56","main_expt",""
"","bandit","136","431419","0.0-98.0-0.0","92305700","wem/bandit_party_2","A2V35L3RIRYYXV","either","8","490","","","","","","","0","0","1","","0.6860695476","0.8","0.6","0.2","0.4","0.6860695476","0.9681540372","0.2282278588","0.4006145211","","","","","","","","","","","","","","72","H","0","img/none_selected.jpg","","57","main_expt",""
"","bandit","137","433292","0.0-99.0-0.0","92305700","wem/bandit_party_2","A2V35L3RIRYYXV","either","8","359","","","","","","","1","0","0","0.4597890412","","0.8","0.6","0.2","0.4","","","","","0.742301155","0.9207083952","0.1392076118","0.4597890412","","","","","","","","","","76","L","3","","","58","main_expt",""
"","bandit","138","435132","0.0-100.0-0.0","92305700","wem/bandit_party_2","A2V35L3RIRYYXV","either","8","327","","","","","","","0","0","1","0.4232266093","","0.8","0.6","0.2","0.4","","","","","0.5291004622","0.9178227258","0.1706239206","0.4232266093","","","","","","","","","","76","L","3","","","59","main_expt",""
"","bandit","139","436830","0.0-101.0-0.0","92305700","wem/bandit_party_2","A2V35L3RIRYYXV","either","8","188","","","","","","","1","0","0","0.3565880291","","0.8","0.6","0.2","0.4","","","","","0.6348838793","0.8951285427","0.1674269281","0.3565880291","","","","","","","","","","76","L","3","","","60","main_expt",""
"","bandit","140","438406","0.0-102.0-0.0","92305700","wem/bandit_party_2","A2V35L3RIRYYXV","either","8","62","","","","","","","0","1","0","","0.3663276413","0.8","0.6","0.2","0.4","0.6796423313","0.8506814954","0.2182313474","0.3663276413","","","","","","","","","","","","","","76","L","3","","","61","main_expt",""
"","bandit","141","440163","0.0-103.0-0.0","92305700","wem/bandit_party_2","A2V35L3RIRYYXV","either","8","245","","","","","","","1","0","0","0.3193005293","","0.8","0.6","0.2","0.4","","","","","0.6928172916","0.8513854559","0.2949218256","0.3193005293","","","","","","","","","","76","L","3","","","62","main_expt",""
"","bandit","142","441996","0.0-104.0-0.0","92305700","wem/bandit_party_2","A2V35L3RIRYYXV","either","8","321","","","","","","","0","1","0","","0.1562068481","0.8","0.6","0.2","0.4","0.6996506825","0.8927579502","0.3170222383","0.1562068481","","","","","","","","","","","","","","76","L","3","","","63","main_expt",""
"","bandit","143","443730","0.0-105.0-0.0","92305700","wem/bandit_party_2","A2V35L3RIRYYXV","either","8","224","","","","","","","0","0","1","0.2300477965","","0.8","0.6","0.2","0.4","","","","","0.7294442249","0.9217936765","0.3033511374","0.2300477965","","","","","","","","","","76","L","3","","","64","main_expt",""
"","bandit","144","445406","0.0-106.0-0.0","92305700","wem/bandit_party_2","A2V35L3RIRYYXV","either","8","161","","","","","","","1","0","0","0.6605354899","","0.8","0.6","0.2","0.4","","","","","0.6605354899","0.9357047413","0.3973690147","0.2869838185","","","","","","","","","","72","H","0","img/none_selected.jpg","","65","main_expt",""
"","bandit","145","447249","0.0-107.0-0.0","92305700","wem/bandit_party_2","A2V35L3RIRYYXV","either","8","331","","","","","","","0","1","0","","0.6959621059","0.8","0.6","0.2","0.4","0.6959621059","0.910343843","0.4320294497","0.3287476356","","","","","","","","","","","","","","72","H","0","img/none_selected.jpg","","66","main_expt",""
"","bandit","146","449119","0.0-108.0-0.0","92305700","wem/bandit_party_2","A2V35L3RIRYYXV","either","8","357","","","","","","","1","0","0","0.653899752","","0.8","0.6","0.2","0.4","","","","","0.653899752","0.9022080512","0.3208465419","0.3018365728","","","","","","","","","","72","H","0","img/none_selected.jpg","","67","main_expt",""
"","bandit","147","451589","0.0-109.0-0.0","92305700","wem/bandit_party_2","A2V35L3RIRYYXV","either","8","958","","","","","","","1","0","0","0.6517851336","","0.8","0.6","0.2","0.4","","","","","0.6517851336","0.8492414063","0.3570730799","0.3208616414","","","","","","","","","","72","H","0","img/none_selected.jpg","","68","main_expt",""
"","bandit","148","453653","0.0-110.0-0.0","92305700","wem/bandit_party_2","A2V35L3RIRYYXV","either","8","553","","","","","","","1","0","0","0.7011615004","","0.8","0.6","0.2","0.4","","","","","0.7011615004","0.768219052","0.3451514791","0.386863802","","","","","","","","","","72","H","0","img/none_selected.jpg","","69","main_expt",""
"","bandit","149","455675","0.0-111.0-0.0","92305700","wem/bandit_party_2","A2V35L3RIRYYXV","either","8","511","","","","","","","1","0","0","0.6278947594","","0.8","0.6","0.2","0.4","","","","","0.6278947594","0.7996218848","0.3127714871","0.3628244161","","","","","","","","","","72","H","0","img/none_selected.jpg","","70","main_expt",""
"","bandit","150","457654","0.0-112.0-0.0","92305700","wem/bandit_party_2","A2V35L3RIRYYXV","either","8","467","","","","","","","1","0","0","0.688517509","","0.8","0.6","0.2","0.4","","","","","0.688517509","0.9130189757","0.3855297895","0.2969295023","","","","","","","","","","72","H","0","img/none_selected.jpg","","71","main_expt",""
"","bandit","151","459700","0.0-113.0-0.0","92305700","wem/bandit_party_2","A2V35L3RIRYYXV","either","8","533","","","","","","","1","0","0","0.6125440106","","0.8","0.6","0.2","0.4","","","","","0.6125440106","0.9016843832","0.3555010044","0.3512325323","","","","","","","","","","72","H","0","img/none_selected.jpg","","72","main_expt",""
"","bandit","152","462613","0.0-114.0-0.0","92305700","wem/bandit_party_2","A2V35L3RIRYYXV","either","8","1402","","","","","","","0","0","1","","0.4884410468","0.8","0.6","0.2","0.4","0.4884410468","0.9166584401","0.3278360739","0.3845321254","","","","","","","","","","","","","","72","H","0","img/none_selected.jpg","","73","main_expt",""
"","bandit","153","464519","0.0-115.0-0.0","92305700","wem/bandit_party_2","A2V35L3RIRYYXV","either","8","393","","","","","","","0","0","1","","0.3760614253","0.8","0.6","0.2","0.4","0.5800760741","0.8699410266","0.3275161349","0.3760614253","","","","","","","","","","","","","","76","L","3","","","74","main_expt",""
"","bandit","154","466519","0.0-116.0-0.0","92305700","wem/bandit_party_2","A2V35L3RIRYYXV","either","8","489","","","","","","","0","0","1","0.370831352","","0.8","0.6","0.2","0.4","","","","","0.6614390465","0.8192171788","0.3454333807","0.370831352","","","","","","","","","","76","L","3","","","75","main_expt",""
"","bandit","155","468558","0.0-117.0-0.0","92305700","wem/bandit_party_2","A2V35L3RIRYYXV","either","8","526","","","","","","","0","1","0","","0.4213924804","0.8","0.6","0.2","0.4","0.6861570843","0.8990587115","0.4213924804","0.4008199491","","","","","","","","","","","","","","75","K","2","","","76","main_expt",""
"","bandit","156","470735","0.0-118.0-0.0","92305700","wem/bandit_party_2","A2V35L3RIRYYXV","either","8","661","","","","","","","0","0","1","","0.439510692","0.8","0.6","0.2","0.4","0.5980737028","0.9062137116","0.439510692","0.3928984844","","","","","","","","","","","","","","75","K","2","","","77","main_expt",""
"","bandit","157","472806","0.0-119.0-0.0","92305700","wem/bandit_party_2","A2V35L3RIRYYXV","either","8","557","","","","","","","0","0","1","","0.4419424199","0.8","0.6","0.2","0.4","0.6754083514","0.9215914722","0.4419424199","0.4709058574","","","","","","","","","","","","","","75","K","2","","","78","main_expt",""
"","bandit","158","474742","0.0-120.0-0.0","92305700","wem/bandit_party_2","A2V35L3RIRYYXV","either","8","424","","","","","","","0","0","1","","0.5056762283","0.8","0.6","0.2","0.4","0.7012934339","0.895443078","0.5056762283","0.4971614577","","","","","","","","","","","","","","75","K","2","","","79","main_expt",""
"","bandit","159","476618","0.0-121.0-0.0","92305700","wem/bandit_party_2","A2V35L3RIRYYXV","either","8","365","","","","","","","0","0","1","0.7789772955","","0.8","0.6","0.2","0.4","","","","","0.7067798052","0.7789772955","0.4558190996","0.4828267768","","","","","","","","","","74","J","1","","","80","main_expt",""
"","bandit","160","478598","0.0-122.0-0.0","92305700","wem/bandit_party_2","A2V35L3RIRYYXV","either","8","467","","","","","","","1","0","0","0.755426824","","0.8","0.6","0.2","0.4","","","","","0.7259433061","0.755426824","0.4774921548","0.4280570329","","","","","","","","","","74","J","1","","","81","main_expt",""
"","bandit","161","480564","0.0-123.0-0.0","92305700","wem/bandit_party_2","A2V35L3RIRYYXV","either","8","453","","","","","","","0","0","1","","0.8356426425","0.8","0.6","0.2","0.4","0.7022130872","0.8356426425","0.3611036613","0.486136241","","","","","","","","","","","","","","74","J","1","","","82","main_expt",""
"","bandit","162","482570","0.0-124.0-0.0","92305700","wem/bandit_party_2","A2V35L3RIRYYXV","either","8","492","","","","","","","1","0","0","0.8783145762","","0.8","0.6","0.2","0.4","","","","","0.75927227","0.8783145762","0.3341354767","0.3539143083","","","","","","","","","","74","J","1","","","83","main_expt",""
"","bandit","163","484353","0.0-125.0-0.0","92305700","wem/bandit_party_2","A2V35L3RIRYYXV","either","8","269","","","","","","","1","0","0","0.9087743635","","0.8","0.6","0.2","0.4","","","","","0.8556046088","0.9087743635","0.288479151","0.374811954","","","","","","","","","","74","J","1","","","84","main_expt",""
"","bandit","164","486503","0.0-126.0-0.0","92305700","wem/bandit_party_2","A2V35L3RIRYYXV","either","8","639","","","","","","","0","1","0","","0.8632011641","0.8","0.6","0.2","0.4","0.7835234447","0.8632011641","0.3061923995","0.4518264681","","","","","","","","","","","","","","74","J","1","","","85","main_expt",""
"","bandit","165","489019","0.0-127.0-0.0","92305700","wem/bandit_party_2","A2V35L3RIRYYXV","either","8","1005","","","","","","","1","0","0","0.8341253046","","0.8","0.6","0.2","0.4","","","","","0.7037548709","0.8341253046","0.3370204437","0.461936863","","","","","","","","","","74","J","1","","","86","main_expt",""
"","bandit","166","491820","0.0-128.0-0.0","92305700","wem/bandit_party_2","A2V35L3RIRYYXV","either","8","1289","","","","","","","0","1","0","","0.8728746981","0.8","0.6","0.2","0.4","0.6903674631","0.8728746981","0.3900809043","0.3681660755","","","","","","","","","","","","","","74","J","1","","","87","main_expt",""
"","bandit","167","494188","0.0-129.0-0.0","92305700","wem/bandit_party_2","A2V35L3RIRYYXV","either","8","859","","","","","","","1","0","0","0.8408980459","","0.8","0.6","0.2","0.4","","","","","0.5883284312","0.8408980459","0.4296615172","0.3788462328","","","","","","","","","","74","J","1","","","88","main_expt",""
"","bandit","168","496576","0.0-130.0-0.0","92305700","wem/bandit_party_2","A2V35L3RIRYYXV","either","8","876","","","","","","","0","1","0","","0.8585781628","0.8","0.6","0.2","0.4","0.5258490985","0.8585781628","0.4636560077","0.3316952272","","","","","","","","","","","","","","74","J","1","","","89","main_expt",""
"","bandit","169","498973","0.0-131.0-0.0","92305700","wem/bandit_party_2","A2V35L3RIRYYXV","either","8","883","","","","","","","1","0","0","0.925840658","","0.8","0.6","0.2","0.4","","","","","0.6395041767","0.925840658","0.4463585346","0.438068917","","","","","","","","","","74","J","1","","","90","main_expt",""
"","bandit","170","501369","0.0-132.0-0.0","92305700","wem/bandit_party_2","A2V35L3RIRYYXV","either","8","880","","","","","","","0","1","0","","0.9201841885","0.8","0.6","0.2","0.4","0.6931091445","0.9201841885","0.4734463503","0.5158843935","","","","","","","","","","","","","","74","J","1","","","91","main_expt",""
"","bandit","171","503435","0.0-133.0-0.0","92305700","wem/bandit_party_2","A2V35L3RIRYYXV","either","8","548","","","","","","","0","1","0","","0.8508076908","0.8","0.6","0.2","0.4","0.6725373887","0.8508076908","0.5248255385","0.5182757575","","","","","","","","","","","","","","74","J","1","","","92","main_expt",""
"","bandit","172","505503","0.0-134.0-0.0","92305700","wem/bandit_party_2","A2V35L3RIRYYXV","either","8","555","","","","","","","0","1","0","","0.8106711147","0.8","0.6","0.2","0.4","0.7388835399","0.8106711147","0.3386726181","0.5498130742","","","","","","","","","","","","","","74","J","1","","","93","main_expt",""
"","bandit","173","507537","0.0-135.0-0.0","92305700","wem/bandit_party_2","A2V35L3RIRYYXV","either","8","518","","","","","","","1","0","0","0.8543263914","","0.8","0.6","0.2","0.4","","","","","0.697373586","0.8543263914","0.3718894848","0.6049407638","","","","","","","","","","74","J","1","","","94","main_expt",""
"","bandit","174","509287","0.0-136.0-0.0","92305700","wem/bandit_party_2","A2V35L3RIRYYXV","either","8","238","","","","","","","1","0","0","0.8387782901","","0.8","0.6","0.2","0.4","","","","","0.7550322224","0.8387782901","0.4005278521","0.6604115927","","","","","","","","","","74","J","1","","","95","main_expt",""
"","bandit","175","511397","0.0-137.0-0.0","92305700","wem/bandit_party_2","A2V35L3RIRYYXV","either","8","598","","","","","","","0","1","0","","0.8208071174","0.8","0.6","0.2","0.4","0.6576962358","0.8208071174","0.3694595514","0.7003847986","","","","","","","","","","","","","","74","J","1","","","96","main_expt",""
"","bandit","176","514265","0.0-138.0-0.0","92305700","wem/bandit_party_2","A2V35L3RIRYYXV","either","8","1354","","","","","","","0","1","0","","0.765358829","0.8","0.6","0.2","0.4","0.6802484638","0.765358829","0.3186037095","0.6793148949","","","","","","","","","","","","","","74","J","1","","","97","main_expt",""
"","bandit","177","517357","0.0-139.0-0.0","92305700","wem/bandit_party_2","A2V35L3RIRYYXV","either","8","1580","","","","","","","1","0","0","0.7823463211","","0.8","0.6","0.2","0.4","","","","","0.7042077447","0.7823463211","0.2786717818","0.6204607354","","","","","","","","","","74","J","1","","","98","main_expt",""
"","bandit","178","521386","0.0-140.0-0.0","92305700","wem/bandit_party_2","A2V35L3RIRYYXV","either","8","2513","","","","","","","1","0","0","0.7523003034","","0.8","0.6","0.2","0.4","","","","","0.7355617892","0.7523003034","0.32929866","0.6166262367","","","","","","","","","","74","J","1","","","99","main_expt",""
"","bandit","179","524409","0.0-141.0-0.0","92305700","wem/bandit_party_2","A2V35L3RIRYYXV","either","8","1513","","","","","","","0","0","1","","0.7174790615","0.8","0.6","0.2","0.4","0.7117411671","0.7174790615","0.3115323478","0.5347115766","","","","","","","","","","","","","","74","J","1","","","100","main_expt",""
"","bandit","180","526372","0.0-142.0-0.0","92305700","wem/bandit_party_2","A2V35L3RIRYYXV","either","8","446","","","","","","","1","0","0","0.7263903312","","0.8","0.6","0.2","0.4","","","","","0.7263903312","0.7660578318","0.4221749579","0.3418016043","","","","","","","","","","72","H","0","img/none_selected.jpg","","101","main_expt",""
"","bandit","181","528755","0.0-143.0-0.0","92305700","wem/bandit_party_2","A2V35L3RIRYYXV","either","8","867","","","","","","","0","1","0","","0.7357346189","0.8","0.6","0.2","0.4","0.7357346189","0.7201180075","0.2718078598","0.2550922237","","","","","","","","","","","","","","72","H","0","img/none_selected.jpg","","102","main_expt",""
"","bandit","182","530861","0.0-144.0-0.0","92305700","wem/bandit_party_2","A2V35L3RIRYYXV","either","8","592","","","","","","","0","0","1","0.7026134783","","0.8","0.6","0.2","0.4","","","","","0.7026134783","0.8452780714","0.3011307106","0.3181696353","","","","","","","","","","72","H","0","img/none_selected.jpg","","103","main_expt",""
"","bandit","183","535959","0.0-145.0-0.0","92305700","wem/bandit_party_2","A2V35L3RIRYYXV","either","8","3583","","","","","","","1","0","0","0.8073666152","","0.8","0.6","0.2","0.4","","","","","0.8073666152","0.7236924273","0.3659291838","0.3383579412","","","","","","","","","","72","H","0","img/none_selected.jpg","","104","main_expt",""
"","bandit","184","538718","0.0-146.0-0.0","92305700","wem/bandit_party_2","A2V35L3RIRYYXV","either","8","1244","","","","","","","1","0","0","0.824483439","","0.8","0.6","0.2","0.4","","","","","0.824483439","0.743719778","0.3499435223","0.2354673658","","","","","","","","","","72","H","0","img/none_selected.jpg","","105","main_expt",""
"","bandit","185","542369","0.0-147.0-0.0","92305700","wem/bandit_party_2","A2V35L3RIRYYXV","either","8","2139","","","","","","","1","0","0","0.9208810438","","0.8","0.6","0.2","0.4","","","","","0.9208810438","0.7985687284","0.3602262465","0.159398249","","","","","","","","","","72","H","0","img/none_selected.jpg","","106","main_expt",""
"","bandit","186","545993","0.0-148.0-0.0","92305700","wem/bandit_party_2","A2V35L3RIRYYXV","either","8","2109","","","","","","","1","0","0","0.8911910097","","0.8","0.6","0.2","0.4","","","","","0.8911910097","0.799345197","0.3252215163","0.1295169146","","","","","","","","","","72","H","0","img/none_selected.jpg","","107","main_expt",""
"","bandit","187","548825","0.0-149.0-0.0","92305700","wem/bandit_party_2","A2V35L3RIRYYXV","either","8","1318","","","","","","","1","0","0","0.8450149587","","0.8","0.6","0.2","0.4","","","","","0.8450149587","0.8681690713","0.2812406992","0.07754053308","","","","","","","","","","72","H","0","img/none_selected.jpg","","108","main_expt",""
"","bandit","188","552696","0.0-150.0-0.0","92305700","wem/bandit_party_2","A2V35L3RIRYYXV","either","8","2355","","","","","","","0","1","0","","0.868327257","0.8","0.6","0.2","0.4","0.868327257","0.8556732204","0.2559497519","0.06591215473","","","","","","","","","","","","","","72","H","0","img/none_selected.jpg","","109","main_expt",""
"","bandit","189","555851","0.0-151.0-0.0","92305700","wem/bandit_party_2","A2V35L3RIRYYXV","either","8","1643","","","","","","","1","0","0","0.8868335222","","0.8","0.6","0.2","0.4","","","","","0.8868335222","0.8669893864","0.2817400418","0.1189546392","","","","","","","","","","72","H","0","img/none_selected.jpg","","110","main_expt",""
"","bandit","190","559207","0.0-152.0-0.0","92305700","wem/bandit_party_2","A2V35L3RIRYYXV","either","8","1835","","","","","","","1","0","0","0.8770728171","","0.8","0.6","0.2","0.4","","","","","0.8770728171","0.799383849","0.2773620367","0.09523351692","","","","","","","","","","72","H","0","img/none_selected.jpg","","111","main_expt",""
"","bandit","191","563728","0.0-153.0-0.0","92305700","wem/bandit_party_2","A2V35L3RIRYYXV","either","8","3008","","","","","","","1","0","0","0.8481710002","","0.8","0.6","0.2","0.4","","","","","0.8481710002","0.859799476","0.2833316415","0.107489667","","","","","","","","","","72","H","0","img/none_selected.jpg","","112","main_expt",""
"","bandit","192","570909","0.0-154.0-0.0","92305700","wem/bandit_party_2","A2V35L3RIRYYXV","either","8","5667","","","","","","","1","0","0","0.8573528835","","0.8","0.6","0.2","0.4","","","","","0.8573528835","0.7932436089","0.3433702059","0.1026187258","","","","","","","","","","72","H","0","img/none_selected.jpg","","113","main_expt",""
"","bandit","193","577689","0.0-155.0-0.0","92305700","wem/bandit_party_2","A2V35L3RIRYYXV","either","8","5265","","","","","","","0","0","1","","0.8291807482","0.8","0.6","0.2","0.4","0.8291807482","0.849407262","0.4828882278","0.1044839951","","","","","","","","","","","","","","72","H","0","img/none_selected.jpg","","114","main_expt",""
"","bandit","194","580178","0.0-156.0-0.0","92305700","wem/bandit_party_2","A2V35L3RIRYYXV","either","8","975","","","","","","","0","1","0","","0.8882716547","0.8","0.6","0.2","0.4","0.761972944","0.8882716547","0.54932579","0.1213931844","","","","","","","","","","","","","","74","J","1","","","115","main_expt",""
"","bandit","195","582341","0.0-157.0-0.0","92305700","wem/bandit_party_2","A2V35L3RIRYYXV","either","8","648","","","","","","","0","0","1","","0.8741354715","0.8","0.6","0.2","0.4","0.786197192","0.8741354715","0.6971345968","0.1184144227","","","","","","","","","","","","","","74","J","1","","","116","main_expt",""
"","bandit","196","584283","0.0-158.0-0.0","92305700","wem/bandit_party_2","A2V35L3RIRYYXV","either","8","429","","","","","","","1","0","0","0.8083823922","","0.8","0.6","0.2","0.4","","","","","0.7834453561","0.8083823922","0.5396272374","0.1983931569","","","","","","","","","","74","J","1","","","117","main_expt",""
"","bandit","197","586450","0.0-159.0-0.0","92305700","wem/bandit_party_2","A2V35L3RIRYYXV","either","8","643","","","","","","","0","1","0","","0.868525306","0.8","0.6","0.2","0.4","0.6742380839","0.868525306","0.5544567993","0.2840039584","","","","","","","","","","","","","","74","J","1","","","118","main_expt",""
"","bandit","198","588829","0.0-160.0-0.0","92305700","wem/bandit_party_2","A2V35L3RIRYYXV","either","8","867","","","","","","","1","0","0","0.8386471998","","0.8","0.6","0.2","0.4","","","","","0.7350700153","0.8386471998","0.5504896642","0.3563325119","","","","","","","","","","74","J","1","","","119","main_expt",""
"","bandit","199","591242","0.0-161.0-0.0","92305700","wem/bandit_party_2","A2V35L3RIRYYXV","either","8","895","","","","","","","1","0","0","0.8103559508","","0.8","0.6","0.2","0.4","","","","","0.70601835","0.8103559508","0.5812137135","0.5682387565","","","","","","","","","","74","J","1","","","120","main_expt",""
"","bandit","200","593140","0.0-162.0-0.0","92305700","wem/bandit_party_2","A2V35L3RIRYYXV","either","8","384","","","","","","","0","0","1","","0.8193015173","0.8","0.6","0.2","0.4","0.7347719752","0.8193015173","0.6033058466","0.5189107771","","","","","","","","","","","","","","74","J","1","","","121","main_expt",""
"","bandit","201","597365","0.0-163.0-0.0","92305700","wem/bandit_party_2","A2V35L3RIRYYXV","either","8","2710","","","","","","","0","1","0","","0.8025146027","0.8","0.6","0.2","0.4","0.8270923978","0.8025146027","0.6102220397","0.4428493372","","","","","","","","","","","","","","74","J","1","","","122","main_expt",""
"","bandit","202","600660","0.0-164.0-0.0","92305700","wem/bandit_party_2","A2V35L3RIRYYXV","either","8","1780","","","","","","","1","0","0","0.8121847492","","0.8","0.6","0.2","0.4","","","","","0.7980631313","0.8121847492","0.6108151959","0.472724465","","","","","","","","","","74","J","1","","","123","main_expt",""
"","bandit","203","603287","0.0-165.0-0.0","92305700","wem/bandit_party_2","A2V35L3RIRYYXV","either","8","1112","","","","","","","1","0","0","0.8299418439","","0.8","0.6","0.2","0.4","","","","","0.7369852887","0.8299418439","0.7117385939","0.4799585558","","","","","","","","","","74","J","1","","","124","main_expt",""
"","bandit","204","609221","0.0-166.0-0.0","92305700","wem/bandit_party_2","A2V35L3RIRYYXV","either","8","4418","","","","","","","0","1","0","","0.825688343","0.8","0.6","0.2","0.4","0.7465944313","0.825688343","0.7554186078","0.5080184993","","","","","","","","","","","","","","74","J","1","","","125","main_expt",""
"","bandit","205","611318","0.0-167.0-0.0","92305700","wem/bandit_party_2","A2V35L3RIRYYXV","either","8","579","","","","","","","0","1","0","","0.8372054396","0.8","0.6","0.2","0.4","0.7596834852","0.8372054396","0.8855751833","0.4555098289","","","","","","","","","","","","","","74","J","1","","","126","main_expt",""
"","bandit","206","617037","0.0-168.0-0.0","92305700","wem/bandit_party_2","A2V35L3RIRYYXV","either","8","4203","","","","","","","0","0","1","","0.7906689898","0.8","0.6","0.2","0.4","0.7398299979","0.7906689898","0.8003015049","0.5475411796","","","","","","","","","","","","","","74","J","1","","","127","main_expt",""
"","bandit","207","619140","0.0-169.0-0.0","92305700","wem/bandit_party_2","A2V35L3RIRYYXV","either","8","587","","","","","","","0","1","0","","0.8403113951","0.8","0.6","0.2","0.4","0.7764866849","0.8008571507","0.8403113951","0.612647382","","","","","","","","","","","","","","75","K","2","","","128","main_expt",""
"","bandit","208","621639","0.0-170.0-0.0","92305700","wem/bandit_party_2","A2V35L3RIRYYXV","either","8","982","","","","","","","0","1","0","","0.8826872071","0.8","0.6","0.2","0.4","0.6435675963","0.7829297973","0.8826872071","0.7128970287","","","","","","","","","","","","","","75","K","2","","","129","main_expt",""
"","bandit","209","625478","0.0-171.0-0.0","92305700","wem/bandit_party_2","A2V35L3RIRYYXV","either","8","2323","","","","","","","0","1","0","","0.8641000085","0.8","0.6","0.2","0.4","0.7030252038","0.6898445721","0.8641000085","0.7309911721","","","","","","","","","","","","","","75","K","2","","","130","main_expt",""
"","bandit","210","629560","0.0-172.0-0.0","92305700","wem/bandit_party_2","A2V35L3RIRYYXV","either","8","2568","","","","","","","1","0","0","0.8752037592","","0.8","0.6","0.2","0.4","","","","","0.6829232191","0.5864867529","0.8752037592","0.73180147","","","","","","","","","","75","K","2","","","131","main_expt",""
"","bandit","211","632479","0.0-173.0-0.0","92305700","wem/bandit_party_2","A2V35L3RIRYYXV","either","8","1402","","","","","","","0","1","0","","0.8279556795","0.8","0.6","0.2","0.4","0.7406452387","0.560122833","0.8279556795","0.8467134838","","","","","","","","","","","","","","75","K","2","","","132","main_expt",""
"","bandit","212","636016","0.0-174.0-0.0","92305700","wem/bandit_party_2","A2V35L3RIRYYXV","either","8","2024","","","","","","","0","1","0","","0.8194722428","0.8","0.6","0.2","0.4","0.6666234363","0.48439517","0.8194722428","0.8481264083","","","","","","","","","","","","","","75","K","2","","","133","main_expt",""
"","bandit","213","639271","0.0-175.0-0.0","92305700","wem/bandit_party_2","A2V35L3RIRYYXV","either","8","1739","","","","","","","0","1","0","","0.8037084922","0.8","0.6","0.2","0.4","0.680542061","0.3919863126","0.8037084922","0.8771050955","","","","","","","","","","","","","","75","K","2","","","134","main_expt",""
"","bandit","214","641707","0.0-176.0-0.0","92305700","wem/bandit_party_2","A2V35L3RIRYYXV","either","8","922","","","","","","","1","0","0","0.8155916457","","0.8","0.6","0.2","0.4","","","","","0.7006187635","0.5174750093","0.8155916457","0.9103241533","","","","","","","","","","75","K","2","","","135","main_expt",""
"","bandit","215","644573","0.0-177.0-0.0","92305700","wem/bandit_party_2","A2V35L3RIRYYXV","either","8","1348","","","","","","","0","1","0","","0.8281957705","0.8","0.6","0.2","0.4","0.6936815578","0.4264762493","0.8281957705","0.9126032517","","","","","","","","","","","","","","75","K","2","","","136","main_expt",""
"","bandit","216","647228","0.0-178.0-0.0","92305700","wem/bandit_party_2","A2V35L3RIRYYXV","either","8","1139","","","","","","","0","1","0","","0.7055403129","0.8","0.6","0.2","0.4","0.6531428085","0.5351999402","0.7055403129","0.8983360858","","","","","","","","","","","","","","75","K","2","","","137","main_expt",""
"","bandit","217","651079","0.0-179.0-0.0","92305700","wem/bandit_party_2","A2V35L3RIRYYXV","either","8","2336","","","","","","","0","1","0","","0.6884351598","0.8","0.6","0.2","0.4","0.6769758131","0.4758748922","0.6884351598","0.8851370462","","","","","","","","","","","","","","75","K","2","","","138","main_expt",""
"","bandit","218","661718","0.0-180.0-0.0","92305700","wem/bandit_party_2","A2V35L3RIRYYXV","either","8","9124","","","","","","","0","1","0","","0.6090423031","0.8","0.6","0.2","0.4","0.7649589049","0.4039793023","0.6090423031","0.8662270416","","","","","","","","","","","","","","75","K","2","","","139","main_expt",""
"","bandit","219","669211","0.0-181.0-0.0","92305700","wem/bandit_party_2","A2V35L3RIRYYXV","either","8","5977","","","","","","","0","1","0","","0.7000077187","0.8","0.6","0.2","0.4","0.7674202191","0.384774136","0.7000077187","0.8345767194","","","","","","","","","","","","","","75","K","2","","","140","main_expt",""
"","bandit","220","674611","0.0-182.0-0.0","92305700","wem/bandit_party_2","A2V35L3RIRYYXV","either","8","3886","","","","","","","1","0","0","0.6643185619","","0.8","0.6","0.2","0.4","","","","","0.8575114448","0.327254859","0.6643185619","0.8783670964","","","","","","","","","","75","K","2","","","141","main_expt",""
"","bandit","221","677042","0.0-183.0-0.0","92305700","wem/bandit_party_2","A2V35L3RIRYYXV","either","8","916","","","","","","","0","0","1","","0.7079845674","0.8","0.6","0.2","0.4","0.8134430427","0.4536641492","0.7079845674","0.8895828315","","","","","","","","","","","","","","75","K","2","","","142","main_expt",""
"","bandit","222","678819","0.0-184.0-0.0","92305700","wem/bandit_party_2","A2V35L3RIRYYXV","either","8","265","","","","","","","1","0","0","0.9053928798","","0.8","0.6","0.2","0.4","","","","","0.8345505038","0.4348486293","0.6624187643","0.9053928798","","","","","","","","","","76","L","3","","","143","main_expt",""
"","bandit","223","680765","0.0-185.0-0.0","92305700","wem/bandit_party_2","A2V35L3RIRYYXV","either","8","431","","","","","","","0","1","0","","0.9033088386","0.8","0.6","0.2","0.4","0.7482817554","0.4086594597","0.6779247185","0.9033088386","","","","","","","","","","","","","","76","L","3","","","144","main_expt",""
"","bandit","224","682620","0.0-186.0-0.0","92305700","wem/bandit_party_2","A2V35L3RIRYYXV","either","8","341","","","","","","","0","1","0","","0.8572864227","0.8","0.6","0.2","0.4","0.7400387939","0.4420772456","0.7216102374","0.8572864227","","","","","","","","","","","","","","76","L","3","","","145","main_expt",""
"","bandit","225","684597","0.0-187.0-0.0","92305700","wem/bandit_party_2","A2V35L3RIRYYXV","either","8","461","","","","","","","0","0","1","","0.8687508917","0.8","0.6","0.2","0.4","0.795971973","0.508741462","0.7837267619","0.8687508917","","","","","","","","","","","","","","76","L","3","","","146","main_expt",""
"","bandit","226","686402","0.0-188.0-0.0","92305700","wem/bandit_party_2","A2V35L3RIRYYXV","either","8","290","","","","","","","1","0","0","0.4624398998","","0.8","0.6","0.2","0.4","","","","","0.7503502301","0.4624398998","0.7652264833","0.8657621525","","","","","","","","","","74","J","1","","","147","main_expt",""
"","bandit","227","688413","0.0-189.0-0.0","92305700","wem/bandit_party_2","A2V35L3RIRYYXV","either","8","497","","","","","","","0","0","1","","0.4062589849","0.8","0.6","0.2","0.4","0.8200474043","0.4062589849","0.7358716413","0.8362891365","","","","","","","","","","","","","","74","J","1","","","148","main_expt",""
"","bandit","228","690168","0.0-190.0-0.0","92305700","wem/bandit_party_2","A2V35L3RIRYYXV","either","8","241","","","","","","","1","0","0","0.8509010271","","0.8","0.6","0.2","0.4","","","","","0.8509010271","0.4895331913","0.7129200786","0.8144386017","","","","","","","","","","72","H","0","img/none_selected.jpg","","149","main_expt",""
"","bandit","229","692032","0.0-191.0-0.0","92305700","wem/bandit_party_2","A2V35L3RIRYYXV","either","8","349","","","","","","","1","0","0","0.8298908313","","0.8","0.6","0.2","0.4","","","","","0.8298908313","0.4704746919","0.705531668","0.6948055455","","","","","","","","","","72","H","0","img/none_selected.jpg","","150","main_expt",""
"","bandit","230","693932","0.0-192.0-0.0","92305700","wem/bandit_party_2","A2V35L3RIRYYXV","either","8","388","","","","","","","0","1","0","","0.7362749002","0.8","0.6","0.2","0.4","0.7362749002","0.4725745774","0.5744604188","0.6231991314","","","","","","","","","","","","","","72","H","0","img/none_selected.jpg","","151","main_expt",""
"","bandit","231","695840","0.0-193.0-0.0","92305700","wem/bandit_party_2","A2V35L3RIRYYXV","either","8","390","","","","","","","1","0","0","0.7601791643","","0.8","0.6","0.2","0.4","","","","","0.7601791643","0.4943906398","0.5372669321","0.7045057733","","","","","","","","","","72","H","0","img/none_selected.jpg","","152","main_expt",""
"","bandit","232","697829","0.0-194.0-0.0","92305700","wem/bandit_party_2","A2V35L3RIRYYXV","either","8","473","","","","","","","1","0","0","0.7590648118","","0.8","0.6","0.2","0.4","","","","","0.7590648118","0.4639524782","0.5447545218","0.5331338622","","","","","","","","","","72","H","0","img/none_selected.jpg","","153","main_expt",""
"","bandit","233","699657","0.0-195.0-0.0","92305700","wem/bandit_party_2","A2V35L3RIRYYXV","either","8","313","","","","","","","1","0","0","0.7805387907","","0.8","0.6","0.2","0.4","","","","","0.7805387907","0.3935792086","0.4191749193","0.5096720896","","","","","","","","","","72","H","0","img/none_selected.jpg","","154","main_expt",""
"","bandit","234","701510","0.0-196.0-0.0","92305700","wem/bandit_party_2","A2V35L3RIRYYXV","either","8","338","","","","","","","1","0","0","0.8450805748","","0.8","0.6","0.2","0.4","","","","","0.8450805748","0.4127348605","0.4269770229","0.4719011365","","","","","","","","","","72","H","0","img/none_selected.jpg","","155","main_expt",""
"","bandit","235","703678","0.0-197.0-0.0","92305700","wem/bandit_party_2","A2V35L3RIRYYXV","either","8","651","","","","","","","1","0","0","0.8513110265","","0.8","0.6","0.2","0.4","","","","","0.8513110265","0.3697675558","0.4589862704","0.5818713095","","","","","","","","","","72","H","0","img/none_selected.jpg","","156","main_expt",""
"","bandit","236","705472","0.0-198.0-0.0","92305700","wem/bandit_party_2","A2V35L3RIRYYXV","either","8","280","","","","","","","0","0","1","0.8226236001","","0.8","0.6","0.2","0.4","","","","","0.8226236001","0.3604398023","0.5370818316","0.5804022203","","","","","","","","","","72","H","0","img/none_selected.jpg","","157","main_expt",""
"","bandit","237","707517","0.0-199.0-0.0","92305700","wem/bandit_party_2","A2V35L3RIRYYXV","either","8","528","","","","","","","0","1","0","","0.4757376888","0.8","0.6","0.2","0.4","0.8843141367","0.4061750625","0.4757376888","0.4773166223","","","","","","","","","","","","","","75","K","2","","","158","main_expt",""
"","bandit","238","709825","0.0-200.0-0.0","92305700","wem/bandit_party_2","A2V35L3RIRYYXV","either","8","795","","","","","","","0","0","1","","0.4887287223","0.8","0.6","0.2","0.4","0.8078798749","0.4696417586","0.4887287223","0.419048585","","","","","","","","","","","","","","75","K","2","","","159","main_expt",""
"","bandit","239","711662","0.0-201.0-0.0","92305700","wem/bandit_party_2","A2V35L3RIRYYXV","either","8","319","","","","","","","0","0","1","0.4659569923","","0.8","0.6","0.2","0.4","","","","","0.7689164465","0.4659569923","0.4588489809","0.4672574386","","","","","","","","","","74","J","1","","","160","main_expt",""
"","bandit","240","713617","0.0-202.0-0.0","92305700","wem/bandit_party_2","A2V35L3RIRYYXV","either","8","441","","","","","","","0","1","0","","0.5612985374","0.8","0.6","0.2","0.4","0.7863156869","0.3947207546","0.4920004413","0.5612985374","","","","","","","","","","","","","","76","L","3","","","161","main_expt",""
"","bandit","241","715505","0.0-203.0-0.0","92305700","wem/bandit_party_2","A2V35L3RIRYYXV","either","8","372","","","","","","","0","1","0","","0.5288680036","0.8","0.6","0.2","0.4","0.8098475403","0.2460097942","0.5389881207","0.5288680036","","","","","","","","","","","","","","76","L","3","","","162","main_expt",""
"","bandit","242","717251","0.0-204.0-0.0","92305700","wem/bandit_party_2","A2V35L3RIRYYXV","either","8","231","","","","","","","0","1","0","","0.6096883849","0.8","0.6","0.2","0.4","0.8222712862","0.3603606056","0.6040136001","0.6096883849","","","","","","","","","","","","","","76","L","3","","","163","main_expt",""
"","bandit","243","719175","0.0-205.0-0.0","92305700","wem/bandit_party_2","A2V35L3RIRYYXV","either","8","410","","","","","","","0","1","0","","0.4868922288","0.8","0.6","0.2","0.4","0.7876031225","0.2507209727","0.623756827","0.4868922288","","","","","","","","","","","","","","76","L","3","","","164","main_expt",""
"","bandit","244","721072","0.0-206.0-0.0","92305700","wem/bandit_party_2","A2V35L3RIRYYXV","either","8","382","","","","","","","0","0","1","","0.4055552053","0.8","0.6","0.2","0.4","0.7435052823","0.2162043423","0.6164515281","0.4055552053","","","","","","","","","","","","","","76","L","3","","","165","main_expt",""
"","bandit","245","722617","0.0-207.0-0.0","92305700","wem/bandit_party_2","A2V35L3RIRYYXV","either","8","28","","","","","","","0","1","0","","0.4660222187","0.8","0.6","0.2","0.4","0.6545739251","0.2573409732","0.4660222187","0.4748236382","","","","","","","","","","","","","","75","K","2","","","166","main_expt",""
"","bandit","246","724527","0.0-208.0-0.0","92305700","wem/bandit_party_2","A2V35L3RIRYYXV","either","8","394","","","","","","","0","1","0","","0.3336058786","0.8","0.6","0.2","0.4","0.6645907447","0.4016088623","0.3336058786","0.4725242185","","","","","","","","","","","","","","75","K","2","","","167","main_expt",""
"","bandit","247","726624","0.0-209.0-0.0","92305700","wem/bandit_party_2","A2V35L3RIRYYXV","either","8","584","","","","","","","0","0","1","","0.2887723434","0.8","0.6","0.2","0.4","0.7243751722","0.5522858252","0.2887723434","0.4775208721","","","","","","","","","","","","","","75","K","2","","","168","main_expt",""
"","bandit","248","728362","0.0-210.0-0.0","92305700","wem/bandit_party_2","A2V35L3RIRYYXV","either","8","224","","","","","","","1","0","0","0.5461138513","","0.8","0.6","0.2","0.4","","","","","0.6453105543","0.5461138513","0.3357056981","0.4682732781","","","","","","","","","","74","J","1","","","169","main_expt",""
"","bandit","249","730404","0.0-211.0-0.0","92305700","wem/bandit_party_2","A2V35L3RIRYYXV","either","8","527","","","","","","","1","0","0","0.4402798015","","0.8","0.6","0.2","0.4","","","","","0.5334010147","0.4402798015","0.4179693295","0.4246621539","","","","","","","","","","74","J","1","","","170","main_expt",""
"","bandit","250","732365","0.0-212.0-0.0","92305700","wem/bandit_party_2","A2V35L3RIRYYXV","either","8","446","","","","","","","0","0","1","0.450294849","","0.8","0.6","0.2","0.4","","","","","0.498122785","0.450294849","0.3050406521","0.2843380906","","","","","","","","","","74","J","1","","","171","main_expt",""
"","bandit","251","734036","0.0-213.0-0.0","92305700","wem/bandit_party_2","A2V35L3RIRYYXV","either","8","155","","","","","","","0","0","1","","0.4356988635","0.8","0.6","0.2","0.4","0.4356988635","0.6475755847","0.3364500029","0.2668952485","","","","","","","","","","","","","","72","H","0","img/none_selected.jpg","","172","main_expt",""
"","bandit","252","736200","0.0-214.0-0.0","92305700","wem/bandit_party_2","A2V35L3RIRYYXV","either","8","649","","","","","","","0","0","1","0.3964199688","","0.8","0.6","0.2","0.4","","","","","0.3964199688","0.6095255177","0.421339117","0.3802819164","","","","","","","","","","72","H","0","img/none_selected.jpg","","173","main_expt",""
"","bandit","253","738189","0.0-215.0-0.0","92305700","wem/bandit_party_2","A2V35L3RIRYYXV","either","8","470","","","","","","","0","1","0","","0.4913704717","0.8","0.6","0.2","0.4","0.3194345802","0.5003628493","0.4913704717","0.4042455133","","","","","","","","","","","","","","75","K","2","","","174","main_expt",""
"","bandit","254","740334","0.0-216.0-0.0","92305700","wem/bandit_party_2","A2V35L3RIRYYXV","either","8","629","","","","","","","0","1","0","","0.5882611891","0.8","0.6","0.2","0.4","0.2865230234","0.5576212716","0.5882611891","0.4393989914","","","","","","","","","","","","","","75","K","2","","","175","main_expt",""
"","bandit","255","742798","0.0-217.0-0.0","92305700","wem/bandit_party_2","A2V35L3RIRYYXV","either","8","948","","","","","","","0","1","0","","0.6313830356","0.8","0.6","0.2","0.4","0.3352692614","0.6230679906","0.6313830356","0.4705173801","","","","","","","","","","","","","","75","K","2","","","176","main_expt",""
"","bandit","256","745483","0.0-218.0-0.0","92305700","wem/bandit_party_2","A2V35L3RIRYYXV","either","8","1169","","","","","","","0","0","1","0.5531265137","","0.8","0.6","0.2","0.4","","","","","0.3389264817","0.6501784685","0.5531265137","0.4698597734","","","","","","","","","","75","K","2","","","177","main_expt",""
"","bandit","257","747180","0.0-219.0-0.0","92305700","wem/bandit_party_2","A2V35L3RIRYYXV","either","8","178","","","","","","","0","0","1","0.3570804947","","0.8","0.6","0.2","0.4","","","","","0.3709673039","0.6334155083","0.4621004187","0.3570804947","","","","","","","","","","76","L","3","","","178","main_expt",""
"","bandit","258","749126","0.0-220.0-0.0","92305700","wem/bandit_party_2","A2V35L3RIRYYXV","either","8","427","","","","","","","0","0","1","","0.3441184995","0.8","0.6","0.2","0.4","0.2940579202","0.7548338289","0.512884041","0.3441184995","","","","","","","","","","","","","","76","L","3","","","179","main_expt",""
"","bandit","259","752574","0.0-221.0-0.0","92305700","wem/bandit_party_2","A2V35L3RIRYYXV","either","8","1934","","","","","","","0","1","0","","0.506744284","0.8","0.6","0.2","0.4","0.3218724025","0.8074073351","0.506744284","0.3646136501","","","","","","","","","","","","","","75","K","2","","","180","main_expt",""
"","bandit","260","757885","0.0-222.0-0.0","92305700","wem/bandit_party_2","A2V35L3RIRYYXV","either","8","3794","","","","","","","0","0","1","","0.4556494723","0.8","0.6","0.2","0.4","0.3633286182","0.780721516","0.4556494723","0.3777688814","","","","","","","","","","","","","","75","K","2","","","181","main_expt",""
"","bandit","261","759977","0.0-223.0-0.0","92305700","wem/bandit_party_2","A2V35L3RIRYYXV","either","8","573","","","","","","","1","0","0","0.4494525508","","0.8","0.6","0.2","0.4","","","","","0.3324048704","0.7647415088","0.4494525508","0.4578236703","","","","","","","","","","75","K","2","","","182","main_expt",""
"","bandit","262","762269","0.0-224.0-0.0","92305700","wem/bandit_party_2","A2V35L3RIRYYXV","either","8","776","","","","","","","0","0","1","","0.5189143621","0.8","0.6","0.2","0.4","0.3092830871","0.7349307529","0.5189143621","0.4244895098","","","","","","","","","","","","","","75","K","2","","","183","main_expt",""
"","bandit","263","764251","0.0-225.0-0.0","92305700","wem/bandit_party_2","A2V35L3RIRYYXV","either","8","467","","","","","","","1","0","0","0.8298088288","","0.8","0.6","0.2","0.4","","","","","0.3905692936","0.8298088288","0.5167606333","0.3566779322","","","","","","","","","","74","J","1","","","184","main_expt",""
"","bandit","264","766648","0.0-226.0-0.0","92305700","wem/bandit_party_2","A2V35L3RIRYYXV","either","8","879","","","","","","","0","0","1","","0.7894193193","0.8","0.6","0.2","0.4","0.4626192444","0.7894193193","0.5270237034","0.3737416658","","","","","","","","","","","","","","74","J","1","","","185","main_expt",""
"","bandit","265","768535","0.0-227.0-0.0","92305700","wem/bandit_party_2","A2V35L3RIRYYXV","either","8","368","","","","","","","0","0","1","0.6061762586","","0.8","0.6","0.2","0.4","","","","","0.6061762586","0.7665022487","0.5556036571","0.3120176694","","","","","","","","","","72","H","0","img/none_selected.jpg","","186","main_expt",""
"","bandit","266","770522","0.0-228.0-0.0","92305700","wem/bandit_party_2","A2V35L3RIRYYXV","either","8","468","","","","","","","0","0","1","0.530958695","","0.8","0.6","0.2","0.4","","","","","0.530958695","0.7394266891","0.5865134094","0.4134691065","","","","","","","","","","72","H","0","img/none_selected.jpg","","187","main_expt",""
"","bandit","267","772948","0.0-229.0-0.0","92305700","wem/bandit_party_2","A2V35L3RIRYYXV","either","8","910","","","","","","","0","1","0","","0.4637770407","0.8","0.6","0.2","0.4","0.380024655","0.6567361442","0.5034866795","0.4637770407","","","","","","","","","","","","","","76","L","3","","","188","main_expt",""
"","bandit","268","775288","0.0-230.0-0.0","92305700","wem/bandit_party_2","A2V35L3RIRYYXV","either","8","823","","","","","","","0","0","1","0.5739034088","","0.8","0.6","0.2","0.4","","","","","0.4563575644","0.6572443956","0.5761715841","0.5739034088","","","","","","","","","","76","L","3","","","189","main_expt",""
"","bandit","269","777150","0.0-231.0-0.0","92305700","wem/bandit_party_2","A2V35L3RIRYYXV","either","8","346","","","","","","","0","1","0","","0.5325489933","0.8","0.6","0.2","0.4","0.4540853102","0.6735764162","0.5325489933","0.5859504021","","","","","","","","","","","","","","75","K","2","","","190","main_expt",""
"","bandit","270","779636","0.0-232.0-0.0","92305700","wem/bandit_party_2","A2V35L3RIRYYXV","either","8","973","","","","","","","0","1","0","","0.5614919892","0.8","0.6","0.2","0.4","0.4328006462","0.5997518312","0.5614919892","0.5325822721","","","","","","","","","","","","","","75","K","2","","","191","main_expt",""
"","bandit","271","782348","0.0-233.0-0.0","92305700","wem/bandit_party_2","A2V35L3RIRYYXV","either","8","1194","","","","","","","0","1","0","","0.5972832049","0.8","0.6","0.2","0.4","0.4979354652","0.6582178794","0.5972832049","0.4622441745","","","","","","","","","","","","","","75","K","2","","","192","main_expt",""
"","bandit","272","785061","0.0-234.0-0.0","92305700","wem/bandit_party_2","A2V35L3RIRYYXV","either","8","1196","","","","","","","1","0","0","0.6997951875","","0.8","0.6","0.2","0.4","","","","","0.4887187701","0.7246172867","0.6997951875","0.4765036663","","","","","","","","","","75","K","2","","","193","main_expt",""
"","bandit","273","787224","0.0-235.0-0.0","92305700","wem/bandit_party_2","A2V35L3RIRYYXV","either","8","649","","","","","","","0","1","0","","0.7511051992","0.8","0.6","0.2","0.4","0.4993882896","0.7721250451","0.7511051992","0.4504155567","","","","","","","","","","","","","","75","K","2","","","194","main_expt",""
"","bandit","274","789230","0.0-236.0-0.0","92305700","wem/bandit_party_2","A2V35L3RIRYYXV","either","8","490","","","","","","","0","1","0","","0.8281457055","0.8","0.6","0.2","0.4","0.5011331455","0.8366496483","0.8281457055","0.4354252764","","","","","","","","","","","","","","75","K","2","","","195","main_expt",""
"","bandit","275","791236","0.0-237.0-0.0","92305700","wem/bandit_party_2","A2V35L3RIRYYXV","either","8","484","","","","","","","0","1","0","","0.8248544968","0.8","0.6","0.2","0.4","0.4487960683","0.8484646997","0.8248544968","0.4170899215","","","","","","","","","","","","","","75","K","2","","","196","main_expt",""
"","bandit","276","793342","0.0-238.0-0.0","92305700","wem/bandit_party_2","A2V35L3RIRYYXV","either","8","592","","","","","","","0","1","0","","0.8532714289","0.8","0.6","0.2","0.4","0.3975590019","0.8734060335","0.8532714289","0.4149059055","","","","","","","","","","","","","","75","K","2","","","197","main_expt",""
"","bandit","277","795462","0.0-239.0-0.0","92305700","wem/bandit_party_2","A2V35L3RIRYYXV","either","8","603","","","","","","","0","1","0","","0.7587337752","0.8","0.6","0.2","0.4","0.4161601929","0.8515360685","0.7587337752","0.4737306044","","","","","","","","","","","","","","75","K","2","","","198","main_expt",""
"","bandit","278","797538","0.0-240.0-0.0","92305700","wem/bandit_party_2","A2V35L3RIRYYXV","either","8","556","","","","","","","0","1","0","","0.8124408481","0.8","0.6","0.2","0.4","0.4483979408","0.8805923715","0.8124408481","0.4541760911","","","","","","","","","","","","","","75","K","2","","","199","main_expt",""
"","bandit","279","799647","0.0-241.0-0.0","92305700","wem/bandit_party_2","A2V35L3RIRYYXV","either","8","594","","","","","","","0","0","1","","0.7935778268","0.8","0.6","0.2","0.4","0.5303380975","0.9645818821","0.7935778268","0.3964714959","","","","","","","","","","","","","","75","K","2","","","200","main_expt",""
"","bandit","280","801696","0.0-242.0-0.0","92305700","wem/bandit_party_2","A2V35L3RIRYYXV","either","8","531","","","","","","","0","1","0","","0.3815447649","0.8","0.6","0.2","0.4","0.4014045657","0.9689478708","0.736942723","0.3815447649","","","","","","","","","","","","","","76","L","3","","","201","main_expt",""
"","bandit","281","804514","0.0-243.0-0.0","92305700","wem/bandit_party_2","A2V35L3RIRYYXV","either","8","1302","","","","","","","0","0","1","","0.3726367513","0.8","0.6","0.2","0.4","0.5115169607","0.9678291885","0.7001951276","0.3726367513","","","","","","","","","","","","","","76","L","3","","","202","main_expt",""
"","bandit","282","806644","0.0-244.0-0.0","92305700","wem/bandit_party_2","A2V35L3RIRYYXV","either","8","611","","","","","","","0","0","1","","0.5026191452","0.8","0.6","0.2","0.4","0.5026191452","0.9633244117","0.7209300446","0.3062653216","","","","","","","","","","","","","","72","H","0","img/none_selected.jpg","","203","main_expt",""
"","bandit","283","808485","0.0-245.0-0.0","92305700","wem/bandit_party_2","A2V35L3RIRYYXV","either","8","322","","","","","","","1","0","0","0.4736298566","","0.8","0.6","0.2","0.4","","","","","0.4736298566","0.9730812582","0.8574132932","0.2848501254","","","","","","","","","","72","H","0","img/none_selected.jpg","","204","main_expt",""
"","bandit","284","810699","0.0-246.0-0.0","92305700","wem/bandit_party_2","A2V35L3RIRYYXV","either","8","699","","","","","","","1","0","0","0.6121858428","","0.8","0.6","0.2","0.4","","","","","0.6121858428","0.9521206422","0.9038760074","0.3457586416","","","","","","","","","","72","H","0","img/none_selected.jpg","","205","main_expt",""
"","bandit","285","812945","0.0-247.0-0.0","92305700","wem/bandit_party_2","A2V35L3RIRYYXV","either","8","727","","","","","","","0","1","0","","0.6377028942","0.8","0.6","0.2","0.4","0.6377028942","0.9614764056","0.9273356803","0.4609097875","","","","","","","","","","","","","","72","H","0","img/none_selected.jpg","","206","main_expt",""
"","bandit","286","816134","0.0-248.0-0.0","92305700","wem/bandit_party_2","A2V35L3RIRYYXV","either","8","1672","","","","","","","1","0","0","0.5700483165","","0.8","0.6","0.2","0.4","","","","","0.5700483165","0.9625830716","0.9502037039","0.4980316736","","","","","","","","","","72","H","0","img/none_selected.jpg","","207","main_expt",""
"","bandit","287","818275","0.0-249.0-0.0","92305700","wem/bandit_party_2","A2V35L3RIRYYXV","either","8","623","","","","","","","1","0","0","0.624428721","","0.8","0.6","0.2","0.4","","","","","0.624428721","0.9359306517","0.944094639","0.4537691537","","","","","","","","","","72","H","0","img/none_selected.jpg","","208","main_expt",""
"","bandit","288","820278","0.0-250.0-0.0","92305700","wem/bandit_party_2","A2V35L3RIRYYXV","either","8","483","","","","","","","0","0","1","0.4861871301","","0.8","0.6","0.2","0.4","","","","","0.4861871301","0.9632917203","0.9070839441","0.4475842875","","","","","","","","","","72","H","0","img/none_selected.jpg","","209","main_expt",""
"","bandit","289","822045","0.0-251.0-0.0","92305700","wem/bandit_party_2","A2V35L3RIRYYXV","either","8","237","","","","","","","0","1","0","","0.8960653589","0.8","0.6","0.2","0.4","0.3956361612","0.9633226214","0.8960653589","0.4803454055","","","","","","","","","","","","","","75","K","2","","","210","main_expt",""
"","bandit","290","823895","0.0-252.0-0.0","92305700","wem/bandit_party_2","A2V35L3RIRYYXV","either","8","328","","","","","","","0","1","0","","0.9155455821","0.8","0.6","0.2","0.4","0.3599204452","0.9719781217","0.9155455821","0.4126443349","","","","","","","","","","","","","","75","K","2","","","211","main_expt",""
"","bandit","291","825732","0.0-253.0-0.0","92305700","wem/bandit_party_2","A2V35L3RIRYYXV","either","8","319","","","","","","","0","1","0","","0.9087954588","0.8","0.6","0.2","0.4","0.3349000901","0.9700781686","0.9087954588","0.3384802849","","","","","","","","","","","","","","75","K","2","","","212","main_expt",""
"","bandit","292","827728","0.0-254.0-0.0","92305700","wem/bandit_party_2","A2V35L3RIRYYXV","either","8","480","","","","","","","0","1","0","","0.8528540962","0.8","0.6","0.2","0.4","0.3183344176","0.971165811","0.8528540962","0.3039242722","","","","","","","","","","","","","","75","K","2","","","213","main_expt",""
"","bandit","293","829737","0.0-255.0-0.0","92305700","wem/bandit_party_2","A2V35L3RIRYYXV","either","8","491","","","","","","","0","0","1","","0.8506041988","0.8","0.6","0.2","0.4","0.2390758011","0.9627117","0.8506041988","0.4541530846","","","","","","","","","","","","","","75","K","2","","","214","main_expt",""
"","bandit","294","831652","0.0-256.0-0.0","92305700","wem/bandit_party_2","A2V35L3RIRYYXV","either","8","398","","","","","","","0","0","1","","0.5101749692","0.8","0.6","0.2","0.4","0.1997060473","0.9552130497","0.8001829978","0.5101749692","","","","","","","","","","","","","","76","L","3","","","215","main_expt",""
"","bandit","295","834146","0.0-257.0-0.0","92305700","wem/bandit_party_2","A2V35L3RIRYYXV","either","8","979","","","","","","","1","0","0","0.9220350188","","0.8","0.6","0.2","0.4","","","","","0.2326539104","0.9220350188","0.733614842","0.5580520347","","","","","","","","","","74","J","1","","","216","main_expt",""
"","bandit","296","836952","0.0-258.0-0.0","92305700","wem/bandit_party_2","A2V35L3RIRYYXV","either","8","1289","","","","","","","0","1","0","","0.8736667029","0.8","0.6","0.2","0.4","0.2319826337","0.8736667029","0.7479737912","0.4368451062","","","","","","","","","","","","","","74","J","1","","","217","main_expt",""
"","bandit","297","840150","0.0-259.0-0.0","92305700","wem/bandit_party_2","A2V35L3RIRYYXV","either","8","1681","","","","","","","0","1","0","","0.7602784417","0.8","0.6","0.2","0.4","0.3143382807","0.7602784417","0.7713398237","0.3963441813","","","","","","","","","","","","","","74","J","1","","","218","main_expt",""
"","bandit","298","842779","0.0-260.0-0.0","92305700","wem/bandit_party_2","A2V35L3RIRYYXV","either","8","1108","","","","","","","0","1","0","","0.7643050859","0.8","0.6","0.2","0.4","0.3304972923","0.7643050859","0.8077055691","0.4809426617","","","","","","","","","","","","","","74","J","1","","","219","main_expt",""
"","bandit","299","846428","0.0-261.0-0.0","92305700","wem/bandit_party_2","A2V35L3RIRYYXV","either","8","2131","","","","","","","0","0","1","0.7793587236","","0.8","0.6","0.2","0.4","","","","","0.2866104843","0.7793587236","0.7778114837","0.397759556","","","","","","","","","","74","J","1","","","220","main_expt",""
"","bandit","300","848556","0.0-262.0-0.0","92305700","wem/bandit_party_2","A2V35L3RIRYYXV","either","8","611","","","","","","","0","1","0","","0.7214198583","0.8","0.6","0.2","0.4","0.3602561646","0.82086311","0.7214198583","0.4087677593","","","","","","","","","","","","","","75","K","2","","","221","main_expt",""
"","bandit","301","850828","0.0-263.0-0.0","92305700","wem/bandit_party_2","A2V35L3RIRYYXV","either","8","753","","","","","","","1","0","0","0.8091526303","","0.8","0.6","0.2","0.4","","","","","0.3228749062","0.8543662658","0.8091526303","0.4561280915","","","","","","","","","","75","K","2","","","222","main_expt",""
"","bandit","302","853386","0.0-264.0-0.0","92305700","wem/bandit_party_2","A2V35L3RIRYYXV","either","8","1040","","","","","","","0","0","1","","0.4419858618","0.8","0.6","0.2","0.4","0.2549485676","0.8599459829","0.8240838469","0.4419858618","","","","","","","","","","","","","","76","L","3","","","223","main_expt",""
"","bandit","303","855069","0.0-265.0-0.0","92305700","wem/bandit_party_2","A2V35L3RIRYYXV","either","8","167","","","","","","","0","1","0","","0.494409337","0.8","0.6","0.2","0.4","0.2389333491","0.8747991669","0.7670685714","0.494409337","","","","","","","","","","","","","","76","L","3","","","224","main_expt",""
"","bandit","304","857390","0.0-266.0-0.0","92305700","wem/bandit_party_2","A2V35L3RIRYYXV","either","8","800","","","","","","","0","0","1","0.3713348049","","0.8","0.6","0.2","0.4","","","","","0.1517307125","0.7910409491","0.8775689376","0.3713348049","","","","","","","","","","76","L","3","","","225","main_expt",""
"","bandit","305","859225","0.0-267.0-0.0","92305700","wem/bandit_party_2","A2V35L3RIRYYXV","either","8","318","","","","","","","1","0","0","0.8846504348","","0.8","0.6","0.2","0.4","","","","","0.1002450003","0.7212928749","0.8846504348","0.4013452417","","","","","","","","","","75","K","2","","","226","main_expt",""
"","bandit","306","861991","0.0-268.0-0.0","92305700","wem/bandit_party_2","A2V35L3RIRYYXV","either","8","1247","","","","","","","0","1","0","","0.851087938","0.8","0.6","0.2","0.4","0.1049945928","0.7090989562","0.851087938","0.393451628","","","","","","","","","","","","","","75","K","2","","","227","main_expt",""
"","bandit","307","864699","0.0-269.0-0.0","92305700","wem/bandit_party_2","A2V35L3RIRYYXV","either","8","1189","","","","","","","0","1","0","","0.9074720337","0.8","0.6","0.2","0.4","0.03915988122","0.6606736223","0.9074720337","0.4175844788","","","","","","","","","","","","","","75","K","2","","","228","main_expt",""
"","bandit","308","867216","0.0-270.0-0.0","92305700","wem/bandit_party_2","A2V35L3RIRYYXV","either","8","997","","","","","","","0","1","0","","0.872332114","0.8","0.6","0.2","0.4","0.03767516843","0.6893924153","0.872332114","0.408368909","","","","","","","","","","","","","","75","K","2","","","229","main_expt",""
"","bandit","309","870043","0.0-271.0-0.0","92305700","wem/bandit_party_2","A2V35L3RIRYYXV","either","8","1310","","","","","","","0","0","1","","0.7967167456","0.8","0.6","0.2","0.4","0.05804790214","0.6067604319","0.7967167456","0.4777699032","","","","","","","","","","","","","","75","K","2","","","230","main_expt",""
"","bandit","310","871876","0.0-272.0-0.0","92305700","wem/bandit_party_2","A2V35L3RIRYYXV","either","8","313","","","","","","","0","1","0","","0.5037419277","0.8","0.6","0.2","0.4","0.04963095007","0.5037419277","0.7760618079","0.4935442242","","","","","","","","","","","","","","74","J","1","","","231","main_expt",""
"","bandit","311","873850","0.0-273.0-0.0","92305700","wem/bandit_party_2","A2V35L3RIRYYXV","either","8","444","","","","","","","0","1","0","","0.4339479185","0.8","0.6","0.2","0.4","0.03759782928","0.4339479185","0.7765467853","0.4889590317","","","","","","","","","","","","","","74","J","1","","","232","main_expt",""
"","bandit","312","876123","0.0-274.0-0.0","92305700","wem/bandit_party_2","A2V35L3RIRYYXV","either","8","756","","","","","","","0","1","0","","0.4525546635","0.8","0.6","0.2","0.4","0.03147013274","0.4525546635","0.7895219362","0.5212294662","","","","","","","","","","","","","","74","J","1","","","233","main_expt",""
"","bandit","313","878377","0.0-275.0-0.0","92305700","wem/bandit_party_2","A2V35L3RIRYYXV","either","8","736","","","","","","","0","0","1","0.3680080929","","0.8","0.6","0.2","0.4","","","","","0.03547440544","0.3680080929","0.7491899586","0.4420617392","","","","","","","","","","74","J","1","","","234","main_expt",""
"","bandit","314","880201","0.0-276.0-0.0","92305700","wem/bandit_party_2","A2V35L3RIRYYXV","either","8","304","","","","","","","0","0","1","0.04486782706","","0.8","0.6","0.2","0.4","","","","","0.04486782706","0.3416373547","0.7397351474","0.4816955248","","","","","","","","","","72","H","0","img/none_selected.jpg","","235","main_expt",""
"","bandit","315","881979","0.0-277.0-0.0","92305700","wem/bandit_party_2","A2V35L3RIRYYXV","either","8","260","","","","","","","0","1","0","","0.6587673302","0.8","0.6","0.2","0.4","0.03122339122","0.3722877153","0.6587673302","0.3028121716","","","","","","","","","","","","","","75","K","2","","","236","main_expt",""
