"consent","trial_type","trial_index","time_elapsed","internal_node_id","subjID","study","MID","cond","drift","rt","responses","button_pressed","key_press","like","value","connected","gems","bombs","no_reward","GemPrChosen","BombPrChosen","GainOverPainPr_0","GainOverPainPr_1","GainOverPainPr_2","GainOverPainPr_3","LosePr_0","LosePr_1","LosePr_2","LosePr_3","WinPr_0","WinPr_1","WinPr_2","WinPr_3","Q0","Q1","Q2","gender","age","ethnicity","label","expt_phase","target","respCharCode","respKey","respChoiceNum","respChoice","practice","trial_counter","trial_label","Q0_index"
"GDM/GDM_behavioral_consent_30min_online.html","consent","0","30099","0.0-0.0","93408024","wem/bandit_party_2","AIV842WA1CLZZ","either","1","","","","","","","","","","","","","","","","","","","","","","","","","","","","","","","","","","","","","","","","",""
"","survey-text","1","35579","0.0-1.0","93408024","wem/bandit_party_2","AIV842WA1CLZZ","either","1","4470","{""Q0"":""AIV842WA1CLZZ""}","","","","","","","","","","","","","","","","","","","","","","","","","","","","","","","","","","","","","","",""
"","button-response","2","38119","0.0-2.0","93408024","wem/bandit_party_2","AIV842WA1CLZZ","either","1","1533","","1","","","","","","","","","","","","","","","","","","","","","","","","","","","","","","","","","","","","","",""
"","text-replacement","3","57078","0.0-3.0","93408024","wem/bandit_party_2","AIV842WA1CLZZ","either","1","17954","","","32","","","","","","","","","","","","","","","","","","","","","","","","","","","","","","","","","","","","",""
"","text-replacement","4","77473","0.0-4.0","93408024","wem/bandit_party_2","AIV842WA1CLZZ","either","1","20393","","","32","","","","","","","","","","","","","","","","","","","","","","","","","","","","","","","","","","","","",""
"","identification","5","87746","0.0-6.0-0.0","93408024","wem/bandit_party_2","AIV842WA1CLZZ","either","1","10259","","","","5","5","5","","","","","","","","","","","","","","","","","","","","","","","","pre","identification_pre","the Democratic Party","","","","","","","",""
"","identification","6","92912","0.0-6.0-1.0","93408024","wem/bandit_party_2","AIV842WA1CLZZ","either","1","4151","","","","0","0","0","","","","","","","","","","","","","","","","","","","","","","","","pre","identification_pre","the Republican Party","","","","","","","",""
"","text-replacement","7","101026","0.0-7.0","93408024","wem/bandit_party_2","AIV842WA1CLZZ","either","1","7110","","","32","","","","","","","","","","","","","","","","","","","","","","","","","","","","","","","","","","","","",""
"","text-replacement","8","108697","0.0-8.0","93408024","wem/bandit_party_2","AIV842WA1CLZZ","either","1","7670","","","32","","","","","","","","","","","","","","","","","","","","","","","","","","","","","","","","","","","","",""
"","text-replacement","9","123247","0.0-9.0","93408024","wem/bandit_party_2","AIV842WA1CLZZ","either","1","14547","","","32","","","","","","","","","","","","","","","","","","","","","","","","","","","","","","","","","","","","",""
"","text-replacement","10","129242","0.0-10.0","93408024","wem/bandit_party_2","AIV842WA1CLZZ","either","1","5993","","","32","","","","","","","","","","","","","","","","","","","","","","","","","","","","","","","","","","","","",""
"","text-replacement","11","133934","0.0-11.0","93408024","wem/bandit_party_2","AIV842WA1CLZZ","either","1","4690","","","32","","","","","","","","","","","","","","","","","","","","","","","","","","","","","","","","","","","","",""
"","bandit","12","137384","0.0-12.0-0.0","93408024","wem/bandit_party_2","AIV842WA1CLZZ","either","1","1940","","","","","","","0","0","1","0","0","","","","","0","","","","0","","","","","","","","","","","","","74","J","0","img/none_selected_demo.jpg","true","0","",""
"","bandit","13","140574","0.0-13.0-0.0","93408024","wem/bandit_party_2","AIV842WA1CLZZ","either","1","1682","","","","","","","0","0","1","0","0","","","","","0","","","","0","","","","","","","","","","","","","75","K","0","img/none_selected_demo.jpg","true","0","",""
"","text-replacement","14","155325","0.0-14.0","93408024","wem/bandit_party_2","AIV842WA1CLZZ","either","1","14748","","","32","","","","","","","","","","","","","","","","","","","","","","","","","","","","","","","","","","","","",""
"","text-replacement","15","160650","0.0-15.0","93408024","wem/bandit_party_2","AIV842WA1CLZZ","either","1","5323","","","32","","","","","","","","","","","","","","","","","","","","","","","","","","","","","","","","","","","","",""
"","text-replacement","16","166929","0.0-16.0","93408024","wem/bandit_party_2","AIV842WA1CLZZ","either","1","6277","","","32","","","","","","","","","","","","","","","","","","","","","","","","","","","","","","","","","","","","",""
"","text-replacement","17","170308","0.0-17.0","93408024","wem/bandit_party_2","AIV842WA1CLZZ","either","1","3377","","","32","","","","","","","","","","","","","","","","","","","","","","","","","","","","","","","","","","","","",""
"","bandit","18","173420","0.0-18.0-0.0","93408024","wem/bandit_party_2","AIV842WA1CLZZ","either","1","1605","","","","","","","0","1","0","","0.8","0.5","0.5","","","0.8","0.2","","","","","","","","","","","","","","","","74","J","0","img/none_selected_demo.jpg","true","0","80_20_practice",""
"","bandit","19","176172","0.0-18.0-1.0","93408024","wem/bandit_party_2","AIV842WA1CLZZ","either","1","1245","","","","","","","0","1","0","","0.8","0.5","0.5","","","0.8","0.2","","","","","","","","","","","","","","","","74","J","0","img/none_selected_demo.jpg","true","0","80_20_practice",""
"","bandit","20","178380","0.0-18.0-2.0","93408024","wem/bandit_party_2","AIV842WA1CLZZ","either","1","700","","","","","","","0","0","1","0.2","","0.5","0.5","","","","","","","0.8","0.2","","","","","","","","","","","","75","K","1","","true","0","80_20_practice",""
"","bandit","21","181163","0.0-18.0-3.0","93408024","wem/bandit_party_2","AIV842WA1CLZZ","either","1","1276","","","","","","","0","0","1","","0.2","0.5","0.5","","","0.8","0.2","","","","","","","","","","","","","","","","75","K","1","","true","0","80_20_practice",""
"","bandit","22","183284","0.0-18.0-4.0","93408024","wem/bandit_party_2","AIV842WA1CLZZ","either","1","613","","","","","","","1","0","0","0.8","","0.5","0.5","","","","","","","0.8","0.2","","","","","","","","","","","","74","J","0","img/none_selected_demo.jpg","true","0","80_20_practice",""
"","bandit","23","186220","0.0-18.0-5.0","93408024","wem/bandit_party_2","AIV842WA1CLZZ","either","1","1428","","","","","","","0","1","0","","0.8","0.5","0.5","","","0.8","0.2","","","","","","","","","","","","","","","","74","J","0","img/none_selected_demo.jpg","true","0","80_20_practice",""
"","bandit","24","188436","0.0-18.0-6.0","93408024","wem/bandit_party_2","AIV842WA1CLZZ","either","1","709","","","","","","","1","0","0","0.8","","0.5","0.5","","","","","","","0.8","0.2","","","","","","","","","","","","74","J","0","img/none_selected_demo.jpg","true","0","80_20_practice",""
"","bandit","25","190211","0.0-18.0-7.0","93408024","wem/bandit_party_2","AIV842WA1CLZZ","either","1","269","","","","","","","0","1","0","","0.8","0.5","0.5","","","0.8","0.2","","","","","","","","","","","","","","","","74","J","0","img/none_selected_demo.jpg","true","0","80_20_practice",""
"","bandit","26","192004","0.0-18.0-8.0","93408024","wem/bandit_party_2","AIV842WA1CLZZ","either","1","285","","","","","","","0","1","0","","0.8","0.5","0.5","","","0.8","0.2","","","","","","","","","","","","","","","","74","J","0","img/none_selected_demo.jpg","true","0","80_20_practice",""
"","bandit","27","194460","0.0-18.0-9.0","93408024","wem/bandit_party_2","AIV842WA1CLZZ","either","1","949","","","","","","","1","0","0","0.8","","0.5","0.5","","","","","","","0.8","0.2","","","","","","","","","","","","74","J","0","img/none_selected_demo.jpg","true","0","80_20_practice",""
"","bandit","28","196339","0.0-18.0-10.0","93408024","wem/bandit_party_2","AIV842WA1CLZZ","either","1","372","","","","","","","1","0","0","0.8","","0.5","0.5","","","","","","","0.8","0.2","","","","","","","","","","","","74","J","0","img/none_selected_demo.jpg","true","0","80_20_practice",""
"","bandit","29","198403","0.0-18.0-11.0","93408024","wem/bandit_party_2","AIV842WA1CLZZ","either","1","556","","","","","","","1","0","0","0.8","","0.5","0.5","","","","","","","0.8","0.2","","","","","","","","","","","","74","J","0","img/none_selected_demo.jpg","true","0","80_20_practice",""
"","bandit","30","200924","0.0-18.0-12.0","93408024","wem/bandit_party_2","AIV842WA1CLZZ","either","1","1012","","","","","","","1","0","0","0.8","","0.5","0.5","","","","","","","0.8","0.2","","","","","","","","","","","","74","J","0","img/none_selected_demo.jpg","true","0","80_20_practice",""
"","bandit","31","203939","0.0-18.0-13.0","93408024","wem/bandit_party_2","AIV842WA1CLZZ","either","1","1507","","","","","","","0","1","0","","0.8","0.5","0.5","","","0.8","0.2","","","","","","","","","","","","","","","","74","J","0","img/none_selected_demo.jpg","true","0","80_20_practice",""
"","bandit","32","206299","0.0-18.0-14.0","93408024","wem/bandit_party_2","AIV842WA1CLZZ","either","1","851","","","","","","","1","0","0","0.8","","0.5","0.5","","","","","","","0.8","0.2","","","","","","","","","","","","74","J","0","img/none_selected_demo.jpg","true","0","80_20_practice",""
"","bandit","33","209444","0.0-18.0-15.0","93408024","wem/bandit_party_2","AIV842WA1CLZZ","either","1","1636","","","","","","","1","0","0","0.8","","0.5","0.5","","","","","","","0.8","0.2","","","","","","","","","","","","74","J","0","img/none_selected_demo.jpg","true","0","80_20_practice",""
"","bandit","34","211651","0.0-18.0-16.0","93408024","wem/bandit_party_2","AIV842WA1CLZZ","either","1","700","","","","","","","1","0","0","0.8","","0.5","0.5","","","","","","","0.8","0.2","","","","","","","","","","","","74","J","0","img/none_selected_demo.jpg","true","0","80_20_practice",""
"","bandit","35","213531","0.0-18.0-17.0","93408024","wem/bandit_party_2","AIV842WA1CLZZ","either","1","372","","","","","","","1","0","0","0.8","","0.5","0.5","","","","","","","0.8","0.2","","","","","","","","","","","","74","J","0","img/none_selected_demo.jpg","true","0","80_20_practice",""
"","bandit","36","215075","0.0-18.0-18.0","93408024","wem/bandit_party_2","AIV842WA1CLZZ","either","1","36","","","","","","","0","0","1","0.8","","0.5","0.5","","","","","","","0.8","0.2","","","","","","","","","","","","74","J","0","img/none_selected_demo.jpg","true","0","80_20_practice",""
"","bandit","37","217403","0.0-18.0-19.0","93408024","wem/bandit_party_2","AIV842WA1CLZZ","either","1","820","","","","","","","1","0","0","0.8","","0.5","0.5","","","","","","","0.8","0.2","","","","","","","","","","","","74","J","0","img/none_selected_demo.jpg","true","0","80_20_practice",""
"","text-replacement","38","221258","0.0-19.0","93408024","wem/bandit_party_2","AIV842WA1CLZZ","either","1","3852","","","32","","","","","","","","","","","","","","","","","","","","","","","","","","","","","","","","","","","","",""
"","bandit","39","224210","0.0-20.0-0.0","93408024","wem/bandit_party_2","AIV842WA1CLZZ","either","1","1445","","","","","","","1","0","0","1","0","","","","","0","1","","","1","0","","","","","","","","","","","","74","J","0","img/none_selected_demo.jpg","true","0","",""
"","text-replacement","40","228151","0.0-21.0","93408024","wem/bandit_party_2","AIV842WA1CLZZ","either","1","3939","","","32","","","","","","","","","","","","","","","","","","","","","","","","","","","","","","","","","","","","",""
"","text-replacement","41","232639","0.0-22.0","93408024","wem/bandit_party_2","AIV842WA1CLZZ","either","1","4486","","","32","","","","","","","","","","","","","","","","","","","","","","","","","","","","","","","","","","","","",""
"","text-replacement","42","235312","0.0-23.0","93408024","wem/bandit_party_2","AIV842WA1CLZZ","either","1","2671","","","32","","","","","","","","","","","","","","","","","","","","","","","","","","","","","","","","","","","","",""
"","text-replacement","43","239147","0.0-24.0","93408024","wem/bandit_party_2","AIV842WA1CLZZ","either","1","3833","","","32","","","","","","","","","","","","","","","","","","","","","","","","","","","","","","","","","","","","",""
"","text-replacement","44","243247","0.0-25.0","93408024","wem/bandit_party_2","AIV842WA1CLZZ","either","1","4099","","","32","","","","","","","","","","","","","","","","","","","","","","","","","","","","","","","","","","","","",""
"","text-replacement","45","246263","0.0-26.0","93408024","wem/bandit_party_2","AIV842WA1CLZZ","either","1","3015","","","32","","","","","","","","","","","","","","","","","","","","","","","","","","","","","","","","","","","","",""
"","text-replacement","46","250048","0.0-27.0","93408024","wem/bandit_party_2","AIV842WA1CLZZ","either","1","3782","","","32","","","","","","","","","","","","","","","","","","","","","","","","","","","","","","","","","","","","",""
"","text-replacement","47","253639","0.0-28.0","93408024","wem/bandit_party_2","AIV842WA1CLZZ","either","1","3589","","","32","","","","","","","","","","","","","","","","","","","","","","","","","","","","","","","","","","","","",""
"","text-replacement","48","259415","0.0-29.0","93408024","wem/bandit_party_2","AIV842WA1CLZZ","either","1","5775","","","32","","","","","","","","","","","","","","","","","","","","","","","","","","","","","","","","","","","","",""
"","text-replacement","49","266034","0.0-30.0","93408024","wem/bandit_party_2","AIV842WA1CLZZ","either","1","6616","","","32","","","","","","","","","","","","","","","","","","","","","","","","","","","","","","","","","","","","",""
"","text-replacement","50","269409","0.0-31.0","93408024","wem/bandit_party_2","AIV842WA1CLZZ","either","1","3374","","","32","","","","","","","","","","","","","","","","","","","","","","","","","","","","","","","","","","","","",""
"","bandit","51","274307","0.0-32.0-0.0","93408024","wem/bandit_party_2","AIV842WA1CLZZ","either","1","3391","","","","","","","0","0","1","","0.8","0.5","0.5","0.5","0.5","0.8","0.2","0.6","0.2","","","","","","","","","","","","","","72","H","0","img/none_selected.jpg","true","0","full_practice",""
"","bandit","52","276354","0.0-32.0-1.0","93408024","wem/bandit_party_2","AIV842WA1CLZZ","either","1","540","","","","","","","0","1","0","","0.2","0.5","0.5","0.5","0.5","0.8","0.2","0.6","0.2","","","","","","","","","","","","","","74","J","1","","true","0","full_practice",""
"","bandit","53","278331","0.0-32.0-2.0","93408024","wem/bandit_party_2","AIV842WA1CLZZ","either","1","470","","","","","","","1","0","0","0.6","","0.5","0.5","0.5","0.5","","","","","0.8","0.2","0.6","0.2","","","","","","","","","","75","K","2","","true","0","full_practice",""
"","bandit","54","279946","0.0-32.0-3.0","93408024","wem/bandit_party_2","AIV842WA1CLZZ","either","1","109","","","","","","","0","0","1","0.2","","0.5","0.5","0.5","0.5","","","","","0.8","0.2","0.6","0.2","","","","","","","","","","76","L","3","","true","0","full_practice",""
"","bandit","55","282107","0.0-32.0-4.0","93408024","wem/bandit_party_2","AIV842WA1CLZZ","either","1","654","","","","","","","1","0","0","0.8","","0.5","0.5","0.5","0.5","","","","","0.8","0.2","0.6","0.2","","","","","","","","","","72","H","0","img/none_selected.jpg","true","0","full_practice",""
"","bandit","56","283722","0.0-32.0-5.0","93408024","wem/bandit_party_2","AIV842WA1CLZZ","either","1","109","","","","","","","0","0","1","0.2","","0.5","0.5","0.5","0.5","","","","","0.8","0.2","0.6","0.2","","","","","","","","","","74","J","1","","true","0","full_practice",""
"","bandit","57","286635","0.0-32.0-6.0","93408024","wem/bandit_party_2","AIV842WA1CLZZ","either","1","1405","","","","","","","0","0","1","0.6","","0.5","0.5","0.5","0.5","","","","","0.8","0.2","0.6","0.2","","","","","","","","","","75","K","2","","true","0","full_practice",""
"","bandit","58","288356","0.0-32.0-7.0","93408024","wem/bandit_party_2","AIV842WA1CLZZ","either","1","213","","","","","","","1","0","0","0.2","","0.5","0.5","0.5","0.5","","","","","0.8","0.2","0.6","0.2","","","","","","","","","","76","L","3","","true","0","full_practice",""
"","bandit","59","290842","0.0-32.0-8.0","93408024","wem/bandit_party_2","AIV842WA1CLZZ","either","1","980","","","","","","","0","1","0","","0.8","0.5","0.5","0.5","0.5","0.8","0.2","0.6","0.2","","","","","","","","","","","","","","72","H","0","img/none_selected.jpg","true","0","full_practice",""
"","bandit","60","292994","0.0-32.0-9.0","93408024","wem/bandit_party_2","AIV842WA1CLZZ","either","1","645","","","","","","","0","0","1","","0.8","0.5","0.5","0.5","0.5","0.8","0.2","0.6","0.2","","","","","","","","","","","","","","72","H","0","img/none_selected.jpg","true","0","full_practice",""
"","bandit","61","294731","0.0-32.0-10.0","93408024","wem/bandit_party_2","AIV842WA1CLZZ","either","1","228","","","","","","","0","0","1","0.2","","0.5","0.5","0.5","0.5","","","","","0.8","0.2","0.6","0.2","","","","","","","","","","74","J","1","","true","0","full_practice",""
"","bandit","62","296489","0.0-32.0-11.0","93408024","wem/bandit_party_2","AIV842WA1CLZZ","either","1","252","","","","","","","0","1","0","","0.6","0.5","0.5","0.5","0.5","0.8","0.2","0.6","0.2","","","","","","","","","","","","","","75","K","2","","true","0","full_practice",""
"","bandit","63","299075","0.0-32.0-12.0","93408024","wem/bandit_party_2","AIV842WA1CLZZ","either","1","1077","","","","","","","0","1","0","","0.6","0.5","0.5","0.5","0.5","0.8","0.2","0.6","0.2","","","","","","","","","","","","","","75","K","2","","true","0","full_practice",""
"","bandit","64","300659","0.0-32.0-13.0","93408024","wem/bandit_party_2","AIV842WA1CLZZ","either","1","76","","","","","","","0","0","1","","0.6","0.5","0.5","0.5","0.5","0.8","0.2","0.6","0.2","","","","","","","","","","","","","","75","K","2","","true","0","full_practice",""
"","bandit","65","302858","0.0-32.0-14.0","93408024","wem/bandit_party_2","AIV842WA1CLZZ","either","1","692","","","","","","","1","0","0","0.6","","0.5","0.5","0.5","0.5","","","","","0.8","0.2","0.6","0.2","","","","","","","","","","75","K","2","","true","0","full_practice",""
"","bandit","66","304874","0.0-32.0-15.0","93408024","wem/bandit_party_2","AIV842WA1CLZZ","either","1","508","","","","","","","0","1","0","","0.6","0.5","0.5","0.5","0.5","0.8","0.2","0.6","0.2","","","","","","","","","","","","","","75","K","2","","true","0","full_practice",""
"","bandit","67","306720","0.0-32.0-16.0","93408024","wem/bandit_party_2","AIV842WA1CLZZ","either","1","332","","","","","","","0","1","0","","0.6","0.5","0.5","0.5","0.5","0.8","0.2","0.6","0.2","","","","","","","","","","","","","","75","K","2","","true","0","full_practice",""
"","bandit","68","308498","0.0-32.0-17.0","93408024","wem/bandit_party_2","AIV842WA1CLZZ","either","1","270","","","","","","","0","1","0","","0.6","0.5","0.5","0.5","0.5","0.8","0.2","0.6","0.2","","","","","","","","","","","","","","75","K","2","","true","0","full_practice",""
"","bandit","69","310266","0.0-32.0-18.0","93408024","wem/bandit_party_2","AIV842WA1CLZZ","either","1","261","","","","","","","1","0","0","0.6","","0.5","0.5","0.5","0.5","","","","","0.8","0.2","0.6","0.2","","","","","","","","","","75","K","2","","true","0","full_practice",""
"","bandit","70","312898","0.0-32.0-19.0","93408024","wem/bandit_party_2","AIV842WA1CLZZ","either","1","1124","","","","","","","0","0","1","","0.6","0.5","0.5","0.5","0.5","0.8","0.2","0.6","0.2","","","","","","","","","","","","","","75","K","2","","true","0","full_practice",""
"","text","71","316473","0.0-33.0","93408024","wem/bandit_party_2","AIV842WA1CLZZ","either","1","3568","","","32","","","","","","","","","","","","","","","","","","","","","","","","","","","","","","","","","","","","",""
"","text-replacement","72","328033","0.0-34.0","93408024","wem/bandit_party_2","AIV842WA1CLZZ","either","1","10556","","","32","","","","","","","","","","","","","","","","","","","","","","","","","","","","","","","","","","","","",""
"","text-replacement","73","333645","0.0-35.0","93408024","wem/bandit_party_2","AIV842WA1CLZZ","either","1","5610","","","32","","","","","","","","","","","","","","","","","","","","","","","","","","","","","","","","","","","","",""
"","text-replacement","74","340097","0.0-36.0","93408024","wem/bandit_party_2","AIV842WA1CLZZ","either","1","6450","","","32","","","","","","","","","","","","","","","","","","","","","","","","","","","","","","","","","","","","",""
"","text-replacement","75","344403","0.0-37.0","93408024","wem/bandit_party_2","AIV842WA1CLZZ","either","1","4304","","","32","","","","","","","","","","","","","","","","","","","","","","","","","","","","","","","","","","","","",""
"","text-replacement","76","349188","0.0-38.0","93408024","wem/bandit_party_2","AIV842WA1CLZZ","either","1","4784","","","32","","","","","","","","","","","","","","","","","","","","","","","","","","","","","","","","","","","","",""
"","survey-multi-choice-replacement","77","354426","0.0-39.0-0.0","93408024","wem/bandit_party_2","AIV842WA1CLZZ","either","1","5231","","","","","","","","","","","","","","","","","","","","","","","","Money will be added to the pool for <span style='color:blue;'>DEMOCRATS</span>","","","","","","","attn_check","","","","","","","","","0"
"","survey-multi-choice-replacement","78","358735","0.0-40.0-0.0","93408024","wem/bandit_party_2","AIV842WA1CLZZ","either","1","3300","","","","","","","","","","","","","","","","","","","","","","","","Equal amounts of money will be added to the pool for <span style='color:blue;'>DEMOCRATS</span> and subtracted from the pool for <span style='color:red;'>REPUBLICANS</span>","","","","","","","attn_check","","","","","","","","","2"
"","survey-multi-choice-replacement","79","363015","0.0-41.0-0.0","93408024","wem/bandit_party_2","AIV842WA1CLZZ","either","1","3271","","","","","","","","","","","","","","","","","","","","","","","","No money will be added to either pool","","","","","","","attn_check","","","","","","","","","3"
"","bandit","80","367733","0.0-42.0-0.0","93408024","wem/bandit_party_2","AIV842WA1CLZZ","either","1","2206","","","","","","","0","0","1","0.7674833066","","0.4","0.6","0.2","0.8","","","","","0.7674833066","0.4995060561","0.5202783506","0.8101107889","","","","","","","","","","72","H","0","img/none_selected.jpg","","1","main_expt",""
"","bandit","81","370228","0.0-43.0-0.0","93408024","wem/bandit_party_2","AIV842WA1CLZZ","either","1","988","","","","","","","0","1","0","","0.7786696111","0.4","0.6","0.2","0.8","0.7786696111","0.4452888422","0.4559554218","0.8827976921","","","","","","","","","","","","","","72","H","0","img/none_selected.jpg","","2","main_expt",""
"","bandit","82","372364","0.0-44.0-0.0","93408024","wem/bandit_party_2","AIV842WA1CLZZ","either","1","629","","","","","","","0","1","0","","0.7883912796","0.4","0.6","0.2","0.8","0.7883912796","0.4956599627","0.3791335739","0.918633781","","","","","","","","","","","","","","72","H","0","img/none_selected.jpg","","3","main_expt",""
"","bandit","83","374258","0.0-45.0-0.0","93408024","wem/bandit_party_2","AIV842WA1CLZZ","either","1","388","","","","","","","0","0","1","","0.8311681014","0.4","0.6","0.2","0.8","0.8311681014","0.3939226057","0.362446662","0.8961075186","","","","","","","","","","","","","","72","H","0","img/none_selected.jpg","","4","main_expt",""
"","bandit","84","376341","0.0-46.0-0.0","93408024","wem/bandit_party_2","AIV842WA1CLZZ","either","1","570","","","","","","","0","1","0","","0.706748425","0.4","0.6","0.2","0.8","0.706748425","0.4737796053","0.4337427147","0.9065038385","","","","","","","","","","","","","","72","H","0","img/none_selected.jpg","","5","main_expt",""
"","bandit","85","378140","0.0-47.0-0.0","93408024","wem/bandit_party_2","AIV842WA1CLZZ","either","1","291","","","","","","","1","0","0","0.7246132019","","0.4","0.6","0.2","0.8","","","","","0.7246132019","0.5798080576","0.4260566605","0.9628954729","","","","","","","","","","72","H","0","img/none_selected.jpg","","6","main_expt",""
"","bandit","86","379830","0.0-48.0-0.0","93408024","wem/bandit_party_2","AIV842WA1CLZZ","either","1","180","","","","","","","0","1","0","","0.822103072","0.4","0.6","0.2","0.8","0.822103072","0.6184433593","0.5595739282","0.9244273404","","","","","","","","","","","","","","72","H","0","img/none_selected.jpg","","7","main_expt",""
"","bandit","87","381612","0.0-49.0-0.0","93408024","wem/bandit_party_2","AIV842WA1CLZZ","either","1","274","","","","","","","0","1","0","","0.8176183596","0.4","0.6","0.2","0.8","0.8176183596","0.5380809204","0.5757792393","0.9214665689","","","","","","","","","","","","","","72","H","0","img/none_selected.jpg","","8","main_expt",""
"","bandit","88","383420","0.0-50.0-0.0","93408024","wem/bandit_party_2","AIV842WA1CLZZ","either","1","300","","","","","","","1","0","0","0.7421782695","","0.4","0.6","0.2","0.8","","","","","0.7421782695","0.4884558296","0.5508288143","0.9604963414","","","","","","","","","","72","H","0","img/none_selected.jpg","","9","main_expt",""
"","bandit","89","385364","0.0-51.0-0.0","93408024","wem/bandit_party_2","AIV842WA1CLZZ","either","1","436","","","","","","","0","1","0","","0.7112185725","0.4","0.6","0.2","0.8","0.7112185725","0.6062827564","0.4615344473","0.973544224","","","","","","","","","","","","","","72","H","0","img/none_selected.jpg","","10","main_expt",""
"","bandit","90","387260","0.0-52.0-0.0","93408024","wem/bandit_party_2","AIV842WA1CLZZ","either","1","388","","","","","","","0","1","0","","0.6656122322","0.4","0.6","0.2","0.8","0.6656122322","0.6618996933","0.4731032433","0.9756729976","","","","","","","","","","","","","","72","H","0","img/none_selected.jpg","","11","main_expt",""
"","bandit","91","389074","0.0-53.0-0.0","93408024","wem/bandit_party_2","AIV842WA1CLZZ","either","1","308","","","","","","","1","0","0","0.632951522","","0.4","0.6","0.2","0.8","","","","","0.632951522","0.6589688621","0.5028989732","0.9824084628","","","","","","","","","","72","H","0","img/none_selected.jpg","","12","main_expt",""
"","bandit","92","390834","0.0-54.0-0.0","93408024","wem/bandit_party_2","AIV842WA1CLZZ","either","1","252","","","","","","","0","1","0","","0.6428643634","0.4","0.6","0.2","0.8","0.6428643634","0.7483501345","0.5252386458","0.9852841122","","","","","","","","","","","","","","72","H","0","img/none_selected.jpg","","13","main_expt",""
"","bandit","93","392539","0.0-55.0-0.0","93408024","wem/bandit_party_2","AIV842WA1CLZZ","either","1","197","","","","","","","0","1","0","","0.5693663763","0.4","0.6","0.2","0.8","0.5693663763","0.7642220585","0.4883642101","0.9844185579","","","","","","","","","","","","","","72","H","0","img/none_selected.jpg","","14","main_expt",""
"","bandit","94","394339","0.0-56.0-0.0","93408024","wem/bandit_party_2","AIV842WA1CLZZ","either","1","293","","","","","","","0","0","1","","0.6354763258","0.4","0.6","0.2","0.8","0.6354763258","0.8255663415","0.5125695872","0.9716790186","","","","","","","","","","","","","","72","H","0","img/none_selected.jpg","","15","main_expt",""
"","bandit","95","396011","0.0-57.0-0.0","93408024","wem/bandit_party_2","AIV842WA1CLZZ","either","1","164","","","","","","","0","1","0","","0.6074668868","0.4","0.6","0.2","0.8","0.6074668868","0.8262734196","0.483313844","0.9724226268","","","","","","","","","","","","","","72","H","0","img/none_selected.jpg","","16","main_expt",""
"","bandit","96","397659","0.0-58.0-0.0","93408024","wem/bandit_party_2","AIV842WA1CLZZ","either","1","140","","","","","","","0","0","1","0.634379517","","0.4","0.6","0.2","0.8","","","","","0.634379517","0.8957105494","0.4764119597","0.969397438","","","","","","","","","","72","H","0","img/none_selected.jpg","","17","main_expt",""
"","bandit","97","399291","0.0-59.0-0.0","93408024","wem/bandit_party_2","AIV842WA1CLZZ","either","1","124","","","","","","","1","0","0","0.7399013172","","0.4","0.6","0.2","0.8","","","","","0.7399013172","0.8243017832","0.4742144938","0.9487821198","","","","","","","","","","72","H","0","img/none_selected.jpg","","18","main_expt",""
"","bandit","98","401003","0.0-60.0-0.0","93408024","wem/bandit_party_2","AIV842WA1CLZZ","either","1","204","","","","","","","1","0","0","0.6892422428","","0.4","0.6","0.2","0.8","","","","","0.6892422428","0.8174393347","0.5445729057","0.8822386923","","","","","","","","","","72","H","0","img/none_selected.jpg","","19","main_expt",""
"","bandit","99","404712","0.0-61.0-0.0","93408024","wem/bandit_party_2","AIV842WA1CLZZ","either","1","2196","","","","","","","0","1","0","","0.5544472153","0.4","0.6","0.2","0.8","0.5544472153","0.8457625901","0.5114357523","0.8658452863","","","","","","","","","","","","","","72","H","0","img/none_selected.jpg","","20","main_expt",""
"","bandit","100","406596","0.0-62.0-0.0","93408024","wem/bandit_party_2","AIV842WA1CLZZ","either","1","375","","","","","","","0","1","0","","0.4705077418","0.4","0.6","0.2","0.8","0.4705077418","0.8565453533","0.4948626968","0.8597265301","","","","","","","","","","","","","","72","H","0","img/none_selected.jpg","","21","main_expt",""
"","bandit","101","408651","0.0-63.0-0.0","93408024","wem/bandit_party_2","AIV842WA1CLZZ","either","1","548","","","","","","","0","1","0","","0.5364913494","0.4","0.6","0.2","0.8","0.5364913494","0.8821281293","0.3750889156","0.929530396","","","","","","","","","","","","","","72","H","0","img/none_selected.jpg","","22","main_expt",""
"","bandit","102","410651","0.0-64.0-0.0","93408024","wem/bandit_party_2","AIV842WA1CLZZ","either","1","492","","","","","","","1","0","0","0.5450887529","","0.4","0.6","0.2","0.8","","","","","0.5450887529","0.8253896901","0.3874093852","0.9149061772","","","","","","","","","","72","H","0","img/none_selected.jpg","","23","main_expt",""
"","bandit","103","412898","0.0-65.0-0.0","93408024","wem/bandit_party_2","AIV842WA1CLZZ","either","1","740","","","","","","","1","0","0","0.6013055931","","0.4","0.6","0.2","0.8","","","","","0.6013055931","0.8682133559","0.4126546177","0.9389899916","","","","","","","","","","72","H","0","img/none_selected.jpg","","24","main_expt",""
"","bandit","104","414922","0.0-66.0-0.0","93408024","wem/bandit_party_2","AIV842WA1CLZZ","either","1","517","","","","","","","0","0","1","0.7116226269","","0.4","0.6","0.2","0.8","","","","","0.7116226269","0.8186134727","0.3871809826","0.9583062328","","","","","","","","","","72","H","0","img/none_selected.jpg","","25","main_expt",""
"","bandit","105","417447","0.0-67.0-0.0","93408024","wem/bandit_party_2","AIV842WA1CLZZ","either","1","1016","","","","","","","0","0","1","","0.7284905038","0.4","0.6","0.2","0.8","0.7284905038","0.841170918","0.4162773602","0.9349434311","","","","","","","","","","","","","","72","H","0","img/none_selected.jpg","","26","main_expt",""
"","bandit","106","420002","0.0-68.0-0.0","93408024","wem/bandit_party_2","AIV842WA1CLZZ","either","1","1047","","","","","","","0","1","0","","0.8332298301","0.4","0.6","0.2","0.8","0.7007901837","0.8332298301","0.4153433109","0.9147743466","","","","","","","","","","","","","","74","J","1","","","27","main_expt",""
"","bandit","107","421755","0.0-69.0-0.0","93408024","wem/bandit_party_2","AIV842WA1CLZZ","either","1","244","","","","","","","1","0","0","0.8340804883","","0.4","0.6","0.2","0.8","","","","","0.7197690037","0.8340804883","0.3083156359","0.8913744663","","","","","","","","","","74","J","1","","","28","main_expt",""
"","bandit","108","423539","0.0-70.0-0.0","93408024","wem/bandit_party_2","AIV842WA1CLZZ","either","1","276","","","","","","","1","0","0","0.8800986549","","0.4","0.6","0.2","0.8","","","","","0.7569205749","0.8800986549","0.4048150761","0.9004815278","","","","","","","","","","74","J","1","","","29","main_expt",""
"","bandit","109","425418","0.0-71.0-0.0","93408024","wem/bandit_party_2","AIV842WA1CLZZ","either","1","372","","","","","","","1","0","0","0.800988266","","0.4","0.6","0.2","0.8","","","","","0.7007062976","0.800988266","0.5604470694","0.8335499875","","","","","","","","","","74","J","1","","","30","main_expt",""
"","bandit","110","427282","0.0-72.0-0.0","93408024","wem/bandit_party_2","AIV842WA1CLZZ","either","1","356","","","","","","","1","0","0","0.8092707987","","0.4","0.6","0.2","0.8","","","","","0.6218809145","0.8092707987","0.5114456598","0.7904098286","","","","","","","","","","74","J","1","","","31","main_expt",""
"","bandit","111","429086","0.0-73.0-0.0","93408024","wem/bandit_party_2","AIV842WA1CLZZ","either","1","292","","","","","","","0","0","1","","0.7600689364","0.4","0.6","0.2","0.8","0.5448888872","0.7600689364","0.5195843055","0.8156470634","","","","","","","","","","","","","","74","J","1","","","32","main_expt",""
"","bandit","112","430889","0.0-74.0-0.0","93408024","wem/bandit_party_2","AIV842WA1CLZZ","either","1","295","","","","","","","1","0","0","0.7268405739","","0.4","0.6","0.2","0.8","","","","","0.4396040002","0.7268405739","0.4278216128","0.7458483223","","","","","","","","","","74","J","1","","","33","main_expt",""
"","bandit","113","432706","0.0-75.0-0.0","93408024","wem/bandit_party_2","AIV842WA1CLZZ","either","1","308","","","","","","","0","1","0","","0.7867385379","0.4","0.6","0.2","0.8","0.3418027302","0.7867385379","0.4581725564","0.8745519215","","","","","","","","","","","","","","74","J","1","","","34","main_expt",""
"","bandit","114","434530","0.0-76.0-0.0","93408024","wem/bandit_party_2","AIV842WA1CLZZ","either","1","316","","","","","","","0","0","1","0.7776722478","","0.4","0.6","0.2","0.8","","","","","0.3770378826","0.7776722478","0.5170179058","0.8761773117","","","","","","","","","","74","J","1","","","35","main_expt",""
"","bandit","115","436321","0.0-77.0-0.0","93408024","wem/bandit_party_2","AIV842WA1CLZZ","either","1","284","","","","","","","1","0","0","0.8110731924","","0.4","0.6","0.2","0.8","","","","","0.3264650107","0.8110731924","0.5761285305","0.8898579413","","","","","","","","","","74","J","1","","","36","main_expt",""
"","bandit","116","438106","0.0-78.0-0.0","93408024","wem/bandit_party_2","AIV842WA1CLZZ","either","1","277","","","","","","","0","0","1","","0.8371501114","0.4","0.6","0.2","0.8","0.1696248696","0.8371501114","0.5824592389","0.9189960073","","","","","","","","","","","","","","74","J","1","","","37","main_expt",""
"","bandit","117","439986","0.0-79.0-0.0","93408024","wem/bandit_party_2","AIV842WA1CLZZ","either","1","371","","","","","","","1","0","0","0.801984358","","0.4","0.6","0.2","0.8","","","","","0.3008725236","0.801984358","0.5039158184","0.9429067042","","","","","","","","","","74","J","1","","","38","main_expt",""
"","bandit","118","441562","0.0-80.0-0.0","93408024","wem/bandit_party_2","AIV842WA1CLZZ","either","1","68","","","","","","","1","0","0","0.836760671","","0.4","0.6","0.2","0.8","","","","","0.3612597963","0.836760671","0.4906961915","0.8860185862","","","","","","","","","","74","J","1","","","39","main_expt",""
"","bandit","119","443330","0.0-81.0-0.0","93408024","wem/bandit_party_2","AIV842WA1CLZZ","either","1","256","","","","","","","0","0","1","","0.7930168878","0.4","0.6","0.2","0.8","0.3316001813","0.7930168878","0.5118773476","0.8958725565","","","","","","","","","","","","","","74","J","1","","","40","main_expt",""
"","bandit","120","444962","0.0-82.0-0.0","93408024","wem/bandit_party_2","AIV842WA1CLZZ","either","1","124","","","","","","","0","1","0","","0.5207000815","0.4","0.6","0.2","0.8","0.251761063","0.6758505439","0.5207000815","0.8369757826","","","","","","","","","","","","","","75","K","2","","","41","main_expt",""
"","bandit","121","446833","0.0-83.0-0.0","93408024","wem/bandit_party_2","AIV842WA1CLZZ","either","1","364","","","","","","","0","1","0","","0.6208632684","0.4","0.6","0.2","0.8","0.3764367217","0.669091732","0.6208632684","0.8724413244","","","","","","","","","","","","","","75","K","2","","","42","main_expt",""
"","bandit","122","448634","0.0-84.0-0.0","93408024","wem/bandit_party_2","AIV842WA1CLZZ","either","1","292","","","","","","","1","0","0","0.6736877605","","0.4","0.6","0.2","0.8","","","","","0.4280411123","0.5774386383","0.6736877605","0.8721156492","","","","","","","","","","75","K","2","","","43","main_expt",""
"","bandit","123","450530","0.0-85.0-0.0","93408024","wem/bandit_party_2","AIV842WA1CLZZ","either","1","388","","","","","","","0","0","1","0.6770598463","","0.4","0.6","0.2","0.8","","","","","0.4250007774","0.5402750746","0.6770598463","0.874486911","","","","","","","","","","75","K","2","","","44","main_expt",""
"","bandit","124","452386","0.0-86.0-0.0","93408024","wem/bandit_party_2","AIV842WA1CLZZ","either","1","348","","","","","","","0","0","1","","0.6811336834","0.4","0.6","0.2","0.8","0.3964774122","0.4769525635","0.6811336834","0.7653026016","","","","","","","","","","","","","","75","K","2","","","45","main_expt",""
"","bandit","125","454202","0.0-87.0-0.0","93408024","wem/bandit_party_2","AIV842WA1CLZZ","either","1","308","","","","","","","1","0","0","0.6884850605","","0.4","0.6","0.2","0.8","","","","","0.3755541509","0.460739512","0.7409040253","0.6884850605","","","","","","","","","","76","L","3","","","46","main_expt",""
"","bandit","126","456014","0.0-88.0-0.0","93408024","wem/bandit_party_2","AIV842WA1CLZZ","either","1","300","","","","","","","1","0","0","0.6869729855","","0.4","0.6","0.2","0.8","","","","","0.3698766084","0.3953603582","0.8602274841","0.6869729855","","","","","","","","","","76","L","3","","","47","main_expt",""
"","bandit","127","457786","0.0-89.0-0.0","93408024","wem/bandit_party_2","AIV842WA1CLZZ","either","1","263","","","","","","","0","0","1","0.624749708","","0.4","0.6","0.2","0.8","","","","","0.2924141828","0.5194217752","0.8947369126","0.624749708","","","","","","","","","","76","L","3","","","48","main_expt",""
"","bandit","128","459545","0.0-90.0-0.0","93408024","wem/bandit_party_2","AIV842WA1CLZZ","either","1","251","","","","","","","0","1","0","","0.6269608649","0.4","0.6","0.2","0.8","0.2506794134","0.5015721984","0.9071052574","0.6269608649","","","","","","","","","","","","","","76","L","3","","","49","main_expt",""
"","bandit","129","461201","0.0-91.0-0.0","93408024","wem/bandit_party_2","AIV842WA1CLZZ","either","1","148","","","","","","","0","0","1","0.5394470416","","0.4","0.6","0.2","0.8","","","","","0.2200095001","0.4427204185","0.8569531155","0.5394470416","","","","","","","","","","76","L","3","","","50","main_expt",""
"","bandit","130","463625","0.0-92.0-0.0","93408024","wem/bandit_party_2","AIV842WA1CLZZ","either","1","915","","","","","","","0","0","1","0.4991806479","","0.4","0.6","0.2","0.8","","","","","0.2703780474","0.5194544998","0.8728609703","0.4991806479","","","","","","","","","","76","L","3","","","51","main_expt",""
"","bandit","131","465497","0.0-93.0-0.0","93408024","wem/bandit_party_2","AIV842WA1CLZZ","either","1","365","","","","","","","0","1","0","","0.5431464126","0.4","0.6","0.2","0.8","0.3215640211","0.4420680866","0.902184381","0.5431464126","","","","","","","","","","","","","","76","L","3","","","52","main_expt",""
"","bandit","132","467253","0.0-94.0-0.0","93408024","wem/bandit_party_2","AIV842WA1CLZZ","either","1","243","","","","","","","0","1","0","","0.4799783957","0.4","0.6","0.2","0.8","0.2918797996","0.5541791803","0.8975054296","0.4799783957","","","","","","","","","","","","","","76","L","3","","","53","main_expt",""
"","bandit","133","469249","0.0-95.0-0.0","93408024","wem/bandit_party_2","AIV842WA1CLZZ","either","1","487","","","","","","","0","0","1","0.3946877269","","0.4","0.6","0.2","0.8","","","","","0.2432815539","0.6187664305","0.9436546011","0.3946877269","","","","","","","","","","76","L","3","","","54","main_expt",""
"","bandit","134","471905","0.0-96.0-0.0","93408024","wem/bandit_party_2","AIV842WA1CLZZ","either","1","1148","","","","","","","0","0","1","0.1993500609","","0.4","0.6","0.2","0.8","","","","","0.1993500609","0.538030076","0.9411334538","0.3892466866","","","","","","","","","","72","H","0","img/none_selected.jpg","","55","main_expt",""
"","bandit","135","473801","0.0-97.0-0.0","93408024","wem/bandit_party_2","AIV842WA1CLZZ","either","1","388","","","","","","","0","0","1","0.1832364248","","0.4","0.6","0.2","0.8","","","","","0.1832364248","0.5137881872","0.862285227","0.347268188","","","","","","","","","","72","H","0","img/none_selected.jpg","","56","main_expt",""
"","bandit","136","475553","0.0-98.0-0.0","93408024","wem/bandit_party_2","AIV842WA1CLZZ","either","1","244","","","","","","","1","0","0","0.6274604021","","0.4","0.6","0.2","0.8","","","","","0.1703919496","0.6274604021","0.9034803314","0.3462231845","","","","","","","","","","74","J","1","","","57","main_expt",""
"","bandit","137","477074","0.0-99.0-0.0","93408024","wem/bandit_party_2","AIV842WA1CLZZ","either","1","11","","","","","","","1","0","0","0.5636132077","","0.4","0.6","0.2","0.8","","","","","0.2146973212","0.5636132077","0.9062052911","0.3707442777","","","","","","","","","","74","J","1","","","58","main_expt",""
"","bandit","138","478874","0.0-100.0-0.0","93408024","wem/bandit_party_2","AIV842WA1CLZZ","either","1","291","","","","","","","0","1","0","","0.6555757088","0.4","0.6","0.2","0.8","0.2118107272","0.6555757088","0.9169546289","0.4530366532","","","","","","","","","","","","","","74","J","1","","","59","main_expt",""
"","bandit","139","480585","0.0-101.0-0.0","93408024","wem/bandit_party_2","AIV842WA1CLZZ","either","1","203","","","","","","","0","0","1","0.6555481193","","0.4","0.6","0.2","0.8","","","","","0.2096036334","0.6555481193","0.9048679239","0.4335409142","","","","","","","","","","74","J","1","","","60","main_expt",""
"","bandit","140","482193","0.0-102.0-0.0","93408024","wem/bandit_party_2","AIV842WA1CLZZ","either","1","100","","","","","","","1","0","0","0.6988977931","","0.4","0.6","0.2","0.8","","","","","0.1985607356","0.6988977931","0.9346572725","0.3601573371","","","","","","","","","","74","J","1","","","61","main_expt",""
"","bandit","141","483959","0.0-103.0-0.0","93408024","wem/bandit_party_2","AIV842WA1CLZZ","either","1","260","","","","","","","1","0","0","0.6124712875","","0.4","0.6","0.2","0.8","","","","","0.2352246004","0.6124712875","0.9332729597","0.3187004912","","","","","","","","","","74","J","1","","","62","main_expt",""
"","bandit","142","485468","0.0-104.0-0.0","93408024","wem/bandit_party_2","AIV842WA1CLZZ","either","1","0","","","","","","","0","0","1","","0.4881994696","0.4","0.6","0.2","0.8","0.1989126294","0.4881994696","0.9300142507","0.331276396","","","","","","","","","","","","","","74","J","1","","","63","main_expt",""
"","bandit","143","487344","0.0-105.0-0.0","93408024","wem/bandit_party_2","AIV842WA1CLZZ","either","1","369","","","","","","","0","0","1","0.5007509184","","0.4","0.6","0.2","0.8","","","","","0.2231035509","0.5007509184","0.8992917639","0.3984677","","","","","","","","","","74","J","1","","","64","main_expt",""
"","bandit","144","489060","0.0-106.0-0.0","93408024","wem/bandit_party_2","AIV842WA1CLZZ","either","1","204","","","","","","","0","1","0","","0.7939475476","0.4","0.6","0.2","0.8","0.174077904","0.6077525222","0.7939475476","0.3012021372","","","","","","","","","","","","","","75","K","2","","","65","main_expt",""
"","bandit","145","490792","0.0-107.0-0.0","93408024","wem/bandit_party_2","AIV842WA1CLZZ","either","1","224","","","","","","","0","1","0","","0.7848839068","0.4","0.6","0.2","0.8","0.1505104035","0.4876759876","0.7848839068","0.2848395029","","","","","","","","","","","","","","75","K","2","","","66","main_expt",""
"","bandit","146","492728","0.0-108.0-0.0","93408024","wem/bandit_party_2","AIV842WA1CLZZ","either","1","428","","","","","","","0","1","0","","0.7712869283","0.4","0.6","0.2","0.8","0.1706094741","0.4705728971","0.7712869283","0.2908363747","","","","","","","","","","","","","","75","K","2","","","67","main_expt",""
"","bandit","147","494593","0.0-109.0-0.0","93408024","wem/bandit_party_2","AIV842WA1CLZZ","either","1","356","","","","","","","0","0","1","","0.7426915226","0.4","0.6","0.2","0.8","0.193375558","0.5822594153","0.7426915226","0.3226378352","","","","","","","","","","","","","","75","K","2","","","68","main_expt",""
"","bandit","148","496472","0.0-110.0-0.0","93408024","wem/bandit_party_2","AIV842WA1CLZZ","either","1","371","","","","","","","0","0","1","","0.592712881","0.4","0.6","0.2","0.8","0.226811003","0.6189715015","0.592712881","0.4490581071","","","","","","","","","","","","","","75","K","2","","","69","main_expt",""
"","bandit","149","498276","0.0-111.0-0.0","93408024","wem/bandit_party_2","AIV842WA1CLZZ","either","1","291","","","","","","","0","0","1","0.42365523","","0.4","0.6","0.2","0.8","","","","","0.191142909","0.5307799745","0.6587085967","0.42365523","","","","","","","","","","76","L","3","","","70","main_expt",""
"","bandit","150","500113","0.0-112.0-0.0","93408024","wem/bandit_party_2","AIV842WA1CLZZ","either","1","328","","","","","","","0","0","1","","0.427101634","0.4","0.6","0.2","0.8","0.2371486809","0.5205551237","0.7562029562","0.427101634","","","","","","","","","","","","","","76","L","3","","","71","main_expt",""
"","bandit","151","501976","0.0-113.0-0.0","93408024","wem/bandit_party_2","AIV842WA1CLZZ","either","1","354","","","","","","","0","0","1","","0.2602117984","0.4","0.6","0.2","0.8","0.2602117984","0.5913901284","0.670676276","0.5387899421","","","","","","","","","","","","","","72","H","0","img/none_selected.jpg","","72","main_expt",""
"","bandit","152","503744","0.0-114.0-0.0","93408024","wem/bandit_party_2","AIV842WA1CLZZ","either","1","259","","","","","","","0","0","1","0.7127465592","","0.4","0.6","0.2","0.8","","","","","0.1837165363","0.7127465592","0.6870219419","0.4931252492","","","","","","","","","","74","J","1","","","73","main_expt",""
"","bandit","153","505623","0.0-115.0-0.0","93408024","wem/bandit_party_2","AIV842WA1CLZZ","either","1","372","","","","","","","0","1","0","","0.582898469","0.4","0.6","0.2","0.8","0.2032334464","0.7804212289","0.582898469","0.3888626504","","","","","","","","","","","","","","75","K","2","","","74","main_expt",""
"","bandit","154","507424","0.0-116.0-0.0","93408024","wem/bandit_party_2","AIV842WA1CLZZ","either","1","293","","","","","","","0","1","0","","0.6452442043","0.4","0.6","0.2","0.8","0.2782751631","0.7966502287","0.6452442043","0.3866429177","","","","","","","","","","","","","","75","K","2","","","75","main_expt",""
"","bandit","155","509080","0.0-117.0-0.0","93408024","wem/bandit_party_2","AIV842WA1CLZZ","either","1","148","","","","","","","0","0","1","0.7031137023","","0.4","0.6","0.2","0.8","","","","","0.3318782676","0.7775959854","0.7031137023","0.3948468247","","","","","","","","","","75","K","2","","","76","main_expt",""
"","bandit","156","510780","0.0-118.0-0.0","93408024","wem/bandit_party_2","AIV842WA1CLZZ","either","1","188","","","","","","","1","0","0","0.6096498107","","0.4","0.6","0.2","0.8","","","","","0.312607664","0.8523583745","0.6096498107","0.4853082722","","","","","","","","","","75","K","2","","","77","main_expt",""
"","bandit","157","512512","0.0-119.0-0.0","93408024","wem/bandit_party_2","AIV842WA1CLZZ","either","1","223","","","","","","","0","1","0","","0.532302087","0.4","0.6","0.2","0.8","0.3250695504","0.7707034136","0.532302087","0.4971609959","","","","","","","","","","","","","","75","K","2","","","78","main_expt",""
"","bandit","158","514336","0.0-120.0-0.0","93408024","wem/bandit_party_2","AIV842WA1CLZZ","either","1","315","","","","","","","0","1","0","","0.4448734945","0.4","0.6","0.2","0.8","0.277144637","0.7919080975","0.4448734945","0.5349041547","","","","","","","","","","","","","","75","K","2","","","79","main_expt",""
"","bandit","159","516112","0.0-121.0-0.0","93408024","wem/bandit_party_2","AIV842WA1CLZZ","either","1","267","","","","","","","0","0","1","","0.34513516","0.4","0.6","0.2","0.8","0.293018971","0.8107458935","0.34513516","0.4713204996","","","","","","","","","","","","","","75","K","2","","","80","main_expt",""
"","bandit","160","517855","0.0-122.0-0.0","93408024","wem/bandit_party_2","AIV842WA1CLZZ","either","1","236","","","","","","","0","0","1","","0.406584365","0.4","0.6","0.2","0.8","0.2730851157","0.7851591746","0.406584365","0.4132476049","","","","","","","","","","","","","","75","K","2","","","81","main_expt",""
"","bandit","161","519595","0.0-123.0-0.0","93408024","wem/bandit_party_2","AIV842WA1CLZZ","either","1","227","","","","","","","0","0","1","0.4640808921","","0.4","0.6","0.2","0.8","","","","","0.2436011542","0.8067558171","0.5068312928","0.4640808921","","","","","","","","","","76","L","3","","","82","main_expt",""
"","bandit","162","521312","0.0-124.0-0.0","93408024","wem/bandit_party_2","AIV842WA1CLZZ","either","1","209","","","","","","","0","0","1","0.442115463","","0.4","0.6","0.2","0.8","","","","","0.2009218657","0.7777816444","0.5209063211","0.442115463","","","","","","","","","","76","L","3","","","83","main_expt",""
"","bandit","163","523288","0.0-125.0-0.0","93408024","wem/bandit_party_2","AIV842WA1CLZZ","either","1","467","","","","","","","0","1","0","","0.1550904625","0.4","0.6","0.2","0.8","0.1550904625","0.7801041195","0.6221591745","0.5117806844","","","","","","","","","","","","","","72","H","0","img/none_selected.jpg","","84","main_expt",""
"","bandit","164","524840","0.0-126.0-0.0","93408024","wem/bandit_party_2","AIV842WA1CLZZ","either","1","44","","","","","","","0","0","1","0.1193398435","","0.4","0.6","0.2","0.8","","","","","0.1193398435","0.7593249252","0.6939346182","0.5309627618","","","","","","","","","","72","H","0","img/none_selected.jpg","","85","main_expt",""
"","bandit","165","526392","0.0-127.0-0.0","93408024","wem/bandit_party_2","AIV842WA1CLZZ","either","1","44","","","","","","","0","0","1","","0.1398572341","0.4","0.6","0.2","0.8","0.1398572341","0.7911667705","0.7533471596","0.5482659382","","","","","","","","","","","","","","72","H","0","img/none_selected.jpg","","86","main_expt",""
"","bandit","166","527982","0.0-128.0-0.0","93408024","wem/bandit_party_2","AIV842WA1CLZZ","either","1","84","","","","","","","0","1","0","","0.8480662183","0.4","0.6","0.2","0.8","0.1941505275","0.8480662183","0.8040573679","0.4772076429","","","","","","","","","","","","","","74","J","1","","","87","main_expt",""
"","bandit","167","529790","0.0-129.0-0.0","93408024","wem/bandit_party_2","AIV842WA1CLZZ","either","1","301","","","","","","","1","0","0","0.8110462569","","0.4","0.6","0.2","0.8","","","","","0.09645570925","0.8110462569","0.7800800897","0.5202977678","","","","","","","","","","74","J","1","","","88","main_expt",""
"","bandit","168","531368","0.0-130.0-0.0","93408024","wem/bandit_party_2","AIV842WA1CLZZ","either","1","66","","","","","","","1","0","0","0.7924414871","","0.4","0.6","0.2","0.8","","","","","0.1304326216","0.7924414871","0.7329239748","0.4970482359","","","","","","","","","","74","J","1","","","89","main_expt",""
"","bandit","169","533767","0.0-131.0-0.0","93408024","wem/bandit_party_2","AIV842WA1CLZZ","either","1","891","","","","","","","0","1","0","","0.8190855249","0.4","0.6","0.2","0.8","0.1410434261","0.8190855249","0.7202813078","0.4671205494","","","","","","","","","","","","","","74","J","1","","","90","main_expt",""
"","bandit","170","535759","0.0-132.0-0.0","93408024","wem/bandit_party_2","AIV842WA1CLZZ","either","1","483","","","","","","","1","0","0","0.858270253","","0.4","0.6","0.2","0.8","","","","","0.1277095213","0.858270253","0.698586111","0.5518401665","","","","","","","","","","74","J","1","","","91","main_expt",""
"","bandit","171","537670","0.0-133.0-0.0","93408024","wem/bandit_party_2","AIV842WA1CLZZ","either","1","403","","","","","","","1","0","0","0.8583259383","","0.4","0.6","0.2","0.8","","","","","0.08596821216","0.8583259383","0.6054304462","0.620788192","","","","","","","","","","74","J","1","","","92","main_expt",""
"","bandit","172","540607","0.0-134.0-0.0","93408024","wem/bandit_party_2","AIV842WA1CLZZ","either","1","1428","","","","","","","0","1","0","","0.8335107661","0.4","0.6","0.2","0.8","0.05652587691","0.8335107661","0.6829204303","0.679669404","","","","","","","","","","","","","","74","J","1","","","93","main_expt",""
"","bandit","173","544959","0.0-135.0-0.0","93408024","wem/bandit_party_2","AIV842WA1CLZZ","either","1","2840","","","","","","","1","0","0","0.8849423118","","0.4","0.6","0.2","0.8","","","","","0.07490457358","0.8849423118","0.6084783934","0.6726581754","","","","","","","","","","74","J","1","","","94","main_expt",""
"","bandit","174","546878","0.0-136.0-0.0","93408024","wem/bandit_party_2","AIV842WA1CLZZ","either","1","411","","","","","","","1","0","0","0.9175662658","","0.4","0.6","0.2","0.8","","","","","0.05201682933","0.9175662658","0.51962455","0.5983950962","","","","","","","","","","74","J","1","","","95","main_expt",""
"","bandit","175","548823","0.0-137.0-0.0","93408024","wem/bandit_party_2","AIV842WA1CLZZ","either","1","436","","","","","","","0","1","0","","0.8726153548","0.4","0.6","0.2","0.8","0.0353667714","0.8726153548","0.453067158","0.6316158747","","","","","","","","","","","","","","74","J","1","","","96","main_expt",""
"","bandit","176","551014","0.0-138.0-0.0","93408024","wem/bandit_party_2","AIV842WA1CLZZ","either","1","684","","","","","","","0","1","0","","0.7260562137","0.4","0.6","0.2","0.8","0.04301306848","0.7260562137","0.4090095009","0.6660601513","","","","","","","","","","","","","","74","J","1","","","97","main_expt",""
"","bandit","177","553014","0.0-139.0-0.0","93408024","wem/bandit_party_2","AIV842WA1CLZZ","either","1","491","","","","","","","1","0","0","0.6506148609","","0.4","0.6","0.2","0.8","","","","","0.03950067624","0.6506148609","0.360727585","0.6185462561","","","","","","","","","","74","J","1","","","98","main_expt",""
"","bandit","178","555720","0.0-140.0-0.0","93408024","wem/bandit_party_2","AIV842WA1CLZZ","either","1","1193","","","","","","","0","1","0","","0.5816342488","0.4","0.6","0.2","0.8","0.03156699585","0.5816342488","0.3351327477","0.581128502","","","","","","","","","","","","","","74","J","1","","","99","main_expt",""
"","bandit","179","557806","0.0-141.0-0.0","93408024","wem/bandit_party_2","AIV842WA1CLZZ","either","1","577","","","","","","","0","0","1","","0.5521464449","0.4","0.6","0.2","0.8","0.0248161238","0.5521464449","0.3491912274","0.479775063","","","","","","","","","","","","","","74","J","1","","","100","main_expt",""
"","bandit","180","559677","0.0-142.0-0.0","93408024","wem/bandit_party_2","AIV842WA1CLZZ","either","1","363","","","","","","","0","0","1","","0.6063232436","0.4","0.6","0.2","0.8","0.02218075004","0.6063232436","0.4105375765","0.5114647241","","","","","","","","","","","","","","74","J","1","","","101","main_expt",""
"","bandit","181","561510","0.0-143.0-0.0","93408024","wem/bandit_party_2","AIV842WA1CLZZ","either","1","324","","","","","","","0","0","1","","0.438632671","0.4","0.6","0.2","0.8","0.01802152149","0.5636213764","0.438632671","0.4718740674","","","","","","","","","","","","","","75","K","2","","","102","main_expt",""
"","bandit","182","563414","0.0-144.0-0.0","93408024","wem/bandit_party_2","AIV842WA1CLZZ","either","1","396","","","","","","","0","1","0","","0.372838406","0.4","0.6","0.2","0.8","0.01877214671","0.5370473259","0.372838406","0.5245129891","","","","","","","","","","","","","","75","K","2","","","103","main_expt",""
"","bandit","183","565062","0.0-145.0-0.0","93408024","wem/bandit_party_2","AIV842WA1CLZZ","either","1","139","","","","","","","0","0","1","","0.3057692375","0.4","0.6","0.2","0.8","0.01556743346","0.549647281","0.3057692375","0.5170751474","","","","","","","","","","","","","","75","K","2","","","104","main_expt",""
"","bandit","184","566837","0.0-146.0-0.0","93408024","wem/bandit_party_2","AIV842WA1CLZZ","either","1","267","","","","","","","0","0","1","","0.37369274","0.4","0.6","0.2","0.8","0.03717147126","0.4225976111","0.37369274","0.472330124","","","","","","","","","","","","","","75","K","2","","","105","main_expt",""
"","bandit","185","568889","0.0-147.0-0.0","93408024","wem/bandit_party_2","AIV842WA1CLZZ","either","1","540","","","","","","","0","0","1","0.568133852","","0.4","0.6","0.2","0.8","","","","","0.07687033395","0.5005163425","0.3179799449","0.568133852","","","","","","","","","","76","L","3","","","106","main_expt",""
"","bandit","186","571070","0.0-148.0-0.0","93408024","wem/bandit_party_2","AIV842WA1CLZZ","either","1","672","","","","","","","0","0","1","0.536018559","","0.4","0.6","0.2","0.8","","","","","0.07659049968","0.3995396385","0.3053765494","0.536018559","","","","","","","","","","76","L","3","","","107","main_expt",""
"","bandit","187","572926","0.0-149.0-0.0","93408024","wem/bandit_party_2","AIV842WA1CLZZ","either","1","348","","","","","","","0","0","1","","0.07827602418","0.4","0.6","0.2","0.8","0.07827602418","0.3855926336","0.2732860947","0.3880888981","","","","","","","","","","","","","","72","H","0","img/none_selected.jpg","","108","main_expt",""
"","bandit","188","574742","0.0-150.0-0.0","93408024","wem/bandit_party_2","AIV842WA1CLZZ","either","1","307","","","","","","","0","0","1","","0.1352418701","0.4","0.6","0.2","0.8","0.1352418701","0.3059937163","0.2624197952","0.3675045314","","","","","","","","","","","","","","72","H","0","img/none_selected.jpg","","109","main_expt",""
"","bandit","189","576622","0.0-151.0-0.0","93408024","wem/bandit_party_2","AIV842WA1CLZZ","either","1","371","","","","","","","0","0","1","","0.2752892785","0.4","0.6","0.2","0.8","0.1705666919","0.2752892785","0.3303210632","0.4560700489","","","","","","","","","","","","","","74","J","1","","","110","main_expt",""
"","bandit","190","578449","0.0-152.0-0.0","93408024","wem/bandit_party_2","AIV842WA1CLZZ","either","1","315","","","","","","","0","1","0","","0.3038626008","0.4","0.6","0.2","0.8","0.2202970635","0.3038626008","0.3541452024","0.5366389876","","","","","","","","","","","","","","74","J","1","","","111","main_expt",""
"","bandit","191","580022","0.0-153.0-0.0","93408024","wem/bandit_party_2","AIV842WA1CLZZ","either","1","64","","","","","","","0","0","1","","0.2308866464","0.4","0.6","0.2","0.8","0.2368742277","0.2308866464","0.4468573219","0.5742054707","","","","","","","","","","","","","","74","J","1","","","112","main_expt",""
"","bandit","192","581734","0.0-154.0-0.0","93408024","wem/bandit_party_2","AIV842WA1CLZZ","either","1","204","","","","","","","0","0","1","0.2420052043","","0.4","0.6","0.2","0.8","","","","","0.2487241586","0.2420052043","0.5163231944","0.6014260319","","","","","","","","","","74","J","1","","","113","main_expt",""
"","bandit","193","583700","0.0-155.0-0.0","93408024","wem/bandit_party_2","AIV842WA1CLZZ","either","1","459","","","","","","","1","0","0","0.4064640458","","0.4","0.6","0.2","0.8","","","","","0.238824581","0.3277817495","0.4064640458","0.5398035654","","","","","","","","","","75","K","2","","","114","main_expt",""
"","bandit","194","585220","0.0-156.0-0.0","93408024","wem/bandit_party_2","AIV842WA1CLZZ","either","1","11","","","","","","","0","1","0","","0.4085425191","0.4","0.6","0.2","0.8","0.1480638281","0.3280884562","0.4085425191","0.5008208772","","","","","","","","","","","","","","75","K","2","","","115","main_expt",""
"","bandit","195","587053","0.0-157.0-0.0","93408024","wem/bandit_party_2","AIV842WA1CLZZ","either","1","324","","","","","","","0","0","1","","0.4412864427","0.4","0.6","0.2","0.8","0.1246447603","0.4137256642","0.4412864427","0.4200837231","","","","","","","","","","","","","","75","K","2","","","116","main_expt",""
"","bandit","196","588909","0.0-158.0-0.0","93408024","wem/bandit_party_2","AIV842WA1CLZZ","either","1","347","","","","","","","0","1","0","","0.5188885271","0.4","0.6","0.2","0.8","0.1308085784","0.372751341","0.5188885271","0.4094987027","","","","","","","","","","","","","","75","K","2","","","117","main_expt",""
"","bandit","197","590761","0.0-159.0-0.0","93408024","wem/bandit_party_2","AIV842WA1CLZZ","either","1","339","","","","","","","0","0","1","","0.5728151575","0.4","0.6","0.2","0.8","0.09076242324","0.4225631273","0.5728151575","0.3862907493","","","","","","","","","","","","","","75","K","2","","","118","main_expt",""
"","bandit","198","592957","0.0-160.0-0.0","93408024","wem/bandit_party_2","AIV842WA1CLZZ","either","1","687","","","","","","","1","0","0","0.5065624602","","0.4","0.6","0.2","0.8","","","","","0.09057925276","0.4188482812","0.5065624602","0.4437318585","","","","","","","","","","75","K","2","","","119","main_expt",""
"","bandit","199","594837","0.0-161.0-0.0","93408024","wem/bandit_party_2","AIV842WA1CLZZ","either","1","371","","","","","","","0","1","0","","0.4064427813","0.4","0.6","0.2","0.8","0.1288926122","0.3729077829","0.4064427813","0.293469011","","","","","","","","","","","","","","75","K","2","","","120","main_expt",""
"","bandit","200","596789","0.0-162.0-0.0","93408024","wem/bandit_party_2","AIV842WA1CLZZ","either","1","443","","","","","","","0","1","0","","0.3948988447","0.4","0.6","0.2","0.8","0.1479701512","0.3817262037","0.3948988447","0.2141601759","","","","","","","","","","","","","","75","K","2","","","121","main_expt",""
"","bandit","201","598773","0.0-163.0-0.0","93408024","wem/bandit_party_2","AIV842WA1CLZZ","either","1","475","","","","","","","0","0","1","","0.316823658","0.4","0.6","0.2","0.8","0.1663524813","0.3537210734","0.316823658","0.2594293103","","","","","","","","","","","","","","75","K","2","","","122","main_expt",""
"","bandit","202","600669","0.0-164.0-0.0","93408024","wem/bandit_party_2","AIV842WA1CLZZ","either","1","387","","","","","","","0","1","0","","0.3045978244","0.4","0.6","0.2","0.8","0.1993917655","0.3633727708","0.3045978244","0.1519240937","","","","","","","","","","","","","","75","K","2","","","123","main_expt",""
"","bandit","203","602422","0.0-165.0-0.0","93408024","wem/bandit_party_2","AIV842WA1CLZZ","either","1","243","","","","","","","0","1","0","","0.2389028675","0.4","0.6","0.2","0.8","0.2948689786","0.4139908316","0.2389028675","0.2311656533","","","","","","","","","","","","","","75","K","2","","","124","main_expt",""
"","bandit","204","604260","0.0-166.0-0.0","93408024","wem/bandit_party_2","AIV842WA1CLZZ","either","1","331","","","","","","","0","0","1","","0.2166803268","0.4","0.6","0.2","0.8","0.4054398129","0.3619800754","0.2166803268","0.1956748967","","","","","","","","","","","","","","75","K","2","","","125","main_expt",""
"","bandit","205","606125","0.0-167.0-0.0","93408024","wem/bandit_party_2","AIV842WA1CLZZ","either","1","356","","","","","","","0","0","1","","0.1613674106","0.4","0.6","0.2","0.8","0.5337661481","0.353362548","0.1613674106","0.1419383156","","","","","","","","","","","","","","75","K","2","","","126","main_expt",""
"","bandit","206","607660","0.0-168.0-0.0","93408024","wem/bandit_party_2","AIV842WA1CLZZ","either","1","27","","","","","","","0","0","1","0.1768105291","","0.4","0.6","0.2","0.8","","","","","0.5510518781","0.2888217425","0.1682412955","0.1768105291","","","","","","","","","","76","L","3","","","127","main_expt",""
"","bandit","207","609573","0.0-169.0-0.0","93408024","wem/bandit_party_2","AIV842WA1CLZZ","either","1","404","","","","","","","0","0","1","0.1187699492","","0.4","0.6","0.2","0.8","","","","","0.4746642732","0.3131893798","0.1655910943","0.1187699492","","","","","","","","","","76","L","3","","","128","main_expt",""
"","bandit","208","612300","0.0-170.0-0.0","93408024","wem/bandit_party_2","AIV842WA1CLZZ","either","1","1220","","","","","","","0","0","1","0.5345142674","","0.4","0.6","0.2","0.8","","","","","0.5345142674","0.2826861836","0.1845506081","0.1860330609","","","","","","","","","","72","H","0","img/none_selected.jpg","","129","main_expt",""
"","bandit","209","614292","0.0-171.0-0.0","93408024","wem/bandit_party_2","AIV842WA1CLZZ","either","1","484","","","","","","","0","0","1","0.3434973012","","0.4","0.6","0.2","0.8","","","","","0.6617219445","0.3434973012","0.1548240476","0.09722607165","","","","","","","","","","74","J","1","","","130","main_expt",""
"","bandit","210","616108","0.0-172.0-0.0","93408024","wem/bandit_party_2","AIV842WA1CLZZ","either","1","307","","","","","","","0","0","1","","0.1503989","0.4","0.6","0.2","0.8","0.6183560712","0.3848082556","0.1503989","0.05626421391","","","","","","","","","","","","","","75","K","2","","","131","main_expt",""
"","bandit","211","617941","0.0-173.0-0.0","93408024","wem/bandit_party_2","AIV842WA1CLZZ","either","1","324","","","","","","","0","0","1","0.1149854728","","0.4","0.6","0.2","0.8","","","","","0.7009512511","0.4140069858","0.1199593994","0.1149854728","","","","","","","","","","76","L","3","","","132","main_expt",""
"","bandit","212","619784","0.0-174.0-0.0","93408024","wem/bandit_party_2","AIV842WA1CLZZ","either","1","330","","","","","","","0","0","1","","0.5838974895","0.4","0.6","0.2","0.8","0.5838974895","0.3745017877","0.1518383839","0.1698175541","","","","","","","","","","","","","","72","H","0","img/none_selected.jpg","","133","main_expt",""
"","bandit","213","621484","0.0-175.0-0.0","93408024","wem/bandit_party_2","AIV842WA1CLZZ","either","1","191","","","","","","","0","1","0","","0.6628563986","0.4","0.6","0.2","0.8","0.6628563986","0.3918835711","0.1855528241","0.1925371395","","","","","","","","","","","","","","72","H","0","img/none_selected.jpg","","134","main_expt",""
"","bandit","214","623796","0.0-176.0-0.0","93408024","wem/bandit_party_2","AIV842WA1CLZZ","either","1","803","","","","","","","0","0","1","","0.5610912218","0.4","0.6","0.2","0.8","0.5610912218","0.3405764209","0.2187769305","0.246136332","","","","","","","","","","","","","","72","H","0","img/none_selected.jpg","","135","main_expt",""
"","bandit","215","625379","0.0-177.0-0.0","93408024","wem/bandit_party_2","AIV842WA1CLZZ","either","1","75","","","","","","","0","0","1","","0.4834649218","0.4","0.6","0.2","0.8","0.4834649218","0.4155430462","0.2001534018","0.2277518718","","","","","","","","","","","","","","72","H","0","img/none_selected.jpg","","136","main_expt",""
"","bandit","216","627493","0.0-178.0-0.0","93408024","wem/bandit_party_2","AIV842WA1CLZZ","either","1","604","","","","","","","0","1","0","","0.3389252929","0.4","0.6","0.2","0.8","0.513072369","0.3389252929","0.176995917","0.252962458","","","","","","","","","","","","","","74","J","1","","","137","main_expt",""
"","bandit","217","629348","0.0-179.0-0.0","93408024","wem/bandit_party_2","AIV842WA1CLZZ","either","1","346","","","","","","","0","0","1","0.2698753193","","0.4","0.6","0.2","0.8","","","","","0.5502636267","0.2698753193","0.1460019238","0.3018696236","","","","","","","","","","74","J","1","","","138","main_expt",""
"","bandit","218","631094","0.0-180.0-0.0","93408024","wem/bandit_party_2","AIV842WA1CLZZ","either","1","233","","","","","","","0","0","1","","0.2821570394","0.4","0.6","0.2","0.8","0.4564922144","0.2821570394","0.06707115951","0.347353107","","","","","","","","","","","","","","74","J","1","","","139","main_expt",""
"","bandit","219","632916","0.0-181.0-0.0","93408024","wem/bandit_party_2","AIV842WA1CLZZ","either","1","313","","","","","","","0","0","1","0.1071331831","","0.4","0.6","0.2","0.8","","","","","0.4116013625","0.3577533322","0.1071331831","0.2477375586","","","","","","","","","","75","K","2","","","140","main_expt",""
"","bandit","220","634820","0.0-182.0-0.0","93408024","wem/bandit_party_2","AIV842WA1CLZZ","either","1","395","","","","","","","0","0","1","","0.1224459691","0.4","0.6","0.2","0.8","0.4498847811","0.4250900652","0.1224459691","0.2880826197","","","","","","","","","","","","","","75","K","2","","","141","main_expt",""
"","bandit","221","636811","0.0-183.0-0.0","93408024","wem/bandit_party_2","AIV842WA1CLZZ","either","1","483","","","","","","","0","0","1","0.2287108423","","0.4","0.6","0.2","0.8","","","","","0.4822150968","0.3451055681","0.1127900777","0.2287108423","","","","","","","","","","76","L","3","","","142","main_expt",""
"","bandit","222","638319","0.0-184.0-0.0","93408024","wem/bandit_party_2","AIV842WA1CLZZ","either","1","1","","","","","","","0","0","1","0.2096850542","","0.4","0.6","0.2","0.8","","","","","0.513506041","0.4661026996","0.1736101882","0.2096850542","","","","","","","","","","76","L","3","","","143","main_expt",""
"","bandit","223","640268","0.0-185.0-0.0","93408024","wem/bandit_party_2","AIV842WA1CLZZ","either","1","440","","","","","","","0","0","1","","0.2214165798","0.4","0.6","0.2","0.8","0.556822441","0.4683168179","0.1231714597","0.2214165798","","","","","","","","","","","","","","76","L","3","","","144","main_expt",""
"","bandit","224","642751","0.0-186.0-0.0","93408024","wem/bandit_party_2","AIV842WA1CLZZ","either","1","971","","","","","","","0","1","0","","0.10514291","0.4","0.6","0.2","0.8","0.5633269006","0.448697065","0.10514291","0.2412424024","","","","","","","","","","","","","","75","K","2","","","145","main_expt",""
"","bandit","225","644522","0.0-187.0-0.0","93408024","wem/bandit_party_2","AIV842WA1CLZZ","either","1","263","","","","","","","0","0","1","","0.0972381369","0.4","0.6","0.2","0.8","0.6482805244","0.4560677512","0.0972381369","0.1841611904","","","","","","","","","","","","","","75","K","2","","","146","main_expt",""
"","bandit","226","646164","0.0-188.0-0.0","93408024","wem/bandit_party_2","AIV842WA1CLZZ","either","1","133","","","","","","","0","0","1","","0.1897119627","0.4","0.6","0.2","0.8","0.6036290043","0.513472809","0.1897119627","0.1577922033","","","","","","","","","","","","","","75","K","2","","","147","main_expt",""
"","bandit","227","648100","0.0-189.0-0.0","93408024","wem/bandit_party_2","AIV842WA1CLZZ","either","1","427","","","","","","","1","0","0","0.3820674583","","0.4","0.6","0.2","0.8","","","","","0.6110248825","0.3820674583","0.1759094881","0.1663963597","","","","","","","","","","74","J","1","","","148","main_expt",""
"","bandit","228","649939","0.0-190.0-0.0","93408024","wem/bandit_party_2","AIV842WA1CLZZ","either","1","330","","","","","","","0","0","1","0.3116557105","","0.4","0.6","0.2","0.8","","","","","0.6453676348","0.3116557105","0.2204336569","0.319747154","","","","","","","","","","74","J","1","","","149","main_expt",""
"","bandit","229","651515","0.0-191.0-0.0","93408024","wem/bandit_party_2","AIV842WA1CLZZ","either","1","67","","","","","","","0","0","1","","0.3039338698","0.4","0.6","0.2","0.8","0.66235511","0.3039338698","0.2328853871","0.5410110608","","","","","","","","","","","","","","74","J","1","","","150","main_expt",""
"","bandit","230","653319","0.0-192.0-0.0","93408024","wem/bandit_party_2","AIV842WA1CLZZ","either","1","291","","","","","","","0","0","1","","0.3092958796","0.4","0.6","0.2","0.8","0.5547575852","0.3092958796","0.2652525627","0.5584745132","","","","","","","","","","","","","","74","J","1","","","151","main_expt",""
"","bandit","231","655092","0.0-193.0-0.0","93408024","wem/bandit_party_2","AIV842WA1CLZZ","either","1","263","","","","","","","0","1","0","","0.2654363334","0.4","0.6","0.2","0.8","0.5223098228","0.3097370874","0.2654363334","0.5709378499","","","","","","","","","","","","","","75","K","2","","","152","main_expt",""
"","bandit","232","656979","0.0-194.0-0.0","93408024","wem/bandit_party_2","AIV842WA1CLZZ","either","1","378","","","","","","","1","0","0","0.3505589273","","0.4","0.6","0.2","0.8","","","","","0.5137303037","0.2955649657","0.3505589273","0.6314515046","","","","","","","","","","75","K","2","","","153","main_expt",""
"","bandit","233","658803","0.0-195.0-0.0","93408024","wem/bandit_party_2","AIV842WA1CLZZ","either","1","315","","","","","","","1","0","0","0.39889796","","0.4","0.6","0.2","0.8","","","","","0.5193194566","0.221553637","0.39889796","0.6734276465","","","","","","","","","","75","K","2","","","154","main_expt",""
"","bandit","234","660651","0.0-196.0-0.0","93408024","wem/bandit_party_2","AIV842WA1CLZZ","either","1","339","","","","","","","0","0","1","0.4202606707","","0.4","0.6","0.2","0.8","","","","","0.4736812385","0.2231547498","0.4202606707","0.7019144477","","","","","","","","","","75","K","2","","","155","main_expt",""
"","bandit","235","662455","0.0-197.0-0.0","93408024","wem/bandit_party_2","AIV842WA1CLZZ","either","1","291","","","","","","","0","1","0","","0.4814159609","0.4","0.6","0.2","0.8","0.4616442501","0.2750957943","0.4814159609","0.6695455193","","","","","","","","","","","","","","75","K","2","","","156","main_expt",""
"","bandit","236","664356","0.0-198.0-0.0","93408024","wem/bandit_party_2","AIV842WA1CLZZ","either","1","390","","","","","","","0","0","1","","0.5316807058","0.4","0.6","0.2","0.8","0.5025740222","0.2005793054","0.5316807058","0.6179864128","","","","","","","","","","","","","","75","K","2","","","157","main_expt",""
"","bandit","237","665995","0.0-199.0-0.0","93408024","wem/bandit_party_2","AIV842WA1CLZZ","either","1","130","","","","","","","1","0","0","0.5429668589","","0.4","0.6","0.2","0.8","","","","","0.4548105643","0.2502080146","0.5429668589","0.7380689997","","","","","","","","","","75","K","2","","","158","main_expt",""
"","bandit","238","667762","0.0-200.0-0.0","93408024","wem/bandit_party_2","AIV842WA1CLZZ","either","1","259","","","","","","","0","0","1","","0.5991419929","0.4","0.6","0.2","0.8","0.4622667215","0.2729805177","0.5991419929","0.7632184112","","","","","","","","","","","","","","75","K","2","","","159","main_expt",""
"","bandit","239","669539","0.0-201.0-0.0","93408024","wem/bandit_party_2","AIV842WA1CLZZ","either","1","268","","","","","","","0","1","0","","0.6480894682","0.4","0.6","0.2","0.8","0.4600517474","0.2801697818","0.6480894682","0.6917664031","","","","","","","","","","","","","","75","K","2","","","160","main_expt",""
"","bandit","240","671335","0.0-202.0-0.0","93408024","wem/bandit_party_2","AIV842WA1CLZZ","either","1","283","","","","","","","0","0","1","","0.6776161973","0.4","0.6","0.2","0.8","0.481388234","0.2437938608","0.6776161973","0.7106531984","","","","","","","","","","","","","","75","K","2","","","161","main_expt",""
"","bandit","241","673100","0.0-203.0-0.0","93408024","wem/bandit_party_2","AIV842WA1CLZZ","either","1","255","","","","","","","0","0","1","","0.7134031715","0.4","0.6","0.2","0.8","0.3850106192","0.2687553501","0.7134031715","0.809310282","","","","","","","","","","","","","","75","K","2","","","162","main_expt",""
"","bandit","242","674819","0.0-204.0-0.0","93408024","wem/bandit_party_2","AIV842WA1CLZZ","either","1","210","","","","","","","0","0","1","0.7492875705","","0.4","0.6","0.2","0.8","","","","","0.3498723973","0.245991677","0.6215635068","0.7492875705","","","","","","","","","","76","L","3","","","163","main_expt",""
"","bandit","243","676395","0.0-205.0-0.0","93408024","wem/bandit_party_2","AIV842WA1CLZZ","either","1","67","","","","","","","1","0","0","0.7561394707","","0.4","0.6","0.2","0.8","","","","","0.4287417444","0.270385563","0.5219240024","0.7561394707","","","","","","","","","","76","L","3","","","164","main_expt",""
"","bandit","244","678155","0.0-206.0-0.0","93408024","wem/bandit_party_2","AIV842WA1CLZZ","either","1","251","","","","","","","1","0","0","0.8111415702","","0.4","0.6","0.2","0.8","","","","","0.3150145745","0.3037855967","0.4727302842","0.8111415702","","","","","","","","","","76","L","3","","","165","main_expt",""
"","bandit","245","679971","0.0-207.0-0.0","93408024","wem/bandit_party_2","AIV842WA1CLZZ","either","1","307","","","","","","","0","0","1","0.7759938205","","0.4","0.6","0.2","0.8","","","","","0.2927018344","0.3395577104","0.5181018645","0.7759938205","","","","","","","","","","76","L","3","","","166","main_expt",""
"","bandit","246","681724","0.0-208.0-0.0","93408024","wem/bandit_party_2","AIV842WA1CLZZ","either","1","240","","","","","","","1","0","0","0.8267633335","","0.4","0.6","0.2","0.8","","","","","0.3610256338","0.3443901906","0.5280433419","0.8267633335","","","","","","","","","","76","L","3","","","167","main_expt",""
"","bandit","247","683579","0.0-209.0-0.0","93408024","wem/bandit_party_2","AIV842WA1CLZZ","either","1","346","","","","","","","0","0","1","0.8136073627","","0.4","0.6","0.2","0.8","","","","","0.3137127159","0.2552323567","0.5470010145","0.8136073627","","","","","","","","","","76","L","3","","","168","main_expt",""
"","bandit","248","685906","0.0-210.0-0.0","93408024","wem/bandit_party_2","AIV842WA1CLZZ","either","1","819","","","","","","","0","0","1","0.2292796242","","0.4","0.6","0.2","0.8","","","","","0.2292796242","0.289352286","0.5558845962","0.7308533614","","","","","","","","","","72","H","0","img/none_selected.jpg","","169","main_expt",""
"","bandit","249","689991","0.0-211.0-0.0","93408024","wem/bandit_party_2","AIV842WA1CLZZ","either","1","2576","","","","","","","0","0","1","0.221948569","","0.4","0.6","0.2","0.8","","","","","0.221948569","0.2262743404","0.5799309324","0.7090730391","","","","","","","","","","72","H","0","img/none_selected.jpg","","170","main_expt",""
"","bandit","250","692600","0.0-212.0-0.0","93408024","wem/bandit_party_2","AIV842WA1CLZZ","either","1","1100","","","","","","","0","0","1","0.2644351609","","0.4","0.6","0.2","0.8","","","","","0.159615594","0.2644351609","0.6643953266","0.7229684446","","","","","","","","","","74","J","1","","","171","main_expt",""
"","bandit","251","694395","0.0-213.0-0.0","93408024","wem/bandit_party_2","AIV842WA1CLZZ","either","1","283","","","","","","","0","1","0","","0.4136296373","0.4","0.6","0.2","0.8","0.1303854457","0.4136296373","0.7610666705","0.6612043244","","","","","","","","","","","","","","74","J","1","","","172","main_expt",""
"","bandit","252","696575","0.0-214.0-0.0","93408024","wem/bandit_party_2","AIV842WA1CLZZ","either","1","672","","","","","","","0","0","1","0.491318492","","0.4","0.6","0.2","0.8","","","","","0.07729024622","0.491318492","0.8006149786","0.7669021743","","","","","","","","","","74","J","1","","","173","main_expt",""
"","bandit","253","698199","0.0-215.0-0.0","93408024","wem/bandit_party_2","AIV842WA1CLZZ","either","1","115","","","","","","","0","0","1","0.4966763124","","0.4","0.6","0.2","0.8","","","","","0.1227026474","0.4966763124","0.791095403","0.8111867287","","","","","","","","","","74","J","1","","","174","main_expt",""
"","bandit","254","700487","0.0-216.0-0.0","93408024","wem/bandit_party_2","AIV842WA1CLZZ","either","1","779","","","","","","","1","0","0","0.8572088762","","0.4","0.6","0.2","0.8","","","","","0.09483306355","0.5109350621","0.8572088762","0.8192498968","","","","","","","","","","75","K","2","","","175","main_expt",""
"","bandit","255","702275","0.0-217.0-0.0","93408024","wem/bandit_party_2","AIV842WA1CLZZ","either","1","276","","","","","","","0","1","0","","0.8576080684","0.4","0.6","0.2","0.8","0.143069758","0.6321295754","0.8576080684","0.8371283275","","","","","","","","","","","","","","75","K","2","","","176","main_expt",""
"","bandit","256","704112","0.0-218.0-0.0","93408024","wem/bandit_party_2","AIV842WA1CLZZ","either","1","327","","","","","","","0","1","0","","0.8678158231","0.4","0.6","0.2","0.8","0.1741656422","0.5515755996","0.8678158231","0.8545140947","","","","","","","","","","","","","","75","K","2","","","177","main_expt",""
"","bandit","257","706031","0.0-219.0-0.0","93408024","wem/bandit_party_2","AIV842WA1CLZZ","either","1","410","","","","","","","0","1","0","","0.8820542777","0.4","0.6","0.2","0.8","0.1904086474","0.5086275016","0.8820542777","0.8794893657","","","","","","","","","","","","","","75","K","2","","","178","main_expt",""
"","bandit","258","707975","0.0-220.0-0.0","93408024","wem/bandit_party_2","AIV842WA1CLZZ","either","1","435","","","","","","","0","1","0","","0.8907334788","0.4","0.6","0.2","0.8","0.1778905233","0.5215192908","0.8907334788","0.8939587296","","","","","","","","","","","","","","75","K","2","","","179","main_expt",""
"","bandit","259","709897","0.0-221.0-0.0","93408024","wem/bandit_party_2","AIV842WA1CLZZ","either","1","411","","","","","","","0","1","0","","0.9161653667","0.4","0.6","0.2","0.8","0.2112817454","0.5193414217","0.9161653667","0.868077767","","","","","","","","","","","","","","75","K","2","","","180","main_expt",""
"","bandit","260","711952","0.0-222.0-0.0","93408024","wem/bandit_party_2","AIV842WA1CLZZ","either","1","544","","","","","","","0","1","0","","0.9327112184","0.4","0.6","0.2","0.8","0.2236312472","0.4613460131","0.9327112184","0.9295405476","","","","","","","","","","","","","","75","K","2","","","181","main_expt",""
"","bandit","261","714327","0.0-223.0-0.0","93408024","wem/bandit_party_2","AIV842WA1CLZZ","either","1","866","","","","","","","1","0","0","0.9284398706","","0.4","0.6","0.2","0.8","","","","","0.264467441","0.4468633868","0.9284398706","0.9213574857","","","","","","","","","","75","K","2","","","182","main_expt",""
"","bandit","262","716272","0.0-224.0-0.0","93408024","wem/bandit_party_2","AIV842WA1CLZZ","either","1","435","","","","","","","0","1","0","","0.89591471","0.4","0.6","0.2","0.8","0.2240632979","0.4985091709","0.89591471","0.9374560388","","","","","","","","","","","","","","75","K","2","","","183","main_expt",""
"","bandit","263","718111","0.0-225.0-0.0","93408024","wem/bandit_party_2","AIV842WA1CLZZ","either","1","330","","","","","","","0","1","0","","0.9146434193","0.4","0.6","0.2","0.8","0.1671404848","0.6057575335","0.9146434193","0.9120054929","","","","","","","","","","","","","","75","K","2","","","184","main_expt",""
"","bandit","264","720147","0.0-226.0-0.0","93408024","wem/bandit_party_2","AIV842WA1CLZZ","either","1","523","","","","","","","0","1","0","","0.8575823977","0.4","0.6","0.2","0.8","0.1932257563","0.4915456485","0.8575823977","0.8428471033","","","","","","","","","","","","","","75","K","2","","","185","main_expt",""
"","bandit","265","722087","0.0-227.0-0.0","93408024","wem/bandit_party_2","AIV842WA1CLZZ","either","1","431","","","","","","","1","0","0","0.8487952361","","0.4","0.6","0.2","0.8","","","","","0.155472597","0.5976273718","0.8487952361","0.7734335662","","","","","","","","","","75","K","2","","","186","main_expt",""
"","bandit","266","723871","0.0-228.0-0.0","93408024","wem/bandit_party_2","AIV842WA1CLZZ","either","1","275","","","","","","","0","1","0","","0.8603972339","0.4","0.6","0.2","0.8","0.1895871356","0.5743595779","0.8603972339","0.7667319261","","","","","","","","","","","","","","75","K","2","","","187","main_expt",""
"","bandit","267","725959","0.0-229.0-0.0","93408024","wem/bandit_party_2","AIV842WA1CLZZ","either","1","579","","","","","","","0","1","0","","0.8834510925","0.4","0.6","0.2","0.8","0.2119556673","0.6833173747","0.8834510925","0.5945875292","","","","","","","","","","","","","","75","K","2","","","188","main_expt",""
"","bandit","268","727859","0.0-230.0-0.0","93408024","wem/bandit_party_2","AIV842WA1CLZZ","either","1","389","","","","","","","1","0","0","0.8973947779","","0.4","0.6","0.2","0.8","","","","","0.2255007403","0.651089354","0.8973947779","0.7406569186","","","","","","","","","","75","K","2","","","189","main_expt",""
"","bandit","269","729782","0.0-231.0-0.0","93408024","wem/bandit_party_2","AIV842WA1CLZZ","either","1","412","","","","","","","0","1","0","","0.8824587855","0.4","0.6","0.2","0.8","0.1754842532","0.6599652607","0.8824587855","0.7371931777","","","","","","","","","","","","","","75","K","2","","","190","main_expt",""
"","bandit","270","731622","0.0-232.0-0.0","93408024","wem/bandit_party_2","AIV842WA1CLZZ","either","1","332","","","","","","","1","0","0","0.9076431997","","0.4","0.6","0.2","0.8","","","","","0.1936311571","0.6960236584","0.9076431997","0.7019705866","","","","","","","","","","75","K","2","","","191","main_expt",""
"","bandit","271","733494","0.0-233.0-0.0","93408024","wem/bandit_party_2","AIV842WA1CLZZ","either","1","363","","","","","","","1","0","0","0.8673165995","","0.4","0.6","0.2","0.8","","","","","0.215612591","0.6713911156","0.8673165995","0.6198122665","","","","","","","","","","75","K","2","","","192","main_expt",""
"","bandit","272","735346","0.0-234.0-0.0","93408024","wem/bandit_party_2","AIV842WA1CLZZ","either","1","338","","","","","","","0","1","0","","0.8264401474","0.4","0.6","0.2","0.8","0.2818734505","0.7244072205","0.8264401474","0.6100930929","","","","","","","","","","","","","","75","K","2","","","193","main_expt",""
"","bandit","273","736871","0.0-235.0-0.0","93408024","wem/bandit_party_2","AIV842WA1CLZZ","either","1","14","","","","","","","0","1","0","","0.8546086414","0.4","0.6","0.2","0.8","0.3616108755","0.7397798508","0.8546086414","0.6332739585","","","","","","","","","","","","","","75","K","2","","","194","main_expt",""
"","bandit","274","738742","0.0-236.0-0.0","93408024","wem/bandit_party_2","AIV842WA1CLZZ","either","1","362","","","","","","","0","0","1","","0.7914914872","0.4","0.6","0.2","0.8","0.3979961615","0.7602069811","0.7914914872","0.609207161","","","","","","","","","","","","","","75","K","2","","","195","main_expt",""
"","bandit","275","740910","0.0-237.0-0.0","93408024","wem/bandit_party_2","AIV842WA1CLZZ","either","1","659","","","","","","","0","1","0","","0.7608346536","0.4","0.6","0.2","0.8","0.4366641927","0.7114092524","0.7608346536","0.6560649547","","","","","","","","","","","","","","75","K","2","","","196","main_expt",""
"","bandit","276","742938","0.0-238.0-0.0","93408024","wem/bandit_party_2","AIV842WA1CLZZ","either","1","515","","","","","","","0","1","0","","0.7003784325","0.4","0.6","0.2","0.8","0.560782874","0.6917424169","0.7003784325","0.6656533059","","","","","","","","","","","","","","75","K","2","","","197","main_expt",""
"","bandit","277","744975","0.0-239.0-0.0","93408024","wem/bandit_party_2","AIV842WA1CLZZ","either","1","526","","","","","","","0","1","0","","0.6036075577","0.4","0.6","0.2","0.8","0.5649388288","0.6561069913","0.6036075577","0.6841747727","","","","","","","","","","","","","","75","K","2","","","198","main_expt",""
"","bandit","278","747006","0.0-240.0-0.0","93408024","wem/bandit_party_2","AIV842WA1CLZZ","either","1","522","","","","","","","0","1","0","","0.5843314555","0.4","0.6","0.2","0.8","0.5375892324","0.6948346643","0.5843314555","0.7105065455","","","","","","","","","","","","","","75","K","2","","","199","main_expt",""
"","bandit","279","748893","0.0-241.0-0.0","93408024","wem/bandit_party_2","AIV842WA1CLZZ","either","1","379","","","","","","","1","0","0","0.539414212","","0.4","0.6","0.2","0.8","","","","","0.5625167851","0.7369743936","0.539414212","0.7380433654","","","","","","","","","","75","K","2","","","200","main_expt",""
"","bandit","280","750842","0.0-242.0-0.0","93408024","wem/bandit_party_2","AIV842WA1CLZZ","either","1","435","","","","","","","0","0","1","0.3774065742","","0.4","0.6","0.2","0.8","","","","","0.6266810217","0.8347268415","0.3774065742","0.6432951689","","","","","","","","","","75","K","2","","","201","main_expt",""
"","bandit","281","752830","0.0-243.0-0.0","93408024","wem/bandit_party_2","AIV842WA1CLZZ","either","1","478","","","","","","","0","0","1","","0.2824615609","0.4","0.6","0.2","0.8","0.6661075828","0.7612264534","0.2824615609","0.4995879772","","","","","","","","","","","","","","75","K","2","","","202","main_expt",""
"","bandit","282","754670","0.0-244.0-0.0","93408024","wem/bandit_party_2","AIV842WA1CLZZ","either","1","331","","","","","","","0","0","1","0.4767352753","","0.4","0.6","0.2","0.8","","","","","0.7534099026","0.6904596671","0.210170224","0.4767352753","","","","","","","","","","76","L","3","","","203","main_expt",""
"","bandit","283","756622","0.0-245.0-0.0","93408024","wem/bandit_party_2","AIV842WA1CLZZ","either","1","443","","","","","","","1","0","0","0.3680612217","","0.4","0.6","0.2","0.8","","","","","0.7033522103","0.6855485072","0.2708138581","0.3680612217","","","","","","","","","","76","L","3","","","204","main_expt",""
"","bandit","284","758413","0.0-246.0-0.0","93408024","wem/bandit_party_2","AIV842WA1CLZZ","either","1","282","","","","","","","0","0","1","0.3404512965","","0.4","0.6","0.2","0.8","","","","","0.6105989365","0.7006332368","0.3319820794","0.3404512965","","","","","","","","","","76","L","3","","","205","main_expt",""
"","bandit","285","760178","0.0-247.0-0.0","93408024","wem/bandit_party_2","AIV842WA1CLZZ","either","1","251","","","","","","","0","0","1","","0.2774568564","0.4","0.6","0.2","0.8","0.725137222","0.7533130943","0.3517339603","0.2774568564","","","","","","","","","","","","","","76","L","3","","","206","main_expt",""
"","bandit","286","762110","0.0-248.0-0.0","93408024","wem/bandit_party_2","AIV842WA1CLZZ","either","1","421","","","","","","","0","1","0","","0.5888984072","0.4","0.6","0.2","0.8","0.5888984072","0.7191760557","0.2871079035","0.2228883469","","","","","","","","","","","","","","72","H","0","img/none_selected.jpg","","207","main_expt",""
"","bandit","287","763774","0.0-249.0-0.0","93408024","wem/bandit_party_2","AIV842WA1CLZZ","either","1","155","","","","","","","0","0","1","","0.4650323514","0.4","0.6","0.2","0.8","0.4650323514","0.6264293856","0.2642306377","0.2829247412","","","","","","","","","","","","","","72","H","0","img/none_selected.jpg","","208","main_expt",""
"","bandit","288","765574","0.0-250.0-0.0","93408024","wem/bandit_party_2","AIV842WA1CLZZ","either","1","291","","","","","","","0","0","1","","0.4100719568","0.4","0.6","0.2","0.8","0.4100719568","0.6500478562","0.3587725811","0.3169104167","","","","","","","","","","","","","","72","H","0","img/none_selected.jpg","","209","main_expt",""
"","bandit","289","767261","0.0-251.0-0.0","93408024","wem/bandit_party_2","AIV842WA1CLZZ","either","1","178","","","","","","","1","0","0","0.6498865343","","0.4","0.6","0.2","0.8","","","","","0.5177296744","0.6498865343","0.3103342645","0.2090062306","","","","","","","","","","74","J","1","","","210","main_expt",""
"","bandit","290","769273","0.0-252.0-0.0","93408024","wem/bandit_party_2","AIV842WA1CLZZ","either","1","499","","","","","","","0","0","1","0.6056301442","","0.4","0.6","0.2","0.8","","","","","0.5950812693","0.6056301442","0.3760595068","0.1481662818","","","","","","","","","","74","J","1","","","211","main_expt",""
"","bandit","291","771127","0.0-253.0-0.0","93408024","wem/bandit_party_2","AIV842WA1CLZZ","either","1","343","","","","","","","1","0","0","0.5524844402","","0.4","0.6","0.2","0.8","","","","","0.7169745983","0.5524844402","0.447023013","0.2114888193","","","","","","","","","","74","J","1","","","212","main_expt",""
"","bandit","292","772941","0.0-254.0-0.0","93408024","wem/bandit_party_2","AIV842WA1CLZZ","either","1","305","","","","","","","1","0","0","0.6984249358","","0.4","0.6","0.2","0.8","","","","","0.6766124197","0.6984249358","0.4529182837","0.2234642754","","","","","","","","","","74","J","1","","","213","main_expt",""
"","bandit","293","774829","0.0-255.0-0.0","93408024","wem/bandit_party_2","AIV842WA1CLZZ","either","1","378","","","","","","","1","0","0","0.5996975418","","0.4","0.6","0.2","0.8","","","","","0.8005648136","0.5996975418","0.4306534983","0.2315139555","","","","","","","","","","74","J","1","","","214","main_expt",""
"","bandit","294","776709","0.0-256.0-0.0","93408024","wem/bandit_party_2","AIV842WA1CLZZ","either","1","371","","","","","","","1","0","0","0.6067129047","","0.4","0.6","0.2","0.8","","","","","0.8487964291","0.6067129047","0.4314469479","0.1949488974","","","","","","","","","","74","J","1","","","215","main_expt",""
"","bandit","295","778493","0.0-257.0-0.0","93408024","wem/bandit_party_2","AIV842WA1CLZZ","either","1","274","","","","","","","0","0","1","","0.6297976658","0.4","0.6","0.2","0.8","0.8674123454","0.6297976658","0.45439575","0.2333303883","","","","","","","","","","","","","","74","J","1","","","216","main_expt",""
"","bandit","296","780273","0.0-258.0-0.0","93408024","wem/bandit_party_2","AIV842WA1CLZZ","either","1","267","","","","","","","1","0","0","0.6095272491","","0.4","0.6","0.2","0.8","","","","","0.8774404243","0.6095272491","0.5228861726","0.2027763819","","","","","","","","","","74","J","1","","","217","main_expt",""
"","bandit","297","782038","0.0-259.0-0.0","93408024","wem/bandit_party_2","AIV842WA1CLZZ","either","1","255","","","","","","","0","0","1","","0.7058099393","0.4","0.6","0.2","0.8","0.8836448068","0.7058099393","0.463703458","0.1895874514","","","","","","","","","","","","","","74","J","1","","","218","main_expt",""
"","bandit","298","783821","0.0-260.0-0.0","93408024","wem/bandit_party_2","AIV842WA1CLZZ","either","1","274","","","","","","","0","0","1","0.7396246451","","0.4","0.6","0.2","0.8","","","","","0.880498508","0.7396246451","0.4522864467","0.1537120117","","","","","","","","","","74","J","1","","","219","main_expt",""
"","bandit","299","785580","0.0-261.0-0.0","93408024","wem/bandit_party_2","AIV842WA1CLZZ","either","1","251","","","","","","","0","1","0","","0.4561576612","0.4","0.6","0.2","0.8","0.8740874997","0.7091968036","0.4561576612","0.2022747423","","","","","","","","","","","","","","75","K","2","","","220","main_expt",""
"","bandit","300","787345","0.0-262.0-0.0","93408024","wem/bandit_party_2","AIV842WA1CLZZ","either","1","251","","","","","","","0","1","0","","0.4264657168","0.4","0.6","0.2","0.8","0.8527830905","0.7116308873","0.4264657168","0.3174413427","","","","","","","","","","","","","","75","K","2","","","221","main_expt",""
"","bandit","301","789173","0.0-263.0-0.0","93408024","wem/bandit_party_2","AIV842WA1CLZZ","either","1","319","","","","","","","0","0","1","0.3055141729","","0.4","0.6","0.2","0.8","","","","","0.7717907476","0.769465391","0.3055141729","0.2315667073","","","","","","","","","","75","K","2","","","222","main_expt",""
"","bandit","302","790749","0.0-264.0-0.0","93408024","wem/bandit_party_2","AIV842WA1CLZZ","either","1","66","","","","","","","0","0","1","","0.2868954791","0.4","0.6","0.2","0.8","0.8359700354","0.7509006974","0.2868954791","0.2261006122","","","","","","","","","","","","","","75","K","2","","","223","main_expt",""
"","bandit","303","792571","0.0-265.0-0.0","93408024","wem/bandit_party_2","AIV842WA1CLZZ","either","1","315","","","","","","","0","0","1","0.2698185242","","0.4","0.6","0.2","0.8","","","","","0.819670806","0.7007688409","0.2698185242","0.2662378096","","","","","","","","","","75","K","2","","","224","main_expt",""
"","bandit","304","794469","0.0-266.0-0.0","93408024","wem/bandit_party_2","AIV842WA1CLZZ","either","1","388","","","","","","","0","0","1","","0.2163280173","0.4","0.6","0.2","0.8","0.8512382749","0.7409020096","0.213842325","0.2163280173","","","","","","","","","","","","","","76","L","3","","","225","main_expt",""
"","bandit","305","796380","0.0-267.0-0.0","93408024","wem/bandit_party_2","AIV842WA1CLZZ","either","1","403","","","","","","","0","1","0","","0.8342861847","0.4","0.6","0.2","0.8","0.8342861847","0.7052945704","0.1616408491","0.2809353625","","","","","","","","","","","","","","72","H","0","img/none_selected.jpg","","226","main_expt",""
"","bandit","306","798172","0.0-268.0-0.0","93408024","wem/bandit_party_2","AIV842WA1CLZZ","either","1","283","","","","","","","0","1","0","","0.7736041865","0.4","0.6","0.2","0.8","0.7736041865","0.606091252","0.1777599287","0.2396571279","","","","","","","","","","","","","","72","H","0","img/none_selected.jpg","","227","main_expt",""
"","bandit","307","800336","0.0-269.0-0.0","93408024","wem/bandit_party_2","AIV842WA1CLZZ","either","1","651","","","","","","","1","0","0","0.8094350608","","0.4","0.6","0.2","0.8","","","","","0.8094350608","0.5834203199","0.2866543064","0.3430446928","","","","","","","","","","72","H","0","img/none_selected.jpg","","228","main_expt",""
"","bandit","308","802442","0.0-270.0-0.0","93408024","wem/bandit_party_2","AIV842WA1CLZZ","either","1","598","","","","","","","1","0","0","0.8078722129","","0.4","0.6","0.2","0.8","","","","","0.8078722129","0.5466214007","0.3948293382","0.2886233194","","","","","","","","","","72","H","0","img/none_selected.jpg","","229","main_expt",""
"","bandit","309","804443","0.0-271.0-0.0","93408024","wem/bandit_party_2","AIV842WA1CLZZ","either","1","491","","","","","","","0","0","1","","0.7719043616","0.4","0.6","0.2","0.8","0.7719043616","0.5519014059","0.3291786684","0.3213731463","","","","","","","","","","","","","","72","H","0","img/none_selected.jpg","","230","main_expt",""
"","bandit","310","806252","0.0-272.0-0.0","93408024","wem/bandit_party_2","AIV842WA1CLZZ","either","1","300","","","","","","","0","0","1","0.8049264475","","0.4","0.6","0.2","0.8","","","","","0.8049264475","0.4527164215","0.2378236032","0.2771614906","","","","","","","","","","72","H","0","img/none_selected.jpg","","231","main_expt",""
"","bandit","311","808048","0.0-273.0-0.0","93408024","wem/bandit_party_2","AIV842WA1CLZZ","either","1","282","","","","","","","0","0","1","","0.8850589997","0.4","0.6","0.2","0.8","0.8850589997","0.5135082398","0.246393804","0.2249105956","","","","","","","","","","","","","","72","H","0","img/none_selected.jpg","","232","main_expt",""
"","bandit","312","809812","0.0-274.0-0.0","93408024","wem/bandit_party_2","AIV842WA1CLZZ","either","1","255","","","","","","","1","0","0","0.5502454751","","0.4","0.6","0.2","0.8","","","","","0.9183615156","0.5502454751","0.2141634692","0.2447973041","","","","","","","","","","74","J","1","","","233","main_expt",""
"","bandit","313","811612","0.0-275.0-0.0","93408024","wem/bandit_party_2","AIV842WA1CLZZ","either","1","290","","","","","","","0","0","1","","0.3783923662","0.4","0.6","0.2","0.8","0.9639410842","0.3783923662","0.2876436191","0.24601643","","","","","","","","","","","","","","74","J","1","","","234","main_expt",""
"","bandit","314","813404","0.0-276.0-0.0","93408024","wem/bandit_party_2","AIV842WA1CLZZ","either","1","282","","","","","","","0","0","1","0.2814299379","","0.4","0.6","0.2","0.8","","","","","0.9697187448","0.2814299379","0.2769077257","0.1629844561","","","","","","","","","","74","J","1","","","235","main_expt",""
"","bandit","315","815163","0.0-277.0-0.0","93408024","wem/bandit_party_2","AIV842WA1CLZZ","either","1","250","","","","","","","0","0","1","","0.136865198","0.4","0.6","0.2","0.8","0.9571573523","0.3106100538","0.136865198","0.1929455839","","","","","","","","","","","","","","75","K","2","","","236","main_expt",""
"","bandit","316","816876","0.0-278.0-0.0","93408024","wem/bandit_party_2","AIV842WA1CLZZ","either","1","203","","","","","","","0","0","1","","0.1123790732","0.4","0.6","0.2","0.8","0.9170696074","0.3152445528","0.1123790732","0.1497712966","","","","","","","","","","","","","","75","K","2","","","237","main_expt",""
"","bandit","317","818732","0.0-279.0-0.0","93408024","wem/bandit_party_2","AIV842WA1CLZZ","either","1","344","","","","","","","0","1","0","","0.09027024906","0.4","0.6","0.2","0.8","0.9207491077","0.2637175197","0.09027024906","0.1526491196","","","","","","","","","","","","","","75","K","2","","","238","main_expt",""
"","bandit","318","820460","0.0-280.0-0.0","93408024","wem/bandit_party_2","AIV842WA1CLZZ","either","1","218","","","","","","","0","0","1","","0.08323179304","0.4","0.6","0.2","0.8","0.9211301165","0.1889878372","0.08323179304","0.1745924244","","","","","","","","","","","","","","75","K","2","","","239","main_expt",""
