"consent","trial_type","trial_index","time_elapsed","internal_node_id","subjID","study","MID","cond","drift","rt","responses","button_pressed","key_press","like","value","connected","gems","bombs","no_reward","GemPrChosen","BombPrChosen","GainOverPainPr_0","GainOverPainPr_1","GainOverPainPr_2","GainOverPainPr_3","LosePr_0","LosePr_1","LosePr_2","LosePr_3","WinPr_0","WinPr_1","WinPr_2","WinPr_3","Q0","Q1","Q2","gender","age","ethnicity","label","expt_phase","target","respCharCode","respKey","respChoiceNum","respChoice","practice","trial_counter","trial_label","Q0_index"
"GDM/GDM_behavioral_consent_30min_online.html","consent","0","11924","0.0-0.0","93483899","wem/bandit_party_2","A3F710EVFD9MM2","either","7","","","","","","","","","","","","","","","","","","","","","","","","","","","","","","","","","","","","","","","","",""
"","survey-text","1","24174","0.0-1.0","93483899","wem/bandit_party_2","A3F710EVFD9MM2","either","7","11242","{""Q0"":""A3F710EVFD9MM2""}","","","","","","","","","","","","","","","","","","","","","","","","","","","","","","","","","","","","","","",""
"","button-response","2","28926","0.0-2.0","93483899","wem/bandit_party_2","A3F710EVFD9MM2","either","7","3744","","1","","","","","","","","","","","","","","","","","","","","","","","","","","","","","","","","","","","","","",""
"","text-replacement","3","48020","0.0-3.0","93483899","wem/bandit_party_2","A3F710EVFD9MM2","either","7","18084","","","32","","","","","","","","","","","","","","","","","","","","","","","","","","","","","","","","","","","","",""
"","text-replacement","4","58431","0.0-4.0","93483899","wem/bandit_party_2","A3F710EVFD9MM2","either","7","10407","","","32","","","","","","","","","","","","","","","","","","","","","","","","","","","","","","","","","","","","",""
"","identification","5","78226","0.0-6.0-0.0","93483899","wem/bandit_party_2","A3F710EVFD9MM2","either","7","19755","","","","5","4","5","","","","","","","","","","","","","","","","","","","","","","","","pre","identification_pre","the Democratic Party","","","","","","","",""
"","identification","6","87222","0.0-6.0-1.0","93483899","wem/bandit_party_2","A3F710EVFD9MM2","either","7","7962","","","","1","0","1","","","","","","","","","","","","","","","","","","","","","","","","pre","identification_pre","the Republican Party","","","","","","","",""
"","text-replacement","7","92546","0.0-7.0","93483899","wem/bandit_party_2","A3F710EVFD9MM2","either","7","4320","","","32","","","","","","","","","","","","","","","","","","","","","","","","","","","","","","","","","","","","",""
"","text-replacement","8","96812","0.0-8.0","93483899","wem/bandit_party_2","A3F710EVFD9MM2","either","7","4258","","","32","","","","","","","","","","","","","","","","","","","","","","","","","","","","","","","","","","","","",""
"","text-replacement","9","109425","0.0-9.0","93483899","wem/bandit_party_2","A3F710EVFD9MM2","either","7","12609","","","32","","","","","","","","","","","","","","","","","","","","","","","","","","","","","","","","","","","","",""
"","text-replacement","10","113468","0.0-10.0","93483899","wem/bandit_party_2","A3F710EVFD9MM2","either","7","4043","","","32","","","","","","","","","","","","","","","","","","","","","","","","","","","","","","","","","","","","",""
"","text-replacement","11","117630","0.0-11.0","93483899","wem/bandit_party_2","A3F710EVFD9MM2","either","7","4158","","","32","","","","","","","","","","","","","","","","","","","","","","","","","","","","","","","","","","","","",""
"","bandit","12","121487","0.0-12.0-0.0","93483899","wem/bandit_party_2","A3F710EVFD9MM2","either","7","2335","","","","","","","0","0","1","0","0","","","","","0","","","","0","","","","","","","","","","","","","74","J","0","img/none_selected_demo.jpg","true","0","",""
"","bandit","13","124540","0.0-13.0-0.0","93483899","wem/bandit_party_2","A3F710EVFD9MM2","either","7","1540","","","","","","","0","0","1","0","0","","","","","0","","","","0","","","","","","","","","","","","","75","K","0","img/none_selected_demo.jpg","true","0","",""
"","text-replacement","14","134778","0.0-14.0","93483899","wem/bandit_party_2","A3F710EVFD9MM2","either","7","10234","","","32","","","","","","","","","","","","","","","","","","","","","","","","","","","","","","","","","","","","",""
"","text-replacement","15","141049","0.0-15.0","93483899","wem/bandit_party_2","A3F710EVFD9MM2","either","7","6265","","","32","","","","","","","","","","","","","","","","","","","","","","","","","","","","","","","","","","","","",""
"","text-replacement","16","148824","0.0-16.0","93483899","wem/bandit_party_2","A3F710EVFD9MM2","either","7","7771","","","32","","","","","","","","","","","","","","","","","","","","","","","","","","","","","","","","","","","","",""
"","text-replacement","17","155961","0.0-17.0","93483899","wem/bandit_party_2","A3F710EVFD9MM2","either","7","7137","","","32","","","","","","","","","","","","","","","","","","","","","","","","","","","","","","","","","","","","",""
"","bandit","18","158758","0.0-18.0-0.0","93483899","wem/bandit_party_2","A3F710EVFD9MM2","either","7","1286","","","","","","","1","0","0","0.8","","0.5","0.5","","","","","","","0.8","0.2","","","","","","","","","","","","74","J","0","img/none_selected_demo.jpg","true","0","80_20_practice",""
"","bandit","19","160919","0.0-18.0-1.0","93483899","wem/bandit_party_2","A3F710EVFD9MM2","either","7","619","","","","","","","0","0","1","","0.2","0.5","0.5","","","0.8","0.2","","","","","","","","","","","","","","","","75","K","1","","true","0","80_20_practice",""
"","bandit","20","163194","0.0-18.0-2.0","93483899","wem/bandit_party_2","A3F710EVFD9MM2","either","7","762","","","","","","","0","0","1","","0.2","0.5","0.5","","","0.8","0.2","","","","","","","","","","","","","","","","75","K","1","","true","0","80_20_practice",""
"","bandit","21","164751","0.0-18.0-3.0","93483899","wem/bandit_party_2","A3F710EVFD9MM2","either","7","42","","","","","","","0","1","0","","0.8","0.5","0.5","","","0.8","0.2","","","","","","","","","","","","","","","","74","J","0","img/none_selected_demo.jpg","true","0","80_20_practice",""
"","bandit","22","166694","0.0-18.0-4.0","93483899","wem/bandit_party_2","A3F710EVFD9MM2","either","7","427","","","","","","","0","0","1","0.8","","0.5","0.5","","","","","","","0.8","0.2","","","","","","","","","","","","74","J","0","img/none_selected_demo.jpg","true","0","80_20_practice",""
"","bandit","23","168556","0.0-18.0-5.0","93483899","wem/bandit_party_2","A3F710EVFD9MM2","either","7","351","","","","","","","1","0","0","0.8","","0.5","0.5","","","","","","","0.8","0.2","","","","","","","","","","","","74","J","0","img/none_selected_demo.jpg","true","0","80_20_practice",""
"","bandit","24","170606","0.0-18.0-6.0","93483899","wem/bandit_party_2","A3F710EVFD9MM2","either","7","536","","","","","","","0","0","1","","0.8","0.5","0.5","","","0.8","0.2","","","","","","","","","","","","","","","","74","J","0","img/none_selected_demo.jpg","true","0","80_20_practice",""
"","bandit","25","172514","0.0-18.0-7.0","93483899","wem/bandit_party_2","A3F710EVFD9MM2","either","7","390","","","","","","","0","0","1","0.8","","0.5","0.5","","","","","","","0.8","0.2","","","","","","","","","","","","74","J","0","img/none_selected_demo.jpg","true","0","80_20_practice",""
"","bandit","26","174394","0.0-18.0-8.0","93483899","wem/bandit_party_2","A3F710EVFD9MM2","either","7","366","","","","","","","0","1","0","","0.2","0.5","0.5","","","0.8","0.2","","","","","","","","","","","","","","","","75","K","1","","true","0","80_20_practice",""
"","bandit","27","176216","0.0-18.0-9.0","93483899","wem/bandit_party_2","A3F710EVFD9MM2","either","7","310","","","","","","","0","0","1","0.8","","0.5","0.5","","","","","","","0.8","0.2","","","","","","","","","","","","74","J","0","img/none_selected_demo.jpg","true","0","80_20_practice",""
"","bandit","28","178234","0.0-18.0-10.0","93483899","wem/bandit_party_2","A3F710EVFD9MM2","either","7","507","","","","","","","0","1","0","","0.8","0.5","0.5","","","0.8","0.2","","","","","","","","","","","","","","","","74","J","0","img/none_selected_demo.jpg","true","0","80_20_practice",""
"","bandit","29","180084","0.0-18.0-11.0","93483899","wem/bandit_party_2","A3F710EVFD9MM2","either","7","338","","","","","","","0","1","0","","0.2","0.5","0.5","","","0.8","0.2","","","","","","","","","","","","","","","","75","K","1","","true","0","80_20_practice",""
"","bandit","30","182058","0.0-18.0-12.0","93483899","wem/bandit_party_2","A3F710EVFD9MM2","either","7","462","","","","","","","0","0","1","0.2","","0.5","0.5","","","","","","","0.8","0.2","","","","","","","","","","","","75","K","1","","true","0","80_20_practice",""
"","bandit","31","184001","0.0-18.0-13.0","93483899","wem/bandit_party_2","A3F710EVFD9MM2","either","7","432","","","","","","","0","0","1","0.2","","0.5","0.5","","","","","","","0.8","0.2","","","","","","","","","","","","75","K","1","","true","0","80_20_practice",""
"","bandit","32","185696","0.0-18.0-14.0","93483899","wem/bandit_party_2","A3F710EVFD9MM2","either","7","185","","","","","","","1","0","0","0.8","","0.5","0.5","","","","","","","0.8","0.2","","","","","","","","","","","","74","J","0","img/none_selected_demo.jpg","true","0","80_20_practice",""
"","bandit","33","187547","0.0-18.0-15.0","93483899","wem/bandit_party_2","A3F710EVFD9MM2","either","7","336","","","","","","","0","1","0","","0.8","0.5","0.5","","","0.8","0.2","","","","","","","","","","","","","","","","74","J","0","img/none_selected_demo.jpg","true","0","80_20_practice",""
"","bandit","34","189357","0.0-18.0-16.0","93483899","wem/bandit_party_2","A3F710EVFD9MM2","either","7","297","","","","","","","0","1","0","","0.8","0.5","0.5","","","0.8","0.2","","","","","","","","","","","","","","","","74","J","0","img/none_selected_demo.jpg","true","0","80_20_practice",""
"","bandit","35","191258","0.0-18.0-17.0","93483899","wem/bandit_party_2","A3F710EVFD9MM2","either","7","389","","","","","","","1","0","0","0.8","","0.5","0.5","","","","","","","0.8","0.2","","","","","","","","","","","","74","J","0","img/none_selected_demo.jpg","true","0","80_20_practice",""
"","bandit","36","193093","0.0-18.0-18.0","93483899","wem/bandit_party_2","A3F710EVFD9MM2","either","7","320","","","","","","","0","1","0","","0.8","0.5","0.5","","","0.8","0.2","","","","","","","","","","","","","","","","74","J","0","img/none_selected_demo.jpg","true","0","80_20_practice",""
"","bandit","37","194902","0.0-18.0-19.0","93483899","wem/bandit_party_2","A3F710EVFD9MM2","either","7","287","","","","","","","0","0","1","","0.8","0.5","0.5","","","0.8","0.2","","","","","","","","","","","","","","","","74","J","0","img/none_selected_demo.jpg","true","0","80_20_practice",""
"","text-replacement","38","200816","0.0-19.0","93483899","wem/bandit_party_2","A3F710EVFD9MM2","either","7","5910","","","32","","","","","","","","","","","","","","","","","","","","","","","","","","","","","","","","","","","","",""
"","bandit","39","203076","0.0-20.0-0.0","93483899","wem/bandit_party_2","A3F710EVFD9MM2","either","7","751","","","","","","","1","0","0","1","0","","","","","0","1","","","1","0","","","","","","","","","","","","74","J","0","img/none_selected_demo.jpg","true","0","",""
"","text-replacement","40","212804","0.0-21.0","93483899","wem/bandit_party_2","A3F710EVFD9MM2","either","7","9724","","","32","","","","","","","","","","","","","","","","","","","","","","","","","","","","","","","","","","","","",""
"","text-replacement","41","215190","0.0-22.0","93483899","wem/bandit_party_2","A3F710EVFD9MM2","either","7","2382","","","32","","","","","","","","","","","","","","","","","","","","","","","","","","","","","","","","","","","","",""
"","text-replacement","42","217728","0.0-23.0","93483899","wem/bandit_party_2","A3F710EVFD9MM2","either","7","2538","","","32","","","","","","","","","","","","","","","","","","","","","","","","","","","","","","","","","","","","",""
"","text-replacement","43","220478","0.0-24.0","93483899","wem/bandit_party_2","A3F710EVFD9MM2","either","7","2742","","","32","","","","","","","","","","","","","","","","","","","","","","","","","","","","","","","","","","","","",""
"","text-replacement","44","228373","0.0-25.0","93483899","wem/bandit_party_2","A3F710EVFD9MM2","either","7","7895","","","32","","","","","","","","","","","","","","","","","","","","","","","","","","","","","","","","","","","","",""
"","text-replacement","45","231236","0.0-26.0","93483899","wem/bandit_party_2","A3F710EVFD9MM2","either","7","2855","","","32","","","","","","","","","","","","","","","","","","","","","","","","","","","","","","","","","","","","",""
"","text-replacement","46","235574","0.0-27.0","93483899","wem/bandit_party_2","A3F710EVFD9MM2","either","7","4338","","","32","","","","","","","","","","","","","","","","","","","","","","","","","","","","","","","","","","","","",""
"","text-replacement","47","239001","0.0-28.0","93483899","wem/bandit_party_2","A3F710EVFD9MM2","either","7","3423","","","32","","","","","","","","","","","","","","","","","","","","","","","","","","","","","","","","","","","","",""
"","text-replacement","48","244934","0.0-29.0","93483899","wem/bandit_party_2","A3F710EVFD9MM2","either","7","5933","","","32","","","","","","","","","","","","","","","","","","","","","","","","","","","","","","","","","","","","",""
"","text-replacement","49","249542","0.0-30.0","93483899","wem/bandit_party_2","A3F710EVFD9MM2","either","7","4604","","","32","","","","","","","","","","","","","","","","","","","","","","","","","","","","","","","","","","","","",""
"","text-replacement","50","253004","0.0-31.0","93483899","wem/bandit_party_2","A3F710EVFD9MM2","either","7","3458","","","32","","","","","","","","","","","","","","","","","","","","","","","","","","","","","","","","","","","","",""
"","bandit","51","255198","0.0-32.0-0.0","93483899","wem/bandit_party_2","A3F710EVFD9MM2","either","7","678","","","","","","","0","1","0","","0.8","0.5","0.5","0.5","0.5","0.8","0.2","0.6","0.2","","","","","","","","","","","","","","72","H","0","img/none_selected.jpg","true","0","full_practice",""
"","bandit","52","257137","0.0-32.0-1.0","93483899","wem/bandit_party_2","A3F710EVFD9MM2","either","7","424","","","","","","","0","1","0","","0.8","0.5","0.5","0.5","0.5","0.8","0.2","0.6","0.2","","","","","","","","","","","","","","72","H","0","img/none_selected.jpg","true","0","full_practice",""
"","bandit","53","258916","0.0-32.0-2.0","93483899","wem/bandit_party_2","A3F710EVFD9MM2","either","7","266","","","","","","","1","0","0","0.8","","0.5","0.5","0.5","0.5","","","","","0.8","0.2","0.6","0.2","","","","","","","","","","72","H","0","img/none_selected.jpg","true","0","full_practice",""
"","bandit","54","260802","0.0-32.0-3.0","93483899","wem/bandit_party_2","A3F710EVFD9MM2","either","7","356","","","","","","","1","0","0","0.8","","0.5","0.5","0.5","0.5","","","","","0.8","0.2","0.6","0.2","","","","","","","","","","72","H","0","img/none_selected.jpg","true","0","full_practice",""
"","bandit","55","262718","0.0-32.0-4.0","93483899","wem/bandit_party_2","A3F710EVFD9MM2","either","7","401","","","","","","","1","0","0","0.8","","0.5","0.5","0.5","0.5","","","","","0.8","0.2","0.6","0.2","","","","","","","","","","72","H","0","img/none_selected.jpg","true","0","full_practice",""
"","bandit","56","264580","0.0-32.0-5.0","93483899","wem/bandit_party_2","A3F710EVFD9MM2","either","7","344","","","","","","","0","1","0","","0.8","0.5","0.5","0.5","0.5","0.8","0.2","0.6","0.2","","","","","","","","","","","","","","72","H","0","img/none_selected.jpg","true","0","full_practice",""
"","bandit","57","266450","0.0-32.0-6.0","93483899","wem/bandit_party_2","A3F710EVFD9MM2","either","7","352","","","","","","","1","0","0","0.8","","0.5","0.5","0.5","0.5","","","","","0.8","0.2","0.6","0.2","","","","","","","","","","72","H","0","img/none_selected.jpg","true","0","full_practice",""
"","bandit","58","268182","0.0-32.0-7.0","93483899","wem/bandit_party_2","A3F710EVFD9MM2","either","7","213","","","","","","","0","1","0","","0.8","0.5","0.5","0.5","0.5","0.8","0.2","0.6","0.2","","","","","","","","","","","","","","72","H","0","img/none_selected.jpg","true","0","full_practice",""
"","bandit","59","270070","0.0-32.0-8.0","93483899","wem/bandit_party_2","A3F710EVFD9MM2","either","7","366","","","","","","","0","1","0","","0.8","0.5","0.5","0.5","0.5","0.8","0.2","0.6","0.2","","","","","","","","","","","","","","72","H","0","img/none_selected.jpg","true","0","full_practice",""
"","bandit","60","271954","0.0-32.0-9.0","93483899","wem/bandit_party_2","A3F710EVFD9MM2","either","7","332","","","","","","","1","0","0","0.8","","0.5","0.5","0.5","0.5","","","","","0.8","0.2","0.6","0.2","","","","","","","","","","72","H","0","img/none_selected.jpg","true","0","full_practice",""
"","bandit","61","273722","0.0-32.0-10.0","93483899","wem/bandit_party_2","A3F710EVFD9MM2","either","7","250","","","","","","","1","0","0","0.8","","0.5","0.5","0.5","0.5","","","","","0.8","0.2","0.6","0.2","","","","","","","","","","72","H","0","img/none_selected.jpg","true","0","full_practice",""
"","bandit","62","275492","0.0-32.0-11.0","93483899","wem/bandit_party_2","A3F710EVFD9MM2","either","7","252","","","","","","","0","1","0","","0.8","0.5","0.5","0.5","0.5","0.8","0.2","0.6","0.2","","","","","","","","","","","","","","72","H","0","img/none_selected.jpg","true","0","full_practice",""
"","bandit","63","277418","0.0-32.0-12.0","93483899","wem/bandit_party_2","A3F710EVFD9MM2","either","7","405","","","","","","","0","1","0","","0.8","0.5","0.5","0.5","0.5","0.8","0.2","0.6","0.2","","","","","","","","","","","","","","72","H","0","img/none_selected.jpg","true","0","full_practice",""
"","bandit","64","279318","0.0-32.0-13.0","93483899","wem/bandit_party_2","A3F710EVFD9MM2","either","7","294","","","","","","","1","0","0","0.8","","0.5","0.5","0.5","0.5","","","","","0.8","0.2","0.6","0.2","","","","","","","","","","72","H","0","img/none_selected.jpg","true","0","full_practice",""
"","bandit","65","280930","0.0-32.0-14.0","93483899","wem/bandit_party_2","A3F710EVFD9MM2","either","7","96","","","","","","","0","0","1","","0.8","0.5","0.5","0.5","0.5","0.8","0.2","0.6","0.2","","","","","","","","","","","","","","72","H","0","img/none_selected.jpg","true","0","full_practice",""
"","bandit","66","282677","0.0-32.0-15.0","93483899","wem/bandit_party_2","A3F710EVFD9MM2","either","7","238","","","","","","","0","0","1","","0.2","0.5","0.5","0.5","0.5","0.8","0.2","0.6","0.2","","","","","","","","","","","","","","74","J","1","","true","0","full_practice",""
"","bandit","67","284520","0.0-32.0-16.0","93483899","wem/bandit_party_2","A3F710EVFD9MM2","either","7","328","","","","","","","1","0","0","0.6","","0.5","0.5","0.5","0.5","","","","","0.8","0.2","0.6","0.2","","","","","","","","","","75","K","2","","true","0","full_practice",""
"","bandit","68","286348","0.0-32.0-17.0","93483899","wem/bandit_party_2","A3F710EVFD9MM2","either","7","310","","","","","","","0","0","1","0.6","","0.5","0.5","0.5","0.5","","","","","0.8","0.2","0.6","0.2","","","","","","","","","","75","K","2","","true","0","full_practice",""
"","bandit","69","287998","0.0-32.0-18.0","93483899","wem/bandit_party_2","A3F710EVFD9MM2","either","7","75","","","","","","","0","0","1","0.2","","0.5","0.5","0.5","0.5","","","","","0.8","0.2","0.6","0.2","","","","","","","","","","74","J","1","","true","0","full_practice",""
"","bandit","70","290030","0.0-32.0-19.0","93483899","wem/bandit_party_2","A3F710EVFD9MM2","either","7","474","","","","","","","0","0","1","","0.2","0.5","0.5","0.5","0.5","0.8","0.2","0.6","0.2","","","","","","","","","","","","","","74","J","1","","true","0","full_practice",""
"","text","71","293504","0.0-33.0","93483899","wem/bandit_party_2","A3F710EVFD9MM2","either","7","3450","","","32","","","","","","","","","","","","","","","","","","","","","","","","","","","","","","","","","","","","",""
"","text-replacement","72","309040","0.0-34.0","93483899","wem/bandit_party_2","A3F710EVFD9MM2","either","7","14530","","","32","","","","","","","","","","","","","","","","","","","","","","","","","","","","","","","","","","","","",""
"","text-replacement","73","325268","0.0-35.0","93483899","wem/bandit_party_2","A3F710EVFD9MM2","either","7","16220","","","32","","","","","","","","","","","","","","","","","","","","","","","","","","","","","","","","","","","","",""
"","text-replacement","74","331393","0.0-36.0","93483899","wem/bandit_party_2","A3F710EVFD9MM2","either","7","6117","","","32","","","","","","","","","","","","","","","","","","","","","","","","","","","","","","","","","","","","",""
"","text-replacement","75","337284","0.0-37.0","93483899","wem/bandit_party_2","A3F710EVFD9MM2","either","7","5887","","","32","","","","","","","","","","","","","","","","","","","","","","","","","","","","","","","","","","","","",""
"","text-replacement","76","342393","0.0-38.0","93483899","wem/bandit_party_2","A3F710EVFD9MM2","either","7","5105","","","32","","","","","","","","","","","","","","","","","","","","","","","","","","","","","","","","","","","","",""
"","survey-multi-choice-replacement","77","350190","0.0-39.0-0.0","93483899","wem/bandit_party_2","A3F710EVFD9MM2","either","7","7777","","","","","","","","","","","","","","","","","","","","","","","","Money will be added to the pool for <span style='color:blue;'>DEMOCRATS</span>","","","","","","","attn_check","","","","","","","","","0"
"","survey-multi-choice-replacement","78","357392","0.0-40.0-0.0","93483899","wem/bandit_party_2","A3F710EVFD9MM2","either","7","6182","","","","","","","","","","","","","","","","","","","","","","","","Equal amounts of money will be added to the pool for <span style='color:blue;'>DEMOCRATS</span> and subtracted from the pool for <span style='color:red;'>REPUBLICANS</span>","","","","","","","attn_check","","","","","","","","","2"
"","survey-multi-choice-replacement","79","364010","0.0-41.0-0.0","93483899","wem/bandit_party_2","A3F710EVFD9MM2","either","7","5597","","","","","","","","","","","","","","","","","","","","","","","","No money will be added to either pool","","","","","","","attn_check","","","","","","","","","3"
"","bandit","80","368361","0.0-42.0-0.0","93483899","wem/bandit_party_2","A3F710EVFD9MM2","either","7","1828","","","","","","","0","0","1","0.5514722813","","0.6","0.8","0.4","0.2","","","","","0.5514722813","0.2888626749","0.7088318221","0.1731741302","","","","","","","","","","72","H","0","img/none_selected.jpg","","1","main_expt",""
"","bandit","81","375588","0.0-43.0-0.0","93483899","wem/bandit_party_2","A3F710EVFD9MM2","either","7","5711","","","","","","","1","0","0","0.3999538902","","0.6","0.8","0.4","0.2","","","","","0.5039303977","0.3999538902","0.6292935488","0.2874485847","","","","","","","","","","74","J","1","","","2","main_expt",""
"","bandit","82","378006","0.0-44.0-0.0","93483899","wem/bandit_party_2","A3F710EVFD9MM2","either","7","906","","","","","","","0","0","1","0.4126831114","","0.6","0.8","0.4","0.2","","","","","0.5527877924","0.4126831114","0.5285482983","0.2683250969","","","","","","","","","","74","J","1","","","3","main_expt",""
"","bandit","83","379932","0.0-45.0-0.0","93483899","wem/bandit_party_2","A3F710EVFD9MM2","either","7","409","","","","","","","0","0","1","","0.6744491701","0.6","0.8","0.4","0.2","0.6336700584","0.3923803367","0.6744491701","0.3988631097","","","","","","","","","","","","","","75","K","2","","","4","main_expt",""
"","bandit","84","381976","0.0-46.0-0.0","93483899","wem/bandit_party_2","A3F710EVFD9MM2","either","7","524","","","","","","","0","1","0","","0.3568799457","0.6","0.8","0.4","0.2","0.6340088104","0.3803283439","0.7922285807","0.3568799457","","","","","","","","","","","","","","76","L","3","","","5","main_expt",""
"","bandit","85","383954","0.0-47.0-0.0","93483899","wem/bandit_party_2","A3F710EVFD9MM2","either","7","458","","","","","","","0","0","1","","0.3188731731","0.6","0.8","0.4","0.2","0.5784181907","0.4214296899","0.7459441126","0.3188731731","","","","","","","","","","","","","","76","L","3","","","6","main_expt",""
"","bandit","86","385990","0.0-48.0-0.0","93483899","wem/bandit_party_2","A3F710EVFD9MM2","either","7","516","","","","","","","0","1","0","","0.4574196012","0.6","0.8","0.4","0.2","0.6727083857","0.4755968838","0.7681481668","0.4574196012","","","","","","","","","","","","","","76","L","3","","","7","main_expt",""
"","bandit","87","388350","0.0-49.0-0.0","93483899","wem/bandit_party_2","A3F710EVFD9MM2","either","7","844","","","","","","","0","0","1","","0.5037884951","0.6","0.8","0.4","0.2","0.7574508858","0.5353568537","0.7251609313","0.5037884951","","","","","","","","","","","","","","76","L","3","","","8","main_expt",""
"","bandit","88","390547","0.0-50.0-0.0","93483899","wem/bandit_party_2","A3F710EVFD9MM2","either","7","678","","","","","","","0","0","1","","0.5750013994","0.6","0.8","0.4","0.2","0.8280759311","0.6246831942","0.7403055102","0.5750013994","","","","","","","","","","","","","","76","L","3","","","9","main_expt",""
"","bandit","89","394947","0.0-51.0-0.0","93483899","wem/bandit_party_2","A3F710EVFD9MM2","either","7","2883","","","","","","","0","1","0","","0.722944265","0.6","0.8","0.4","0.2","0.859726102","0.4475954046","0.722944265","0.5399040382","","","","","","","","","","","","","","75","K","2","","","10","main_expt",""
"","bandit","90","397420","0.0-52.0-0.0","93483899","wem/bandit_party_2","A3F710EVFD9MM2","either","7","954","","","","","","","1","0","0","0.6833847698","","0.6","0.8","0.4","0.2","","","","","0.877956501","0.4514702697","0.6833847698","0.5181098662","","","","","","","","","","75","K","2","","","11","main_expt",""
"","bandit","91","399439","0.0-53.0-0.0","93483899","wem/bandit_party_2","A3F710EVFD9MM2","either","7","503","","","","","","","1","0","0","0.689227163","","0.6","0.8","0.4","0.2","","","","","0.8883669707","0.4873058782","0.689227163","0.5489165229","","","","","","","","","","75","K","2","","","12","main_expt",""
"","bandit","92","401647","0.0-54.0-0.0","93483899","wem/bandit_party_2","A3F710EVFD9MM2","either","7","693","","","","","","","0","0","1","0.5178623456","","0.6","0.8","0.4","0.2","","","","","0.817149195","0.4862469224","0.5178623456","0.6186986429","","","","","","","","","","75","K","2","","","13","main_expt",""
"","bandit","93","403556","0.0-55.0-0.0","93483899","wem/bandit_party_2","A3F710EVFD9MM2","either","7","393","","","","","","","0","0","1","","0.4768489018","0.6","0.8","0.4","0.2","0.8589139609","0.360908092","0.4768489018","0.4944095791","","","","","","","","","","","","","","75","K","2","","","14","main_expt",""
"","bandit","94","407284","0.0-56.0-0.0","93483899","wem/bandit_party_2","A3F710EVFD9MM2","either","7","2210","","","","","","","0","0","1","","0.4126647893","0.6","0.8","0.4","0.2","0.7955781648","0.4126647893","0.5201849276","0.4820951366","","","","","","","","","","","","","","74","J","1","","","15","main_expt",""
"","bandit","95","409166","0.0-57.0-0.0","93483899","wem/bandit_party_2","A3F710EVFD9MM2","either","7","370","","","","","","","1","0","0","0.8864445785","","0.6","0.8","0.4","0.2","","","","","0.8864445785","0.4930686601","0.6862231469","0.4888848296","","","","","","","","","","72","H","0","img/none_selected.jpg","","16","main_expt",""
"","bandit","96","411194","0.0-58.0-0.0","93483899","wem/bandit_party_2","A3F710EVFD9MM2","either","7","511","","","","","","","1","0","0","0.8746062981","","0.6","0.8","0.4","0.2","","","","","0.8746062981","0.5162343008","0.7297328357","0.381306026","","","","","","","","","","72","H","0","img/none_selected.jpg","","17","main_expt",""
"","bandit","97","413187","0.0-59.0-0.0","93483899","wem/bandit_party_2","A3F710EVFD9MM2","either","7","474","","","","","","","0","1","0","","0.8910236512","0.6","0.8","0.4","0.2","0.8910236512","0.5627456494","0.6686287009","0.3537135189","","","","","","","","","","","","","","72","H","0","img/none_selected.jpg","","18","main_expt",""
"","bandit","98","415251","0.0-60.0-0.0","93483899","wem/bandit_party_2","A3F710EVFD9MM2","either","7","549","","","","","","","1","0","0","0.8932054573","","0.6","0.8","0.4","0.2","","","","","0.8932054573","0.4478227807","0.7885428456","0.4891458502","","","","","","","","","","72","H","0","img/none_selected.jpg","","19","main_expt",""
"","bandit","99","417335","0.0-61.0-0.0","93483899","wem/bandit_party_2","A3F710EVFD9MM2","either","7","522","","","","","","","0","0","1","0.8900063933","","0.6","0.8","0.4","0.2","","","","","0.8900063933","0.5306796692","0.7442236049","0.5440957398","","","","","","","","","","72","H","0","img/none_selected.jpg","","20","main_expt",""
"","bandit","100","419301","0.0-62.0-0.0","93483899","wem/bandit_party_2","A3F710EVFD9MM2","either","7","441","","","","","","","0","1","0","","0.8748704397","0.6","0.8","0.4","0.2","0.8748704397","0.5423611418","0.7908218503","0.5621313733","","","","","","","","","","","","","","72","H","0","img/none_selected.jpg","","21","main_expt",""
"","bandit","101","421274","0.0-63.0-0.0","93483899","wem/bandit_party_2","A3F710EVFD9MM2","either","7","415","","","","","","","1","0","0","0.8498769136","","0.6","0.8","0.4","0.2","","","","","0.8498769136","0.4190568807","0.7163236006","0.5296345876","","","","","","","","","","72","H","0","img/none_selected.jpg","","22","main_expt",""
"","bandit","102","423180","0.0-64.0-0.0","93483899","wem/bandit_party_2","A3F710EVFD9MM2","either","7","392","","","","","","","1","0","0","0.8357449374","","0.6","0.8","0.4","0.2","","","","","0.8357449374","0.4329937009","0.7061190667","0.5187107172","","","","","","","","","","72","H","0","img/none_selected.jpg","","23","main_expt",""
"","bandit","103","425081","0.0-65.0-0.0","93483899","wem/bandit_party_2","A3F710EVFD9MM2","either","7","385","","","","","","","1","0","0","0.8431908073","","0.6","0.8","0.4","0.2","","","","","0.8431908073","0.4298879426","0.7470556917","0.6000521927","","","","","","","","","","72","H","0","img/none_selected.jpg","","24","main_expt",""
"","bandit","104","427272","0.0-66.0-0.0","93483899","wem/bandit_party_2","A3F710EVFD9MM2","either","7","667","","","","","","","1","0","0","0.8741885854","","0.6","0.8","0.4","0.2","","","","","0.8741885854","0.2992323157","0.8154180688","0.5443047256","","","","","","","","","","72","H","0","img/none_selected.jpg","","25","main_expt",""
"","bandit","105","429346","0.0-67.0-0.0","93483899","wem/bandit_party_2","A3F710EVFD9MM2","either","7","552","","","","","","","0","1","0","","0.8940719671","0.6","0.8","0.4","0.2","0.8940719671","0.3857263224","0.8395379789","0.592493964","","","","","","","","","","","","","","72","H","0","img/none_selected.jpg","","26","main_expt",""
"","bandit","106","431626","0.0-68.0-0.0","93483899","wem/bandit_party_2","A3F710EVFD9MM2","either","7","760","","","","","","","1","0","0","0.8733378856","","0.6","0.8","0.4","0.2","","","","","0.8733378856","0.3715251318","0.8023078409","0.5779569403","","","","","","","","","","72","H","0","img/none_selected.jpg","","27","main_expt",""
"","bandit","107","434010","0.0-69.0-0.0","93483899","wem/bandit_party_2","A3F710EVFD9MM2","either","7","744","","","","","","","1","0","0","0.8695586723","","0.6","0.8","0.4","0.2","","","","","0.8695586723","0.3387808014","0.8248968235","0.7077223562","","","","","","","","","","72","H","0","img/none_selected.jpg","","28","main_expt",""
"","bandit","108","435934","0.0-70.0-0.0","93483899","wem/bandit_party_2","A3F710EVFD9MM2","either","7","406","","","","","","","0","1","0","","0.7908290088","0.6","0.8","0.4","0.2","0.7908290088","0.3737397218","0.8621011303","0.7070353494","","","","","","","","","","","","","","72","H","0","img/none_selected.jpg","","29","main_expt",""
"","bandit","109","438028","0.0-71.0-0.0","93483899","wem/bandit_party_2","A3F710EVFD9MM2","either","7","573","","","","","","","1","0","0","0.8518997755","","0.6","0.8","0.4","0.2","","","","","0.8518997755","0.3232047389","0.8873668535","0.6585428656","","","","","","","","","","72","H","0","img/none_selected.jpg","","30","main_expt",""
"","bandit","110","440008","0.0-72.0-0.0","93483899","wem/bandit_party_2","A3F710EVFD9MM2","either","7","466","","","","","","","0","0","1","","0.8509842625","0.6","0.8","0.4","0.2","0.8509842625","0.4130267239","0.9318975106","0.6724088618","","","","","","","","","","","","","","72","H","0","img/none_selected.jpg","","31","main_expt",""
"","bandit","111","442021","0.0-73.0-0.0","93483899","wem/bandit_party_2","A3F710EVFD9MM2","either","7","497","","","","","","","1","0","0","0.872996121","","0.6","0.8","0.4","0.2","","","","","0.872996121","0.4167758813","0.9013609786","0.6416581209","","","","","","","","","","72","H","0","img/none_selected.jpg","","32","main_expt",""
"","bandit","112","444115","0.0-74.0-0.0","93483899","wem/bandit_party_2","A3F710EVFD9MM2","either","7","579","","","","","","","0","1","0","","0.8571046391","0.6","0.8","0.4","0.2","0.8571046391","0.4546052232","0.9041531295","0.7055802426","","","","","","","","","","","","","","72","H","0","img/none_selected.jpg","","33","main_expt",""
"","bandit","113","446182","0.0-75.0-0.0","93483899","wem/bandit_party_2","A3F710EVFD9MM2","either","7","547","","","","","","","0","1","0","","0.9175819521","0.6","0.8","0.4","0.2","0.9175819521","0.5231803088","0.9386104272","0.7554114371","","","","","","","","","","","","","","72","H","0","img/none_selected.jpg","","34","main_expt",""
"","bandit","114","448098","0.0-76.0-0.0","93483899","wem/bandit_party_2","A3F710EVFD9MM2","either","7","402","","","","","","","1","0","0","0.9503165686","","0.6","0.8","0.4","0.2","","","","","0.9503165686","0.4661188593","0.9180645683","0.8008095759","","","","","","","","","","72","H","0","img/none_selected.jpg","","35","main_expt",""
"","bandit","115","451553","0.0-77.0-0.0","93483899","wem/bandit_party_2","A3F710EVFD9MM2","either","7","1934","","","","","","","1","0","0","0.9327615424","","0.6","0.8","0.4","0.2","","","","","0.9327615424","0.4106027186","0.9095107155","0.6925109639","","","","","","","","","","72","H","0","img/none_selected.jpg","","36","main_expt",""
"","bandit","116","453836","0.0-78.0-0.0","93483899","wem/bandit_party_2","A3F710EVFD9MM2","either","7","755","","","","","","","1","0","0","0.9196494001","","0.6","0.8","0.4","0.2","","","","","0.9196494001","0.5021263718","0.9405648028","0.7764255689","","","","","","","","","","72","H","0","img/none_selected.jpg","","37","main_expt",""
"","bandit","117","456219","0.0-79.0-0.0","93483899","wem/bandit_party_2","A3F710EVFD9MM2","either","7","872","","","","","","","1","0","0","0.928530414","","0.6","0.8","0.4","0.2","","","","","0.928530414","0.5065313343","0.9058459248","0.8392953971","","","","","","","","","","72","H","0","img/none_selected.jpg","","38","main_expt",""
"","bandit","118","458346","0.0-80.0-0.0","93483899","wem/bandit_party_2","A3F710EVFD9MM2","either","7","610","","","","","","","1","0","0","0.9001545702","","0.6","0.8","0.4","0.2","","","","","0.9001545702","0.6098243774","0.8784462517","0.7614495855","","","","","","","","","","72","H","0","img/none_selected.jpg","","39","main_expt",""
"","bandit","119","460450","0.0-81.0-0.0","93483899","wem/bandit_party_2","A3F710EVFD9MM2","either","7","592","","","","","","","1","0","0","0.8432481254","","0.6","0.8","0.4","0.2","","","","","0.8432481254","0.679699592","0.8408568766","0.8060705796","","","","","","","","","","72","H","0","img/none_selected.jpg","","40","main_expt",""
"","bandit","120","462741","0.0-82.0-0.0","93483899","wem/bandit_party_2","A3F710EVFD9MM2","either","7","777","","","","","","","0","1","0","","0.8326479564","0.6","0.8","0.4","0.2","0.8326479564","0.616488607","0.811342849","0.7539991053","","","","","","","","","","","","","","72","H","0","img/none_selected.jpg","","41","main_expt",""
"","bandit","121","464976","0.0-83.0-0.0","93483899","wem/bandit_party_2","A3F710EVFD9MM2","either","7","724","","","","","","","0","1","0","","0.8602810298","0.6","0.8","0.4","0.2","0.8602810298","0.6307104111","0.8058808774","0.7717369324","","","","","","","","","","","","","","72","H","0","img/none_selected.jpg","","42","main_expt",""
"","bandit","122","466910","0.0-84.0-0.0","93483899","wem/bandit_party_2","A3F710EVFD9MM2","either","7","414","","","","","","","1","0","0","0.894365654","","0.6","0.8","0.4","0.2","","","","","0.894365654","0.554567591","0.7899844578","0.7625968551","","","","","","","","","","72","H","0","img/none_selected.jpg","","43","main_expt",""
"","bandit","123","469103","0.0-85.0-0.0","93483899","wem/bandit_party_2","A3F710EVFD9MM2","either","7","679","","","","","","","1","0","0","0.9033664713","","0.6","0.8","0.4","0.2","","","","","0.9033664713","0.5281861223","0.7654486741","0.8488621298","","","","","","","","","","72","H","0","img/none_selected.jpg","","44","main_expt",""
"","bandit","124","471240","0.0-86.0-0.0","93483899","wem/bandit_party_2","A3F710EVFD9MM2","either","7","619","","","","","","","1","0","0","0.8829964613","","0.6","0.8","0.4","0.2","","","","","0.8829964613","0.5043334007","0.7674111825","0.8522077325","","","","","","","","","","72","H","0","img/none_selected.jpg","","45","main_expt",""
"","bandit","125","473168","0.0-87.0-0.0","93483899","wem/bandit_party_2","A3F710EVFD9MM2","either","7","406","","","","","","","1","0","0","0.8674694879","","0.6","0.8","0.4","0.2","","","","","0.8674694879","0.5426256613","0.6301273516","0.8618589195","","","","","","","","","","72","H","0","img/none_selected.jpg","","46","main_expt",""
"","bandit","126","475860","0.0-88.0-0.0","93483899","wem/bandit_party_2","A3F710EVFD9MM2","either","7","1163","","","","","","","1","0","0","0.8886720039","","0.6","0.8","0.4","0.2","","","","","0.8886720039","0.5024796093","0.7885969413","0.905897833","","","","","","","","","","72","H","0","img/none_selected.jpg","","47","main_expt",""
"","bandit","127","478267","0.0-89.0-0.0","93483899","wem/bandit_party_2","A3F710EVFD9MM2","either","7","886","","","","","","","1","0","0","0.9229902905","","0.6","0.8","0.4","0.2","","","","","0.9229902905","0.4689138593","0.7983786211","0.8929468812","","","","","","","","","","72","H","0","img/none_selected.jpg","","48","main_expt",""
"","bandit","128","480270","0.0-90.0-0.0","93483899","wem/bandit_party_2","A3F710EVFD9MM2","either","7","485","","","","","","","0","1","0","","0.9141434128","0.6","0.8","0.4","0.2","0.9141434128","0.4439560463","0.8249867574","0.854905512","","","","","","","","","","","","","","72","H","0","img/none_selected.jpg","","49","main_expt",""
"","bandit","129","482177","0.0-91.0-0.0","93483899","wem/bandit_party_2","A3F710EVFD9MM2","either","7","389","","","","","","","1","0","0","0.9181160336","","0.6","0.8","0.4","0.2","","","","","0.9181160336","0.4079842927","0.7532301684","0.8363103738","","","","","","","","","","72","H","0","img/none_selected.jpg","","50","main_expt",""
"","bandit","130","484100","0.0-92.0-0.0","93483899","wem/bandit_party_2","A3F710EVFD9MM2","either","7","403","","","","","","","1","0","0","0.9266489825","","0.6","0.8","0.4","0.2","","","","","0.9266489825","0.4675199832","0.6750909554","0.7168506975","","","","","","","","","","72","H","0","img/none_selected.jpg","","51","main_expt",""
"","bandit","131","486008","0.0-93.0-0.0","93483899","wem/bandit_party_2","A3F710EVFD9MM2","either","7","387","","","","","","","0","1","0","","0.9285581488","0.6","0.8","0.4","0.2","0.9285581488","0.4368052975","0.6762079337","0.6507986152","","","","","","","","","","","","","","72","H","0","img/none_selected.jpg","","52","main_expt",""
"","bandit","132","487946","0.0-94.0-0.0","93483899","wem/bandit_party_2","A3F710EVFD9MM2","either","7","424","","","","","","","1","0","0","0.9171724481","","0.6","0.8","0.4","0.2","","","","","0.9171724481","0.4967902672","0.7882030045","0.6531867096","","","","","","","","","","72","H","0","img/none_selected.jpg","","53","main_expt",""
"","bandit","133","489836","0.0-95.0-0.0","93483899","wem/bandit_party_2","A3F710EVFD9MM2","either","7","379","","","","","","","0","1","0","","0.8709862684","0.6","0.8","0.4","0.2","0.8709862684","0.5321533453","0.8759533557","0.6178049746","","","","","","","","","","","","","","72","H","0","img/none_selected.jpg","","54","main_expt",""
"","bandit","134","491944","0.0-96.0-0.0","93483899","wem/bandit_party_2","A3F710EVFD9MM2","either","7","589","","","","","","","0","0","1","0.9016108676","","0.6","0.8","0.4","0.2","","","","","0.9016108676","0.593251847","0.9307112091","0.5501477499","","","","","","","","","","72","H","0","img/none_selected.jpg","","55","main_expt",""
"","bandit","135","493910","0.0-97.0-0.0","93483899","wem/bandit_party_2","A3F710EVFD9MM2","either","7","347","","","","","","","0","1","0","","0.9123335035","0.6","0.8","0.4","0.2","0.9123335035","0.602347159","0.9486344027","0.5181914202","","","","","","","","","","","","","","72","H","0","img/none_selected.jpg","","56","main_expt",""
"","bandit","136","495787","0.0-98.0-0.0","93483899","wem/bandit_party_2","A3F710EVFD9MM2","either","7","364","","","","","","","1","0","0","0.9338523698","","0.6","0.8","0.4","0.2","","","","","0.9338523698","0.736851976","0.9450559811","0.5052283364","","","","","","","","","","72","H","0","img/none_selected.jpg","","57","main_expt",""
"","bandit","137","497788","0.0-99.0-0.0","93483899","wem/bandit_party_2","A3F710EVFD9MM2","either","7","476","","","","","","","1","0","0","0.9023069914","","0.6","0.8","0.4","0.2","","","","","0.9023069914","0.7112026436","0.960587128","0.4494585665","","","","","","","","","","72","H","0","img/none_selected.jpg","","58","main_expt",""
"","bandit","138","499655","0.0-100.0-0.0","93483899","wem/bandit_party_2","A3F710EVFD9MM2","either","7","350","","","","","","","1","0","0","0.903153386","","0.6","0.8","0.4","0.2","","","","","0.903153386","0.7605469626","0.9272570312","0.4431029696","","","","","","","","","","72","H","0","img/none_selected.jpg","","59","main_expt",""
"","bandit","139","501520","0.0-101.0-0.0","93483899","wem/bandit_party_2","A3F710EVFD9MM2","either","7","348","","","","","","","0","1","0","","0.8975643475","0.6","0.8","0.4","0.2","0.8975643475","0.6504737249","0.9075075979","0.4213069188","","","","","","","","","","","","","","72","H","0","img/none_selected.jpg","","60","main_expt",""
"","bandit","140","503369","0.0-102.0-0.0","93483899","wem/bandit_party_2","A3F710EVFD9MM2","either","7","332","","","","","","","0","1","0","","0.8455107238","0.6","0.8","0.4","0.2","0.8455107238","0.7417300409","0.9011961695","0.4735464544","","","","","","","","","","","","","","72","H","0","img/none_selected.jpg","","61","main_expt",""
"","bandit","141","505375","0.0-103.0-0.0","93483899","wem/bandit_party_2","A3F710EVFD9MM2","either","7","489","","","","","","","1","0","0","0.8423106617","","0.6","0.8","0.4","0.2","","","","","0.8423106617","0.6889655243","0.9025442902","0.4260239588","","","","","","","","","","72","H","0","img/none_selected.jpg","","62","main_expt",""
"","bandit","142","507177","0.0-104.0-0.0","93483899","wem/bandit_party_2","A3F710EVFD9MM2","either","7","290","","","","","","","0","1","0","","0.6997676278","0.6","0.8","0.4","0.2","0.6997676278","0.7532165261","0.900711875","0.4048641732","","","","","","","","","","","","","","72","H","0","img/none_selected.jpg","","63","main_expt",""
"","bandit","143","509143","0.0-105.0-0.0","93483899","wem/bandit_party_2","A3F710EVFD9MM2","either","7","448","","","","","","","0","0","1","","0.8033841581","0.6","0.8","0.4","0.2","0.8033841581","0.7614619666","0.8445511995","0.261135461","","","","","","","","","","","","","","72","H","0","img/none_selected.jpg","","64","main_expt",""
"","bandit","144","510964","0.0-106.0-0.0","93483899","wem/bandit_party_2","A3F710EVFD9MM2","either","7","308","","","","","","","1","0","0","0.8458775523","","0.6","0.8","0.4","0.2","","","","","0.8458775523","0.7474824059","0.7838665633","0.4398785507","","","","","","","","","","72","H","0","img/none_selected.jpg","","65","main_expt",""
"","bandit","145","513062","0.0-107.0-0.0","93483899","wem/bandit_party_2","A3F710EVFD9MM2","either","7","578","","","","","","","0","1","0","","0.8612648572","0.6","0.8","0.4","0.2","0.8612648572","0.7083026918","0.8399866527","0.4549930047","","","","","","","","","","","","","","72","H","0","img/none_selected.jpg","","66","main_expt",""
"","bandit","146","515033","0.0-108.0-0.0","93483899","wem/bandit_party_2","A3F710EVFD9MM2","either","7","451","","","","","","","1","0","0","0.8686018104","","0.6","0.8","0.4","0.2","","","","","0.8686018104","0.6535093674","0.9109535201","0.5565794079","","","","","","","","","","72","H","0","img/none_selected.jpg","","67","main_expt",""
"","bandit","147","517017","0.0-109.0-0.0","93483899","wem/bandit_party_2","A3F710EVFD9MM2","either","7","465","","","","","","","0","1","0","","0.8693437115","0.6","0.8","0.4","0.2","0.8693437115","0.4923739087","0.9064065477","0.4211802827","","","","","","","","","","","","","","72","H","0","img/none_selected.jpg","","68","main_expt",""
"","bandit","148","518956","0.0-110.0-0.0","93483899","wem/bandit_party_2","A3F710EVFD9MM2","either","7","416","","","","","","","0","1","0","","0.9168970181","0.6","0.8","0.4","0.2","0.9168970181","0.4898097669","0.9315833469","0.3687693293","","","","","","","","","","","","","","72","H","0","img/none_selected.jpg","","69","main_expt",""
"","bandit","149","521022","0.0-111.0-0.0","93483899","wem/bandit_party_2","A3F710EVFD9MM2","either","7","534","","","","","","","1","0","0","0.9293527272","","0.6","0.8","0.4","0.2","","","","","0.9293527272","0.4369614599","0.9393923483","0.3460903474","","","","","","","","","","72","H","0","img/none_selected.jpg","","70","main_expt",""
"","bandit","150","523048","0.0-112.0-0.0","93483899","wem/bandit_party_2","A3F710EVFD9MM2","either","7","508","","","","","","","1","0","0","0.949087413","","0.6","0.8","0.4","0.2","","","","","0.949087413","0.5031037484","0.9568343035","0.3278112836","","","","","","","","","","72","H","0","img/none_selected.jpg","","71","main_expt",""
"","bandit","151","525021","0.0-113.0-0.0","93483899","wem/bandit_party_2","A3F710EVFD9MM2","either","7","452","","","","","","","0","1","0","","0.906373323","0.6","0.8","0.4","0.2","0.906373323","0.5397903688","0.947758434","0.2720469766","","","","","","","","","","","","","","72","H","0","img/none_selected.jpg","","72","main_expt",""
"","bandit","152","527154","0.0-114.0-0.0","93483899","wem/bandit_party_2","A3F710EVFD9MM2","either","7","610","","","","","","","1","0","0","0.93965919","","0.6","0.8","0.4","0.2","","","","","0.93965919","0.5540652028","0.9052010222","0.2451019773","","","","","","","","","","72","H","0","img/none_selected.jpg","","73","main_expt",""
"","bandit","153","529095","0.0-115.0-0.0","93483899","wem/bandit_party_2","A3F710EVFD9MM2","either","7","418","","","","","","","1","0","0","0.9416319858","","0.6","0.8","0.4","0.2","","","","","0.9416319858","0.61733434","0.927704936","0.2645862521","","","","","","","","","","72","H","0","img/none_selected.jpg","","74","main_expt",""
"","bandit","154","531157","0.0-116.0-0.0","93483899","wem/bandit_party_2","A3F710EVFD9MM2","either","7","539","","","","","","","1","0","0","0.9535384208","","0.6","0.8","0.4","0.2","","","","","0.9535384208","0.6341908543","0.8769567517","0.2298582","","","","","","","","","","72","H","0","img/none_selected.jpg","","75","main_expt",""
"","bandit","155","533217","0.0-117.0-0.0","93483899","wem/bandit_party_2","A3F710EVFD9MM2","either","7","540","","","","","","","1","0","0","0.9585479729","","0.6","0.8","0.4","0.2","","","","","0.9585479729","0.6355577018","0.8456064169","0.3460043445","","","","","","","","","","72","H","0","img/none_selected.jpg","","76","main_expt",""
"","bandit","156","535187","0.0-118.0-0.0","93483899","wem/bandit_party_2","A3F710EVFD9MM2","either","7","450","","","","","","","0","1","0","","0.9610253773","0.6","0.8","0.4","0.2","0.9610253773","0.7055426269","0.8325595713","0.2526488818","","","","","","","","","","","","","","72","H","0","img/none_selected.jpg","","77","main_expt",""
"","bandit","157","537091","0.0-119.0-0.0","93483899","wem/bandit_party_2","A3F710EVFD9MM2","either","7","380","","","","","","","1","0","0","0.9580320452","","0.6","0.8","0.4","0.2","","","","","0.9580320452","0.6137882531","0.9128982172","0.2625396382","","","","","","","","","","72","H","0","img/none_selected.jpg","","78","main_expt",""
"","bandit","158","539346","0.0-120.0-0.0","93483899","wem/bandit_party_2","A3F710EVFD9MM2","either","7","737","","","","","","","1","0","0","0.9403834825","","0.6","0.8","0.4","0.2","","","","","0.9403834825","0.668392527","0.9213349282","0.2957535945","","","","","","","","","","72","H","0","img/none_selected.jpg","","79","main_expt",""
"","bandit","159","541262","0.0-121.0-0.0","93483899","wem/bandit_party_2","A3F710EVFD9MM2","either","7","393","","","","","","","0","1","0","","0.946171157","0.6","0.8","0.4","0.2","0.946171157","0.7457361895","0.8935563746","0.1831261498","","","","","","","","","","","","","","72","H","0","img/none_selected.jpg","","80","main_expt",""
"","bandit","160","543198","0.0-122.0-0.0","93483899","wem/bandit_party_2","A3F710EVFD9MM2","either","7","420","","","","","","","0","1","0","","0.9800092583","0.6","0.8","0.4","0.2","0.9800092583","0.8028050151","0.932831263","0.1450659425","","","","","","","","","","","","","","72","H","0","img/none_selected.jpg","","81","main_expt",""
"","bandit","161","545120","0.0-123.0-0.0","93483899","wem/bandit_party_2","A3F710EVFD9MM2","either","7","397","","","","","","","1","0","0","0.9666397243","","0.6","0.8","0.4","0.2","","","","","0.9666397243","0.8727424511","0.9403650082","0.1486641529","","","","","","","","","","72","H","0","img/none_selected.jpg","","82","main_expt",""
"","bandit","162","547046","0.0-124.0-0.0","93483899","wem/bandit_party_2","A3F710EVFD9MM2","either","7","405","","","","","","","0","1","0","","0.9637330664","0.6","0.8","0.4","0.2","0.9637330664","0.8283068274","0.9066396881","0.1567811066","","","","","","","","","","","","","","72","H","0","img/none_selected.jpg","","83","main_expt",""
"","bandit","163","549114","0.0-125.0-0.0","93483899","wem/bandit_party_2","A3F710EVFD9MM2","either","7","548","","","","","","","1","0","0","0.9617949183","","0.6","0.8","0.4","0.2","","","","","0.9617949183","0.8030064341","0.8962006295","0.196091916","","","","","","","","","","72","H","0","img/none_selected.jpg","","84","main_expt",""
"","bandit","164","551158","0.0-126.0-0.0","93483899","wem/bandit_party_2","A3F710EVFD9MM2","either","7","522","","","","","","","0","1","0","","0.9561985801","0.6","0.8","0.4","0.2","0.9561985801","0.8622567251","0.9093999993","0.1512390112","","","","","","","","","","","","","","72","H","0","img/none_selected.jpg","","85","main_expt",""
"","bandit","165","553128","0.0-127.0-0.0","93483899","wem/bandit_party_2","A3F710EVFD9MM2","either","7","448","","","","","","","1","0","0","0.9422505668","","0.6","0.8","0.4","0.2","","","","","0.9422505668","0.896584634","0.9326862648","0.1486491559","","","","","","","","","","72","H","0","img/none_selected.jpg","","86","main_expt",""
"","bandit","166","555068","0.0-128.0-0.0","93483899","wem/bandit_party_2","A3F710EVFD9MM2","either","7","417","","","","","","","1","0","0","0.926711091","","0.6","0.8","0.4","0.2","","","","","0.926711091","0.9208758521","0.9039434857","0.1047878604","","","","","","","","","","72","H","0","img/none_selected.jpg","","87","main_expt",""
"","bandit","167","557214","0.0-129.0-0.0","93483899","wem/bandit_party_2","A3F710EVFD9MM2","either","7","623","","","","","","","0","1","0","","0.9092576496","0.6","0.8","0.4","0.2","0.9092576496","0.9266301883","0.9195127861","0.07038149384","","","","","","","","","","","","","","72","H","0","img/none_selected.jpg","","88","main_expt",""
"","bandit","168","559476","0.0-130.0-0.0","93483899","wem/bandit_party_2","A3F710EVFD9MM2","either","7","743","","","","","","","1","0","0","0.8948591238","","0.6","0.8","0.4","0.2","","","","","0.8948591238","0.9259215542","0.9225053559","0.1311535074","","","","","","","","","","72","H","0","img/none_selected.jpg","","89","main_expt",""
"","bandit","169","561665","0.0-131.0-0.0","93483899","wem/bandit_party_2","A3F710EVFD9MM2","either","7","669","","","","","","","0","1","0","","0.8716727139","0.6","0.8","0.4","0.2","0.8716727139","0.9400480964","0.9014563988","0.1241310956","","","","","","","","","","","","","","72","H","0","img/none_selected.jpg","","90","main_expt",""
"","bandit","170","563730","0.0-132.0-0.0","93483899","wem/bandit_party_2","A3F710EVFD9MM2","either","7","541","","","","","","","0","1","0","","0.8969144331","0.6","0.8","0.4","0.2","0.8969144331","0.8961855863","0.9162570652","0.09664170694","","","","","","","","","","","","","","72","H","0","img/none_selected.jpg","","91","main_expt",""
"","bandit","171","565886","0.0-133.0-0.0","93483899","wem/bandit_party_2","A3F710EVFD9MM2","either","7","633","","","","","","","1","0","0","0.9171199264","","0.6","0.8","0.4","0.2","","","","","0.9171199264","0.9211437923","0.9171553871","0.09586364307","","","","","","","","","","72","H","0","img/none_selected.jpg","","92","main_expt",""
"","bandit","172","567794","0.0-134.0-0.0","93483899","wem/bandit_party_2","A3F710EVFD9MM2","either","7","380","","","","","","","1","0","0","0.9593171332","","0.6","0.8","0.4","0.2","","","","","0.9593171332","0.8947860396","0.9463284029","0.08304118766","","","","","","","","","","72","H","0","img/none_selected.jpg","","93","main_expt",""
"","bandit","173","569724","0.0-135.0-0.0","93483899","wem/bandit_party_2","A3F710EVFD9MM2","either","7","410","","","","","","","0","1","0","","0.959226596","0.6","0.8","0.4","0.2","0.959226596","0.822540961","0.9477079066","0.1222865453","","","","","","","","","","","","","","72","H","0","img/none_selected.jpg","","94","main_expt",""
"","bandit","174","571704","0.0-136.0-0.0","93483899","wem/bandit_party_2","A3F710EVFD9MM2","either","7","454","","","","","","","0","1","0","","0.947105423","0.6","0.8","0.4","0.2","0.947105423","0.8288041746","0.9474919074","0.211460517","","","","","","","","","","","","","","72","H","0","img/none_selected.jpg","","95","main_expt",""
"","bandit","175","574069","0.0-137.0-0.0","93483899","wem/bandit_party_2","A3F710EVFD9MM2","either","7","842","","","","","","","0","1","0","","0.937205139","0.6","0.8","0.4","0.2","0.937205139","0.8217366877","0.9722490369","0.2757920232","","","","","","","","","","","","","","72","H","0","img/none_selected.jpg","","96","main_expt",""
"","bandit","176","576052","0.0-138.0-0.0","93483899","wem/bandit_party_2","A3F710EVFD9MM2","either","7","462","","","","","","","1","0","0","0.9472767204","","0.6","0.8","0.4","0.2","","","","","0.9472767204","0.725285089","0.980822097","0.2646876298","","","","","","","","","","72","H","0","img/none_selected.jpg","","97","main_expt",""
"","bandit","177","578151","0.0-139.0-0.0","93483899","wem/bandit_party_2","A3F710EVFD9MM2","either","7","575","","","","","","","1","0","0","0.962959595","","0.6","0.8","0.4","0.2","","","","","0.962959595","0.7958966199","0.9761591307","0.3278454636","","","","","","","","","","72","H","0","img/none_selected.jpg","","98","main_expt",""
"","bandit","178","580300","0.0-140.0-0.0","93483899","wem/bandit_party_2","A3F710EVFD9MM2","either","7","624","","","","","","","1","0","0","0.9720903607","","0.6","0.8","0.4","0.2","","","","","0.9720903607","0.7741840332","0.9597391097","0.4641870332","","","","","","","","","","72","H","0","img/none_selected.jpg","","99","main_expt",""
"","bandit","179","582446","0.0-141.0-0.0","93483899","wem/bandit_party_2","A3F710EVFD9MM2","either","7","622","","","","","","","1","0","0","0.9737169538","","0.6","0.8","0.4","0.2","","","","","0.9737169538","0.7934767162","0.9557148533","0.3972344865","","","","","","","","","","72","H","0","img/none_selected.jpg","","100","main_expt",""
"","bandit","180","585042","0.0-142.0-0.0","93483899","wem/bandit_party_2","A3F710EVFD9MM2","either","7","1074","","","","","","","0","1","0","","0.986468331","0.6","0.8","0.4","0.2","0.986468331","0.8307638242","0.9687934467","0.4395304924","","","","","","","","","","","","","","72","H","0","img/none_selected.jpg","","101","main_expt",""
"","bandit","181","587178","0.0-143.0-0.0","93483899","wem/bandit_party_2","A3F710EVFD9MM2","either","7","614","","","","","","","1","0","0","0.9859557102","","0.6","0.8","0.4","0.2","","","","","0.9859557102","0.7737236933","0.9713318577","0.5248298482","","","","","","","","","","72","H","0","img/none_selected.jpg","","102","main_expt",""
"","bandit","182","589747","0.0-144.0-0.0","93483899","wem/bandit_party_2","A3F710EVFD9MM2","either","7","1058","","","","","","","0","0","1","0.9828698412","","0.6","0.8","0.4","0.2","","","","","0.9828698412","0.8168427084","0.9768128314","0.6218364577","","","","","","","","","","72","H","0","img/none_selected.jpg","","103","main_expt",""
"","bandit","183","591606","0.0-145.0-0.0","93483899","wem/bandit_party_2","A3F710EVFD9MM2","either","7","337","","","","","","","1","0","0","0.9655029871","","0.6","0.8","0.4","0.2","","","","","0.9655029871","0.7020104164","0.9566706727","0.5528563194","","","","","","","","","","72","H","0","img/none_selected.jpg","","104","main_expt",""
"","bandit","184","593518","0.0-146.0-0.0","93483899","wem/bandit_party_2","A3F710EVFD9MM2","either","7","391","","","","","","","1","0","0","0.9587067199","","0.6","0.8","0.4","0.2","","","","","0.9587067199","0.6750414237","0.9352711559","0.515821512","","","","","","","","","","72","H","0","img/none_selected.jpg","","105","main_expt",""
"","bandit","185","595457","0.0-147.0-0.0","93483899","wem/bandit_party_2","A3F710EVFD9MM2","either","7","416","","","","","","","1","0","0","0.9358961366","","0.6","0.8","0.4","0.2","","","","","0.9358961366","0.5886413089","0.8980036198","0.5380341879","","","","","","","","","","72","H","0","img/none_selected.jpg","","106","main_expt",""
"","bandit","186","597436","0.0-148.0-0.0","93483899","wem/bandit_party_2","A3F710EVFD9MM2","either","7","457","","","","","","","0","1","0","","0.8829949032","0.6","0.8","0.4","0.2","0.8829949032","0.5507707533","0.9175797088","0.3291998873","","","","","","","","","","","","","","72","H","0","img/none_selected.jpg","","107","main_expt",""
"","bandit","187","599424","0.0-149.0-0.0","93483899","wem/bandit_party_2","A3F710EVFD9MM2","either","7","464","","","","","","","1","0","0","0.7668100276","","0.6","0.8","0.4","0.2","","","","","0.7668100276","0.4325904974","0.8966825343","0.3608627265","","","","","","","","","","72","H","0","img/none_selected.jpg","","108","main_expt",""
"","bandit","188","601392","0.0-150.0-0.0","93483899","wem/bandit_party_2","A3F710EVFD9MM2","either","7","452","","","","","","","0","0","1","0.7652463225","","0.6","0.8","0.4","0.2","","","","","0.7652463225","0.3735159861","0.8883819791","0.3837942066","","","","","","","","","","72","H","0","img/none_selected.jpg","","109","main_expt",""
"","bandit","189","603251","0.0-151.0-0.0","93483899","wem/bandit_party_2","A3F710EVFD9MM2","either","7","335","","","","","","","1","0","0","0.7974745759","","0.6","0.8","0.4","0.2","","","","","0.7974745759","0.3704440872","0.9087011364","0.3019365294","","","","","","","","","","72","H","0","img/none_selected.jpg","","110","main_expt",""
"","bandit","190","605276","0.0-152.0-0.0","93483899","wem/bandit_party_2","A3F710EVFD9MM2","either","7","497","","","","","","","0","0","1","0.812352323","","0.6","0.8","0.4","0.2","","","","","0.812352323","0.2749067499","0.9337026812","0.3483008865","","","","","","","","","","72","H","0","img/none_selected.jpg","","111","main_expt",""
"","bandit","191","607018","0.0-153.0-0.0","93483899","wem/bandit_party_2","A3F710EVFD9MM2","either","7","220","","","","","","","0","0","1","0.2734667401","","0.6","0.8","0.4","0.2","","","","","0.7428975936","0.2734667401","0.9113388615","0.4342302697","","","","","","","","","","74","J","1","","","112","main_expt",""
"","bandit","192","608903","0.0-154.0-0.0","93483899","wem/bandit_party_2","A3F710EVFD9MM2","either","7","338","","","","","","","0","0","1","0.2291946885","","0.6","0.8","0.4","0.2","","","","","0.7139653514","0.2291946885","0.8980528729","0.5187246657","","","","","","","","","","74","J","1","","","113","main_expt",""
"","bandit","193","610739","0.0-155.0-0.0","93483899","wem/bandit_party_2","A3F710EVFD9MM2","either","7","317","","","","","","","1","0","0","0.8036326458","","0.6","0.8","0.4","0.2","","","","","0.7945657698","0.2413339081","0.8036326458","0.5381742134","","","","","","","","","","75","K","2","","","114","main_expt",""
"","bandit","194","612558","0.0-156.0-0.0","93483899","wem/bandit_party_2","A3F710EVFD9MM2","either","7","296","","","","","","","1","0","0","0.8700945717","","0.6","0.8","0.4","0.2","","","","","0.8405588069","0.3092826039","0.8700945717","0.4785029821","","","","","","","","","","75","K","2","","","115","main_expt",""
"","bandit","195","614234","0.0-157.0-0.0","93483899","wem/bandit_party_2","A3F710EVFD9MM2","either","7","157","","","","","","","0","1","0","","0.8895114993","0.6","0.8","0.4","0.2","0.8641798474","0.2361366225","0.8895114993","0.4654757386","","","","","","","","","","","","","","75","K","2","","","116","main_expt",""
"","bandit","196","616038","0.0-158.0-0.0","93483899","wem/bandit_party_2","A3F710EVFD9MM2","either","7","281","","","","","","","0","1","0","","0.8936856952","0.6","0.8","0.4","0.2","0.8756768431","0.218402711","0.8936856952","0.4578633225","","","","","","","","","","","","","","75","K","2","","","117","main_expt",""
"","bandit","197","618853","0.0-159.0-0.0","93483899","wem/bandit_party_2","A3F710EVFD9MM2","either","7","1293","","","","","","","0","1","0","","0.8077127093","0.6","0.8","0.4","0.2","0.9015269718","0.2003641109","0.8077127093","0.4773941538","","","","","","","","","","","","","","75","K","2","","","118","main_expt",""
"","bandit","198","620727","0.0-160.0-0.0","93483899","wem/bandit_party_2","A3F710EVFD9MM2","either","7","353","","","","","","","0","1","0","","0.8901108642","0.6","0.8","0.4","0.2","0.8709738884","0.1375137305","0.8901108642","0.508374463","","","","","","","","","","","","","","75","K","2","","","119","main_expt",""
"","bandit","199","622780","0.0-161.0-0.0","93483899","wem/bandit_party_2","A3F710EVFD9MM2","either","7","503","","","","","","","0","1","0","","0.8731124259","0.6","0.8","0.4","0.2","0.8268338002","0.08656631556","0.8731124259","0.4294310012","","","","","","","","","","","","","","75","K","2","","","120","main_expt",""
"","bandit","200","624678","0.0-162.0-0.0","93483899","wem/bandit_party_2","A3F710EVFD9MM2","either","7","378","","","","","","","0","1","0","","0.8509174952","0.6","0.8","0.4","0.2","0.8432616236","0.07812634859","0.8509174952","0.3933985885","","","","","","","","","","","","","","75","K","2","","","121","main_expt",""
"","bandit","201","626688","0.0-163.0-0.0","93483899","wem/bandit_party_2","A3F710EVFD9MM2","either","7","485","","","","","","","0","1","0","","0.8707856005","0.6","0.8","0.4","0.2","0.8128728295","0.09046411854","0.8707856005","0.2641409089","","","","","","","","","","","","","","75","K","2","","","122","main_expt",""
"","bandit","202","628988","0.0-164.0-0.0","93483899","wem/bandit_party_2","A3F710EVFD9MM2","either","7","660","","","","","","","0","0","1","0.7592524618","","0.6","0.8","0.4","0.2","","","","","0.752198112","0.1132512529","0.7592524618","0.2491349268","","","","","","","","","","75","K","2","","","123","main_expt",""
"","bandit","203","630621","0.0-165.0-0.0","93483899","wem/bandit_party_2","A3F710EVFD9MM2","either","7","111","","","","","","","0","1","0","","0.7330206325","0.6","0.8","0.4","0.2","0.7117781612","0.09419269712","0.7330206325","0.2587226179","","","","","","","","","","","","","","75","K","2","","","124","main_expt",""
"","bandit","204","632490","0.0-166.0-0.0","93483899","wem/bandit_party_2","A3F710EVFD9MM2","either","7","349","","","","","","","0","0","1","","0.6903693331","0.6","0.8","0.4","0.2","0.7177409252","0.110513045","0.6903693331","0.2925679814","","","","","","","","","","","","","","75","K","2","","","125","main_expt",""
"","bandit","205","634372","0.0-167.0-0.0","93483899","wem/bandit_party_2","A3F710EVFD9MM2","either","7","365","","","","","","","0","0","1","","0.3997536411","0.6","0.8","0.4","0.2","0.7240917845","0.07088043536","0.6370641568","0.3997536411","","","","","","","","","","","","","","76","L","3","","","126","main_expt",""
"","bandit","206","636281","0.0-168.0-0.0","93483899","wem/bandit_party_2","A3F710EVFD9MM2","either","7","380","","","","","","","0","1","0","","0.4120812041","0.6","0.8","0.4","0.2","0.6788578752","0.1041728595","0.6192694325","0.4120812041","","","","","","","","","","","","","","76","L","3","","","127","main_expt",""
"","bandit","207","638224","0.0-169.0-0.0","93483899","wem/bandit_party_2","A3F710EVFD9MM2","either","7","427","","","","","","","0","0","1","0.3731276689","","0.6","0.8","0.4","0.2","","","","","0.6257789885","0.1006708935","0.559348281","0.3731276689","","","","","","","","","","76","L","3","","","128","main_expt",""
"","bandit","208","640143","0.0-170.0-0.0","93483899","wem/bandit_party_2","A3F710EVFD9MM2","either","7","400","","","","","","","0","0","1","0.3263017501","","0.6","0.8","0.4","0.2","","","","","0.4761868647","0.1336488566","0.610360397","0.3263017501","","","","","","","","","","76","L","3","","","129","main_expt",""
"","bandit","209","641909","0.0-171.0-0.0","93483899","wem/bandit_party_2","A3F710EVFD9MM2","either","7","247","","","","","","","0","0","1","0.4745188583","","0.6","0.8","0.4","0.2","","","","","0.4745188583","0.1271550391","0.5737783772","0.3226142564","","","","","","","","","","72","H","0","img/none_selected.jpg","","130","main_expt",""
"","bandit","210","644326","0.0-172.0-0.0","93483899","wem/bandit_party_2","A3F710EVFD9MM2","either","7","901","","","","","","","1","0","0","0.4674409752","","0.6","0.8","0.4","0.2","","","","","0.4674409752","0.1594360192","0.6252154127","0.3907136596","","","","","","","","","","72","H","0","img/none_selected.jpg","","131","main_expt",""
"","bandit","211","646303","0.0-173.0-0.0","93483899","wem/bandit_party_2","A3F710EVFD9MM2","either","7","454","","","","","","","0","0","1","","0.368649462","0.6","0.8","0.4","0.2","0.368649462","0.1027658661","0.6473056352","0.4983036492","","","","","","","","","","","","","","72","H","0","img/none_selected.jpg","","132","main_expt",""
"","bandit","212","648144","0.0-174.0-0.0","93483899","wem/bandit_party_2","A3F710EVFD9MM2","either","7","332","","","","","","","0","0","1","","0.4313577514","0.6","0.8","0.4","0.2","0.4313577514","0.1223548883","0.4595123468","0.6347393695","","","","","","","","","","","","","","72","H","0","img/none_selected.jpg","","133","main_expt",""
"","bandit","213","649909","0.0-175.0-0.0","93483899","wem/bandit_party_2","A3F710EVFD9MM2","either","7","203","","","","","","","0","0","1","0.1063029331","","0.6","0.8","0.4","0.2","","","","","0.3692150919","0.1063029331","0.3043385566","0.6037412299","","","","","","","","","","74","J","1","","","134","main_expt",""
"","bandit","214","651920","0.0-176.0-0.0","93483899","wem/bandit_party_2","A3F710EVFD9MM2","either","7","376","","","","","","","0","0","1","0.080644856","","0.6","0.8","0.4","0.2","","","","","0.3077662431","0.080644856","0.340857567","0.5511090861","","","","","","","","","","74","J","1","","","135","main_expt",""
"","bandit","215","653560","0.0-177.0-0.0","93483899","wem/bandit_party_2","A3F710EVFD9MM2","either","7","126","","","","","","","0","0","1","0.1359867045","","0.6","0.8","0.4","0.2","","","","","0.314969588","0.1359867045","0.2655810755","0.585911414","","","","","","","","","","74","J","1","","","136","main_expt",""
"","bandit","216","655378","0.0-178.0-0.0","93483899","wem/bandit_party_2","A3F710EVFD9MM2","either","7","300","","","","","","","0","0","1","","0.3025530854","0.6","0.8","0.4","0.2","0.3590847215","0.168344283","0.3025530854","0.5805905743","","","","","","","","","","","","","","75","K","2","","","137","main_expt",""
"","bandit","217","657214","0.0-179.0-0.0","93483899","wem/bandit_party_2","A3F710EVFD9MM2","either","7","322","","","","","","","0","0","1","0.2888348812","","0.6","0.8","0.4","0.2","","","","","0.3588584756","0.1867455324","0.2888348812","0.6357737786","","","","","","","","","","75","K","2","","","138","main_expt",""
"","bandit","218","658941","0.0-180.0-0.0","93483899","wem/bandit_party_2","A3F710EVFD9MM2","either","7","208","","","","","","","0","0","1","","0.66639317","0.6","0.8","0.4","0.2","0.4289761638","0.2277874407","0.2463208975","0.66639317","","","","","","","","","","","","","","76","L","3","","","139","main_expt",""
"","bandit","219","660764","0.0-181.0-0.0","93483899","wem/bandit_party_2","A3F710EVFD9MM2","either","7","299","","","","","","","0","1","0","","0.6365789307","0.6","0.8","0.4","0.2","0.3801639999","0.2577820179","0.273109751","0.6365789307","","","","","","","","","","","","","","76","L","3","","","140","main_expt",""
"","bandit","220","662706","0.0-182.0-0.0","93483899","wem/bandit_party_2","A3F710EVFD9MM2","either","7","420","","","","","","","0","0","1","","0.6045632144","0.6","0.8","0.4","0.2","0.2445936549","0.3674069736","0.3355442787","0.6045632144","","","","","","","","","","","","","","76","L","3","","","141","main_expt",""
"","bandit","221","664648","0.0-183.0-0.0","93483899","wem/bandit_party_2","A3F710EVFD9MM2","either","7","419","","","","","","","0","0","1","","0.5148607161","0.6","0.8","0.4","0.2","0.3394066497","0.4345417514","0.2781999234","0.5148607161","","","","","","","","","","","","","","76","L","3","","","142","main_expt",""
"","bandit","222","666478","0.0-184.0-0.0","93483899","wem/bandit_party_2","A3F710EVFD9MM2","either","7","308","","","","","","","0","0","1","","0.2899754881","0.6","0.8","0.4","0.2","0.2899754881","0.3811672827","0.2599467226","0.4754154836","","","","","","","","","","","","","","72","H","0","img/none_selected.jpg","","143","main_expt",""
"","bandit","223","668041","0.0-185.0-0.0","93483899","wem/bandit_party_2","A3F710EVFD9MM2","either","7","42","","","","","","","0","0","1","0.2754059391","","0.6","0.8","0.4","0.2","","","","","0.3701332444","0.2754059391","0.2353144144","0.516029258","","","","","","","","","","74","J","1","","","144","main_expt",""
"","bandit","224","670029","0.0-186.0-0.0","93483899","wem/bandit_party_2","A3F710EVFD9MM2","either","7","467","","","","","","","0","0","1","","0.2120114759","0.6","0.8","0.4","0.2","0.3322753171","0.2773400324","0.2120114759","0.6646605279","","","","","","","","","","","","","","75","K","2","","","145","main_expt",""
"","bandit","225","672034","0.0-187.0-0.0","93483899","wem/bandit_party_2","A3F710EVFD9MM2","either","7","483","","","","","","","0","1","0","","0.6331546467","0.6","0.8","0.4","0.2","0.3203507811","0.2780426824","0.176067728","0.6331546467","","","","","","","","","","","","","","76","L","3","","","146","main_expt",""
"","bandit","226","673887","0.0-188.0-0.0","93483899","wem/bandit_party_2","A3F710EVFD9MM2","either","7","332","","","","","","","0","1","0","","0.6356747602","0.6","0.8","0.4","0.2","0.304761248","0.3373608721","0.1329453439","0.6356747602","","","","","","","","","","","","","","76","L","3","","","147","main_expt",""
"","bandit","227","676016","0.0-189.0-0.0","93483899","wem/bandit_party_2","A3F710EVFD9MM2","either","7","519","","","","","","","0","1","0","","0.6301772709","0.6","0.8","0.4","0.2","0.3809280674","0.3529594122","0.1465103875","0.6301772709","","","","","","","","","","","","","","76","L","3","","","148","main_expt",""
"","bandit","228","677879","0.0-190.0-0.0","93483899","wem/bandit_party_2","A3F710EVFD9MM2","either","7","330","","","","","","","0","1","0","","0.6640591829","0.6","0.8","0.4","0.2","0.3997986218","0.3878328211","0.1190451538","0.6640591829","","","","","","","","","","","","","","76","L","3","","","149","main_expt",""
"","bandit","229","679724","0.0-191.0-0.0","93483899","wem/bandit_party_2","A3F710EVFD9MM2","either","7","314","","","","","","","0","1","0","","0.6592717552","0.6","0.8","0.4","0.2","0.3159341416","0.42943501","0.1195570164","0.6592717552","","","","","","","","","","","","","","76","L","3","","","150","main_expt",""
"","bandit","230","682057","0.0-192.0-0.0","93483899","wem/bandit_party_2","A3F710EVFD9MM2","either","7","812","","","","","","","0","0","1","","0.5928743102","0.6","0.8","0.4","0.2","0.3052853957","0.5142681232","0.100492686","0.5928743102","","","","","","","","","","","","","","76","L","3","","","151","main_expt",""
"","bandit","231","683951","0.0-193.0-0.0","93483899","wem/bandit_party_2","A3F710EVFD9MM2","either","7","371","","","","","","","0","1","0","","0.6822187145","0.6","0.8","0.4","0.2","0.1896018403","0.6321073962","0.1030367897","0.6822187145","","","","","","","","","","","","","","76","L","3","","","152","main_expt",""
"","bandit","232","685918","0.0-194.0-0.0","93483899","wem/bandit_party_2","A3F710EVFD9MM2","either","7","374","","","","","","","0","0","1","","0.6832005509","0.6","0.8","0.4","0.2","0.2439656658","0.6965670792","0.2059045691","0.6832005509","","","","","","","","","","","","","","76","L","3","","","153","main_expt",""
"","bandit","233","687800","0.0-195.0-0.0","93483899","wem/bandit_party_2","A3F710EVFD9MM2","either","7","362","","","","","","","0","0","1","","0.7109729062","0.6","0.8","0.4","0.2","0.3068434149","0.6516005735","0.2921647579","0.7109729062","","","","","","","","","","","","","","76","L","3","","","154","main_expt",""
"","bandit","234","689397","0.0-196.0-0.0","93483899","wem/bandit_party_2","A3F710EVFD9MM2","either","7","71","","","","","","","0","0","1","","0.2314644909","0.6","0.8","0.4","0.2","0.2314644909","0.7291318088","0.1789694193","0.6975465092","","","","","","","","","","","","","","72","H","0","img/none_selected.jpg","","155","main_expt",""
"","bandit","235","691316","0.0-197.0-0.0","93483899","wem/bandit_party_2","A3F710EVFD9MM2","either","7","397","","","","","","","0","0","1","0.2154001061","","0.6","0.8","0.4","0.2","","","","","0.2154001061","0.6273572288","0.2187195075","0.6580608271","","","","","","","","","","72","H","0","img/none_selected.jpg","","156","main_expt",""
"","bandit","236","693377","0.0-198.0-0.0","93483899","wem/bandit_party_2","A3F710EVFD9MM2","either","7","469","","","","","","","0","0","1","0.566197257","","0.6","0.8","0.4","0.2","","","","","0.1648135251","0.566197257","0.2669834713","0.5695802138","","","","","","","","","","74","J","1","","","157","main_expt",""
"","bandit","237","695244","0.0-199.0-0.0","93483899","wem/bandit_party_2","A3F710EVFD9MM2","either","7","341","","","","","","","0","0","1","0.4523642269","","0.6","0.8","0.4","0.2","","","","","0.2215973425","0.4523642269","0.4240307821","0.4733954301","","","","","","","","","","74","J","1","","","158","main_expt",""
"","bandit","238","697119","0.0-200.0-0.0","93483899","wem/bandit_party_2","A3F710EVFD9MM2","either","7","350","","","","","","","0","0","1","0.3840951437","","0.6","0.8","0.4","0.2","","","","","0.2243274726","0.3991212054","0.3840951437","0.5619817243","","","","","","","","","","75","K","2","","","159","main_expt",""
"","bandit","239","698992","0.0-201.0-0.0","93483899","wem/bandit_party_2","A3F710EVFD9MM2","either","7","347","","","","","","","0","1","0","","0.4098147986","0.6","0.8","0.4","0.2","0.2061161075","0.3566558104","0.4098147986","0.4701658979","","","","","","","","","","","","","","75","K","2","","","160","main_expt",""
"","bandit","240","700948","0.0-202.0-0.0","93483899","wem/bandit_party_2","A3F710EVFD9MM2","either","7","430","","","","","","","0","0","1","0.4027252302","","0.6","0.8","0.4","0.2","","","","","0.209200141","0.4430908041","0.4027252302","0.5673671472","","","","","","","","","","75","K","2","","","161","main_expt",""
"","bandit","241","702906","0.0-203.0-0.0","93483899","wem/bandit_party_2","A3F710EVFD9MM2","either","7","384","","","","","","","0","1","0","","0.4921809208","0.6","0.8","0.4","0.2","0.1477343718","0.3966098285","0.3824170733","0.4921809208","","","","","","","","","","","","","","76","L","3","","","162","main_expt",""
"","bandit","242","704794","0.0-204.0-0.0","93483899","wem/bandit_party_2","A3F710EVFD9MM2","either","7","368","","","","","","","0","0","1","","0.4204505308","0.6","0.8","0.4","0.2","0.1525050104","0.3455868331","0.3352280924","0.4204505308","","","","","","","","","","","","","","76","L","3","","","163","main_expt",""
"","bandit","243","706772","0.0-205.0-0.0","93483899","wem/bandit_party_2","A3F710EVFD9MM2","either","7","451","","","","","","","0","1","0","","0.534748173","0.6","0.8","0.4","0.2","0.08831047354","0.3368969945","0.3379187571","0.534748173","","","","","","","","","","","","","","76","L","3","","","164","main_expt",""
"","bandit","244","708694","0.0-206.0-0.0","93483899","wem/bandit_party_2","A3F710EVFD9MM2","either","7","398","","","","","","","0","0","1","0.4724966102","","0.6","0.8","0.4","0.2","","","","","0.1035482763","0.3767562303","0.3160546663","0.4724966102","","","","","","","","","","76","L","3","","","165","main_expt",""
"","bandit","245","710794","0.0-207.0-0.0","93483899","wem/bandit_party_2","A3F710EVFD9MM2","either","7","566","","","","","","","0","1","0","","0.5280505203","0.6","0.8","0.4","0.2","0.06888190676","0.4727650462","0.3058359067","0.5280505203","","","","","","","","","","","","","","76","L","3","","","166","main_expt",""
"","bandit","246","712976","0.0-208.0-0.0","93483899","wem/bandit_party_2","A3F710EVFD9MM2","either","7","654","","","","","","","0","1","0","","0.589670135","0.6","0.8","0.4","0.2","0.06051452263","0.6140635231","0.2561334246","0.589670135","","","","","","","","","","","","","","76","L","3","","","167","main_expt",""
"","bandit","247","714888","0.0-209.0-0.0","93483899","wem/bandit_party_2","A3F710EVFD9MM2","either","7","343","","","","","","","0","1","0","","0.5058201204","0.6","0.8","0.4","0.2","0.07905307949","0.5629225295","0.2459084815","0.5058201204","","","","","","","","","","","","","","76","L","3","","","168","main_expt",""
"","bandit","248","717318","0.0-210.0-0.0","93483899","wem/bandit_party_2","A3F710EVFD9MM2","either","7","914","","","","","","","0","0","1","","0.4102709571","0.6","0.8","0.4","0.2","0.07051596905","0.6456076899","0.2138460752","0.4102709571","","","","","","","","","","","","","","76","L","3","","","169","main_expt",""
"","bandit","249","719717","0.0-211.0-0.0","93483899","wem/bandit_party_2","A3F710EVFD9MM2","either","7","873","","","","","","","0","0","1","","0.5061826445","0.6","0.8","0.4","0.2","0.1056762318","0.719827795","0.1642406351","0.5061826445","","","","","","","","","","","","","","76","L","3","","","170","main_expt",""
"","bandit","250","721283","0.0-212.0-0.0","93483899","wem/bandit_party_2","A3F710EVFD9MM2","either","7","36","","","","","","","0","0","1","","0.6092158501","0.6","0.8","0.4","0.2","0.1513980822","0.6716280274","0.2337150112","0.6092158501","","","","","","","","","","","","","","76","L","3","","","171","main_expt",""
"","bandit","251","723993","0.0-213.0-0.0","93483899","wem/bandit_party_2","A3F710EVFD9MM2","either","7","1182","","","","","","","1","0","0","0.5683226388","","0.6","0.8","0.4","0.2","","","","","0.1552293495","0.5683226388","0.3128682212","0.691496366","","","","","","","","","","74","J","1","","","172","main_expt",""
"","bandit","252","726085","0.0-214.0-0.0","93483899","wem/bandit_party_2","A3F710EVFD9MM2","either","7","566","","","","","","","0","0","1","","0.4581357746","0.6","0.8","0.4","0.2","0.1325975083","0.4581357746","0.2775517843","0.7402253768","","","","","","","","","","","","","","74","J","1","","","173","main_expt",""
"","bandit","253","727608","0.0-215.0-0.0","93483899","wem/bandit_party_2","A3F710EVFD9MM2","either","7","0","","","","","","","1","0","0","0.5903479164","","0.6","0.8","0.4","0.2","","","","","0.09024892351","0.5903479164","0.4159305855","0.6601004511","","","","","","","","","","74","J","1","","","174","main_expt",""
"","bandit","254","730066","0.0-216.0-0.0","93483899","wem/bandit_party_2","A3F710EVFD9MM2","either","7","936","","","","","","","0","0","1","0.5658285383","","0.6","0.8","0.4","0.2","","","","","0.06963745108","0.5658285383","0.4471770837","0.6781732273","","","","","","","","","","74","J","1","","","175","main_expt",""
"","bandit","255","732006","0.0-217.0-0.0","93483899","wem/bandit_party_2","A3F710EVFD9MM2","either","7","414","","","","","","","0","0","1","0.07897043431","","0.6","0.8","0.4","0.2","","","","","0.07897043431","0.5313506173","0.5162211083","0.6932650799","","","","","","","","","","72","H","0","img/none_selected.jpg","","176","main_expt",""
"","bandit","256","733986","0.0-218.0-0.0","93483899","wem/bandit_party_2","A3F710EVFD9MM2","either","7","464","","","","","","","0","0","1","","0.6372676231","0.6","0.8","0.4","0.2","0.09469685393","0.4231289234","0.6372676231","0.6803850572","","","","","","","","","","","","","","75","K","2","","","177","main_expt",""
"","bandit","257","736713","0.0-219.0-0.0","93483899","wem/bandit_party_2","A3F710EVFD9MM2","either","7","1200","","","","","","","1","0","0","0.6295749113","","0.6","0.8","0.4","0.2","","","","","0.1486386852","0.580807006","0.6295749113","0.5407017663","","","","","","","","","","75","K","2","","","178","main_expt",""
"","bandit","258","738693","0.0-220.0-0.0","93483899","wem/bandit_party_2","A3F710EVFD9MM2","either","7","457","","","","","","","0","1","0","","0.4126066341","0.6","0.8","0.4","0.2","0.1965095934","0.5499948007","0.4126066341","0.5931576708","","","","","","","","","","","","","","75","K","2","","","179","main_expt",""
"","bandit","259","741541","0.0-221.0-0.0","93483899","wem/bandit_party_2","A3F710EVFD9MM2","either","7","1322","","","","","","","0","0","1","","0.516991344","0.6","0.8","0.4","0.2","0.1749048096","0.4918200669","0.516991344","0.5390819372","","","","","","","","","","","","","","75","K","2","","","180","main_expt",""
"","bandit","260","743674","0.0-222.0-0.0","93483899","wem/bandit_party_2","A3F710EVFD9MM2","either","7","609","","","","","","","1","0","0","0.4239603033","","0.6","0.8","0.4","0.2","","","","","0.232896561","0.5428702931","0.4239603033","0.4929910299","","","","","","","","","","75","K","2","","","181","main_expt",""
"","bandit","261","745611","0.0-223.0-0.0","93483899","wem/bandit_party_2","A3F710EVFD9MM2","either","7","411","","","","","","","0","0","1","0.3961891141","","0.6","0.8","0.4","0.2","","","","","0.2561822725","0.5870547156","0.3961891141","0.458433212","","","","","","","","","","75","K","2","","","182","main_expt",""
"","bandit","262","747350","0.0-224.0-0.0","93483899","wem/bandit_party_2","A3F710EVFD9MM2","either","7","219","","","","","","","0","0","1","","0.5725449786","0.6","0.8","0.4","0.2","0.2713883962","0.5031908535","0.4364601233","0.5725449786","","","","","","","","","","","","","","76","L","3","","","183","main_expt",""
"","bandit","263","749365","0.0-225.0-0.0","93483899","wem/bandit_party_2","A3F710EVFD9MM2","either","7","486","","","","","","","1","0","0","0.4239978994","","0.6","0.8","0.4","0.2","","","","","0.3543557679","0.4239978994","0.4826964198","0.4878383732","","","","","","","","","","74","J","1","","","184","main_expt",""
"","bandit","264","751644","0.0-226.0-0.0","93483899","wem/bandit_party_2","A3F710EVFD9MM2","either","7","753","","","","","","","0","0","1","0.3425545299","","0.6","0.8","0.4","0.2","","","","","0.2974533566","0.3425545299","0.4448789548","0.5189350158","","","","","","","","","","74","J","1","","","185","main_expt",""
"","bandit","265","753964","0.0-227.0-0.0","93483899","wem/bandit_party_2","A3F710EVFD9MM2","either","7","746","","","","","","","0","0","1","0.2594221554","","0.6","0.8","0.4","0.2","","","","","0.3295130888","0.2594221554","0.4585835861","0.4310300585","","","","","","","","","","74","J","1","","","186","main_expt",""
"","bandit","266","756611","0.0-228.0-0.0","93483899","wem/bandit_party_2","A3F710EVFD9MM2","either","7","1132","","","","","","","1","0","0","0.3440574025","","0.6","0.8","0.4","0.2","","","","","0.3440574025","0.350747246","0.5470412386","0.4005994516","","","","","","","","","","72","H","0","img/none_selected.jpg","","187","main_expt",""
"","bandit","267","759282","0.0-229.0-0.0","93483899","wem/bandit_party_2","A3F710EVFD9MM2","either","7","1145","","","","","","","0","0","1","","0.3176863717","0.6","0.8","0.4","0.2","0.3176863717","0.3667816541","0.5485419855","0.5684333967","","","","","","","","","","","","","","72","H","0","img/none_selected.jpg","","188","main_expt",""
"","bandit","268","761447","0.0-230.0-0.0","93483899","wem/bandit_party_2","A3F710EVFD9MM2","either","7","639","","","","","","","0","0","1","","0.6161015427","0.6","0.8","0.4","0.2","0.3194332301","0.3129240978","0.6161015427","0.5768443477","","","","","","","","","","","","","","75","K","2","","","189","main_expt",""
"","bandit","269","763814","0.0-231.0-0.0","93483899","wem/bandit_party_2","A3F710EVFD9MM2","either","7","841","","","","","","","0","1","0","","0.6091254975","0.6","0.8","0.4","0.2","0.3585260795","0.3681084497","0.5145576236","0.6091254975","","","","","","","","","","","","","","76","L","3","","","190","main_expt",""
"","bandit","270","766706","0.0-232.0-0.0","93483899","wem/bandit_party_2","A3F710EVFD9MM2","either","7","1370","","","","","","","0","1","0","","0.6355225437","0.6","0.8","0.4","0.2","0.4438822556","0.3284994938","0.4447609651","0.6355225437","","","","","","","","","","","","","","76","L","3","","","191","main_expt",""
"","bandit","271","769324","0.0-233.0-0.0","93483899","wem/bandit_party_2","A3F710EVFD9MM2","either","7","1063","","","","","","","1","0","0","0.7449996868","","0.6","0.8","0.4","0.2","","","","","0.6336907385","0.2913335268","0.4273979598","0.7449996868","","","","","","","","","","76","L","3","","","192","main_expt",""
"","bandit","272","772104","0.0-234.0-0.0","93483899","wem/bandit_party_2","A3F710EVFD9MM2","either","7","1252","","","","","","","0","1","0","","0.7645281636","0.6","0.8","0.4","0.2","0.5871300795","0.3614904019","0.4382354048","0.7645281636","","","","","","","","","","","","","","76","L","3","","","193","main_expt",""
"","bandit","273","774908","0.0-235.0-0.0","93483899","wem/bandit_party_2","A3F710EVFD9MM2","either","7","1276","","","","","","","0","0","1","","0.7417458559","0.6","0.8","0.4","0.2","0.5919999684","0.4180963095","0.4367950698","0.7417458559","","","","","","","","","","","","","","76","L","3","","","194","main_expt",""
"","bandit","274","777777","0.0-236.0-0.0","93483899","wem/bandit_party_2","A3F710EVFD9MM2","either","7","1330","","","","","","","0","1","0","","0.7102393491","0.6","0.8","0.4","0.2","0.5599221581","0.4129416526","0.4306922929","0.7102393491","","","","","","","","","","","","","","76","L","3","","","195","main_expt",""
"","bandit","275","779884","0.0-237.0-0.0","93483899","wem/bandit_party_2","A3F710EVFD9MM2","either","7","577","","","","","","","0","1","0","","0.6846894693","0.6","0.8","0.4","0.2","0.4552797342","0.6027995291","0.4436260943","0.6846894693","","","","","","","","","","","","","","76","L","3","","","196","main_expt",""
"","bandit","276","782024","0.0-238.0-0.0","93483899","wem/bandit_party_2","A3F710EVFD9MM2","either","7","611","","","","","","","1","0","0","0.6573901597","","0.6","0.8","0.4","0.2","","","","","0.3045440077","0.6174547511","0.4547077395","0.6573901597","","","","","","","","","","76","L","3","","","197","main_expt",""
"","bandit","277","784746","0.0-239.0-0.0","93483899","wem/bandit_party_2","A3F710EVFD9MM2","either","7","1196","","","","","","","0","0","1","0.7020762336","","0.6","0.8","0.4","0.2","","","","","0.4061180554","0.5727893511","0.545148617","0.7020762336","","","","","","","","","","76","L","3","","","198","main_expt",""
"","bandit","278","787187","0.0-240.0-0.0","93483899","wem/bandit_party_2","A3F710EVFD9MM2","either","7","908","","","","","","","0","1","0","","0.7749867965","0.6","0.8","0.4","0.2","0.3406873398","0.5803616598","0.5838562778","0.7749867965","","","","","","","","","","","","","","76","L","3","","","199","main_expt",""
"","bandit","279","789532","0.0-241.0-0.0","93483899","wem/bandit_party_2","A3F710EVFD9MM2","either","7","820","","","","","","","0","1","0","","0.7971262248","0.6","0.8","0.4","0.2","0.2810551981","0.5109940584","0.6569131065","0.7971262248","","","","","","","","","","","","","","76","L","3","","","200","main_expt",""
"","bandit","280","791836","0.0-242.0-0.0","93483899","wem/bandit_party_2","A3F710EVFD9MM2","either","7","776","","","","","","","0","1","0","","0.6431063495","0.6","0.8","0.4","0.2","0.2295892347","0.444158281","0.6559739125","0.6431063495","","","","","","","","","","","","","","76","L","3","","","201","main_expt",""
"","bandit","281","795357","0.0-243.0-0.0","93483899","wem/bandit_party_2","A3F710EVFD9MM2","either","7","1995","","","","","","","0","1","0","","0.6153479028","0.6","0.8","0.4","0.2","0.2134833186","0.3774362348","0.5940698896","0.6153479028","","","","","","","","","","","","","","76","L","3","","","202","main_expt",""
"","bandit","282","797858","0.0-244.0-0.0","93483899","wem/bandit_party_2","A3F710EVFD9MM2","either","7","978","","","","","","","0","1","0","","0.6107921693","0.6","0.8","0.4","0.2","0.1538434825","0.2852638898","0.6288005559","0.6107921693","","","","","","","","","","","","","","76","L","3","","","203","main_expt",""
"","bandit","283","800496","0.0-245.0-0.0","93483899","wem/bandit_party_2","A3F710EVFD9MM2","either","7","1111","","","","","","","1","0","0","0.6364312764","","0.6","0.8","0.4","0.2","","","","","0.08629221539","0.3900316507","0.7483345684","0.6364312764","","","","","","","","","","76","L","3","","","204","main_expt",""
"","bandit","284","803016","0.0-246.0-0.0","93483899","wem/bandit_party_2","A3F710EVFD9MM2","either","7","997","","","","","","","0","0","1","","0.7098325313","0.6","0.8","0.4","0.2","0.1303029892","0.3334674042","0.7823609999","0.7098325313","","","","","","","","","","","","","","76","L","3","","","205","main_expt",""
"","bandit","285","805068","0.0-247.0-0.0","93483899","wem/bandit_party_2","A3F710EVFD9MM2","either","7","530","","","","","","","1","0","0","0.6423198407","","0.6","0.8","0.4","0.2","","","","","0.1290793888","0.3997779834","0.7053347691","0.6423198407","","","","","","","","","","76","L","3","","","206","main_expt",""
"","bandit","286","807003","0.0-248.0-0.0","93483899","wem/bandit_party_2","A3F710EVFD9MM2","either","7","328","","","","","","","0","1","0","","0.692958529","0.6","0.8","0.4","0.2","0.1471003053","0.2791746034","0.692958529","0.7196337679","","","","","","","","","","","","","","75","K","2","","","207","main_expt",""
"","bandit","287","808862","0.0-249.0-0.0","93483899","wem/bandit_party_2","A3F710EVFD9MM2","either","7","338","","","","","","","0","1","0","","0.5726600787","0.6","0.8","0.4","0.2","0.1204476287","0.3447420344","0.5726600787","0.7273253538","","","","","","","","","","","","","","75","K","2","","","208","main_expt",""
"","bandit","288","810684","0.0-250.0-0.0","93483899","wem/bandit_party_2","A3F710EVFD9MM2","either","7","288","","","","","","","0","0","1","0.7193759884","","0.6","0.8","0.4","0.2","","","","","0.1752658923","0.2106944101","0.7193759884","0.7701678217","","","","","","","","","","75","K","2","","","209","main_expt",""
"","bandit","289","812578","0.0-251.0-0.0","93483899","wem/bandit_party_2","A3F710EVFD9MM2","either","7","368","","","","","","","0","1","0","","0.5469619257","0.6","0.8","0.4","0.2","0.2071456167","0.2609791638","0.5469619257","0.7673062315","","","","","","","","","","","","","","75","K","2","","","210","main_expt",""
"","bandit","290","814663","0.0-252.0-0.0","93483899","wem/bandit_party_2","A3F710EVFD9MM2","either","7","560","","","","","","","0","1","0","","0.5432746348","0.6","0.8","0.4","0.2","0.1982577311","0.3702243554","0.5432746348","0.7733207599","","","","","","","","","","","","","","75","K","2","","","211","main_expt",""
"","bandit","291","816875","0.0-253.0-0.0","93483899","wem/bandit_party_2","A3F710EVFD9MM2","either","7","677","","","","","","","0","0","1","","0.4857525371","0.6","0.8","0.4","0.2","0.2837026457","0.4070014152","0.4857525371","0.7176010575","","","","","","","","","","","","","","75","K","2","","","212","main_expt",""
"","bandit","292","818774","0.0-254.0-0.0","93483899","wem/bandit_party_2","A3F710EVFD9MM2","either","7","375","","","","","","","0","1","0","","0.4416723402","0.6","0.8","0.4","0.2","0.2192955177","0.5001351259","0.4416723402","0.7241732444","","","","","","","","","","","","","","75","K","2","","","213","main_expt",""
"","bandit","293","820692","0.0-255.0-0.0","93483899","wem/bandit_party_2","A3F710EVFD9MM2","either","7","388","","","","","","","0","1","0","","0.4231083207","0.6","0.8","0.4","0.2","0.2885853396","0.5667049056","0.4231083207","0.6696022014","","","","","","","","","","","","","","75","K","2","","","214","main_expt",""
"","bandit","294","822645","0.0-256.0-0.0","93483899","wem/bandit_party_2","A3F710EVFD9MM2","either","7","432","","","","","","","0","0","1","0.329019478","","0.6","0.8","0.4","0.2","","","","","0.2451296471","0.5259574602","0.329019478","0.6255990046","","","","","","","","","","75","K","2","","","215","main_expt",""
"","bandit","295","825026","0.0-257.0-0.0","93483899","wem/bandit_party_2","A3F710EVFD9MM2","either","7","844","","","","","","","0","0","1","0.5468860011","","0.6","0.8","0.4","0.2","","","","","0.1946790852","0.5468860011","0.3469743373","0.6771362935","","","","","","","","","","74","J","1","","","216","main_expt",""
"","bandit","296","827071","0.0-258.0-0.0","93483899","wem/bandit_party_2","A3F710EVFD9MM2","either","7","520","","","","","","","0","0","1","0.2497229096","","0.6","0.8","0.4","0.2","","","","","0.2497229096","0.6182745027","0.3618740044","0.6918953154","","","","","","","","","","72","H","0","img/none_selected.jpg","","217","main_expt",""
"","bandit","297","828725","0.0-259.0-0.0","93483899","wem/bandit_party_2","A3F710EVFD9MM2","either","7","126","","","","","","","0","0","1","","0.3574217595","0.6","0.8","0.4","0.2","0.3076421025","0.5979125128","0.3574217595","0.5726390237","","","","","","","","","","","","","","75","K","2","","","218","main_expt",""
"","bandit","298","830426","0.0-260.0-0.0","93483899","wem/bandit_party_2","A3F710EVFD9MM2","either","7","172","","","","","","","0","0","1","","0.5179196303","0.6","0.8","0.4","0.2","0.3488941347","0.5321687475","0.3862686792","0.5179196303","","","","","","","","","","","","","","76","L","3","","","219","main_expt",""
"","bandit","299","832263","0.0-261.0-0.0","93483899","wem/bandit_party_2","A3F710EVFD9MM2","either","7","310","","","","","","","1","0","0","0.6053830099","","0.6","0.8","0.4","0.2","","","","","0.306784001","0.6053830099","0.4432846828","0.5578222379","","","","","","","","","","74","J","1","","","220","main_expt",""
"","bandit","300","834095","0.0-262.0-0.0","93483899","wem/bandit_party_2","A3F710EVFD9MM2","either","7","308","","","","","","","0","0","1","0.69383498","","0.6","0.8","0.4","0.2","","","","","0.3786925452","0.69383498","0.432499938","0.6640911266","","","","","","","","","","74","J","1","","","221","main_expt",""
"","bandit","301","836015","0.0-263.0-0.0","93483899","wem/bandit_party_2","A3F710EVFD9MM2","either","7","395","","","","","","","1","0","0","0.783375317","","0.6","0.8","0.4","0.2","","","","","0.5014801557","0.783375317","0.4050903391","0.7340686256","","","","","","","","","","74","J","1","","","222","main_expt",""
"","bandit","302","838068","0.0-264.0-0.0","93483899","wem/bandit_party_2","A3F710EVFD9MM2","either","7","530","","","","","","","0","0","1","0.8374489269","","0.6","0.8","0.4","0.2","","","","","0.4081704387","0.8374489269","0.3282593462","0.852862777","","","","","","","","","","74","J","1","","","223","main_expt",""
"","bandit","303","839900","0.0-265.0-0.0","93483899","wem/bandit_party_2","A3F710EVFD9MM2","either","7","307","","","","","","","0","0","1","","0.2465370002","0.6","0.8","0.4","0.2","0.422296693","0.7801262993","0.2465370002","0.7830506485","","","","","","","","","","","","","","75","K","2","","","224","main_expt",""
"","bandit","304","841908","0.0-266.0-0.0","93483899","wem/bandit_party_2","A3F710EVFD9MM2","either","7","482","","","","","","","0","0","1","","0.3998144739","0.6","0.8","0.4","0.2","0.3998144739","0.7438235551","0.2260872052","0.7447555501","","","","","","","","","","","","","","72","H","0","img/none_selected.jpg","","225","main_expt",""
"","bandit","305","844156","0.0-267.0-0.0","93483899","wem/bandit_party_2","A3F710EVFD9MM2","either","7","726","","","","","","","0","1","0","","0.7331719472","0.6","0.8","0.4","0.2","0.2692780115","0.7561714458","0.2573895518","0.7331719472","","","","","","","","","","","","","","76","L","3","","","226","main_expt",""
"","bandit","306","846226","0.0-268.0-0.0","93483899","wem/bandit_party_2","A3F710EVFD9MM2","either","7","544","","","","","","","0","1","0","","0.6417259928","0.6","0.8","0.4","0.2","0.268728261","0.7527106072","0.2134597582","0.6417259928","","","","","","","","","","","","","","76","L","3","","","227","main_expt",""
"","bandit","307","849123","0.0-269.0-0.0","93483899","wem/bandit_party_2","A3F710EVFD9MM2","either","7","1373","","","","","","","1","0","0","0.6050549784","","0.6","0.8","0.4","0.2","","","","","0.2211951924","0.6315627418","0.348479141","0.6050549784","","","","","","","","","","76","L","3","","","228","main_expt",""
"","bandit","308","852470","0.0-270.0-0.0","93483899","wem/bandit_party_2","A3F710EVFD9MM2","either","7","1820","","","","","","","0","1","0","","0.5962230341","0.6","0.8","0.4","0.2","0.219241791","0.5564086662","0.3250735223","0.5962230341","","","","","","","","","","","","","","76","L","3","","","229","main_expt",""
"","bandit","309","855426","0.0-271.0-0.0","93483899","wem/bandit_party_2","A3F710EVFD9MM2","either","7","1422","","","","","","","0","0","1","0.5594933722","","0.6","0.8","0.4","0.2","","","","","0.291585141","0.5895813861","0.3395219718","0.5594933722","","","","","","","","","","76","L","3","","","230","main_expt",""
"","bandit","310","857694","0.0-272.0-0.0","93483899","wem/bandit_party_2","A3F710EVFD9MM2","either","7","740","","","","","","","0","0","1","","0.3315483329","0.6","0.8","0.4","0.2","0.2754541949","0.6148213975","0.3315483329","0.6411036761","","","","","","","","","","","","","","75","K","2","","","231","main_expt",""
"","bandit","311","859534","0.0-273.0-0.0","93483899","wem/bandit_party_2","A3F710EVFD9MM2","either","7","316","","","","","","","0","0","1","0.5176988489","","0.6","0.8","0.4","0.2","","","","","0.3055336503","0.5176988489","0.3876030756","0.6653930637","","","","","","","","","","74","J","1","","","232","main_expt",""
"","bandit","312","861251","0.0-274.0-0.0","93483899","wem/bandit_party_2","A3F710EVFD9MM2","either","7","130","","","","","","","1","0","0","0.3390100853","","0.6","0.8","0.4","0.2","","","","","0.3390100853","0.4505666118","0.3696248546","0.5426719569","","","","","","","","","","72","H","0","img/none_selected.jpg","","233","main_expt",""
