"consent","trial_type","trial_index","time_elapsed","internal_node_id","subjID","study","MID","cond","drift","rt","responses","button_pressed","key_press","like","value","connected","gems","bombs","no_reward","GemPrChosen","BombPrChosen","GainOverPainPr_0","GainOverPainPr_1","GainOverPainPr_2","GainOverPainPr_3","LosePr_0","LosePr_1","LosePr_2","LosePr_3","WinPr_0","WinPr_1","WinPr_2","WinPr_3","Q0","Q1","Q2","gender","age","ethnicity","label","expt_phase","target","respCharCode","respKey","respChoiceNum","respChoice","practice","trial_counter","trial_label","Q0_index","view_history"
"GDM/GDM_behavioral_consent_30min_online.html","consent","0","17571","0.0-0.0","94400667","wem/bandit_party_2","A1ODVXVCDHOVF1","either","2","","","","","","","","","","","","","","","","","","","","","","","","","","","","","","","","","","","","","","","","","",""
"","survey-text","1","21702","0.0-1.0","94400667","wem/bandit_party_2","A1ODVXVCDHOVF1","either","2","3126","{""Q0"":""A1ODVXVCDHOVF1""}","","","","","","","","","","","","","","","","","","","","","","","","","","","","","","","","","","","","","","","",""
"","button-response","2","26013","0.0-2.0","94400667","wem/bandit_party_2","A1ODVXVCDHOVF1","either","2","3308","","2","","","","","","","","","","","","","","","","","","","","","","","","","","","","","","","","","","","","","","",""
"","text-replacement","3","34650","0.0-3.0","94400667","wem/bandit_party_2","A1ODVXVCDHOVF1","either","2","7636","","","32","","","","","","","","","","","","","","","","","","","","","","","","","","","","","","","","","","","","","",""
"","text-replacement","4","37103","0.0-4.0","94400667","wem/bandit_party_2","A1ODVXVCDHOVF1","either","2","2451","","","32","","","","","","","","","","","","","","","","","","","","","","","","","","","","","","","","","","","","","",""
"","text-replacement","5","38450","0.0-5.0-0.0","94400667","wem/bandit_party_2","A1ODVXVCDHOVF1","either","2","1346","","","32","","","","","","","","","","","","","","","","","","","","","","","","","","","","","","","","","","","","","",""
"","identification","6","44584","0.0-6.0-0.0","94400667","wem/bandit_party_2","A1ODVXVCDHOVF1","either","2","6126","","","","3","3","3","","","","","","","","","","","","","","","","","","","","","","","","pre","identification_pre","the Republican Party","","","","","","","","",""
"","identification","7","47700","0.0-6.0-1.0","94400667","wem/bandit_party_2","A1ODVXVCDHOVF1","either","2","2108","","","","3","3","3","","","","","","","","","","","","","","","","","","","","","","","","pre","identification_pre","the Democratic Party","","","","","","","","",""
"","text-replacement","8","61505","0.0-7.0","94400667","wem/bandit_party_2","A1ODVXVCDHOVF1","either","2","12803","","","32","","","","","","","","","","","","","","","","","","","","","","","","","","","","","","","","","","","","","",""
"","text-replacement","9","62540","0.0-8.0","94400667","wem/bandit_party_2","A1ODVXVCDHOVF1","either","2","1034","","","32","","","","","","","","","","","","","","","","","","","","","","","","","","","","","","","","","","","","","",""
"","text-replacement","10","66654","0.0-9.0","94400667","wem/bandit_party_2","A1ODVXVCDHOVF1","either","2","4113","","","32","","","","","","","","","","","","","","","","","","","","","","","","","","","","","","","","","","","","","",""
"","text-replacement","11","68637","0.0-10.0","94400667","wem/bandit_party_2","A1ODVXVCDHOVF1","either","2","1982","","","32","","","","","","","","","","","","","","","","","","","","","","","","","","","","","","","","","","","","","",""
"","text-replacement","12","73501","0.0-11.0","94400667","wem/bandit_party_2","A1ODVXVCDHOVF1","either","2","4863","","","32","","","","","","","","","","","","","","","","","","","","","","","","","","","","","","","","","","","","","",""
"","bandit","13","75432","0.0-12.0-0.0","94400667","wem/bandit_party_2","A1ODVXVCDHOVF1","either","2","426","","","","","","","0","0","1","0","0","","","","","0","","","","0","","","","","","","","","","","","","74","J","0","img/none_selected_demo.jpg","true","0","","",""
"","bandit","14","77278","0.0-13.0-0.0","94400667","wem/bandit_party_2","A1ODVXVCDHOVF1","either","2","343","","","","","","","0","0","1","0","0","","","","","0","","","","0","","","","","","","","","","","","","75","K","0","img/none_selected_demo.jpg","true","0","","",""
"","text-replacement","15","79880","0.0-14.0","94400667","wem/bandit_party_2","A1ODVXVCDHOVF1","either","2","2600","","","32","","","","","","","","","","","","","","","","","","","","","","","","","","","","","","","","","","","","","",""
"","text-replacement","16","80933","0.0-15.0","94400667","wem/bandit_party_2","A1ODVXVCDHOVF1","either","2","1053","","","32","","","","","","","","","","","","","","","","","","","","","","","","","","","","","","","","","","","","","",""
"","text-replacement","17","81909","0.0-16.0","94400667","wem/bandit_party_2","A1ODVXVCDHOVF1","either","2","974","","","32","","","","","","","","","","","","","","","","","","","","","","","","","","","","","","","","","","","","","",""
"","text-replacement","18","82845","0.0-17.0","94400667","wem/bandit_party_2","A1ODVXVCDHOVF1","either","2","936","","","32","","","","","","","","","","","","","","","","","","","","","","","","","","","","","","","","","","","","","",""
"","bandit","19","85510","0.0-18.0-0.0","94400667","wem/bandit_party_2","A1ODVXVCDHOVF1","either","2","1161","","","","","","","1","0","0","0.8","","0.5","0.5","","","","","","","0.8","0.2","","","","","","","","","","","","74","J","0","img/none_selected_demo.jpg","true","0","80_20_practice","",""
"","bandit","20","87474","0.0-18.0-1.0","94400667","wem/bandit_party_2","A1ODVXVCDHOVF1","either","2","458","","","","","","","0","0","1","0.8","","0.5","0.5","","","","","","","0.8","0.2","","","","","","","","","","","","74","J","0","img/none_selected_demo.jpg","true","0","80_20_practice","",""
"","bandit","21","89447","0.0-18.0-2.0","94400667","wem/bandit_party_2","A1ODVXVCDHOVF1","either","2","470","","","","","","","0","0","1","","0.2","0.5","0.5","","","0.8","0.2","","","","","","","","","","","","","","","","75","K","1","","true","0","80_20_practice","",""
"","bandit","22","91098","0.0-18.0-3.0","94400667","wem/bandit_party_2","A1ODVXVCDHOVF1","either","2","147","","","","","","","0","0","1","","0.2","0.5","0.5","","","0.8","0.2","","","","","","","","","","","","","","","","75","K","1","","true","0","80_20_practice","",""
"","bandit","23","93088","0.0-18.0-4.0","94400667","wem/bandit_party_2","A1ODVXVCDHOVF1","either","2","487","","","","","","","0","0","1","0.2","","0.5","0.5","","","","","","","0.8","0.2","","","","","","","","","","","","75","K","1","","true","0","80_20_practice","",""
"","bandit","24","95069","0.0-18.0-5.0","94400667","wem/bandit_party_2","A1ODVXVCDHOVF1","either","2","476","","","","","","","0","1","0","","0.2","0.5","0.5","","","0.8","0.2","","","","","","","","","","","","","","","","75","K","1","","true","0","80_20_practice","",""
"","bandit","25","96827","0.0-18.0-6.0","94400667","wem/bandit_party_2","A1ODVXVCDHOVF1","either","2","254","","","","","","","0","0","1","","0.2","0.5","0.5","","","0.8","0.2","","","","","","","","","","","","","","","","75","K","1","","true","0","80_20_practice","",""
"","bandit","26","98642","0.0-18.0-7.0","94400667","wem/bandit_party_2","A1ODVXVCDHOVF1","either","2","310","","","","","","","0","0","1","0.2","","0.5","0.5","","","","","","","0.8","0.2","","","","","","","","","","","","75","K","1","","true","0","80_20_practice","",""
"","bandit","27","100700","0.0-18.0-8.0","94400667","wem/bandit_party_2","A1ODVXVCDHOVF1","either","2","554","","","","","","","0","0","1","","0.2","0.5","0.5","","","0.8","0.2","","","","","","","","","","","","","","","","75","K","1","","true","0","80_20_practice","",""
"","bandit","28","102585","0.0-18.0-9.0","94400667","wem/bandit_party_2","A1ODVXVCDHOVF1","either","2","381","","","","","","","0","0","1","","0.8","0.5","0.5","","","0.8","0.2","","","","","","","","","","","","","","","","74","J","0","img/none_selected_demo.jpg","true","0","80_20_practice","",""
"","bandit","29","104380","0.0-18.0-10.0","94400667","wem/bandit_party_2","A1ODVXVCDHOVF1","either","2","290","","","","","","","0","0","1","","0.8","0.5","0.5","","","0.8","0.2","","","","","","","","","","","","","","","","74","J","0","img/none_selected_demo.jpg","true","0","80_20_practice","",""
"","bandit","30","105885","0.0-18.0-11.0","94400667","wem/bandit_party_2","A1ODVXVCDHOVF1","either","2","0","","","","","","","0","1","0","","0.8","0.5","0.5","","","0.8","0.2","","","","","","","","","","","","","","","","74","J","0","img/none_selected_demo.jpg","true","0","80_20_practice","",""
"","bandit","31","107513","0.0-18.0-12.0","94400667","wem/bandit_party_2","A1ODVXVCDHOVF1","either","2","125","","","","","","","0","0","1","","0.8","0.5","0.5","","","0.8","0.2","","","","","","","","","","","","","","","","74","J","0","img/none_selected_demo.jpg","true","0","80_20_practice","",""
"","bandit","32","109134","0.0-18.0-13.0","94400667","wem/bandit_party_2","A1ODVXVCDHOVF1","either","2","118","","","","","","","0","0","1","","0.8","0.5","0.5","","","0.8","0.2","","","","","","","","","","","","","","","","74","J","0","img/none_selected_demo.jpg","true","0","80_20_practice","",""
"","bandit","33","110712","0.0-18.0-14.0","94400667","wem/bandit_party_2","A1ODVXVCDHOVF1","either","2","73","","","","","","","0","1","0","","0.8","0.5","0.5","","","0.8","0.2","","","","","","","","","","","","","","","","74","J","0","img/none_selected_demo.jpg","true","0","80_20_practice","",""
"","bandit","34","112394","0.0-18.0-15.0","94400667","wem/bandit_party_2","A1ODVXVCDHOVF1","either","2","179","","","","","","","1","0","0","0.8","","0.5","0.5","","","","","","","0.8","0.2","","","","","","","","","","","","74","J","0","img/none_selected_demo.jpg","true","0","80_20_practice","",""
"","bandit","35","115017","0.0-18.0-16.0","94400667","wem/bandit_party_2","A1ODVXVCDHOVF1","either","2","1119","","","","","","","0","1","0","","0.8","0.5","0.5","","","0.8","0.2","","","","","","","","","","","","","","","","74","J","0","img/none_selected_demo.jpg","true","0","80_20_practice","",""
"","bandit","36","116632","0.0-18.0-17.0","94400667","wem/bandit_party_2","A1ODVXVCDHOVF1","either","2","111","","","","","","","1","0","0","0.8","","0.5","0.5","","","","","","","0.8","0.2","","","","","","","","","","","","74","J","0","img/none_selected_demo.jpg","true","0","80_20_practice","",""
"","bandit","37","118344","0.0-18.0-18.0","94400667","wem/bandit_party_2","A1ODVXVCDHOVF1","either","2","208","","","","","","","0","1","0","","0.8","0.5","0.5","","","0.8","0.2","","","","","","","","","","","","","","","","74","J","0","img/none_selected_demo.jpg","true","0","80_20_practice","",""
"","bandit","38","120078","0.0-18.0-19.0","94400667","wem/bandit_party_2","A1ODVXVCDHOVF1","either","2","229","","","","","","","1","0","0","0.8","","0.5","0.5","","","","","","","0.8","0.2","","","","","","","","","","","","74","J","0","img/none_selected_demo.jpg","true","0","80_20_practice","",""
"","text-replacement","39","125118","0.0-19.0","94400667","wem/bandit_party_2","A1ODVXVCDHOVF1","either","2","5039","","","32","","","","","","","","","","","","","","","","","","","","","","","","","","","","","","","","","","","","","",""
"","bandit","40","127596","0.0-20.0-0.0","94400667","wem/bandit_party_2","A1ODVXVCDHOVF1","either","2","973","","","","","","","1","0","0","1","0","","","","","0","1","","","1","0","","","","","","","","","","","","74","J","0","img/none_selected_demo.jpg","true","0","","",""
"","text-replacement","41","129211","0.0-21.0","94400667","wem/bandit_party_2","A1ODVXVCDHOVF1","either","2","1613","","","74","","","","","","","","","","","","","","","","","","","","","","","","","","","","","","","","","","","","","",""
"","text-replacement","42","131222","0.0-22.0","94400667","wem/bandit_party_2","A1ODVXVCDHOVF1","either","2","2010","","","32","","","","","","","","","","","","","","","","","","","","","","","","","","","","","","","","","","","","","",""
"","text-replacement","43","131670","0.0-23.0","94400667","wem/bandit_party_2","A1ODVXVCDHOVF1","either","2","447","","","32","","","","","","","","","","","","","","","","","","","","","","","","","","","","","","","","","","","","","",""
"","text-replacement","44","131943","0.0-24.0","94400667","wem/bandit_party_2","A1ODVXVCDHOVF1","either","2","272","","","32","","","","","","","","","","","","","","","","","","","","","","","","","","","","","","","","","","","","","",""
"","text-replacement","45","132176","0.0-25.0","94400667","wem/bandit_party_2","A1ODVXVCDHOVF1","either","2","231","","","32","","","","","","","","","","","","","","","","","","","","","","","","","","","","","","","","","","","","","",""
"","text-replacement","46","132361","0.0-26.0","94400667","wem/bandit_party_2","A1ODVXVCDHOVF1","either","2","184","","","32","","","","","","","","","","","","","","","","","","","","","","","","","","","","","","","","","","","","","",""
"","text-replacement","47","132545","0.0-27.0","94400667","wem/bandit_party_2","A1ODVXVCDHOVF1","either","2","183","","","32","","","","","","","","","","","","","","","","","","","","","","","","","","","","","","","","","","","","","",""
"","text-replacement","48","132730","0.0-28.0","94400667","wem/bandit_party_2","A1ODVXVCDHOVF1","either","2","183","","","32","","","","","","","","","","","","","","","","","","","","","","","","","","","","","","","","","","","","","",""
"","text-replacement","49","132934","0.0-29.0","94400667","wem/bandit_party_2","A1ODVXVCDHOVF1","either","2","203","","","32","","","","","","","","","","","","","","","","","","","","","","","","","","","","","","","","","","","","","",""
"","text-replacement","50","133109","0.0-30.0","94400667","wem/bandit_party_2","A1ODVXVCDHOVF1","either","2","173","","","32","","","","","","","","","","","","","","","","","","","","","","","","","","","","","","","","","","","","","",""
"","text-replacement","51","133489","0.0-31.0","94400667","wem/bandit_party_2","A1ODVXVCDHOVF1","either","2","380","","","32","","","","","","","","","","","","","","","","","","","","","","","","","","","","","","","","","","","","","",""
"","bandit","52","137057","0.0-32.0-0.0","94400667","wem/bandit_party_2","A1ODVXVCDHOVF1","either","2","2064","","","","","","","0","1","0","","0.6","0.5","0.5","0.5","0.5","0.8","0.2","0.6","0.2","","","","","","","","","","","","","","75","K","2","","true","0","full_practice","",""
"","bandit","53","141400","0.0-32.0-1.0","94400667","wem/bandit_party_2","A1ODVXVCDHOVF1","either","2","2838","","","","","","","1","0","0","0.8","","0.5","0.5","0.5","0.5","","","","","0.8","0.2","0.6","0.2","","","","","","","","","","72","H","0","img/none_selected.jpg","true","0","full_practice","",""
"","bandit","54","143511","0.0-32.0-2.0","94400667","wem/bandit_party_2","A1ODVXVCDHOVF1","either","2","607","","","","","","","0","1","0","","0.6","0.5","0.5","0.5","0.5","0.8","0.2","0.6","0.2","","","","","","","","","","","","","","75","K","2","","true","0","full_practice","",""
"","bandit","55","145319","0.0-32.0-3.0","94400667","wem/bandit_party_2","A1ODVXVCDHOVF1","either","2","303","","","","","","","0","0","1","","0.6","0.5","0.5","0.5","0.5","0.8","0.2","0.6","0.2","","","","","","","","","","","","","","75","K","2","","true","0","full_practice","",""
"","bandit","56","147045","0.0-32.0-4.0","94400667","wem/bandit_party_2","A1ODVXVCDHOVF1","either","2","222","","","","","","","0","1","0","","0.8","0.5","0.5","0.5","0.5","0.8","0.2","0.6","0.2","","","","","","","","","","","","","","72","H","0","img/none_selected.jpg","true","0","full_practice","",""
"","bandit","57","148585","0.0-32.0-5.0","94400667","wem/bandit_party_2","A1ODVXVCDHOVF1","either","2","36","","","","","","","0","1","0","","0.6","0.5","0.5","0.5","0.5","0.8","0.2","0.6","0.2","","","","","","","","","","","","","","75","K","2","","true","0","full_practice","",""
"","bandit","58","150606","0.0-32.0-6.0","94400667","wem/bandit_party_2","A1ODVXVCDHOVF1","either","2","518","","","","","","","0","0","1","","0.2","0.5","0.5","0.5","0.5","0.8","0.2","0.6","0.2","","","","","","","","","","","","","","76","L","3","","true","0","full_practice","",""
"","bandit","59","153565","0.0-32.0-7.0","94400667","wem/bandit_party_2","A1ODVXVCDHOVF1","either","2","1456","","","","","","","0","1","0","","0.8","0.5","0.5","0.5","0.5","0.8","0.2","0.6","0.2","","","","","","","","","","","","","","72","H","0","img/none_selected.jpg","true","0","full_practice","",""
"","bandit","60","155172","0.0-32.0-8.0","94400667","wem/bandit_party_2","A1ODVXVCDHOVF1","either","2","104","","","","","","","1","0","0","0.2","","0.5","0.5","0.5","0.5","","","","","0.8","0.2","0.6","0.2","","","","","","","","","","74","J","1","","true","0","full_practice","",""
"","bandit","61","156902","0.0-32.0-9.0","94400667","wem/bandit_party_2","A1ODVXVCDHOVF1","either","2","225","","","","","","","0","0","1","0.8","","0.5","0.5","0.5","0.5","","","","","0.8","0.2","0.6","0.2","","","","","","","","","","72","H","0","img/none_selected.jpg","true","0","full_practice","",""
"","bandit","62","158635","0.0-32.0-10.0","94400667","wem/bandit_party_2","A1ODVXVCDHOVF1","either","2","227","","","","","","","1","0","0","0.8","","0.5","0.5","0.5","0.5","","","","","0.8","0.2","0.6","0.2","","","","","","","","","","72","H","0","img/none_selected.jpg","true","0","full_practice","",""
"","bandit","63","160317","0.0-32.0-11.0","94400667","wem/bandit_party_2","A1ODVXVCDHOVF1","either","2","178","","","","","","","1","0","0","0.8","","0.5","0.5","0.5","0.5","","","","","0.8","0.2","0.6","0.2","","","","","","","","","","72","H","0","img/none_selected.jpg","true","0","full_practice","",""
"","bandit","64","161972","0.0-32.0-12.0","94400667","wem/bandit_party_2","A1ODVXVCDHOVF1","either","2","151","","","","","","","1","0","0","0.8","","0.5","0.5","0.5","0.5","","","","","0.8","0.2","0.6","0.2","","","","","","","","","","72","H","0","img/none_selected.jpg","true","0","full_practice","",""
"","bandit","65","163668","0.0-32.0-13.0","94400667","wem/bandit_party_2","A1ODVXVCDHOVF1","either","2","192","","","","","","","0","1","0","","0.8","0.5","0.5","0.5","0.5","0.8","0.2","0.6","0.2","","","","","","","","","","","","","","72","H","0","img/none_selected.jpg","true","0","full_practice","",""
"","bandit","66","165226","0.0-32.0-14.0","94400667","wem/bandit_party_2","A1ODVXVCDHOVF1","either","2","53","","","","","","","0","1","0","","0.8","0.5","0.5","0.5","0.5","0.8","0.2","0.6","0.2","","","","","","","","","","","","","","72","H","0","img/none_selected.jpg","true","0","full_practice","",""
"","bandit","67","166814","0.0-32.0-15.0","94400667","wem/bandit_party_2","A1ODVXVCDHOVF1","either","2","85","","","","","","","0","1","0","","0.8","0.5","0.5","0.5","0.5","0.8","0.2","0.6","0.2","","","","","","","","","","","","","","72","H","0","img/none_selected.jpg","true","0","full_practice","",""
"","bandit","68","168497","0.0-32.0-16.0","94400667","wem/bandit_party_2","A1ODVXVCDHOVF1","either","2","179","","","","","","","1","0","0","0.8","","0.5","0.5","0.5","0.5","","","","","0.8","0.2","0.6","0.2","","","","","","","","","","72","H","0","img/none_selected.jpg","true","0","full_practice","",""
"","bandit","69","170043","0.0-32.0-17.0","94400667","wem/bandit_party_2","A1ODVXVCDHOVF1","either","2","42","","","","","","","1","0","0","0.8","","0.5","0.5","0.5","0.5","","","","","0.8","0.2","0.6","0.2","","","","","","","","","","72","H","0","img/none_selected.jpg","true","0","full_practice","",""
"","bandit","70","171669","0.0-32.0-18.0","94400667","wem/bandit_party_2","A1ODVXVCDHOVF1","either","2","122","","","","","","","1","0","0","0.8","","0.5","0.5","0.5","0.5","","","","","0.8","0.2","0.6","0.2","","","","","","","","","","72","H","0","img/none_selected.jpg","true","0","full_practice","",""
"","bandit","71","173178","0.0-32.0-19.0","94400667","wem/bandit_party_2","A1ODVXVCDHOVF1","either","2","4","","","","","","","1","0","0","0.8","","0.5","0.5","0.5","0.5","","","","","0.8","0.2","0.6","0.2","","","","","","","","","","72","H","0","img/none_selected.jpg","true","0","full_practice","",""
"","text","72","176792","0.0-33.0","94400667","wem/bandit_party_2","A1ODVXVCDHOVF1","either","2","3611","","","32","","","","","","","","","","","","","","","","","","","","","","","","","","","","","","","","","","","","","",""
"","text-replacement","73","178002","0.0-34.0","94400667","wem/bandit_party_2","A1ODVXVCDHOVF1","either","2","208","","","32","","","","","","","","","","","","","","","","","","","","","","","","","","","","","","","","","","","","","",""
"","text-replacement","74","181246","0.0-35.0","94400667","wem/bandit_party_2","A1ODVXVCDHOVF1","either","2","3242","","","32","","","","","","","","","","","","","","","","","","","","","","","","","","","","","","","","","","","","","",""
"","text-replacement","75","181572","0.0-36.0","94400667","wem/bandit_party_2","A1ODVXVCDHOVF1","either","2","325","","","32","","","","","","","","","","","","","","","","","","","","","","","","","","","","","","","","","","","","","",""
"","text-replacement","76","181816","0.0-37.0","94400667","wem/bandit_party_2","A1ODVXVCDHOVF1","either","2","242","","","32","","","","","","","","","","","","","","","","","","","","","","","","","","","","","","","","","","","","","",""
"","text-replacement","77","182010","0.0-38.0","94400667","wem/bandit_party_2","A1ODVXVCDHOVF1","either","2","192","","","32","","","","","","","","","","","","","","","","","","","","","","","","","","","","","","","","","","","","","",""
"","survey-multi-choice-replacement","78","190236","0.0-39.0-0.0","94400667","wem/bandit_party_2","A1ODVXVCDHOVF1","either","2","8222","","","","","","","","","","","","","","","","","","","","","","","","Money will be added to the pool for <span style='color:red;'>REPUBLICANS</span>","","","","","","","attn_check","","","","","","","","","0",""
"","survey-multi-choice-replacement","79","196986","0.0-40.0-0.0","94400667","wem/bandit_party_2","A1ODVXVCDHOVF1","either","2","5744","","","","","","","","","","","","","","","","","","","","","","","","Money will be subtracted from the pool for <span style='color:blue;'>DEMOCRATS</span>","","","","","","","attn_check","","","","","","","","","1",""
"","instructions","80","199276","0.0-40.0-1.0-0.0","94400667","wem/bandit_party_2","A1ODVXVCDHOVF1","either","2","1286","","","","","","","","","","","","","","","","","","","","","","","","","","","","","","","","","","","","","","","","","[{""page_index"":0,""viewing_time"":1286}]"
"","survey-multi-choice-replacement","81","215255","0.0-40.1-0.1","94400667","wem/bandit_party_2","A1ODVXVCDHOVF1","either","2","14973","","","","","","","","","","","","","","","","","","","","","","","","Equal amounts of money will be added to the pool for <span style='color:red;'>REPUBLICANS</span> and subtracted from the pool for <span style='color:blue;'>DEMOCRATS</span>","","","","","","","attn_check","","","","","","","","","2",""
"","survey-multi-choice-replacement","82","219456","0.0-41.0-0.0","94400667","wem/bandit_party_2","A1ODVXVCDHOVF1","either","2","3195","","","","","","","","","","","","","","","","","","","","","","","","No money will be added to either pool","","","","","","","attn_check","","","","","","","","","3",""
"","bandit","83","224567","0.0-42.0-0.0","94400667","wem/bandit_party_2","A1ODVXVCDHOVF1","either","2","2604","","","","","","","1","0","0","0.4841938304","","0.4","0.6","0.8","0.2","","","","","0.7961415707","0.7092854079","0.9925337928","0.4841938304","","","","","","","","","","76","L","3","","","1","main_expt","",""
"","bandit","84","226230","0.0-43.0-0.0","94400667","wem/bandit_party_2","A1ODVXVCDHOVF1","either","2","159","","","","","","","1","0","0","0.7343230146","","0.4","0.6","0.8","0.2","","","","","0.7739630809","0.7343230146","0.9909612399","0.5300888233","","","","","","","","","","74","J","1","","","2","main_expt","",""
"","bandit","85","227966","0.0-44.0-0.0","94400667","wem/bandit_party_2","A1ODVXVCDHOVF1","either","2","230","","","","","","","0","0","1","","0.4747636274","0.4","0.6","0.8","0.2","0.807852523","0.7616266478","0.9875934203","0.4747636274","","","","","","","","","","","","","","76","L","3","","","3","main_expt","",""
"","bandit","86","229551","0.0-45.0-0.0","94400667","wem/bandit_party_2","A1ODVXVCDHOVF1","either","2","81","","","","","","","1","0","0","0.9782241123","","0.4","0.6","0.8","0.2","","","","","0.7922386472","0.7555889459","0.9782241123","0.4841015375","","","","","","","","","","75","K","2","","","4","main_expt","",""
"","bandit","87","231305","0.0-46.0-0.0","94400667","wem/bandit_party_2","A1ODVXVCDHOVF1","either","2","249","","","","","","","0","1","0","","0.5545204825","0.4","0.6","0.8","0.2","0.865094385","0.733520678","0.9756627961","0.5545204825","","","","","","","","","","","","","","76","L","3","","","5","main_expt","",""
"","bandit","88","232978","0.0-47.0-0.0","94400667","wem/bandit_party_2","A1ODVXVCDHOVF1","either","2","168","","","","","","","0","1","0","","0.800956518","0.4","0.6","0.8","0.2","0.800956518","0.6705264102","0.967089612","0.6032406034","","","","","","","","","","","","","","72","H","0","img/none_selected.jpg","","6","main_expt","",""
"","bandit","89","234516","0.0-48.0-0.0","94400667","wem/bandit_party_2","A1ODVXVCDHOVF1","either","2","33","","","","","","","1","0","0","0.9581374084","","0.4","0.6","0.8","0.2","","","","","0.826484282","0.6395389268","0.9581374084","0.6629125932","","","","","","","","","","75","K","2","","","7","main_expt","",""
"","bandit","90","236040","0.0-49.0-0.0","94400667","wem/bandit_party_2","A1ODVXVCDHOVF1","either","2","20","","","","","","","0","0","1","","0.6179372523","0.4","0.6","0.8","0.2","0.8721258401","0.6463283336","0.9470057872","0.6179372523","","","","","","","","","","","","","","76","L","3","","","8","main_expt","",""
"","bandit","91","237680","0.0-50.0-0.0","94400667","wem/bandit_party_2","A1ODVXVCDHOVF1","either","2","135","","","","","","","0","1","0","","0.9776699295","0.4","0.6","0.8","0.2","0.9123847657","0.5257156782","0.9776699295","0.7126464358","","","","","","","","","","","","","","75","K","2","","","9","main_expt","",""
"","bandit","92","239246","0.0-51.0-0.0","94400667","wem/bandit_party_2","A1ODVXVCDHOVF1","either","2","61","","","","","","","1","0","0","0.4763364632","","0.4","0.6","0.8","0.2","","","","","0.8996742502","0.4763364632","0.9728878591","0.7356985298","","","","","","","","","","74","J","1","","","10","main_expt","",""
"","bandit","93","240951","0.0-52.0-0.0","94400667","wem/bandit_party_2","A1ODVXVCDHOVF1","either","2","201","","","","","","","1","0","0","0.9593139104","","0.4","0.6","0.8","0.2","","","","","0.9131723876","0.4284616273","0.9593139104","0.768711937","","","","","","","","","","75","K","2","","","11","main_expt","",""
"","bandit","94","242644","0.0-53.0-0.0","94400667","wem/bandit_party_2","A1ODVXVCDHOVF1","either","2","188","","","","","","","0","0","1","","0.3846657661","0.4","0.6","0.8","0.2","0.8766857583","0.3846657661","0.9498917819","0.775032537","","","","","","","","","","","","","","74","J","1","","","12","main_expt","",""
"","bandit","95","244156","0.0-54.0-0.0","94400667","wem/bandit_party_2","A1ODVXVCDHOVF1","either","2","7","","","","","","","1","0","0","0.9541602679","","0.4","0.6","0.8","0.2","","","","","0.8395211377","0.4534267517","0.9541602679","0.8005481332","","","","","","","","","","75","K","2","","","13","main_expt","",""
"","bandit","96","246057","0.0-55.0-0.0","94400667","wem/bandit_party_2","A1ODVXVCDHOVF1","either","2","395","","","","","","","0","0","1","","0.5781166702","0.4","0.6","0.8","0.2","0.8716273459","0.5781166702","0.9457654821","0.8437703121","","","","","","","","","","","","","","74","J","1","","","14","main_expt","",""
"","bandit","97","247974","0.0-56.0-0.0","94400667","wem/bandit_party_2","A1ODVXVCDHOVF1","either","2","412","","","","","","","1","0","0","0.961431504","","0.4","0.6","0.8","0.2","","","","","0.8884181174","0.6683268695","0.961431504","0.7878475566","","","","","","","","","","75","K","2","","","15","main_expt","",""
"","bandit","98","249784","0.0-57.0-0.0","94400667","wem/bandit_party_2","A1ODVXVCDHOVF1","either","2","304","","","","","","","0","1","0","","0.9144873871","0.4","0.6","0.8","0.2","0.9144873871","0.6948649322","0.9614480804","0.7873795395","","","","","","","","","","","","","","72","H","0","img/none_selected.jpg","","16","main_expt","",""
"","bandit","99","251440","0.0-58.0-0.0","94400667","wem/bandit_party_2","A1ODVXVCDHOVF1","either","2","152","","","","","","","1","0","0","0.7674725463","","0.4","0.6","0.8","0.2","","","","","0.915766025","0.7674725463","0.981184269","0.8084550093","","","","","","","","","","74","J","1","","","17","main_expt","",""
"","bandit","100","253122","0.0-59.0-0.0","94400667","wem/bandit_party_2","A1ODVXVCDHOVF1","either","2","177","","","","","","","1","0","0","0.7706733977","","0.4","0.6","0.8","0.2","","","","","0.9357816117","0.7706733977","0.9861919244","0.8436933745","","","","","","","","","","74","J","1","","","18","main_expt","",""
"","bandit","101","254813","0.0-60.0-0.0","94400667","wem/bandit_party_2","A1ODVXVCDHOVF1","either","2","187","","","","","","","0","1","0","","0.9482019282","0.4","0.6","0.8","0.2","0.9482019282","0.7396491891","0.986789567","0.8059530903","","","","","","","","","","","","","","72","H","0","img/none_selected.jpg","","19","main_expt","",""
"","bandit","102","256360","0.0-61.0-0.0","94400667","wem/bandit_party_2","A1ODVXVCDHOVF1","either","2","43","","","","","","","0","0","1","0.6712916173","","0.4","0.6","0.8","0.2","","","","","0.9433726768","0.6712916173","0.986183881","0.7839513496","","","","","","","","","","74","J","1","","","20","main_expt","",""
"","bandit","103","258180","0.0-62.0-0.0","94400667","wem/bandit_party_2","A1ODVXVCDHOVF1","either","2","316","","","","","","","1","0","0","0.9887099493","","0.4","0.6","0.8","0.2","","","","","0.9488284628","0.6728887443","0.9887099493","0.7841815244","","","","","","","","","","75","K","2","","","21","main_expt","",""
"","bandit","104","260047","0.0-63.0-0.0","94400667","wem/bandit_party_2","A1ODVXVCDHOVF1","either","2","363","","","","","","","0","1","0","","0.8256278583","0.4","0.6","0.8","0.2","0.9500515088","0.7838502077","0.992558567","0.8256278583","","","","","","","","","","","","","","76","L","3","","","22","main_expt","",""
"","bandit","105","261623","0.0-64.0-0.0","94400667","wem/bandit_party_2","A1ODVXVCDHOVF1","either","2","72","","","","","","","0","1","0","","0.7043778873","0.4","0.6","0.8","0.2","0.9645760881","0.8711917965","0.9906074595","0.7043778873","","","","","","","","","","","","","","76","L","3","","","23","main_expt","",""
"","bandit","106","263205","0.0-65.0-0.0","94400667","wem/bandit_party_2","A1ODVXVCDHOVF1","either","2","77","","","","","","","1","0","0","0.9828703082","","0.4","0.6","0.8","0.2","","","","","0.946785539","0.861124964","0.9828703082","0.7662705475","","","","","","","","","","75","K","2","","","24","main_expt","",""
"","bandit","107","264821","0.0-66.0-0.0","94400667","wem/bandit_party_2","A1ODVXVCDHOVF1","either","2","112","","","","","","","0","1","0","","0.984618899","0.4","0.6","0.8","0.2","0.9229473608","0.8551403996","0.984618899","0.6915147264","","","","","","","","","","","","","","75","K","2","","","25","main_expt","",""
"","bandit","108","266485","0.0-67.0-0.0","94400667","wem/bandit_party_2","A1ODVXVCDHOVF1","either","2","159","","","","","","","1","0","0","0.9780938917","","0.4","0.6","0.8","0.2","","","","","0.8729820127","0.8959771014","0.9780938917","0.6844606422","","","","","","","","","","75","K","2","","","26","main_expt","",""
"","bandit","109","268003","0.0-68.0-0.0","94400667","wem/bandit_party_2","A1ODVXVCDHOVF1","either","2","14","","","","","","","0","1","0","","0.7953701942","0.4","0.6","0.8","0.2","0.859067388","0.8786292531","0.9634866904","0.7953701942","","","","","","","","","","","","","","76","L","3","","","27","main_expt","",""
"","bandit","110","269695","0.0-69.0-0.0","94400667","wem/bandit_party_2","A1ODVXVCDHOVF1","either","2","187","","","","","","","1","0","0","0.946494378","","0.4","0.6","0.8","0.2","","","","","0.836267867","0.8920593834","0.946494378","0.622657036","","","","","","","","","","75","K","2","","","28","main_expt","",""
"","bandit","111","271389","0.0-70.0-0.0","94400667","wem/bandit_party_2","A1ODVXVCDHOVF1","either","2","190","","","","","","","0","1","0","","0.8234517222","0.4","0.6","0.8","0.2","0.7158546556","0.8234517222","0.9338647731","0.5757463716","","","","","","","","","","","","","","74","J","1","","","29","main_expt","",""
"","bandit","112","273181","0.0-71.0-0.0","94400667","wem/bandit_party_2","A1ODVXVCDHOVF1","either","2","288","","","","","","","0","1","0","","0.7262950886","0.4","0.6","0.8","0.2","0.7262950886","0.7963444676","0.9354801528","0.6048158844","","","","","","","","","","","","","","72","H","0","img/none_selected.jpg","","30","main_expt","",""
"","bandit","113","274914","0.0-72.0-0.0","94400667","wem/bandit_party_2","A1ODVXVCDHOVF1","either","2","228","","","","","","","0","0","1","","0.6847131082","0.4","0.6","0.8","0.2","0.7049485024","0.6847131082","0.9323861487","0.4831208743","","","","","","","","","","","","","","74","J","1","","","31","main_expt","",""
"","bandit","114","276493","0.0-73.0-0.0","94400667","wem/bandit_party_2","A1ODVXVCDHOVF1","either","2","75","","","","","","","0","0","1","","0.4413454117","0.4","0.6","0.8","0.2","0.6294605358","0.7745616343","0.9159531952","0.4413454117","","","","","","","","","","","","","","76","L","3","","","32","main_expt","",""
"","bandit","115","278194","0.0-74.0-0.0","94400667","wem/bandit_party_2","A1ODVXVCDHOVF1","either","2","196","","","","","","","1","0","0","0.8111568365","","0.4","0.6","0.8","0.2","","","","","0.7097184707","0.8111568365","0.9501333659","0.589686364","","","","","","","","","","74","J","1","","","33","main_expt","",""
"","bandit","116","281396","0.0-75.0-0.0","94400667","wem/bandit_party_2","A1ODVXVCDHOVF1","either","2","1697","","","","","","","1","0","0","0.9485118263","","0.4","0.6","0.8","0.2","","","","","0.6324728327","0.7291364049","0.9485118263","0.5789977489","","","","","","","","","","75","K","2","","","34","main_expt","",""
"","bandit","117","283003","0.0-76.0-0.0","94400667","wem/bandit_party_2","A1ODVXVCDHOVF1","either","2","102","","","","","","","1","0","0","0.959491173","","0.4","0.6","0.8","0.2","","","","","0.6809104991","0.7920219322","0.959491173","0.5605822786","","","","","","","","","","75","K","2","","","35","main_expt","",""
"","bandit","118","284569","0.0-77.0-0.0","94400667","wem/bandit_party_2","A1ODVXVCDHOVF1","either","2","60","","","","","","","0","1","0","","0.7889809596","0.4","0.6","0.8","0.2","0.5745256001","0.7889809596","0.9523687656","0.3330948712","","","","","","","","","","","","","","74","J","1","","","36","main_expt","",""
"","bandit","119","286263","0.0-78.0-0.0","94400667","wem/bandit_party_2","A1ODVXVCDHOVF1","either","2","190","","","","","","","0","1","0","","0.6249275122","0.4","0.6","0.8","0.2","0.6249275122","0.8060385269","0.9504344127","0.2430176499","","","","","","","","","","","","","","72","H","0","img/none_selected.jpg","","37","main_expt","",""
"","bandit","120","287810","0.0-79.0-0.0","94400667","wem/bandit_party_2","A1ODVXVCDHOVF1","either","2","42","","","","","","","0","0","1","0.9321408283","","0.4","0.6","0.8","0.2","","","","","0.5582777804","0.7188782676","0.9321408283","0.3106083343","","","","","","","","","","75","K","2","","","38","main_expt","",""
"","bandit","121","289514","0.0-80.0-0.0","94400667","wem/bandit_party_2","A1ODVXVCDHOVF1","either","2","200","","","","","","","0","1","0","","0.3239447463","0.4","0.6","0.8","0.2","0.6619895395","0.7387945131","0.9135525369","0.3239447463","","","","","","","","","","","","","","76","L","3","","","39","main_expt","",""
"","bandit","122","291061","0.0-81.0-0.0","94400667","wem/bandit_party_2","A1ODVXVCDHOVF1","either","2","43","","","","","","","0","1","0","","0.8840916364","0.4","0.6","0.8","0.2","0.6522152691","0.7478035428","0.8840916364","0.2946631509","","","","","","","","","","","","","","75","K","2","","","40","main_expt","",""
"","bandit","123","292707","0.0-82.0-0.0","94400667","wem/bandit_party_2","A1ODVXVCDHOVF1","either","2","141","","","","","","","0","0","1","0.6714070371","","0.4","0.6","0.8","0.2","","","","","0.6714070371","0.7802386085","0.8747037504","0.193597671","","","","","","","","","","72","H","0","img/none_selected.jpg","","41","main_expt","",""
"","bandit","124","294372","0.0-83.0-0.0","94400667","wem/bandit_party_2","A1ODVXVCDHOVF1","either","2","161","","","","","","","0","1","0","","0.7994277013","0.4","0.6","0.8","0.2","0.6390104416","0.7994277013","0.826315498","0.1834529884","","","","","","","","","","","","","","74","J","1","","","42","main_expt","",""
"","bandit","125","296084","0.0-84.0-0.0","94400667","wem/bandit_party_2","A1ODVXVCDHOVF1","either","2","207","","","","","","","0","1","0","","0.8718069658","0.4","0.6","0.8","0.2","0.6318841448","0.8718069658","0.7681371561","0.1558663495","","","","","","","","","","","","","","74","J","1","","","43","main_expt","",""
"","bandit","126","297704","0.0-85.0-0.0","94400667","wem/bandit_party_2","A1ODVXVCDHOVF1","either","2","114","","","","","","","0","0","1","","0.7725207311","0.4","0.6","0.8","0.2","0.5708139437","0.7725207311","0.7584360225","0.1573065196","","","","","","","","","","","","","","74","J","1","","","44","main_expt","",""
"","bandit","127","299318","0.0-86.0-0.0","94400667","wem/bandit_party_2","A1ODVXVCDHOVF1","either","2","109","","","","","","","1","0","0","0.8399140445","","0.4","0.6","0.8","0.2","","","","","0.5703812278","0.8399140445","0.816959585","0.1743203636","","","","","","","","","","74","J","1","","","45","main_expt","",""
"","bandit","128","300904","0.0-87.0-0.0","94400667","wem/bandit_party_2","A1ODVXVCDHOVF1","either","2","81","","","","","","","1","0","0","0.7830678696","","0.4","0.6","0.8","0.2","","","","","0.4520700595","0.7830678696","0.7571269921","0.1234040722","","","","","","","","","","74","J","1","","","46","main_expt","",""
"","bandit","129","302577","0.0-88.0-0.0","94400667","wem/bandit_party_2","A1ODVXVCDHOVF1","either","2","168","","","","","","","1","0","0","0.8255209912","","0.4","0.6","0.8","0.2","","","","","0.4953600952","0.8255209912","0.7086567283","0.1592846429","","","","","","","","","","74","J","1","","","47","main_expt","",""
"","bandit","130","304201","0.0-89.0-0.0","94400667","wem/bandit_party_2","A1ODVXVCDHOVF1","either","2","120","","","","","","","1","0","0","0.7728754614","","0.4","0.6","0.8","0.2","","","","","0.4912921637","0.7728754614","0.6428227569","0.1880090658","","","","","","","","","","74","J","1","","","48","main_expt","",""
"","bandit","131","305837","0.0-90.0-0.0","94400667","wem/bandit_party_2","A1ODVXVCDHOVF1","either","2","131","","","","","","","1","0","0","0.8607162984","","0.4","0.6","0.8","0.2","","","","","0.4694413912","0.8607162984","0.7004196772","0.3190576765","","","","","","","","","","74","J","1","","","49","main_expt","",""
"","bandit","132","307461","0.0-91.0-0.0","94400667","wem/bandit_party_2","A1ODVXVCDHOVF1","either","2","119","","","","","","","0","1","0","","0.8526113732","0.4","0.6","0.8","0.2","0.5835687148","0.8526113732","0.6418514465","0.277770718","","","","","","","","","","","","","","74","J","1","","","50","main_expt","",""
"","bandit","133","309095","0.0-92.0-0.0","94400667","wem/bandit_party_2","A1ODVXVCDHOVF1","either","2","128","","","","","","","1","0","0","0.8630835666","","0.4","0.6","0.8","0.2","","","","","0.581499138","0.8630835666","0.6322169777","0.3304163056","","","","","","","","","","74","J","1","","","51","main_expt","",""
"","bandit","134","310768","0.0-93.0-0.0","94400667","wem/bandit_party_2","A1ODVXVCDHOVF1","either","2","169","","","","","","","1","0","0","0.8689990829","","0.4","0.6","0.8","0.2","","","","","0.6521379128","0.8689990829","0.6160259873","0.3074301744","","","","","","","","","","74","J","1","","","52","main_expt","",""
"","bandit","135","312854","0.0-94.0-0.0","94400667","wem/bandit_party_2","A1ODVXVCDHOVF1","either","2","580","","","","","","","1","0","0","0.8829627288","","0.4","0.6","0.8","0.2","","","","","0.5743957808","0.8829627288","0.6635838846","0.3292402402","","","","","","","","","","74","J","1","","","53","main_expt","",""
"","bandit","136","321406","0.0-95.0-0.0","94400667","wem/bandit_party_2","A1ODVXVCDHOVF1","either","2","7048","","","","","","","0","0","1","","0.8577096669","0.4","0.6","0.8","0.2","0.4765250731","0.8577096669","0.7334380463","0.3701383524","","","","","","","","","","","","","","74","J","1","","","54","main_expt","",""
"","bandit","137","322944","0.0-96.0-0.0","94400667","wem/bandit_party_2","A1ODVXVCDHOVF1","either","2","33","","","","","","","0","1","0","","0.7951355038","0.4","0.6","0.8","0.2","0.472038817","0.7951355038","0.6625049704","0.4023440482","","","","","","","","","","","","","","74","J","1","","","55","main_expt","",""
"","bandit","138","324609","0.0-97.0-0.0","94400667","wem/bandit_party_2","A1ODVXVCDHOVF1","either","2","161","","","","","","","1","0","0","0.7832403428","","0.4","0.6","0.8","0.2","","","","","0.6060805283","0.7832403428","0.6244126183","0.3320470731","","","","","","","","","","74","J","1","","","56","main_expt","",""
"","bandit","139","326211","0.0-98.0-0.0","94400667","wem/bandit_party_2","A1ODVXVCDHOVF1","either","2","97","","","","","","","1","0","0","0.7165346004","","0.4","0.6","0.8","0.2","","","","","0.5733746242","0.7165346004","0.693445159","0.3398704556","","","","","","","","","","74","J","1","","","57","main_expt","",""
"","bandit","140","327846","0.0-99.0-0.0","94400667","wem/bandit_party_2","A1ODVXVCDHOVF1","either","2","131","","","","","","","1","0","0","0.7840704931","","0.4","0.6","0.8","0.2","","","","","0.5268086549","0.7840704931","0.6603141298","0.3171476707","","","","","","","","","","74","J","1","","","58","main_expt","",""
"","bandit","141","329385","0.0-100.0-0.0","94400667","wem/bandit_party_2","A1ODVXVCDHOVF1","either","2","34","","","","","","","0","0","1","","0.7166558068","0.4","0.6","0.8","0.2","0.5298916697","0.7166558068","0.6435133917","0.1868584885","","","","","","","","","","","","","","74","J","1","","","59","main_expt","",""
"","bandit","142","330901","0.0-101.0-0.0","94400667","wem/bandit_party_2","A1ODVXVCDHOVF1","either","2","12","","","","","","","1","0","0","0.6505055492","","0.4","0.6","0.8","0.2","","","","","0.5547432704","0.6505055492","0.6720075741","0.2163153633","","","","","","","","","","74","J","1","","","60","main_expt","",""
"","bandit","143","332585","0.0-102.0-0.0","94400667","wem/bandit_party_2","A1ODVXVCDHOVF1","either","2","178","","","","","","","0","0","1","0.6465946667","","0.4","0.6","0.8","0.2","","","","","0.5407031957","0.6465946667","0.6703611074","0.2086512551","","","","","","","","","","74","J","1","","","61","main_expt","",""
"","bandit","144","375809","0.0-103.0-0.0","94400667","wem/bandit_party_2","A1ODVXVCDHOVF1","either","2","41718","","","","","","","0","0","1","","0.709990362","0.4","0.6","0.8","0.2","0.6993449034","0.709990362","0.64477312","0.2250062338","","","","","","","","","","","","","","74","J","1","","","62","main_expt","",""
"","bandit","145","378046","0.0-104.0-0.0","94400667","wem/bandit_party_2","A1ODVXVCDHOVF1","either","2","732","","","","","","","0","1","0","","0.7542168012","0.4","0.6","0.8","0.2","0.6342967703","0.7542168012","0.509049177","0.2739380208","","","","","","","","","","","","","","74","J","1","","","63","main_expt","",""
"","bandit","146","379948","0.0-105.0-0.0","94400667","wem/bandit_party_2","A1ODVXVCDHOVF1","either","2","397","","","","","","","0","0","1","","0.7660604158","0.4","0.6","0.8","0.2","0.5961490325","0.7660604158","0.5535424332","0.3449536465","","","","","","","","","","","","","","74","J","1","","","64","main_expt","",""
"","bandit","147","381721","0.0-106.0-0.0","94400667","wem/bandit_party_2","A1ODVXVCDHOVF1","either","2","268","","","","","","","0","1","0","","0.7572602099","0.4","0.6","0.8","0.2","0.5771190674","0.7572602099","0.6608621899","0.34640195","","","","","","","","","","","","","","74","J","1","","","65","main_expt","",""
"","bandit","148","386031","0.0-107.0-0.0","94400667","wem/bandit_party_2","A1ODVXVCDHOVF1","either","2","2804","","","","","","","0","0","1","0.686926195","","0.4","0.6","0.8","0.2","","","","","0.4765921407","0.686926195","0.6535341977","0.5266288285","","","","","","","","","","74","J","1","","","66","main_expt","",""
"","bandit","149","387714","0.0-108.0-0.0","94400667","wem/bandit_party_2","A1ODVXVCDHOVF1","either","2","179","","","","","","","1","0","0","0.7334195653","","0.4","0.6","0.8","0.2","","","","","0.5714361875","0.7334195653","0.6592628399","0.5588671697","","","","","","","","","","74","J","1","","","67","main_expt","",""
"","bandit","150","389226","0.0-109.0-0.0","94400667","wem/bandit_party_2","A1ODVXVCDHOVF1","either","2","7","","","","","","","1","0","0","0.6114245881","","0.4","0.6","0.8","0.2","","","","","0.6231829193","0.6114245881","0.6735013879","0.6097536784","","","","","","","","","","74","J","1","","","68","main_expt","",""
"","bandit","151","390731","0.0-110.0-0.0","94400667","wem/bandit_party_2","A1ODVXVCDHOVF1","either","2","0","","","","","","","0","1","0","","0.6460921668","0.4","0.6","0.8","0.2","0.5130256365","0.6460921668","0.7209687993","0.533457584","","","","","","","","","","","","","","74","J","1","","","69","main_expt","",""
"","bandit","152","392362","0.0-111.0-0.0","94400667","wem/bandit_party_2","A1ODVXVCDHOVF1","either","2","126","","","","","","","1","0","0","0.6700702736","","0.4","0.6","0.8","0.2","","","","","0.5167166","0.6700702736","0.690528825","0.4124750721","","","","","","","","","","74","J","1","","","70","main_expt","",""
"","bandit","153","393997","0.0-112.0-0.0","94400667","wem/bandit_party_2","A1ODVXVCDHOVF1","either","2","129","","","","","","","0","1","0","","0.6388012411","0.4","0.6","0.8","0.2","0.6448170737","0.6388012411","0.6453310316","0.4486526525","","","","","","","","","","","","","","74","J","1","","","71","main_expt","",""
"","bandit","154","395730","0.0-113.0-0.0","94400667","wem/bandit_party_2","A1ODVXVCDHOVF1","either","2","228","","","","","","","0","0","1","0.6046900378","","0.4","0.6","0.8","0.2","","","","","0.5640434706","0.6046900378","0.8140348339","0.4313602212","","","","","","","","","","74","J","1","","","72","main_expt","",""
"","bandit","155","397268","0.0-114.0-0.0","94400667","wem/bandit_party_2","A1ODVXVCDHOVF1","either","2","32","","","","","","","1","0","0","0.6062428704","","0.4","0.6","0.8","0.2","","","","","0.6296110197","0.6062428704","0.820931829","0.3639072561","","","","","","","","","","74","J","1","","","73","main_expt","",""
"","bandit","156","398940","0.0-115.0-0.0","94400667","wem/bandit_party_2","A1ODVXVCDHOVF1","either","2","168","","","","","","","1","0","0","0.6237194739","","0.4","0.6","0.8","0.2","","","","","0.6730210969","0.6237194739","0.8096233945","0.2882181569","","","","","","","","","","74","J","1","","","74","main_expt","",""
"","bandit","157","400615","0.0-116.0-0.0","94400667","wem/bandit_party_2","A1ODVXVCDHOVF1","either","2","169","","","","","","","0","1","0","","0.5971007372","0.4","0.6","0.8","0.2","0.5720403827","0.5971007372","0.7615001707","0.3561187133","","","","","","","","","","","","","","74","J","1","","","75","main_expt","",""
"","bandit","158","402280","0.0-117.0-0.0","94400667","wem/bandit_party_2","A1ODVXVCDHOVF1","either","2","159","","","","","","","0","0","1","0.5810032438","","0.4","0.6","0.8","0.2","","","","","0.6303512149","0.5810032438","0.8147365981","0.4480894403","","","","","","","","","","74","J","1","","","76","main_expt","",""
"","bandit","159","403937","0.0-118.0-0.0","94400667","wem/bandit_party_2","A1ODVXVCDHOVF1","either","2","151","","","","","","","1","0","0","0.5792233978","","0.4","0.6","0.8","0.2","","","","","0.5531797874","0.5792233978","0.8926338818","0.3220850356","","","","","","","","","","74","J","1","","","77","main_expt","",""
"","bandit","160","405688","0.0-119.0-0.0","94400667","wem/bandit_party_2","A1ODVXVCDHOVF1","either","2","247","","","","","","","0","0","1","","0.692511921","0.4","0.6","0.8","0.2","0.5449672882","0.692511921","0.8669072201","0.3281133775","","","","","","","","","","","","","","74","J","1","","","78","main_expt","",""
"","bandit","161","407616","0.0-120.0-0.0","94400667","wem/bandit_party_2","A1ODVXVCDHOVF1","either","2","424","","","","","","","1","0","0","0.7019625083","","0.4","0.6","0.8","0.2","","","","","0.4484013318","0.7019625083","0.9114006046","0.3814329202","","","","","","","","","","74","J","1","","","79","main_expt","",""
"","bandit","162","409212","0.0-121.0-0.0","94400667","wem/bandit_party_2","A1ODVXVCDHOVF1","either","2","91","","","","","","","0","0","1","","0.3512572076","0.4","0.6","0.8","0.2","0.5041425745","0.6785675641","0.9268398106","0.3512572076","","","","","","","","","","","","","","76","L","3","","","80","main_expt","",""
"","bandit","163","410822","0.0-122.0-0.0","94400667","wem/bandit_party_2","A1ODVXVCDHOVF1","either","2","105","","","","","","","1","0","0","0.7101061672","","0.4","0.6","0.8","0.2","","","","","0.3462078978","0.7101061672","0.9582858862","0.3624285329","","","","","","","","","","74","J","1","","","81","main_expt","",""
"","bandit","164","412399","0.0-123.0-0.0","94400667","wem/bandit_party_2","A1ODVXVCDHOVF1","either","2","72","","","","","","","0","1","0","","0.7217376576","0.4","0.6","0.8","0.2","0.3226795418","0.7217376576","0.9590071975","0.3111883408","","","","","","","","","","","","","","74","J","1","","","82","main_expt","",""
"","bandit","165","413907","0.0-124.0-0.0","94400667","wem/bandit_party_2","A1ODVXVCDHOVF1","either","2","4","","","","","","","0","0","1","","0.6437777395","0.4","0.6","0.8","0.2","0.3023868023","0.6437777395","0.9379973093","0.243162563","","","","","","","","","","","","","","74","J","1","","","83","main_expt","",""
"","bandit","166","415453","0.0-125.0-0.0","94400667","wem/bandit_party_2","A1ODVXVCDHOVF1","either","2","41","","","","","","","1","0","0","0.6533183273","","0.4","0.6","0.8","0.2","","","","","0.4040419094","0.6533183273","0.9411979228","0.347146949","","","","","","","","","","74","J","1","","","84","main_expt","",""
"","bandit","167","417019","0.0-126.0-0.0","94400667","wem/bandit_party_2","A1ODVXVCDHOVF1","either","2","61","","","","","","","1","0","0","0.7469548387","","0.4","0.6","0.8","0.2","","","","","0.4716136817","0.7469548387","0.9441700551","0.4416309426","","","","","","","","","","74","J","1","","","85","main_expt","",""
"","bandit","168","418593","0.0-127.0-0.0","94400667","wem/bandit_party_2","A1ODVXVCDHOVF1","either","2","69","","","","","","","0","0","1","","0.7366570046","0.4","0.6","0.8","0.2","0.4455883603","0.7366570046","0.9323605113","0.4523797492","","","","","","","","","","","","","","74","J","1","","","86","main_expt","",""
"","bandit","169","420121","0.0-128.0-0.0","94400667","wem/bandit_party_2","A1ODVXVCDHOVF1","either","2","21","","","","","","","0","1","0","","0.7142428019","0.4","0.6","0.8","0.2","0.5952575165","0.7142428019","0.8871332711","0.4621103264","","","","","","","","","","","","","","74","J","1","","","87","main_expt","",""
"","bandit","170","421639","0.0-129.0-0.0","94400667","wem/bandit_party_2","A1ODVXVCDHOVF1","either","2","12","","","","","","","0","0","1","0.7057172343","","0.4","0.6","0.8","0.2","","","","","0.5333825583","0.7057172343","0.8520973281","0.3800084876","","","","","","","","","","74","J","1","","","88","main_expt","",""
"","bandit","171","423359","0.0-130.0-0.0","94400667","wem/bandit_party_2","A1ODVXVCDHOVF1","either","2","216","","","","","","","1","0","0","0.7289934888","","0.4","0.6","0.8","0.2","","","","","0.4583166828","0.7289934888","0.7882210871","0.2354372355","","","","","","","","","","74","J","1","","","89","main_expt","",""
"","bandit","172","424899","0.0-131.0-0.0","94400667","wem/bandit_party_2","A1ODVXVCDHOVF1","either","2","34","","","","","","","1","0","0","0.7475354559","","0.4","0.6","0.8","0.2","","","","","0.4782349553","0.7475354559","0.720110267","0.2978482647","","","","","","","","","","74","J","1","","","90","main_expt","",""
"","bandit","173","426574","0.0-132.0-0.0","94400667","wem/bandit_party_2","A1ODVXVCDHOVF1","either","2","170","","","","","","","0","0","1","0.6316706059","","0.4","0.6","0.8","0.2","","","","","0.464138054","0.6316706059","0.7390342074","0.3723871884","","","","","","","","","","74","J","1","","","91","main_expt","",""
"","bandit","174","428287","0.0-133.0-0.0","94400667","wem/bandit_party_2","A1ODVXVCDHOVF1","either","2","207","","","","","","","0","0","1","0.6957908828","","0.4","0.6","0.8","0.2","","","","","0.5084128334","0.6957908828","0.8135224625","0.5400298203","","","","","","","","","","74","J","1","","","92","main_expt","",""
"","bandit","175","429961","0.0-134.0-0.0","94400667","wem/bandit_party_2","A1ODVXVCDHOVF1","either","2","169","","","","","","","0","0","1","","0.6812665662","0.4","0.6","0.8","0.2","0.5211356389","0.6812665662","0.7814404678","0.5134744583","","","","","","","","","","","","","","74","J","1","","","93","main_expt","",""
"","bandit","176","431491","0.0-135.0-0.0","94400667","wem/bandit_party_2","A1ODVXVCDHOVF1","either","2","24","","","","","","","0","1","0","","0.6412933588","0.4","0.6","0.8","0.2","0.4554037602","0.6412933588","0.7672416568","0.4101580275","","","","","","","","","","","","","","74","J","1","","","94","main_expt","",""
"","bandit","177","433380","0.0-136.0-0.0","94400667","wem/bandit_party_2","A1ODVXVCDHOVF1","either","2","384","","","","","","","0","1","0","","0.5696630174","0.4","0.6","0.8","0.2","0.4195046205","0.5696630174","0.7573973965","0.2995167601","","","","","","","","","","","","","","74","J","1","","","95","main_expt","",""
"","bandit","178","435201","0.0-137.0-0.0","94400667","wem/bandit_party_2","A1ODVXVCDHOVF1","either","2","315","","","","","","","1","0","0","0.6076398096","","0.4","0.6","0.8","0.2","","","","","0.3638478563","0.6076398096","0.8177369732","0.2934894425","","","","","","","","","","74","J","1","","","96","main_expt","",""
"","bandit","179","436807","0.0-138.0-0.0","94400667","wem/bandit_party_2","A1ODVXVCDHOVF1","either","2","101","","","","","","","0","1","0","","0.5551612935","0.4","0.6","0.8","0.2","0.2839735208","0.5551612935","0.8124666872","0.2802715202","","","","","","","","","","","","","","74","J","1","","","97","main_expt","",""
"","bandit","180","438582","0.0-139.0-0.0","94400667","wem/bandit_party_2","A1ODVXVCDHOVF1","either","2","269","","","","","","","1","0","0","0.6354974245","","0.4","0.6","0.8","0.2","","","","","0.2109275999","0.6354974245","0.881496875","0.2703087955","","","","","","","","","","74","J","1","","","98","main_expt","",""
"","bandit","181","440334","0.0-140.0-0.0","94400667","wem/bandit_party_2","A1ODVXVCDHOVF1","either","2","246","","","","","","","1","0","0","0.5945745664","","0.4","0.6","0.8","0.2","","","","","0.1531506719","0.5945745664","0.8785981907","0.3027543159","","","","","","","","","","74","J","1","","","99","main_expt","",""
"","bandit","182","441891","0.0-141.0-0.0","94400667","wem/bandit_party_2","A1ODVXVCDHOVF1","either","2","51","","","","","","","1","0","0","0.5679097985","","0.4","0.6","0.8","0.2","","","","","0.1262108991","0.5679097985","0.8494581726","0.3645318829","","","","","","","","","","74","J","1","","","100","main_expt","",""
"","bandit","183","443457","0.0-142.0-0.0","94400667","wem/bandit_party_2","A1ODVXVCDHOVF1","either","2","61","","","","","","","0","0","1","","0.6430580454","0.4","0.6","0.8","0.2","0.1340220502","0.6430580454","0.7754784616","0.4315832637","","","","","","","","","","","","","","74","J","1","","","101","main_expt","",""
"","bandit","184","445053","0.0-143.0-0.0","94400667","wem/bandit_party_2","A1ODVXVCDHOVF1","either","2","91","","","","","","","1","0","0","0.6340200926","","0.4","0.6","0.8","0.2","","","","","0.2167126086","0.6340200926","0.7626736499","0.3608531129","","","","","","","","","","74","J","1","","","102","main_expt","",""
"","bandit","185","446559","0.0-144.0-0.0","94400667","wem/bandit_party_2","A1ODVXVCDHOVF1","either","2","1","","","","","","","0","0","1","","0.6377668076","0.4","0.6","0.8","0.2","0.2796352144","0.6377668076","0.7329996306","0.3688981903","","","","","","","","","","","","","","74","J","1","","","103","main_expt","",""
"","bandit","186","448192","0.0-145.0-0.0","94400667","wem/bandit_party_2","A1ODVXVCDHOVF1","either","2","127","","","","","","","1","0","0","0.6578341575","","0.4","0.6","0.8","0.2","","","","","0.3556406549","0.6578341575","0.7467689404","0.3758155051","","","","","","","","","","74","J","1","","","104","main_expt","",""
"","bandit","187","449769","0.0-146.0-0.0","94400667","wem/bandit_party_2","A1ODVXVCDHOVF1","either","2","71","","","","","","","0","1","0","","0.6727034752","0.4","0.6","0.8","0.2","0.3233911601","0.6727034752","0.737018723","0.4508947075","","","","","","","","","","","","","","74","J","1","","","105","main_expt","",""
"","bandit","188","451346","0.0-147.0-0.0","94400667","wem/bandit_party_2","A1ODVXVCDHOVF1","either","2","72","","","","","","","0","0","1","0.6386482702","","0.4","0.6","0.8","0.2","","","","","0.2024631506","0.6386482702","0.655194185","0.4132181144","","","","","","","","","","74","J","1","","","106","main_expt","",""
"","bandit","189","452992","0.0-148.0-0.0","94400667","wem/bandit_party_2","A1ODVXVCDHOVF1","either","2","141","","","","","","","1","0","0","0.6788938686","","0.4","0.6","0.8","0.2","","","","","0.2290393164","0.6788938686","0.7122819559","0.4393512677","","","","","","","","","","74","J","1","","","107","main_expt","",""
"","bandit","190","454657","0.0-149.0-0.0","94400667","wem/bandit_party_2","A1ODVXVCDHOVF1","either","2","159","","","","","","","0","1","0","","0.7076498576","0.4","0.6","0.8","0.2","0.2217712157","0.7076498576","0.7326995505","0.4964319729","","","","","","","","","","","","","","74","J","1","","","108","main_expt","",""
"","bandit","191","456194","0.0-150.0-0.0","94400667","wem/bandit_party_2","A1ODVXVCDHOVF1","either","2","32","","","","","","","0","1","0","","0.6932550908","0.4","0.6","0.8","0.2","0.1566860935","0.6932550908","0.7165499475","0.4790921069","","","","","","","","","","","","","","74","J","1","","","109","main_expt","",""
"","bandit","192","457721","0.0-151.0-0.0","94400667","wem/bandit_party_2","A1ODVXVCDHOVF1","either","2","21","","","","","","","1","0","0","0.7436061547","","0.4","0.6","0.8","0.2","","","","","0.1083987113","0.7436061547","0.6058017554","0.5856434505","","","","","","","","","","74","J","1","","","110","main_expt","",""
"","bandit","193","459276","0.0-152.0-0.0","94400667","wem/bandit_party_2","A1ODVXVCDHOVF1","either","2","50","","","","","","","1","0","0","0.657194241","","0.4","0.6","0.8","0.2","","","","","0.217828795","0.657194241","0.5476823758","0.6444230696","","","","","","","","","","74","J","1","","","111","main_expt","",""
"","bandit","194","460929","0.0-153.0-0.0","94400667","wem/bandit_party_2","A1ODVXVCDHOVF1","either","2","148","","","","","","","0","0","1","0.6317228327","","0.4","0.6","0.8","0.2","","","","","0.2212119155","0.6317228327","0.5688313193","0.603417252","","","","","","","","","","74","J","1","","","112","main_expt","",""
"","bandit","195","462690","0.0-154.0-0.0","94400667","wem/bandit_party_2","A1ODVXVCDHOVF1","either","2","255","","","","","","","1","0","0","0.4985892417","","0.4","0.6","0.8","0.2","","","","","0.2374112476","0.4985892417","0.50852785","0.420613871","","","","","","","","","","74","J","1","","","113","main_expt","",""
"","bandit","196","464236","0.0-155.0-0.0","94400667","wem/bandit_party_2","A1ODVXVCDHOVF1","either","2","40","","","","","","","0","0","1","","0.579071345","0.4","0.6","0.8","0.2","0.2703699348","0.579071345","0.5711084253","0.2851569533","","","","","","","","","","","","","","74","J","1","","","114","main_expt","",""
"","bandit","197","465967","0.0-156.0-0.0","94400667","wem/bandit_party_2","A1ODVXVCDHOVF1","either","2","226","","","","","","","0","0","1","0.4595939904","","0.4","0.6","0.8","0.2","","","","","0.1928485376","0.4595939904","0.4177754351","0.3166589884","","","","","","","","","","74","J","1","","","115","main_expt","",""
"","bandit","198","467554","0.0-157.0-0.0","94400667","wem/bandit_party_2","A1ODVXVCDHOVF1","either","2","80","","","","","","","0","0","1","0.3744567546","","0.4","0.6","0.8","0.2","","","","","0.136356343","0.3744567546","0.387840809","0.3928451607","","","","","","","","","","74","J","1","","","116","main_expt","",""
"","bandit","199","469151","0.0-158.0-0.0","94400667","wem/bandit_party_2","A1ODVXVCDHOVF1","either","2","92","","","","","","","0","0","1","","0.302145019","0.4","0.6","0.8","0.2","0.2193113504","0.302145019","0.4456731606","0.560845346","","","","","","","","","","","","","","74","J","1","","","117","main_expt","",""
"","bandit","200","470707","0.0-159.0-0.0","94400667","wem/bandit_party_2","A1ODVXVCDHOVF1","either","2","50","","","","","","","0","0","1","","0.3522466686","0.4","0.6","0.8","0.2","0.2686792008","0.3522466686","0.3045880574","0.5536818424","","","","","","","","","","","","","","74","J","1","","","118","main_expt","",""
"","bandit","201","472414","0.0-160.0-0.0","94400667","wem/bandit_party_2","A1ODVXVCDHOVF1","either","2","201","","","","","","","0","0","1","","0.4425542362","0.4","0.6","0.8","0.2","0.2668270476","0.4425542362","0.3994134075","0.3617659687","","","","","","","","","","","","","","74","J","1","","","119","main_expt","",""
"","bandit","202","474366","0.0-161.0-0.0","94400667","wem/bandit_party_2","A1ODVXVCDHOVF1","either","2","447","","","","","","","0","0","1","","0.3377532805","0.4","0.6","0.8","0.2","0.3723992114","0.3377532805","0.351449483","0.3454740543","","","","","","","","","","","","","","74","J","1","","","120","main_expt","",""
"","bandit","203","476308","0.0-162.0-0.0","94400667","wem/bandit_party_2","A1ODVXVCDHOVF1","either","2","437","","","","","","","0","0","1","0.2929504356","","0.4","0.6","0.8","0.2","","","","","0.4001238515","0.2929504356","0.3641911367","0.2798257893","","","","","","","","","","74","J","1","","","121","main_expt","",""
"","bandit","204","478103","0.0-163.0-0.0","94400667","wem/bandit_party_2","A1ODVXVCDHOVF1","either","2","289","","","","","","","0","0","1","","0.2504028886","0.4","0.6","0.8","0.2","0.4090120715","0.2504028886","0.2673706252","0.2261540995","","","","","","","","","","","","","","74","J","1","","","122","main_expt","",""
"","bandit","205","479658","0.0-164.0-0.0","94400667","wem/bandit_party_2","A1ODVXVCDHOVF1","either","2","49","","","","","","","1","0","0","0.2414849785","","0.4","0.6","0.8","0.2","","","","","0.4746108064","0.2414849785","0.3455372181","0.2766663047","","","","","","","","","","74","J","1","","","123","main_expt","",""
"","bandit","206","481362","0.0-165.0-0.0","94400667","wem/bandit_party_2","A1ODVXVCDHOVF1","either","2","199","","","","","","","1","0","0","0.1791255979","","0.4","0.6","0.8","0.2","","","","","0.453231646","0.1791255979","0.3524137631","0.3126864395","","","","","","","","","","74","J","1","","","124","main_expt","",""
"","bandit","207","482976","0.0-166.0-0.0","94400667","wem/bandit_party_2","A1ODVXVCDHOVF1","either","2","109","","","","","","","0","0","1","","0.1952456852","0.4","0.6","0.8","0.2","0.4888945922","0.1952456852","0.3680881866","0.2772507379","","","","","","","","","","","","","","74","J","1","","","125","main_expt","",""
"","bandit","208","484610","0.0-167.0-0.0","94400667","wem/bandit_party_2","A1ODVXVCDHOVF1","either","2","127","","","","","","","0","0","1","0.2614303707","","0.4","0.6","0.8","0.2","","","","","0.396932523","0.2614303707","0.2884444508","0.2441417391","","","","","","","","","","74","J","1","","","126","main_expt","",""
"","bandit","209","486283","0.0-168.0-0.0","94400667","wem/bandit_party_2","A1ODVXVCDHOVF1","either","2","167","","","","","","","0","0","1","","0.267511235","0.4","0.6","0.8","0.2","0.4026562496","0.267511235","0.2931854252","0.2304038214","","","","","","","","","","","","","","74","J","1","","","127","main_expt","",""
"","bandit","210","487955","0.0-169.0-0.0","94400667","wem/bandit_party_2","A1ODVXVCDHOVF1","either","2","167","","","","","","","0","0","1","","0.2582460394","0.4","0.6","0.8","0.2","0.3072143153","0.2582460394","0.3115494401","0.2463692943","","","","","","","","","","","","","","74","J","1","","","128","main_expt","",""
"","bandit","211","489670","0.0-170.0-0.0","94400667","wem/bandit_party_2","A1ODVXVCDHOVF1","either","2","208","","","","","","","1","0","0","0.249100023","","0.4","0.6","0.8","0.2","","","","","0.3024431642","0.249100023","0.287093163","0.262841392","","","","","","","","","","74","J","1","","","129","main_expt","",""
"","bandit","212","491235","0.0-171.0-0.0","94400667","wem/bandit_party_2","A1ODVXVCDHOVF1","either","2","60","","","","","","","1","0","0","0.2014680341","","0.4","0.6","0.8","0.2","","","","","0.383823705","0.2014680341","0.242368994","0.3044503748","","","","","","","","","","74","J","1","","","130","main_expt","",""
"","bandit","213","492910","0.0-172.0-0.0","94400667","wem/bandit_party_2","A1ODVXVCDHOVF1","either","2","170","","","","","","","0","0","1","0.2514612397","","0.4","0.6","0.8","0.2","","","","","0.5448185218","0.2514612397","0.3141093292","0.2231782293","","","","","","","","","","74","J","1","","","131","main_expt","",""
"","bandit","214","494604","0.0-173.0-0.0","94400667","wem/bandit_party_2","A1ODVXVCDHOVF1","either","2","188","","","","","","","0","0","1","0.1719215191","","0.4","0.6","0.8","0.2","","","","","0.5741986762","0.1719215191","0.3186943837","0.265126842","","","","","","","","","","74","J","1","","","132","main_expt","",""
"","bandit","215","496277","0.0-174.0-0.0","94400667","wem/bandit_party_2","A1ODVXVCDHOVF1","either","2","168","","","","","","","0","0","1","0.151851594","","0.4","0.6","0.8","0.2","","","","","0.54298015","0.151851594","0.3218599317","0.1996467811","","","","","","","","","","74","J","1","","","133","main_expt","",""
"","bandit","216","497854","0.0-175.0-0.0","94400667","wem/bandit_party_2","A1ODVXVCDHOVF1","either","2","72","","","","","","","0","0","1","","0.1693242304","0.4","0.6","0.8","0.2","0.5504084981","0.1693242304","0.3372263261","0.1900899503","","","","","","","","","","","","","","74","J","1","","","134","main_expt","",""
"","bandit","217","499392","0.0-176.0-0.0","94400667","wem/bandit_party_2","A1ODVXVCDHOVF1","either","2","33","","","","","","","0","1","0","","0.1541174352","0.4","0.6","0.8","0.2","0.4874659601","0.1541174352","0.3515125386","0.172295534","","","","","","","","","","","","","","74","J","1","","","135","main_expt","",""
"","bandit","218","500939","0.0-177.0-0.0","94400667","wem/bandit_party_2","A1ODVXVCDHOVF1","either","2","41","","","","","","","0","0","1","0.1374012581","","0.4","0.6","0.8","0.2","","","","","0.3677382912","0.1374012581","0.2312583875","0.1171098277","","","","","","","","","","74","J","1","","","136","main_expt","",""
"","bandit","219","502565","0.0-178.0-0.0","94400667","wem/bandit_party_2","A1ODVXVCDHOVF1","either","2","121","","","","","","","0","0","1","","0.2889288236","0.4","0.6","0.8","0.2","0.2944012193","0.2889288236","0.3496768842","0.1390909791","","","","","","","","","","","","","","74","J","1","","","137","main_expt","",""
"","bandit","220","504141","0.0-179.0-0.0","94400667","wem/bandit_party_2","A1ODVXVCDHOVF1","either","2","71","","","","","","","0","0","1","","0.2177367931","0.4","0.6","0.8","0.2","0.3020033879","0.2177367931","0.4217982028","0.1209370274","","","","","","","","","","","","","","74","J","1","","","138","main_expt","",""
"","bandit","221","505658","0.0-180.0-0.0","94400667","wem/bandit_party_2","A1ODVXVCDHOVF1","either","2","12","","","","","","","1","0","0","0.1704259453","","0.4","0.6","0.8","0.2","","","","","0.2908104057","0.1704259453","0.5123523738","0.1441291996","","","","","","","","","","74","J","1","","","139","main_expt","",""
"","bandit","222","507216","0.0-181.0-0.0","94400667","wem/bandit_party_2","A1ODVXVCDHOVF1","either","2","51","","","","","","","0","0","1","0.1827322183","","0.4","0.6","0.8","0.2","","","","","0.2738290205","0.1827322183","0.3892042576","0.1380406349","","","","","","","","","","74","J","1","","","140","main_expt","",""
"","bandit","223","508830","0.0-182.0-0.0","94400667","wem/bandit_party_2","A1ODVXVCDHOVF1","either","2","109","","","","","","","0","0","1","0.2030288612","","0.4","0.6","0.8","0.2","","","","","0.3865798498","0.2030288612","0.4680147771","0.1312769784","","","","","","","","","","74","J","1","","","141","main_expt","",""
"","bandit","224","510564","0.0-183.0-0.0","94400667","wem/bandit_party_2","A1ODVXVCDHOVF1","either","2","229","","","","","","","0","0","1","0.1760536641","","0.4","0.6","0.8","0.2","","","","","0.3507917403","0.1760536641","0.3970866904","0.1880730553","","","","","","","","","","74","J","1","","","142","main_expt","",""
"","bandit","225","512084","0.0-184.0-0.0","94400667","wem/bandit_party_2","A1ODVXVCDHOVF1","either","2","15","","","","","","","0","0","1","","0.1428921374","0.4","0.6","0.8","0.2","0.2787839286","0.1428921374","0.3609481858","0.1798266991","","","","","","","","","","","","","","74","J","1","","","143","main_expt","",""
"","bandit","226","513807","0.0-185.0-0.0","94400667","wem/bandit_party_2","A1ODVXVCDHOVF1","either","2","218","","","","","","","0","0","1","","0.1260474704","0.4","0.6","0.8","0.2","0.2106619402","0.1260474704","0.3701270871","0.1881666754","","","","","","","","","","","","","","74","J","1","","","144","main_expt","",""
"","bandit","227","515569","0.0-186.0-0.0","94400667","wem/bandit_party_2","A1ODVXVCDHOVF1","either","2","257","","","","","","","0","0","1","","0.151337539","0.4","0.6","0.8","0.2","0.3211677341","0.151337539","0.3110645609","0.1683386122","","","","","","","","","","","","","","74","J","1","","","145","main_expt","",""
"","bandit","228","517291","0.0-187.0-0.0","94400667","wem/bandit_party_2","A1ODVXVCDHOVF1","either","2","217","","","","","","","0","0","1","0.1600114734","","0.4","0.6","0.8","0.2","","","","","0.4417580917","0.1600114734","0.356964637","0.2609121533","","","","","","","","","","74","J","1","","","146","main_expt","",""
"","bandit","229","518857","0.0-188.0-0.0","94400667","wem/bandit_party_2","A1ODVXVCDHOVF1","either","2","61","","","","","","","0","0","1","0.1262446547","","0.4","0.6","0.8","0.2","","","","","0.278611551","0.1262446547","0.5143633813","0.280259565","","","","","","","","","","74","J","1","","","147","main_expt","",""
"","bandit","230","520529","0.0-189.0-0.0","94400667","wem/bandit_party_2","A1ODVXVCDHOVF1","either","2","167","","","","","","","1","0","0","0.1030311585","","0.4","0.6","0.8","0.2","","","","","0.2811332351","0.1030311585","0.5086187798","0.2972918914","","","","","","","","","","74","J","1","","","148","main_expt","",""
"","bandit","231","522183","0.0-190.0-0.0","94400667","wem/bandit_party_2","A1ODVXVCDHOVF1","either","2","149","","","","","","","0","0","1","0.123834606","","0.4","0.6","0.8","0.2","","","","","0.2606345315","0.123834606","0.4676315778","0.3284309668","","","","","","","","","","74","J","1","","","149","main_expt","",""
"","bandit","232","523895","0.0-191.0-0.0","94400667","wem/bandit_party_2","A1ODVXVCDHOVF1","either","2","207","","","","","","","0","0","1","0.06566206942","","0.4","0.6","0.8","0.2","","","","","0.260677327","0.06566206942","0.4737351686","0.3186890608","","","","","","","","","","74","J","1","","","150","main_expt","",""
"","bandit","233","525412","0.0-192.0-0.0","94400667","wem/bandit_party_2","A1ODVXVCDHOVF1","either","2","11","","","","","","","0","0","1","","0.06342121736","0.4","0.6","0.8","0.2","0.2579624968","0.06342121736","0.5387476985","0.3331747037","","","","","","","","","","","","","","74","J","1","","","151","main_expt","",""
"","bandit","234","527155","0.0-193.0-0.0","94400667","wem/bandit_party_2","A1ODVXVCDHOVF1","either","2","237","","","","","","","0","0","1","","0.1162046696","0.4","0.6","0.8","0.2","0.2536911072","0.1162046696","0.5065138565","0.364096089","","","","","","","","","","","","","","74","J","1","","","152","main_expt","",""
"","bandit","235","528799","0.0-194.0-0.0","94400667","wem/bandit_party_2","A1ODVXVCDHOVF1","either","2","139","","","","","","","0","0","1","0.5190676077","","0.4","0.6","0.8","0.2","","","","","0.1427943183","0.1388943584","0.5190676077","0.3189440566","","","","","","","","","","75","K","2","","","153","main_expt","",""
"","bandit","236","530376","0.0-195.0-0.0","94400667","wem/bandit_party_2","A1ODVXVCDHOVF1","either","2","71","","","","","","","0","0","1","0.1188489222","","0.4","0.6","0.8","0.2","","","","","0.08934943386","0.1188489222","0.4944482457","0.486858514","","","","","","","","","","74","J","1","","","154","main_expt","",""
"","bandit","237","531926","0.0-196.0-0.0","94400667","wem/bandit_party_2","A1ODVXVCDHOVF1","either","2","44","","","","","","","0","0","1","","0.1255079792","0.4","0.6","0.8","0.2","0.1048919666","0.1255079792","0.4987902374","0.398958755","","","","","","","","","","","","","","74","J","1","","","155","main_expt","",""
"","bandit","238","533618","0.0-197.0-0.0","94400667","wem/bandit_party_2","A1ODVXVCDHOVF1","either","2","186","","","","","","","0","0","1","0.1705129017","","0.4","0.6","0.8","0.2","","","","","0.1348874752","0.1705129017","0.4151199053","0.3508932217","","","","","","","","","","74","J","1","","","156","main_expt","",""
"","bandit","239","535359","0.0-198.0-0.0","94400667","wem/bandit_party_2","A1ODVXVCDHOVF1","either","2","236","","","","","","","0","0","1","0.1892203872","","0.4","0.6","0.8","0.2","","","","","0.1197456909","0.1892203872","0.4215128153","0.3736640956","","","","","","","","","","74","J","1","","","157","main_expt","",""
"","bandit","240","537109","0.0-199.0-0.0","94400667","wem/bandit_party_2","A1ODVXVCDHOVF1","either","2","245","","","","","","","0","0","1","0.1589595026","","0.4","0.6","0.8","0.2","","","","","0.1343935597","0.1589595026","0.3666899102","0.3215678611","","","","","","","","","","74","J","1","","","158","main_expt","",""
"","bandit","241","538626","0.0-200.0-0.0","94400667","wem/bandit_party_2","A1ODVXVCDHOVF1","either","2","12","","","","","","","0","0","1","","0.1426383857","0.4","0.6","0.8","0.2","0.04604274909","0.1426383857","0.3906786657","0.2732838962","","","","","","","","","","","","","","74","J","1","","","159","main_expt","",""
"","bandit","242","540296","0.0-201.0-0.0","94400667","wem/bandit_party_2","A1ODVXVCDHOVF1","either","2","164","","","","","","","0","0","1","","0.2747613825","0.4","0.6","0.8","0.2","0.08927965808","0.2747613825","0.4769972016","0.2323229575","","","","","","","","","","","","","","74","J","1","","","160","main_expt","",""
"","bandit","243","541973","0.0-202.0-0.0","94400667","wem/bandit_party_2","A1ODVXVCDHOVF1","either","2","170","","","","","","","0","0","1","","0.2046882866","0.4","0.6","0.8","0.2","0.1038156196","0.2046882866","0.4405879513","0.399022808","","","","","","","","","","","","","","74","J","1","","","161","main_expt","",""
"","bandit","244","543598","0.0-203.0-0.0","94400667","wem/bandit_party_2","A1ODVXVCDHOVF1","either","2","119","","","","","","","0","1","0","","0.1715152701","0.4","0.6","0.8","0.2","0.1470739062","0.1715152701","0.44055992","0.4967313539","","","","","","","","","","","","","","74","J","1","","","162","main_expt","",""
"","bandit","245","545193","0.0-204.0-0.0","94400667","wem/bandit_party_2","A1ODVXVCDHOVF1","either","2","89","","","","","","","0","0","1","0.2396687428","","0.4","0.6","0.8","0.2","","","","","0.1214264794","0.2396687428","0.3434222481","0.5245029489","","","","","","","","","","74","J","1","","","163","main_expt","",""
"","bandit","246","546916","0.0-205.0-0.0","94400667","wem/bandit_party_2","A1ODVXVCDHOVF1","either","2","218","","","","","","","0","0","1","0.3359744524","","0.4","0.6","0.8","0.2","","","","","0.1563758897","0.3359744524","0.3862652833","0.5808119749","","","","","","","","","","74","J","1","","","164","main_expt","",""
"","bandit","247","548531","0.0-206.0-0.0","94400667","wem/bandit_party_2","A1ODVXVCDHOVF1","either","2","110","","","","","","","0","1","0","","0.4940159592","0.4","0.6","0.8","0.2","0.1311500467","0.4940159592","0.4270444342","0.6473032069","","","","","","","","","","","","","","74","J","1","","","165","main_expt","",""
"","bandit","248","550224","0.0-207.0-0.0","94400667","wem/bandit_party_2","A1ODVXVCDHOVF1","either","2","188","","","","","","","0","0","1","0.5922229292","","0.4","0.6","0.8","0.2","","","","","0.1419689761","0.5922229292","0.5073102058","0.6790689848","","","","","","","","","","74","J","1","","","166","main_expt","",""
"","bandit","249","551760","0.0-208.0-0.0","94400667","wem/bandit_party_2","A1ODVXVCDHOVF1","either","2","31","","","","","","","0","0","1","0.5562626425","","0.4","0.6","0.8","0.2","","","","","0.150246256","0.5562626425","0.5417092253","0.5959653185","","","","","","","","","","74","J","1","","","167","main_expt","",""
"","bandit","250","553328","0.0-209.0-0.0","94400667","wem/bandit_party_2","A1ODVXVCDHOVF1","either","2","62","","","","","","","0","0","1","0.6489587791","","0.4","0.6","0.8","0.2","","","","","0.2070971521","0.6489587791","0.6505471885","0.361841396","","","","","","","","","","74","J","1","","","168","main_expt","",""
"","bandit","251","554935","0.0-210.0-0.0","94400667","wem/bandit_party_2","A1ODVXVCDHOVF1","either","2","101","","","","","","","1","0","0","0.5652428614","","0.4","0.6","0.8","0.2","","","","","0.2564452127","0.5652428614","0.6226729341","0.2594844845","","","","","","","","","","74","J","1","","","169","main_expt","",""
"","bandit","252","556589","0.0-211.0-0.0","94400667","wem/bandit_party_2","A1ODVXVCDHOVF1","either","2","149","","","","","","","0","0","1","","0.5344749526","0.4","0.6","0.8","0.2","0.2845729388","0.5344749526","0.7574543886","0.1987556041","","","","","","","","","","","","","","74","J","1","","","170","main_expt","",""
"","bandit","253","558186","0.0-212.0-0.0","94400667","wem/bandit_party_2","A1ODVXVCDHOVF1","either","2","91","","","","","","","1","0","0","0.6364900983","","0.4","0.6","0.8","0.2","","","","","0.2360657399","0.6364900983","0.774201251","0.1583585206","","","","","","","","","","74","J","1","","","171","main_expt","",""
"","bandit","254","559704","0.0-213.0-0.0","94400667","wem/bandit_party_2","A1ODVXVCDHOVF1","either","2","11","","","","","","","0","1","0","","0.5516193693","0.4","0.6","0.8","0.2","0.3453554921","0.5516193693","0.7739789177","0.1494938987","","","","","","","","","","","","","","74","J","1","","","172","main_expt","",""
"","bandit","255","561310","0.0-214.0-0.0","94400667","wem/bandit_party_2","A1ODVXVCDHOVF1","either","2","100","","","","","","","0","1","0","","0.5081608063","0.4","0.6","0.8","0.2","0.2909261263","0.5081608063","0.7146420849","0.1996494969","","","","","","","","","","","","","","74","J","1","","","173","main_expt","",""
"","bandit","256","562984","0.0-215.0-0.0","94400667","wem/bandit_party_2","A1ODVXVCDHOVF1","either","2","169","","","","","","","1","0","0","0.5247340446","","0.4","0.6","0.8","0.2","","","","","0.3807546558","0.5247340446","0.683245412","0.2200767262","","","","","","","","","","74","J","1","","","174","main_expt","",""
"","bandit","257","564688","0.0-216.0-0.0","94400667","wem/bandit_party_2","A1ODVXVCDHOVF1","either","2","197","","","","","","","1","0","0","0.5823110366","","0.4","0.6","0.8","0.2","","","","","0.3889518003","0.5823110366","0.7163731774","0.1929710708","","","","","","","","","","74","J","1","","","175","main_expt","",""
"","bandit","258","566282","0.0-217.0-0.0","94400667","wem/bandit_party_2","A1ODVXVCDHOVF1","either","2","88","","","","","","","0","1","0","","0.7693722391","0.4","0.6","0.8","0.2","0.3662842853","0.7693722391","0.6676116703","0.1756556012","","","","","","","","","","","","","","74","J","1","","","176","main_expt","",""
"","bandit","259","567853","0.0-218.0-0.0","94400667","wem/bandit_party_2","A1ODVXVCDHOVF1","either","2","64","","","","","","","1","0","0","0.8048595062","","0.4","0.6","0.8","0.2","","","","","0.3102656016","0.8048595062","0.711116056","0.2404611203","","","","","","","","","","74","J","1","","","177","main_expt","",""
"","bandit","260","569684","0.0-219.0-0.0","94400667","wem/bandit_party_2","A1ODVXVCDHOVF1","either","2","325","","","","","","","1","0","0","0.8147320782","","0.4","0.6","0.8","0.2","","","","","0.3272385177","0.8147320782","0.6541247318","0.1651874793","","","","","","","","","","74","J","1","","","178","main_expt","",""
"","bandit","261","571359","0.0-220.0-0.0","94400667","wem/bandit_party_2","A1ODVXVCDHOVF1","either","2","168","","","","","","","0","1","0","","0.7755432213","0.4","0.6","0.8","0.2","0.3185807274","0.7755432213","0.600925469","0.1297692321","","","","","","","","","","","","","","74","J","1","","","179","main_expt","",""
"","bandit","262","572974","0.0-221.0-0.0","94400667","wem/bandit_party_2","A1ODVXVCDHOVF1","either","2","109","","","","","","","0","0","1","0.7309951384","","0.4","0.6","0.8","0.2","","","","","0.3896265469","0.7309951384","0.6321701674","0.1311169289","","","","","","","","","","74","J","1","","","180","main_expt","",""
"","bandit","263","574578","0.0-222.0-0.0","94400667","wem/bandit_party_2","A1ODVXVCDHOVF1","either","2","98","","","","","","","0","1","0","","0.8068071681","0.4","0.6","0.8","0.2","0.4381139349","0.8068071681","0.7040606398","0.2184653543","","","","","","","","","","","","","","74","J","1","","","181","main_expt","",""
"","bandit","264","576244","0.0-223.0-0.0","94400667","wem/bandit_party_2","A1ODVXVCDHOVF1","either","2","160","","","","","","","1","0","0","0.8096694819","","0.4","0.6","0.8","0.2","","","","","0.4339703771","0.8096694819","0.6551517927","0.156745214","","","","","","","","","","74","J","1","","","182","main_expt","",""
"","bandit","265","577937","0.0-224.0-0.0","94400667","wem/bandit_party_2","A1ODVXVCDHOVF1","either","2","185","","","","","","","1","0","0","0.8522040983","","0.4","0.6","0.8","0.2","","","","","0.5270594011","0.8522040983","0.7709035389","0.07710569088","","","","","","","","","","74","J","1","","","183","main_expt","",""
"","bandit","266","579524","0.0-225.0-0.0","94400667","wem/bandit_party_2","A1ODVXVCDHOVF1","either","2","80","","","","","","","0","0","1","0.8636776132","","0.4","0.6","0.8","0.2","","","","","0.4791569234","0.8636776132","0.7869666122","0.07901501252","","","","","","","","","","74","J","1","","","184","main_expt","",""
"","bandit","267","581186","0.0-226.0-0.0","94400667","wem/bandit_party_2","A1ODVXVCDHOVF1","either","2","156","","","","","","","1","0","0","0.8605951951","","0.4","0.6","0.8","0.2","","","","","0.464074867","0.8605951951","0.804571828","0.05695362571","","","","","","","","","","74","J","1","","","185","main_expt","",""
"","bandit","268","582781","0.0-227.0-0.0","94400667","wem/bandit_party_2","A1ODVXVCDHOVF1","either","2","88","","","","","","","0","0","1","0.8578427848","","0.4","0.6","0.8","0.2","","","","","0.4654947356","0.8578427848","0.7866627628","0.03796608352","","","","","","","","","","74","J","1","","","186","main_expt","",""
"","bandit","269","585312","0.0-228.0-0.0","94400667","wem/bandit_party_2","A1ODVXVCDHOVF1","either","2","1025","","","","","","","1","0","0","0.8253306036","","0.4","0.6","0.8","0.2","","","","","0.4338668179","0.8253306036","0.8006736442","0.05986429342","","","","","","","","","","74","J","1","","","187","main_expt","",""
"","bandit","270","590425","0.0-229.0-0.0","94400667","wem/bandit_party_2","A1ODVXVCDHOVF1","either","2","3606","","","","","","","1","0","0","0.8118593573","","0.4","0.6","0.8","0.2","","","","","0.4679469354","0.8118593573","0.7687627789","0.05827831728","","","","","","","","","","74","J","1","","","188","main_expt","",""
"","bandit","271","592117","0.0-230.0-0.0","94400667","wem/bandit_party_2","A1ODVXVCDHOVF1","either","2","186","","","","","","","1","0","0","0.8319104568","","0.4","0.6","0.8","0.2","","","","","0.4645116859","0.8319104568","0.7009429779","0.06499387038","","","","","","","","","","74","J","1","","","189","main_expt","",""
"","bandit","272","598236","0.0-231.0-0.0","94400667","wem/bandit_party_2","A1ODVXVCDHOVF1","either","2","4613","","","","","","","1","0","0","0.8949986836","","0.4","0.6","0.8","0.2","","","","","0.4260553166","0.8949986836","0.7531121838","0.0878029059","","","","","","","","","","74","J","1","","","190","main_expt","",""
"","bandit","273","599812","0.0-232.0-0.0","94400667","wem/bandit_party_2","A1ODVXVCDHOVF1","either","2","69","","","","","","","1","0","0","0.9258368343","","0.4","0.6","0.8","0.2","","","","","0.5323747461","0.9258368343","0.6174616994","0.1101088583","","","","","","","","","","74","J","1","","","191","main_expt","",""
"","bandit","274","601329","0.0-233.0-0.0","94400667","wem/bandit_party_2","A1ODVXVCDHOVF1","either","2","10","","","","","","","1","0","0","0.9221438833","","0.4","0.6","0.8","0.2","","","","","0.6013900654","0.9221438833","0.6331996982","0.1559643099","","","","","","","","","","74","J","1","","","192","main_expt","",""
"","bandit","275","603301","0.0-234.0-0.0","94400667","wem/bandit_party_2","A1ODVXVCDHOVF1","either","2","465","","","","","","","0","1","0","","0.878376231","0.4","0.6","0.8","0.2","0.5332063066","0.878376231","0.5596167322","0.1348882638","","","","","","","","","","","","","","74","J","1","","","193","main_expt","",""
"","bandit","276","604895","0.0-235.0-0.0","94400667","wem/bandit_party_2","A1ODVXVCDHOVF1","either","2","88","","","","","","","0","1","0","","0.7914694382","0.4","0.6","0.8","0.2","0.5499496643","0.7914694382","0.5887018809","0.243093686","","","","","","","","","","","","","","74","J","1","","","194","main_expt","",""
"","bandit","277","606569","0.0-236.0-0.0","94400667","wem/bandit_party_2","A1ODVXVCDHOVF1","either","2","168","","","","","","","0","0","1","0.7843027812","","0.4","0.6","0.8","0.2","","","","","0.4170732774","0.7843027812","0.561552955","0.2792315856","","","","","","","","","","74","J","1","","","195","main_expt","",""
"","bandit","278","611064","0.0-237.0-0.0","94400667","wem/bandit_party_2","A1ODVXVCDHOVF1","either","2","2987","","","","","","","0","0","1","","0.7888241066","0.4","0.6","0.8","0.2","0.4050854298","0.7888241066","0.6199522587","0.2075419965","","","","","","","","","","","","","","74","J","1","","","196","main_expt","",""
"","bandit","279","617216","0.0-238.0-0.0","94400667","wem/bandit_party_2","A1ODVXVCDHOVF1","either","2","4646","","","","","","","1","0","0","0.8145025162","","0.4","0.6","0.8","0.2","","","","","0.4522405917","0.8145025162","0.6886125155","0.1899284635","","","","","","","","","","74","J","1","","","197","main_expt","",""
"","bandit","280","622210","0.0-239.0-0.0","94400667","wem/bandit_party_2","A1ODVXVCDHOVF1","either","2","3488","","","","","","","0","1","0","","0.8795467387","0.4","0.6","0.8","0.2","0.4547961131","0.8795467387","0.6468609917","0.1632143895","","","","","","","","","","","","","","74","J","1","","","198","main_expt","",""
"","bandit","281","623768","0.0-240.0-0.0","94400667","wem/bandit_party_2","A1ODVXVCDHOVF1","either","2","51","","","","","","","0","1","0","","0.8716255916","0.4","0.6","0.8","0.2","0.456709553","0.8716255916","0.7134983028","0.1580048483","","","","","","","","","","","","","","74","J","1","","","199","main_expt","",""
"","bandit","282","625393","0.0-241.0-0.0","94400667","wem/bandit_party_2","A1ODVXVCDHOVF1","either","2","119","","","","","","","1","0","0","0.8596876402","","0.4","0.6","0.8","0.2","","","","","0.4197111003","0.8596876402","0.6545285445","0.1815025648","","","","","","","","","","74","J","1","","","200","main_expt","",""
"","bandit","283","627038","0.0-242.0-0.0","94400667","wem/bandit_party_2","A1ODVXVCDHOVF1","either","2","138","","","","","","","0","1","0","","0.8714244785","0.4","0.6","0.8","0.2","0.4468864226","0.8714244785","0.6827561938","0.1453003075","","","","","","","","","","","","","","74","J","1","","","201","main_expt","",""
"","bandit","284","628663","0.0-243.0-0.0","94400667","wem/bandit_party_2","A1ODVXVCDHOVF1","either","2","118","","","","","","","1","0","0","0.8679491409","","0.4","0.6","0.8","0.2","","","","","0.3852152277","0.8679491409","0.6590680519","0.1061510446","","","","","","","","","","74","J","1","","","202","main_expt","",""
"","bandit","285","632696","0.0-244.0-0.0","94400667","wem/bandit_party_2","A1ODVXVCDHOVF1","either","2","2526","","","","","","","0","1","0","","0.8421855008","0.4","0.6","0.8","0.2","0.3481501846","0.8421855008","0.67998256","0.09667757311","","","","","","","","","","","","","","74","J","1","","","203","main_expt","",""
"","bandit","286","634383","0.0-245.0-0.0","94400667","wem/bandit_party_2","A1ODVXVCDHOVF1","either","2","181","","","","","","","0","0","1","0.8741547355","","0.4","0.6","0.8","0.2","","","","","0.3688904748","0.8741547355","0.7157802034","0.109576977","","","","","","","","","","74","J","1","","","204","main_expt","",""
"","bandit","287","635998","0.0-246.0-0.0","94400667","wem/bandit_party_2","A1ODVXVCDHOVF1","either","2","108","","","","","","","0","1","0","","0.8589537271","0.4","0.6","0.8","0.2","0.4196025605","0.8589537271","0.6750594522","0.1370524017","","","","","","","","","","","","","","74","J","1","","","205","main_expt","",""
"","bandit","288","637633","0.0-247.0-0.0","94400667","wem/bandit_party_2","A1ODVXVCDHOVF1","either","2","128","","","","","","","0","1","0","","0.8009191088","0.4","0.6","0.8","0.2","0.3558717694","0.8009191088","0.7170784861","0.1005848846","","","","","","","","","","","","","","74","J","1","","","206","main_expt","",""
"","bandit","289","639327","0.0-248.0-0.0","94400667","wem/bandit_party_2","A1ODVXVCDHOVF1","either","2","187","","","","","","","1","0","0","0.8146279372","","0.4","0.6","0.8","0.2","","","","","0.3978287694","0.8146279372","0.6886550294","0.1100528349","","","","","","","","","","74","J","1","","","207","main_expt","",""
"","bandit","290","640912","0.0-249.0-0.0","94400667","wem/bandit_party_2","A1ODVXVCDHOVF1","either","2","79","","","","","","","1","0","0","0.7498886323","","0.4","0.6","0.8","0.2","","","","","0.3647175361","0.7498886323","0.7340041914","0.1165568201","","","","","","","","","","74","J","1","","","208","main_expt","",""
"","bandit","291","642566","0.0-250.0-0.0","94400667","wem/bandit_party_2","A1ODVXVCDHOVF1","either","2","148","","","","","","","0","1","0","","0.781298432","0.4","0.6","0.8","0.2","0.2942091963","0.781298432","0.7108339061","0.1607141963","","","","","","","","","","","","","","74","J","1","","","209","main_expt","",""
"","bandit","292","644103","0.0-251.0-0.0","94400667","wem/bandit_party_2","A1ODVXVCDHOVF1","either","2","30","","","","","","","0","1","0","","0.8374694261","0.4","0.6","0.8","0.2","0.3228874634","0.8374694261","0.7322658343","0.2005879304","","","","","","","","","","","","","","74","J","1","","","210","main_expt","",""
"","bandit","293","645805","0.0-252.0-0.0","94400667","wem/bandit_party_2","A1ODVXVCDHOVF1","either","2","194","","","","","","","1","0","0","0.7461264045","","0.4","0.6","0.8","0.2","","","","","0.3300931135","0.7461264045","0.6220956771","0.1999716741","","","","","","","","","","74","J","1","","","211","main_expt","",""
"","bandit","294","647538","0.0-253.0-0.0","94400667","wem/bandit_party_2","A1ODVXVCDHOVF1","either","2","225","","","","","","","1","0","0","0.7267359419","","0.4","0.6","0.8","0.2","","","","","0.4044608811","0.7267359419","0.5400145011","0.2135957141","","","","","","","","","","74","J","1","","","212","main_expt","",""
"","bandit","295","649163","0.0-254.0-0.0","94400667","wem/bandit_party_2","A1ODVXVCDHOVF1","either","2","118","","","","","","","0","0","1","0.6529835343","","0.4","0.6","0.8","0.2","","","","","0.4916994921","0.6529835343","0.5419994818","0.2041793084","","","","","","","","","","74","J","1","","","213","main_expt","",""
"","bandit","296","651432","0.0-255.0-0.0","94400667","wem/bandit_party_2","A1ODVXVCDHOVF1","either","2","762","","","","","","","0","0","1","0.5734554779","","0.4","0.6","0.8","0.2","","","","","0.5387088508","0.5734554779","0.6195319152","0.2563089198","","","","","","","","","","74","J","1","","","214","main_expt","",""
"","bandit","297","653194","0.0-256.0-0.0","94400667","wem/bandit_party_2","A1ODVXVCDHOVF1","either","2","256","","","","","","","0","0","1","0.7056003711","","0.4","0.6","0.8","0.2","","","","","0.567041903","0.7056003711","0.7405966814","0.2870699064","","","","","","","","","","74","J","1","","","215","main_expt","",""
"","bandit","298","654721","0.0-257.0-0.0","94400667","wem/bandit_party_2","A1ODVXVCDHOVF1","either","2","20","","","","","","","1","0","0","0.7717913507","","0.4","0.6","0.8","0.2","","","","","0.539749723","0.7717913507","0.8005734678","0.2715554895","","","","","","","","","","74","J","1","","","216","main_expt","",""
"","bandit","299","656273","0.0-258.0-0.0","94400667","wem/bandit_party_2","A1ODVXVCDHOVF1","either","2","45","","","","","","","1","0","0","0.834894728","","0.4","0.6","0.8","0.2","","","","","0.3803352486","0.834894728","0.8392159132","0.2027777883","","","","","","","","","","74","J","1","","","217","main_expt","",""
"","bandit","300","657811","0.0-259.0-0.0","94400667","wem/bandit_party_2","A1ODVXVCDHOVF1","either","2","32","","","","","","","1","0","0","0.868580258","","0.4","0.6","0.8","0.2","","","","","0.3236333655","0.868580258","0.7445585264","0.2169787163","","","","","","","","","","74","J","1","","","218","main_expt","",""
"","bandit","301","659349","0.0-260.0-0.0","94400667","wem/bandit_party_2","A1ODVXVCDHOVF1","either","2","32","","","","","","","0","0","1","0.8236231074","","0.4","0.6","0.8","0.2","","","","","0.2612589469","0.8236231074","0.7174829008","0.2292932202","","","","","","","","","","74","J","1","","","219","main_expt","",""
"","bandit","302","661003","0.0-261.0-0.0","94400667","wem/bandit_party_2","A1ODVXVCDHOVF1","either","2","147","","","","","","","0","1","0","","0.7719294443","0.4","0.6","0.8","0.2","0.2228319794","0.7719294443","0.6601767392","0.2829053382","","","","","","","","","","","","","","74","J","1","","","220","main_expt","",""
"","bandit","303","662784","0.0-262.0-0.0","94400667","wem/bandit_party_2","A1ODVXVCDHOVF1","either","2","274","","","","","","","1","0","0","0.7609360252","","0.4","0.6","0.8","0.2","","","","","0.2204856404","0.7609360252","0.703996204","0.2691731019","","","","","","","","","","74","J","1","","","221","main_expt","",""
"","bandit","304","664312","0.0-263.0-0.0","94400667","wem/bandit_party_2","A1ODVXVCDHOVF1","either","2","20","","","","","","","0","0","1","0.7319851961","","0.4","0.6","0.8","0.2","","","","","0.2269951902","0.7319851961","0.6188024556","0.1974112065","","","","","","","","","","74","J","1","","","222","main_expt","",""
"","bandit","305","665919","0.0-264.0-0.0","94400667","wem/bandit_party_2","A1ODVXVCDHOVF1","either","2","100","","","","","","","0","0","1","0.6994646324","","0.4","0.6","0.8","0.2","","","","","0.3417830843","0.6994646324","0.5695888615","0.08486155027","","","","","","","","","","74","J","1","","","223","main_expt","",""
"","bandit","306","667536","0.0-265.0-0.0","94400667","wem/bandit_party_2","A1ODVXVCDHOVF1","either","2","110","","","","","","","1","0","0","0.6817307813","","0.4","0.6","0.8","0.2","","","","","0.4057490183","0.6817307813","0.6590173842","0.1930609847","","","","","","","","","","74","J","1","","","224","main_expt","",""
"","bandit","307","669043","0.0-266.0-0.0","94400667","wem/bandit_party_2","A1ODVXVCDHOVF1","either","2","0","","","","","","","0","0","1","0.67394888","","0.4","0.6","0.8","0.2","","","","","0.4266979185","0.67394888","0.6779124893","0.2026087193","","","","","","","","","","74","J","1","","","225","main_expt","",""
"","bandit","308","670612","0.0-267.0-0.0","94400667","wem/bandit_party_2","A1ODVXVCDHOVF1","either","2","63","","","","","","","1","0","0","0.6520670614","","0.4","0.6","0.8","0.2","","","","","0.4723095555","0.6520670614","0.6433757785","0.1295559036","","","","","","","","","","74","J","1","","","226","main_expt","",""
"","bandit","309","672266","0.0-268.0-0.0","94400667","wem/bandit_party_2","A1ODVXVCDHOVF1","either","2","147","","","","","","","0","0","1","0.6598054912","","0.4","0.6","0.8","0.2","","","","","0.4396274322","0.6598054912","0.6050090536","0.1014701128","","","","","","","","","","74","J","1","","","227","main_expt","",""
"","bandit","310","673950","0.0-269.0-0.0","94400667","wem/bandit_party_2","A1ODVXVCDHOVF1","either","2","177","","","","","","","1","0","0","0.7313296172","","0.4","0.6","0.8","0.2","","","","","0.4581465293","0.7313296172","0.5614220587","0.1374428951","","","","","","","","","","74","J","1","","","228","main_expt","",""
"","bandit","311","675469","0.0-270.0-0.0","94400667","wem/bandit_party_2","A1ODVXVCDHOVF1","either","2","11","","","","","","","0","0","1","0.5771612872","","0.4","0.6","0.8","0.2","","","","","0.3635076811","0.5771612872","0.536938762","0.2147377822","","","","","","","","","","74","J","1","","","229","main_expt","",""
"","bandit","312","677190","0.0-271.0-0.0","94400667","wem/bandit_party_2","A1ODVXVCDHOVF1","either","2","215","","","","","","","1","0","0","0.6474737632","","0.4","0.6","0.8","0.2","","","","","0.4109812081","0.6474737632","0.4691369301","0.2128984172","","","","","","","","","","74","J","1","","","230","main_expt","",""
"","bandit","313","678931","0.0-272.0-0.0","94400667","wem/bandit_party_2","A1ODVXVCDHOVF1","either","2","235","","","","","","","0","1","0","","0.77083729","0.4","0.6","0.8","0.2","0.3769467169","0.77083729","0.3801843724","0.2566260117","","","","","","","","","","","","","","74","J","1","","","231","main_expt","",""
"","bandit","314","680565","0.0-273.0-0.0","94400667","wem/bandit_party_2","A1ODVXVCDHOVF1","either","2","127","","","","","","","0","0","1","","0.7372448464","0.4","0.6","0.8","0.2","0.4489681289","0.7372448464","0.4401380948","0.307190163","","","","","","","","","","","","","","74","J","1","","","232","main_expt","",""
"","bandit","315","682269","0.0-274.0-0.0","94400667","wem/bandit_party_2","A1ODVXVCDHOVF1","either","2","196","","","","","","","0","1","0","","0.8061851957","0.4","0.6","0.8","0.2","0.5191563331","0.8061851957","0.4589823784","0.3235632008","","","","","","","","","","","","","","74","J","1","","","233","main_expt","",""
"","bandit","316","683942","0.0-275.0-0.0","94400667","wem/bandit_party_2","A1ODVXVCDHOVF1","either","2","166","","","","","","","1","0","0","0.7628128465","","0.4","0.6","0.8","0.2","","","","","0.5635532962","0.7628128465","0.412850409","0.2229472669","","","","","","","","","","74","J","1","","","234","main_expt","",""
"","bandit","317","685588","0.0-276.0-0.0","94400667","wem/bandit_party_2","A1ODVXVCDHOVF1","either","2","137","","","","","","","1","0","0","0.7139354314","","0.4","0.6","0.8","0.2","","","","","0.6059211115","0.7139354314","0.3071086281","0.3245092944","","","","","","","","","","74","J","1","","","235","main_expt","",""
