"consent","trial_type","trial_index","time_elapsed","internal_node_id","subjID","study","MID","cond","drift","rt","responses","button_pressed","key_press","like","value","connected","gems","bombs","no_reward","GemPrChosen","BombPrChosen","GainOverPainPr_0","GainOverPainPr_1","GainOverPainPr_2","GainOverPainPr_3","LosePr_0","LosePr_1","LosePr_2","LosePr_3","WinPr_0","WinPr_1","WinPr_2","WinPr_3","Q0","Q1","Q2","gender","age","ethnicity","label","expt_phase","target","respCharCode","respKey","respChoiceNum","respChoice","practice","trial_counter","trial_label","Q0_index","view_history"
"GDM/GDM_behavioral_consent_30min_online.html","consent","0","8285","0.0-0.0","95155418","wem/bandit_party_2","A3OC3VQF3CZ5T0","either","2","","","","","","","","","","","","","","","","","","","","","","","","","","","","","","","","","","","","","","","","","",""
"","survey-text","1","15572","0.0-1.0","95155418","wem/bandit_party_2","A3OC3VQF3CZ5T0","either","2","6278","{""Q0"":""A3OC3VQF3CZ5T0""}","","","","","","","","","","","","","","","","","","","","","","","","","","","","","","","","","","","","","","","",""
"","button-response","2","18381","0.0-2.0","95155418","wem/bandit_party_2","A3OC3VQF3CZ5T0","either","2","1805","","0","","","","","","","","","","","","","","","","","","","","","","","","","","","","","","","","","","","","","","",""
"","text-replacement","3","28541","0.0-3.0","95155418","wem/bandit_party_2","A3OC3VQF3CZ5T0","either","2","9157","","","32","","","","","","","","","","","","","","","","","","","","","","","","","","","","","","","","","","","","","",""
"","text-replacement","4","36588","0.0-4.0","95155418","wem/bandit_party_2","A3OC3VQF3CZ5T0","either","2","8045","","","32","","","","","","","","","","","","","","","","","","","","","","","","","","","","","","","","","","","","","",""
"","identification","5","45228","0.0-6.0-0.0","95155418","wem/bandit_party_2","A3OC3VQF3CZ5T0","either","2","8626","","","","4","4","4","","","","","","","","","","","","","","","","","","","","","","","","pre","identification_pre","the Republican Party","","","","","","","","",""
"","identification","6","49543","0.0-6.0-1.0","95155418","wem/bandit_party_2","A3OC3VQF3CZ5T0","either","2","3300","","","","2","2","2","","","","","","","","","","","","","","","","","","","","","","","","pre","identification_pre","the Democratic Party","","","","","","","","",""
"","text-replacement","7","63732","0.0-7.0","95155418","wem/bandit_party_2","A3OC3VQF3CZ5T0","either","2","13185","","","32","","","","","","","","","","","","","","","","","","","","","","","","","","","","","","","","","","","","","",""
"","text-replacement","8","75948","0.0-8.0","95155418","wem/bandit_party_2","A3OC3VQF3CZ5T0","either","2","12214","","","32","","","","","","","","","","","","","","","","","","","","","","","","","","","","","","","","","","","","","",""
"","text-replacement","9","84103","0.0-9.0","95155418","wem/bandit_party_2","A3OC3VQF3CZ5T0","either","2","8152","","","32","","","","","","","","","","","","","","","","","","","","","","","","","","","","","","","","","","","","","",""
"","text-replacement","10","89306","0.0-10.0","95155418","wem/bandit_party_2","A3OC3VQF3CZ5T0","either","2","5201","","","32","","","","","","","","","","","","","","","","","","","","","","","","","","","","","","","","","","","","","",""
"","text-replacement","11","93210","0.0-11.0","95155418","wem/bandit_party_2","A3OC3VQF3CZ5T0","either","2","3902","","","32","","","","","","","","","","","","","","","","","","","","","","","","","","","","","","","","","","","","","",""
"","bandit","12","101373","0.0-12.0-0.0","95155418","wem/bandit_party_2","A3OC3VQF3CZ5T0","either","2","6654","","","","","","","0","0","1","0","0","","","","","0","","","","0","","","","","","","","","","","","","74","J","0","img/none_selected_demo.jpg","true","0","","",""
"","bandit","13","103722","0.0-13.0-0.0","95155418","wem/bandit_party_2","A3OC3VQF3CZ5T0","either","2","843","","","","","","","0","0","1","0","0","","","","","0","","","","0","","","","","","","","","","","","","75","K","0","img/none_selected_demo.jpg","true","0","","",""
"","text-replacement","14","111852","0.0-14.0","95155418","wem/bandit_party_2","A3OC3VQF3CZ5T0","either","2","8129","","","32","","","","","","","","","","","","","","","","","","","","","","","","","","","","","","","","","","","","","",""
"","text-replacement","15","117864","0.0-15.0","95155418","wem/bandit_party_2","A3OC3VQF3CZ5T0","either","2","6010","","","32","","","","","","","","","","","","","","","","","","","","","","","","","","","","","","","","","","","","","",""
"","text-replacement","16","125206","0.0-16.0","95155418","wem/bandit_party_2","A3OC3VQF3CZ5T0","either","2","7341","","","32","","","","","","","","","","","","","","","","","","","","","","","","","","","","","","","","","","","","","",""
"","text-replacement","17","132432","0.0-17.0","95155418","wem/bandit_party_2","A3OC3VQF3CZ5T0","either","2","7224","","","32","","","","","","","","","","","","","","","","","","","","","","","","","","","","","","","","","","","","","",""
"","bandit","18","134921","0.0-18.0-0.0","95155418","wem/bandit_party_2","A3OC3VQF3CZ5T0","either","2","983","","","","","","","1","0","0","0.8","","0.5","0.5","","","","","","","0.8","0.2","","","","","","","","","","","","74","J","0","img/none_selected_demo.jpg","true","0","80_20_practice","",""
"","bandit","19","137700","0.0-18.0-1.0","95155418","wem/bandit_party_2","A3OC3VQF3CZ5T0","either","2","1274","","","","","","","0","0","1","0.8","","0.5","0.5","","","","","","","0.8","0.2","","","","","","","","","","","","74","J","0","img/none_selected_demo.jpg","true","0","80_20_practice","",""
"","bandit","20","141153","0.0-18.0-2.0","95155418","wem/bandit_party_2","A3OC3VQF3CZ5T0","either","2","1947","","","","","","","0","0","1","0.2","","0.5","0.5","","","","","","","0.8","0.2","","","","","","","","","","","","75","K","1","","true","0","80_20_practice","",""
"","bandit","21","143313","0.0-18.0-3.0","95155418","wem/bandit_party_2","A3OC3VQF3CZ5T0","either","2","653","","","","","","","0","1","0","","0.8","0.5","0.5","","","0.8","0.2","","","","","","","","","","","","","","","","74","J","0","img/none_selected_demo.jpg","true","0","80_20_practice","",""
"","bandit","22","145276","0.0-18.0-4.0","95155418","wem/bandit_party_2","A3OC3VQF3CZ5T0","either","2","456","","","","","","","0","1","0","","0.8","0.5","0.5","","","0.8","0.2","","","","","","","","","","","","","","","","74","J","0","img/none_selected_demo.jpg","true","0","80_20_practice","",""
"","bandit","23","147308","0.0-18.0-5.0","95155418","wem/bandit_party_2","A3OC3VQF3CZ5T0","either","2","528","","","","","","","1","0","0","0.8","","0.5","0.5","","","","","","","0.8","0.2","","","","","","","","","","","","74","J","0","img/none_selected_demo.jpg","true","0","80_20_practice","",""
"","bandit","24","149197","0.0-18.0-6.0","95155418","wem/bandit_party_2","A3OC3VQF3CZ5T0","either","2","384","","","","","","","1","0","0","0.8","","0.5","0.5","","","","","","","0.8","0.2","","","","","","","","","","","","74","J","0","img/none_selected_demo.jpg","true","0","80_20_practice","",""
"","bandit","25","152666","0.0-18.0-7.0","95155418","wem/bandit_party_2","A3OC3VQF3CZ5T0","either","2","1964","","","","","","","1","0","0","0.8","","0.5","0.5","","","","","","","0.8","0.2","","","","","","","","","","","","74","J","0","img/none_selected_demo.jpg","true","0","80_20_practice","",""
"","bandit","26","154720","0.0-18.0-8.0","95155418","wem/bandit_party_2","A3OC3VQF3CZ5T0","either","2","549","","","","","","","0","1","0","","0.8","0.5","0.5","","","0.8","0.2","","","","","","","","","","","","","","","","74","J","0","img/none_selected_demo.jpg","true","0","80_20_practice","",""
"","bandit","27","156566","0.0-18.0-9.0","95155418","wem/bandit_party_2","A3OC3VQF3CZ5T0","either","2","340","","","","","","","1","0","0","0.2","","0.5","0.5","","","","","","","0.8","0.2","","","","","","","","","","","","75","K","1","","true","0","80_20_practice","",""
"","bandit","28","158379","0.0-18.0-10.0","95155418","wem/bandit_party_2","A3OC3VQF3CZ5T0","either","2","308","","","","","","","0","1","0","","0.8","0.5","0.5","","","0.8","0.2","","","","","","","","","","","","","","","","74","J","0","img/none_selected_demo.jpg","true","0","80_20_practice","",""
"","bandit","29","160196","0.0-18.0-11.0","95155418","wem/bandit_party_2","A3OC3VQF3CZ5T0","either","2","312","","","","","","","1","0","0","0.8","","0.5","0.5","","","","","","","0.8","0.2","","","","","","","","","","","","74","J","0","img/none_selected_demo.jpg","true","0","80_20_practice","",""
"","bandit","30","161930","0.0-18.0-12.0","95155418","wem/bandit_party_2","A3OC3VQF3CZ5T0","either","2","229","","","","","","","1","0","0","0.8","","0.5","0.5","","","","","","","0.8","0.2","","","","","","","","","","","","74","J","0","img/none_selected_demo.jpg","true","0","80_20_practice","",""
"","bandit","31","163845","0.0-18.0-13.0","95155418","wem/bandit_party_2","A3OC3VQF3CZ5T0","either","2","409","","","","","","","0","0","1","","0.8","0.5","0.5","","","0.8","0.2","","","","","","","","","","","","","","","","74","J","0","img/none_selected_demo.jpg","true","0","80_20_practice","",""
"","bandit","32","165435","0.0-18.0-14.0","95155418","wem/bandit_party_2","A3OC3VQF3CZ5T0","either","2","85","","","","","","","0","0","1","","0.2","0.5","0.5","","","0.8","0.2","","","","","","","","","","","","","","","","75","K","1","","true","0","80_20_practice","",""
"","bandit","33","167329","0.0-18.0-15.0","95155418","wem/bandit_party_2","A3OC3VQF3CZ5T0","either","2","386","","","","","","","0","1","0","","0.8","0.5","0.5","","","0.8","0.2","","","","","","","","","","","","","","","","74","J","0","img/none_selected_demo.jpg","true","0","80_20_practice","",""
"","bandit","34","169243","0.0-18.0-16.0","95155418","wem/bandit_party_2","A3OC3VQF3CZ5T0","either","2","409","","","","","","","0","1","0","","0.8","0.5","0.5","","","0.8","0.2","","","","","","","","","","","","","","","","74","J","0","img/none_selected_demo.jpg","true","0","80_20_practice","",""
"","bandit","35","170965","0.0-18.0-17.0","95155418","wem/bandit_party_2","A3OC3VQF3CZ5T0","either","2","215","","","","","","","0","1","0","","0.8","0.5","0.5","","","0.8","0.2","","","","","","","","","","","","","","","","74","J","0","img/none_selected_demo.jpg","true","0","80_20_practice","",""
"","bandit","36","173547","0.0-18.0-18.0","95155418","wem/bandit_party_2","A3OC3VQF3CZ5T0","either","2","1075","","","","","","","1","0","0","0.8","","0.5","0.5","","","","","","","0.8","0.2","","","","","","","","","","","","74","J","0","img/none_selected_demo.jpg","true","0","80_20_practice","",""
"","bandit","37","175313","0.0-18.0-19.0","95155418","wem/bandit_party_2","A3OC3VQF3CZ5T0","either","2","259","","","","","","","1","0","0","0.8","","0.5","0.5","","","","","","","0.8","0.2","","","","","","","","","","","","74","J","0","img/none_selected_demo.jpg","true","0","80_20_practice","",""
"","text-replacement","38","179144","0.0-19.0","95155418","wem/bandit_party_2","A3OC3VQF3CZ5T0","either","2","3828","","","32","","","","","","","","","","","","","","","","","","","","","","","","","","","","","","","","","","","","","",""
"","bandit","39","181623","0.0-20.0-0.0","95155418","wem/bandit_party_2","A3OC3VQF3CZ5T0","either","2","973","","","","","","","1","0","0","1","0","","","","","0","1","","","1","0","","","","","","","","","","","","74","J","0","img/none_selected_demo.jpg","true","0","","",""
"","text-replacement","40","188333","0.0-21.0","95155418","wem/bandit_party_2","A3OC3VQF3CZ5T0","either","2","6707","","","32","","","","","","","","","","","","","","","","","","","","","","","","","","","","","","","","","","","","","",""
"","text-replacement","41","192918","0.0-22.0","95155418","wem/bandit_party_2","A3OC3VQF3CZ5T0","either","2","4584","","","32","","","","","","","","","","","","","","","","","","","","","","","","","","","","","","","","","","","","","",""
"","text-replacement","42","195048","0.0-23.0","95155418","wem/bandit_party_2","A3OC3VQF3CZ5T0","either","2","2128","","","32","","","","","","","","","","","","","","","","","","","","","","","","","","","","","","","","","","","","","",""
"","text-replacement","43","199809","0.0-24.0","95155418","wem/bandit_party_2","A3OC3VQF3CZ5T0","either","2","4759","","","32","","","","","","","","","","","","","","","","","","","","","","","","","","","","","","","","","","","","","",""
"","text-replacement","44","204490","0.0-25.0","95155418","wem/bandit_party_2","A3OC3VQF3CZ5T0","either","2","4678","","","32","","","","","","","","","","","","","","","","","","","","","","","","","","","","","","","","","","","","","",""
"","text-replacement","45","207562","0.0-26.0","95155418","wem/bandit_party_2","A3OC3VQF3CZ5T0","either","2","3069","","","32","","","","","","","","","","","","","","","","","","","","","","","","","","","","","","","","","","","","","",""
"","text-replacement","46","211698","0.0-27.0","95155418","wem/bandit_party_2","A3OC3VQF3CZ5T0","either","2","4134","","","32","","","","","","","","","","","","","","","","","","","","","","","","","","","","","","","","","","","","","",""
"","text-replacement","47","214988","0.0-28.0","95155418","wem/bandit_party_2","A3OC3VQF3CZ5T0","either","2","3288","","","32","","","","","","","","","","","","","","","","","","","","","","","","","","","","","","","","","","","","","",""
"","text-replacement","48","220514","0.0-29.0","95155418","wem/bandit_party_2","A3OC3VQF3CZ5T0","either","2","5523","","","32","","","","","","","","","","","","","","","","","","","","","","","","","","","","","","","","","","","","","",""
"","text-replacement","49","222619","0.0-30.0","95155418","wem/bandit_party_2","A3OC3VQF3CZ5T0","either","2","2103","","","32","","","","","","","","","","","","","","","","","","","","","","","","","","","","","","","","","","","","","",""
"","text-replacement","50","233124","0.0-31.0","95155418","wem/bandit_party_2","A3OC3VQF3CZ5T0","either","2","10502","","","32","","","","","","","","","","","","","","","","","","","","","","","","","","","","","","","","","","","","","",""
"","bandit","51","236165","0.0-32.0-0.0","95155418","wem/bandit_party_2","A3OC3VQF3CZ5T0","either","2","1535","","","","","","","1","0","0","0.8","","0.5","0.5","0.5","0.5","","","","","0.8","0.2","0.6","0.2","","","","","","","","","","72","H","0","img/none_selected.jpg","true","0","full_practice","",""
"","bandit","52","238634","0.0-32.0-1.0","95155418","wem/bandit_party_2","A3OC3VQF3CZ5T0","either","2","962","","","","","","","0","0","1","","0.8","0.5","0.5","0.5","0.5","0.8","0.2","0.6","0.2","","","","","","","","","","","","","","72","H","0","img/none_selected.jpg","true","0","full_practice","",""
"","bandit","53","240465","0.0-32.0-2.0","95155418","wem/bandit_party_2","A3OC3VQF3CZ5T0","either","2","326","","","","","","","0","0","1","0.2","","0.5","0.5","0.5","0.5","","","","","0.8","0.2","0.6","0.2","","","","","","","","","","74","J","1","","true","0","full_practice","",""
"","bandit","54","242384","0.0-32.0-3.0","95155418","wem/bandit_party_2","A3OC3VQF3CZ5T0","either","2","413","","","","","","","0","0","1","","0.2","0.5","0.5","0.5","0.5","0.8","0.2","0.6","0.2","","","","","","","","","","","","","","74","J","1","","true","0","full_practice","",""
"","bandit","55","244160","0.0-32.0-4.0","95155418","wem/bandit_party_2","A3OC3VQF3CZ5T0","either","2","270","","","","","","","0","0","1","","0.6","0.5","0.5","0.5","0.5","0.8","0.2","0.6","0.2","","","","","","","","","","","","","","75","K","2","","true","0","full_practice","",""
"","bandit","56","246263","0.0-32.0-5.0","95155418","wem/bandit_party_2","A3OC3VQF3CZ5T0","either","2","594","","","","","","","0","0","1","","0.2","0.5","0.5","0.5","0.5","0.8","0.2","0.6","0.2","","","","","","","","","","","","","","76","L","3","","true","0","full_practice","",""
"","bandit","57","247962","0.0-32.0-6.0","95155418","wem/bandit_party_2","A3OC3VQF3CZ5T0","either","2","192","","","","","","","0","0","1","","0.8","0.5","0.5","0.5","0.5","0.8","0.2","0.6","0.2","","","","","","","","","","","","","","72","H","0","img/none_selected.jpg","true","0","full_practice","",""
"","bandit","58","250021","0.0-32.0-7.0","95155418","wem/bandit_party_2","A3OC3VQF3CZ5T0","either","2","553","","","","","","","0","1","0","","0.8","0.5","0.5","0.5","0.5","0.8","0.2","0.6","0.2","","","","","","","","","","","","","","72","H","0","img/none_selected.jpg","true","0","full_practice","",""
"","bandit","59","252131","0.0-32.0-8.0","95155418","wem/bandit_party_2","A3OC3VQF3CZ5T0","either","2","603","","","","","","","0","0","1","","0.2","0.5","0.5","0.5","0.5","0.8","0.2","0.6","0.2","","","","","","","","","","","","","","74","J","1","","true","0","full_practice","",""
"","bandit","60","253979","0.0-32.0-9.0","95155418","wem/bandit_party_2","A3OC3VQF3CZ5T0","either","2","343","","","","","","","0","0","1","0.2","","0.5","0.5","0.5","0.5","","","","","0.8","0.2","0.6","0.2","","","","","","","","","","74","J","1","","true","0","full_practice","",""
"","bandit","61","256004","0.0-32.0-10.0","95155418","wem/bandit_party_2","A3OC3VQF3CZ5T0","either","2","520","","","","","","","1","0","0","0.6","","0.5","0.5","0.5","0.5","","","","","0.8","0.2","0.6","0.2","","","","","","","","","","75","K","2","","true","0","full_practice","",""
"","bandit","62","257945","0.0-32.0-11.0","95155418","wem/bandit_party_2","A3OC3VQF3CZ5T0","either","2","433","","","","","","","0","1","0","","0.6","0.5","0.5","0.5","0.5","0.8","0.2","0.6","0.2","","","","","","","","","","","","","","75","K","2","","true","0","full_practice","",""
"","bandit","63","259726","0.0-32.0-12.0","95155418","wem/bandit_party_2","A3OC3VQF3CZ5T0","either","2","273","","","","","","","0","1","0","","0.6","0.5","0.5","0.5","0.5","0.8","0.2","0.6","0.2","","","","","","","","","","","","","","75","K","2","","true","0","full_practice","",""
"","bandit","64","261498","0.0-32.0-13.0","95155418","wem/bandit_party_2","A3OC3VQF3CZ5T0","either","2","267","","","","","","","0","1","0","","0.6","0.5","0.5","0.5","0.5","0.8","0.2","0.6","0.2","","","","","","","","","","","","","","75","K","2","","true","0","full_practice","",""
"","bandit","65","263271","0.0-32.0-14.0","95155418","wem/bandit_party_2","A3OC3VQF3CZ5T0","either","2","266","","","","","","","0","0","1","","0.6","0.5","0.5","0.5","0.5","0.8","0.2","0.6","0.2","","","","","","","","","","","","","","75","K","2","","true","0","full_practice","",""
"","bandit","66","265832","0.0-32.0-15.0","95155418","wem/bandit_party_2","A3OC3VQF3CZ5T0","either","2","1053","","","","","","","0","1","0","","0.6","0.5","0.5","0.5","0.5","0.8","0.2","0.6","0.2","","","","","","","","","","","","","","75","K","2","","true","0","full_practice","",""
"","bandit","67","267591","0.0-32.0-16.0","95155418","wem/bandit_party_2","A3OC3VQF3CZ5T0","either","2","252","","","","","","","0","0","1","0.6","","0.5","0.5","0.5","0.5","","","","","0.8","0.2","0.6","0.2","","","","","","","","","","75","K","2","","true","0","full_practice","",""
"","bandit","68","269677","0.0-32.0-17.0","95155418","wem/bandit_party_2","A3OC3VQF3CZ5T0","either","2","579","","","","","","","0","0","1","","0.2","0.5","0.5","0.5","0.5","0.8","0.2","0.6","0.2","","","","","","","","","","","","","","76","L","3","","true","0","full_practice","",""
"","bandit","69","272156","0.0-32.0-18.0","95155418","wem/bandit_party_2","A3OC3VQF3CZ5T0","either","2","969","","","","","","","0","1","0","","0.8","0.5","0.5","0.5","0.5","0.8","0.2","0.6","0.2","","","","","","","","","","","","","","72","H","0","img/none_selected.jpg","true","0","full_practice","",""
"","bandit","70","274062","0.0-32.0-19.0","95155418","wem/bandit_party_2","A3OC3VQF3CZ5T0","either","2","398","","","","","","","1","0","0","0.8","","0.5","0.5","0.5","0.5","","","","","0.8","0.2","0.6","0.2","","","","","","","","","","72","H","0","img/none_selected.jpg","true","0","full_practice","",""
"","text","71","279027","0.0-33.0","95155418","wem/bandit_party_2","A3OC3VQF3CZ5T0","either","2","4957","","","32","","","","","","","","","","","","","","","","","","","","","","","","","","","","","","","","","","","","","",""
"","text-replacement","72","291563","0.0-34.0","95155418","wem/bandit_party_2","A3OC3VQF3CZ5T0","either","2","11532","","","32","","","","","","","","","","","","","","","","","","","","","","","","","","","","","","","","","","","","","",""
"","text-replacement","73","302787","0.0-35.0","95155418","wem/bandit_party_2","A3OC3VQF3CZ5T0","either","2","11223","","","32","","","","","","","","","","","","","","","","","","","","","","","","","","","","","","","","","","","","","",""
"","text-replacement","74","308259","0.0-36.0","95155418","wem/bandit_party_2","A3OC3VQF3CZ5T0","either","2","5469","","","32","","","","","","","","","","","","","","","","","","","","","","","","","","","","","","","","","","","","","",""
"","text-replacement","75","314782","0.0-37.0","95155418","wem/bandit_party_2","A3OC3VQF3CZ5T0","either","2","6519","","","32","","","","","","","","","","","","","","","","","","","","","","","","","","","","","","","","","","","","","",""
"","text-replacement","76","321561","0.0-38.0","95155418","wem/bandit_party_2","A3OC3VQF3CZ5T0","either","2","6776","","","32","","","","","","","","","","","","","","","","","","","","","","","","","","","","","","","","","","","","","",""
"","survey-multi-choice-replacement","77","326775","0.0-39.0-0.0","95155418","wem/bandit_party_2","A3OC3VQF3CZ5T0","either","2","5206","","","","","","","","","","","","","","","","","","","","","","","","Money will be added to the pool for <span style='color:red;'>REPUBLICANS</span>","","","","","","","attn_check","","","","","","","","","0",""
"","survey-multi-choice-replacement","78","330486","0.0-40.0-0.0","95155418","wem/bandit_party_2","A3OC3VQF3CZ5T0","either","2","2701","","","","","","","","","","","","","","","","","","","","","","","","Money will be subtracted from the pool for <span style='color:blue;'>DEMOCRATS</span>","","","","","","","attn_check","","","","","","","","","1",""
"","instructions","79","333838","0.0-40.0-1.0-0.0","95155418","wem/bandit_party_2","A3OC3VQF3CZ5T0","either","2","2349","","","","","","","","","","","","","","","","","","","","","","","","","","","","","","","","","","","","","","","","","[{""page_index"":0,""viewing_time"":2348}]"
"","survey-multi-choice-replacement","80","341563","0.0-40.1-0.1","95155418","wem/bandit_party_2","A3OC3VQF3CZ5T0","either","2","6714","","","","","","","","","","","","","","","","","","","","","","","","Equal amounts of money will be added to the pool for <span style='color:red;'>REPUBLICANS</span> and subtracted from the pool for <span style='color:blue;'>DEMOCRATS</span>","","","","","","","attn_check","","","","","","","","","2",""
"","survey-multi-choice-replacement","81","347226","0.0-41.0-0.0","95155418","wem/bandit_party_2","A3OC3VQF3CZ5T0","either","2","4652","","","","","","","","","","","","","","","","","","","","","","","","No money will be added to either pool","","","","","","","attn_check","","","","","","","","","3",""
"","bandit","82","352723","0.0-42.0-0.0","95155418","wem/bandit_party_2","A3OC3VQF3CZ5T0","either","2","2987","","","","","","","1","0","0","0.4841938304","","0.8","0.2","0.4","0.6","","","","","0.4841938304","0.9925337928","0.7092854079","0.7961415707","","","","","","","","","","72","H","0","img/none_selected.jpg","","1","main_expt","",""
"","bandit","83","354900","0.0-43.0-0.0","95155418","wem/bandit_party_2","A3OC3VQF3CZ5T0","either","2","671","","","","","","","1","0","0","0.5300888233","","0.8","0.2","0.4","0.6","","","","","0.5300888233","0.9909612399","0.7343230146","0.7739630809","","","","","","","","","","72","H","0","img/none_selected.jpg","","2","main_expt","",""
"","bandit","84","357100","0.0-44.0-0.0","95155418","wem/bandit_party_2","A3OC3VQF3CZ5T0","either","2","693","","","","","","","0","0","1","0.4747636274","","0.8","0.2","0.4","0.6","","","","","0.4747636274","0.9875934203","0.7616266478","0.807852523","","","","","","","","","","72","H","0","img/none_selected.jpg","","3","main_expt","",""
"","bandit","85","362848","0.0-45.0-0.0","95155418","wem/bandit_party_2","A3OC3VQF3CZ5T0","either","2","4242","","","","","","","0","1","0","","0.9782241123","0.8","0.2","0.4","0.6","0.4841015375","0.9782241123","0.7555889459","0.7922386472","","","","","","","","","","","","","","74","J","1","","","4","main_expt","",""
"","bandit","86","364944","0.0-46.0-0.0","95155418","wem/bandit_party_2","A3OC3VQF3CZ5T0","either","2","589","","","","","","","0","1","0","","0.9756627961","0.8","0.2","0.4","0.6","0.5545204825","0.9756627961","0.733520678","0.865094385","","","","","","","","","","","","","","74","J","1","","","5","main_expt","",""
"","bandit","87","366902","0.0-47.0-0.0","95155418","wem/bandit_party_2","A3OC3VQF3CZ5T0","either","2","452","","","","","","","0","1","0","","0.967089612","0.8","0.2","0.4","0.6","0.6032406034","0.967089612","0.6705264102","0.800956518","","","","","","","","","","","","","","74","J","1","","","6","main_expt","",""
"","bandit","88","368722","0.0-48.0-0.0","95155418","wem/bandit_party_2","A3OC3VQF3CZ5T0","either","2","311","","","","","","","0","1","0","","0.9581374084","0.8","0.2","0.4","0.6","0.6629125932","0.9581374084","0.6395389268","0.826484282","","","","","","","","","","","","","","74","J","1","","","7","main_expt","",""
"","bandit","89","370614","0.0-49.0-0.0","95155418","wem/bandit_party_2","A3OC3VQF3CZ5T0","either","2","386","","","","","","","0","1","0","","0.9470057872","0.8","0.2","0.4","0.6","0.6179372523","0.9470057872","0.6463283336","0.8721258401","","","","","","","","","","","","","","74","J","1","","","8","main_expt","",""
"","bandit","90","372541","0.0-50.0-0.0","95155418","wem/bandit_party_2","A3OC3VQF3CZ5T0","either","2","420","","","","","","","0","0","1","","0.9776699295","0.8","0.2","0.4","0.6","0.7126464358","0.9776699295","0.5257156782","0.9123847657","","","","","","","","","","","","","","74","J","1","","","9","main_expt","",""
"","bandit","91","374125","0.0-51.0-0.0","95155418","wem/bandit_party_2","A3OC3VQF3CZ5T0","either","2","78","","","","","","","0","0","1","0.4763364632","","0.8","0.2","0.4","0.6","","","","","0.7356985298","0.9728878591","0.4763364632","0.8996742502","","","","","","","","","","75","K","2","","","10","main_expt","",""
"","bandit","92","376340","0.0-52.0-0.0","95155418","wem/bandit_party_2","A3OC3VQF3CZ5T0","either","2","707","","","","","","","1","0","0","0.768711937","","0.8","0.2","0.4","0.6","","","","","0.768711937","0.9593139104","0.4284616273","0.9131723876","","","","","","","","","","72","H","0","img/none_selected.jpg","","11","main_expt","",""
"","bandit","93","378071","0.0-53.0-0.0","95155418","wem/bandit_party_2","A3OC3VQF3CZ5T0","either","2","225","","","","","","","1","0","0","0.775032537","","0.8","0.2","0.4","0.6","","","","","0.775032537","0.9498917819","0.3846657661","0.8766857583","","","","","","","","","","72","H","0","img/none_selected.jpg","","12","main_expt","",""
"","bandit","94","379864","0.0-54.0-0.0","95155418","wem/bandit_party_2","A3OC3VQF3CZ5T0","either","2","286","","","","","","","0","1","0","","0.8005481332","0.8","0.2","0.4","0.6","0.8005481332","0.9541602679","0.4534267517","0.8395211377","","","","","","","","","","","","","","72","H","0","img/none_selected.jpg","","13","main_expt","",""
"","bandit","95","381778","0.0-55.0-0.0","95155418","wem/bandit_party_2","A3OC3VQF3CZ5T0","either","2","407","","","","","","","1","0","0","0.8437703121","","0.8","0.2","0.4","0.6","","","","","0.8437703121","0.9457654821","0.5781166702","0.8716273459","","","","","","","","","","72","H","0","img/none_selected.jpg","","14","main_expt","",""
"","bandit","96","383509","0.0-56.0-0.0","95155418","wem/bandit_party_2","A3OC3VQF3CZ5T0","either","2","224","","","","","","","1","0","0","0.7878475566","","0.8","0.2","0.4","0.6","","","","","0.7878475566","0.961431504","0.6683268695","0.8884181174","","","","","","","","","","72","H","0","img/none_selected.jpg","","15","main_expt","",""
"","bandit","97","385316","0.0-57.0-0.0","95155418","wem/bandit_party_2","A3OC3VQF3CZ5T0","either","2","299","","","","","","","1","0","0","0.7873795395","","0.8","0.2","0.4","0.6","","","","","0.7873795395","0.9614480804","0.6948649322","0.9144873871","","","","","","","","","","72","H","0","img/none_selected.jpg","","16","main_expt","",""
"","bandit","98","387419","0.0-58.0-0.0","95155418","wem/bandit_party_2","A3OC3VQF3CZ5T0","either","2","595","","","","","","","1","0","0","0.8084550093","","0.8","0.2","0.4","0.6","","","","","0.8084550093","0.981184269","0.7674725463","0.915766025","","","","","","","","","","72","H","0","img/none_selected.jpg","","17","main_expt","",""
"","bandit","99","389293","0.0-59.0-0.0","95155418","wem/bandit_party_2","A3OC3VQF3CZ5T0","either","2","367","","","","","","","0","1","0","","0.8436933745","0.8","0.2","0.4","0.6","0.8436933745","0.9861919244","0.7706733977","0.9357816117","","","","","","","","","","","","","","72","H","0","img/none_selected.jpg","","18","main_expt","",""
"","bandit","100","391054","0.0-60.0-0.0","95155418","wem/bandit_party_2","A3OC3VQF3CZ5T0","either","2","256","","","","","","","0","0","1","0.8059530903","","0.8","0.2","0.4","0.6","","","","","0.8059530903","0.986789567","0.7396491891","0.9482019282","","","","","","","","","","72","H","0","img/none_selected.jpg","","19","main_expt","",""
"","bandit","101","393919","0.0-61.0-0.0","95155418","wem/bandit_party_2","A3OC3VQF3CZ5T0","either","2","1357","","","","","","","0","1","0","","0.6712916173","0.8","0.2","0.4","0.6","0.7839513496","0.986183881","0.6712916173","0.9433726768","","","","","","","","","","","","","","75","K","2","","","20","main_expt","",""
"","bandit","102","395703","0.0-62.0-0.0","95155418","wem/bandit_party_2","A3OC3VQF3CZ5T0","either","2","277","","","","","","","0","1","0","","0.6728887443","0.8","0.2","0.4","0.6","0.7841815244","0.9887099493","0.6728887443","0.9488284628","","","","","","","","","","","","","","75","K","2","","","21","main_expt","",""
"","bandit","103","397570","0.0-63.0-0.0","95155418","wem/bandit_party_2","A3OC3VQF3CZ5T0","either","2","362","","","","","","","0","0","1","","0.7838502077","0.8","0.2","0.4","0.6","0.8256278583","0.992558567","0.7838502077","0.9500515088","","","","","","","","","","","","","","75","K","2","","","22","main_expt","",""
"","bandit","104","399694","0.0-64.0-0.0","95155418","wem/bandit_party_2","A3OC3VQF3CZ5T0","either","2","618","","","","","","","1","0","0","0.9645760881","","0.8","0.2","0.4","0.6","","","","","0.7043778873","0.9906074595","0.8711917965","0.9645760881","","","","","","","","","","76","L","3","","","23","main_expt","",""
"","bandit","105","401468","0.0-65.0-0.0","95155418","wem/bandit_party_2","A3OC3VQF3CZ5T0","either","2","266","","","","","","","1","0","0","0.946785539","","0.8","0.2","0.4","0.6","","","","","0.7662705475","0.9828703082","0.861124964","0.946785539","","","","","","","","","","76","L","3","","","24","main_expt","",""
"","bandit","106","403269","0.0-66.0-0.0","95155418","wem/bandit_party_2","A3OC3VQF3CZ5T0","either","2","294","","","","","","","1","0","0","0.9229473608","","0.8","0.2","0.4","0.6","","","","","0.6915147264","0.984618899","0.8551403996","0.9229473608","","","","","","","","","","76","L","3","","","25","main_expt","",""
"","bandit","107","405083","0.0-67.0-0.0","95155418","wem/bandit_party_2","A3OC3VQF3CZ5T0","either","2","307","","","","","","","1","0","0","0.8729820127","","0.8","0.2","0.4","0.6","","","","","0.6844606422","0.9780938917","0.8959771014","0.8729820127","","","","","","","","","","76","L","3","","","26","main_expt","",""
"","bandit","108","407148","0.0-68.0-0.0","95155418","wem/bandit_party_2","A3OC3VQF3CZ5T0","either","2","561","","","","","","","0","0","1","0.859067388","","0.8","0.2","0.4","0.6","","","","","0.7953701942","0.9634866904","0.8786292531","0.859067388","","","","","","","","","","76","L","3","","","27","main_expt","",""
"","bandit","109","409046","0.0-69.0-0.0","95155418","wem/bandit_party_2","A3OC3VQF3CZ5T0","either","2","389","","","","","","","1","0","0","0.622657036","","0.8","0.2","0.4","0.6","","","","","0.622657036","0.946494378","0.8920593834","0.836267867","","","","","","","","","","72","H","0","img/none_selected.jpg","","28","main_expt","",""
"","bandit","110","410818","0.0-70.0-0.0","95155418","wem/bandit_party_2","A3OC3VQF3CZ5T0","either","2","264","","","","","","","1","0","0","0.5757463716","","0.8","0.2","0.4","0.6","","","","","0.5757463716","0.9338647731","0.8234517222","0.7158546556","","","","","","","","","","72","H","0","img/none_selected.jpg","","29","main_expt","",""
"","bandit","111","413086","0.0-71.0-0.0","95155418","wem/bandit_party_2","A3OC3VQF3CZ5T0","either","2","761","","","","","","","1","0","0","0.6048158844","","0.8","0.2","0.4","0.6","","","","","0.6048158844","0.9354801528","0.7963444676","0.7262950886","","","","","","","","","","72","H","0","img/none_selected.jpg","","30","main_expt","",""
"","bandit","112","414949","0.0-72.0-0.0","95155418","wem/bandit_party_2","A3OC3VQF3CZ5T0","either","2","355","","","","","","","1","0","0","0.4831208743","","0.8","0.2","0.4","0.6","","","","","0.4831208743","0.9323861487","0.6847131082","0.7049485024","","","","","","","","","","72","H","0","img/none_selected.jpg","","31","main_expt","",""
"","bandit","113","416831","0.0-73.0-0.0","95155418","wem/bandit_party_2","A3OC3VQF3CZ5T0","either","2","373","","","","","","","1","0","0","0.4413454117","","0.8","0.2","0.4","0.6","","","","","0.4413454117","0.9159531952","0.7745616343","0.6294605358","","","","","","","","","","72","H","0","img/none_selected.jpg","","32","main_expt","",""
"","bandit","114","418749","0.0-74.0-0.0","95155418","wem/bandit_party_2","A3OC3VQF3CZ5T0","either","2","412","","","","","","","1","0","0","0.589686364","","0.8","0.2","0.4","0.6","","","","","0.589686364","0.9501333659","0.8111568365","0.7097184707","","","","","","","","","","72","H","0","img/none_selected.jpg","","33","main_expt","",""
"","bandit","115","420698","0.0-75.0-0.0","95155418","wem/bandit_party_2","A3OC3VQF3CZ5T0","either","2","442","","","","","","","1","0","0","0.5789977489","","0.8","0.2","0.4","0.6","","","","","0.5789977489","0.9485118263","0.7291364049","0.6324728327","","","","","","","","","","72","H","0","img/none_selected.jpg","","34","main_expt","",""
"","bandit","116","423086","0.0-76.0-0.0","95155418","wem/bandit_party_2","A3OC3VQF3CZ5T0","either","2","881","","","","","","","1","0","0","0.5605822786","","0.8","0.2","0.4","0.6","","","","","0.5605822786","0.959491173","0.7920219322","0.6809104991","","","","","","","","","","72","H","0","img/none_selected.jpg","","35","main_expt","",""
"","bandit","117","424954","0.0-77.0-0.0","95155418","wem/bandit_party_2","A3OC3VQF3CZ5T0","either","2","361","","","","","","","1","0","0","0.3330948712","","0.8","0.2","0.4","0.6","","","","","0.3330948712","0.9523687656","0.7889809596","0.5745256001","","","","","","","","","","72","H","0","img/none_selected.jpg","","36","main_expt","",""
"","bandit","118","427097","0.0-78.0-0.0","95155418","wem/bandit_party_2","A3OC3VQF3CZ5T0","either","2","637","","","","","","","0","0","1","","0.2430176499","0.8","0.2","0.4","0.6","0.2430176499","0.9504344127","0.8060385269","0.6249275122","","","","","","","","","","","","","","72","H","0","img/none_selected.jpg","","37","main_expt","",""
"","bandit","119","429821","0.0-79.0-0.0","95155418","wem/bandit_party_2","A3OC3VQF3CZ5T0","either","2","1217","","","","","","","1","0","0","0.9321408283","","0.8","0.2","0.4","0.6","","","","","0.3106083343","0.9321408283","0.7188782676","0.5582777804","","","","","","","","","","74","J","1","","","38","main_expt","",""
"","bandit","120","431770","0.0-80.0-0.0","95155418","wem/bandit_party_2","A3OC3VQF3CZ5T0","either","2","442","","","","","","","0","1","0","","0.9135525369","0.8","0.2","0.4","0.6","0.3239447463","0.9135525369","0.7387945131","0.6619895395","","","","","","","","","","","","","","74","J","1","","","39","main_expt","",""
"","bandit","121","433804","0.0-81.0-0.0","95155418","wem/bandit_party_2","A3OC3VQF3CZ5T0","either","2","528","","","","","","","0","1","0","","0.8840916364","0.8","0.2","0.4","0.6","0.2946631509","0.8840916364","0.7478035428","0.6522152691","","","","","","","","","","","","","","74","J","1","","","40","main_expt","",""
"","bandit","122","435766","0.0-82.0-0.0","95155418","wem/bandit_party_2","A3OC3VQF3CZ5T0","either","2","452","","","","","","","0","1","0","","0.8747037504","0.8","0.2","0.4","0.6","0.193597671","0.8747037504","0.7802386085","0.6714070371","","","","","","","","","","","","","","74","J","1","","","41","main_expt","",""
"","bandit","123","437601","0.0-83.0-0.0","95155418","wem/bandit_party_2","A3OC3VQF3CZ5T0","either","2","328","","","","","","","1","0","0","0.826315498","","0.8","0.2","0.4","0.6","","","","","0.1834529884","0.826315498","0.7994277013","0.6390104416","","","","","","","","","","74","J","1","","","42","main_expt","",""
"","bandit","124","439606","0.0-84.0-0.0","95155418","wem/bandit_party_2","A3OC3VQF3CZ5T0","either","2","497","","","","","","","0","1","0","","0.7681371561","0.8","0.2","0.4","0.6","0.1558663495","0.7681371561","0.8718069658","0.6318841448","","","","","","","","","","","","","","74","J","1","","","43","main_expt","",""
"","bandit","125","441662","0.0-85.0-0.0","95155418","wem/bandit_party_2","A3OC3VQF3CZ5T0","either","2","547","","","","","","","0","0","1","","0.7584360225","0.8","0.2","0.4","0.6","0.1573065196","0.7584360225","0.7725207311","0.5708139437","","","","","","","","","","","","","","74","J","1","","","44","main_expt","",""
"","bandit","126","443318","0.0-86.0-0.0","95155418","wem/bandit_party_2","A3OC3VQF3CZ5T0","either","2","149","","","","","","","1","0","0","0.8399140445","","0.8","0.2","0.4","0.6","","","","","0.1743203636","0.816959585","0.8399140445","0.5703812278","","","","","","","","","","75","K","2","","","45","main_expt","",""
"","bandit","127","445218","0.0-87.0-0.0","95155418","wem/bandit_party_2","A3OC3VQF3CZ5T0","either","2","392","","","","","","","0","1","0","","0.7830678696","0.8","0.2","0.4","0.6","0.1234040722","0.7571269921","0.7830678696","0.4520700595","","","","","","","","","","","","","","75","K","2","","","46","main_expt","",""
"","bandit","128","447036","0.0-88.0-0.0","95155418","wem/bandit_party_2","A3OC3VQF3CZ5T0","either","2","309","","","","","","","1","0","0","0.8255209912","","0.8","0.2","0.4","0.6","","","","","0.1592846429","0.7086567283","0.8255209912","0.4953600952","","","","","","","","","","75","K","2","","","47","main_expt","",""
"","bandit","129","448817","0.0-89.0-0.0","95155418","wem/bandit_party_2","A3OC3VQF3CZ5T0","either","2","273","","","","","","","0","0","1","","0.7728754614","0.8","0.2","0.4","0.6","0.1880090658","0.6428227569","0.7728754614","0.4912921637","","","","","","","","","","","","","","75","K","2","","","48","main_expt","",""
"","bandit","130","450636","0.0-90.0-0.0","95155418","wem/bandit_party_2","A3OC3VQF3CZ5T0","either","2","312","","","","","","","1","0","0","0.4694413912","","0.8","0.2","0.4","0.6","","","","","0.3190576765","0.7004196772","0.8607162984","0.4694413912","","","","","","","","","","76","L","3","","","49","main_expt","",""
"","bandit","131","452370","0.0-91.0-0.0","95155418","wem/bandit_party_2","A3OC3VQF3CZ5T0","either","2","229","","","","","","","0","0","1","0.5835687148","","0.8","0.2","0.4","0.6","","","","","0.277770718","0.6418514465","0.8526113732","0.5835687148","","","","","","","","","","76","L","3","","","50","main_expt","",""
"","bandit","132","454394","0.0-92.0-0.0","95155418","wem/bandit_party_2","A3OC3VQF3CZ5T0","either","2","517","","","","","","","0","0","1","0.3304163056","","0.8","0.2","0.4","0.6","","","","","0.3304163056","0.6322169777","0.8630835666","0.581499138","","","","","","","","","","72","H","0","img/none_selected.jpg","","51","main_expt","",""
"","bandit","133","456226","0.0-93.0-0.0","95155418","wem/bandit_party_2","A3OC3VQF3CZ5T0","either","2","323","","","","","","","0","1","0","","0.8689990829","0.8","0.2","0.4","0.6","0.3074301744","0.6160259873","0.8689990829","0.6521379128","","","","","","","","","","","","","","75","K","2","","","52","main_expt","",""
"","bandit","134","457973","0.0-94.0-0.0","95155418","wem/bandit_party_2","A3OC3VQF3CZ5T0","either","2","239","","","","","","","1","0","0","0.8829627288","","0.8","0.2","0.4","0.6","","","","","0.3292402402","0.6635838846","0.8829627288","0.5743957808","","","","","","","","","","75","K","2","","","53","main_expt","",""
"","bandit","135","459754","0.0-95.0-0.0","95155418","wem/bandit_party_2","A3OC3VQF3CZ5T0","either","2","272","","","","","","","0","1","0","","0.8577096669","0.8","0.2","0.4","0.6","0.3701383524","0.7334380463","0.8577096669","0.4765250731","","","","","","","","","","","","","","75","K","2","","","54","main_expt","",""
"","bandit","136","461468","0.0-96.0-0.0","95155418","wem/bandit_party_2","A3OC3VQF3CZ5T0","either","2","206","","","","","","","0","0","1","0.7951355038","","0.8","0.2","0.4","0.6","","","","","0.4023440482","0.6625049704","0.7951355038","0.472038817","","","","","","","","","","75","K","2","","","55","main_expt","",""
"","bandit","137","463548","0.0-97.0-0.0","95155418","wem/bandit_party_2","A3OC3VQF3CZ5T0","either","2","572","","","","","","","0","1","0","","0.6244126183","0.8","0.2","0.4","0.6","0.3320470731","0.6244126183","0.7832403428","0.6060805283","","","","","","","","","","","","","","74","J","1","","","56","main_expt","",""
"","bandit","138","465181","0.0-98.0-0.0","95155418","wem/bandit_party_2","A3OC3VQF3CZ5T0","either","2","123","","","","","","","1","0","0","0.693445159","","0.8","0.2","0.4","0.6","","","","","0.3398704556","0.693445159","0.7165346004","0.5733746242","","","","","","","","","","74","J","1","","","57","main_expt","",""
"","bandit","139","466934","0.0-99.0-0.0","95155418","wem/bandit_party_2","A3OC3VQF3CZ5T0","either","2","244","","","","","","","0","0","1","","0.6603141298","0.8","0.2","0.4","0.6","0.3171476707","0.6603141298","0.7840704931","0.5268086549","","","","","","","","","","","","","","74","J","1","","","58","main_expt","",""
"","bandit","140","468755","0.0-100.0-0.0","95155418","wem/bandit_party_2","A3OC3VQF3CZ5T0","either","2","313","","","","","","","1","0","0","0.1868584885","","0.8","0.2","0.4","0.6","","","","","0.1868584885","0.6435133917","0.7166558068","0.5298916697","","","","","","","","","","72","H","0","img/none_selected.jpg","","59","main_expt","",""
"","bandit","141","470472","0.0-101.0-0.0","95155418","wem/bandit_party_2","A3OC3VQF3CZ5T0","either","2","205","","","","","","","0","0","1","","0.2163153633","0.8","0.2","0.4","0.6","0.2163153633","0.6720075741","0.6505055492","0.5547432704","","","","","","","","","","","","","","72","H","0","img/none_selected.jpg","","60","main_expt","",""
"","bandit","142","472199","0.0-102.0-0.0","95155418","wem/bandit_party_2","A3OC3VQF3CZ5T0","either","2","219","","","","","","","0","0","1","0.5407031957","","0.8","0.2","0.4","0.6","","","","","0.2086512551","0.6703611074","0.6465946667","0.5407031957","","","","","","","","","","76","L","3","","","61","main_expt","",""
"","bandit","143","473828","0.0-103.0-0.0","95155418","wem/bandit_party_2","A3OC3VQF3CZ5T0","either","2","121","","","","","","","1","0","0","0.709990362","","0.8","0.2","0.4","0.6","","","","","0.2250062338","0.64477312","0.709990362","0.6993449034","","","","","","","","","","75","K","2","","","62","main_expt","",""
"","bandit","144","475558","0.0-104.0-0.0","95155418","wem/bandit_party_2","A3OC3VQF3CZ5T0","either","2","222","","","","","","","0","1","0","","0.7542168012","0.8","0.2","0.4","0.6","0.2739380208","0.509049177","0.7542168012","0.6342967703","","","","","","","","","","","","","","75","K","2","","","63","main_expt","",""
"","bandit","145","477345","0.0-105.0-0.0","95155418","wem/bandit_party_2","A3OC3VQF3CZ5T0","either","2","279","","","","","","","0","1","0","","0.7660604158","0.8","0.2","0.4","0.6","0.3449536465","0.5535424332","0.7660604158","0.5961490325","","","","","","","","","","","","","","75","K","2","","","64","main_expt","",""
"","bandit","146","479074","0.0-106.0-0.0","95155418","wem/bandit_party_2","A3OC3VQF3CZ5T0","either","2","222","","","","","","","0","1","0","","0.7572602099","0.8","0.2","0.4","0.6","0.34640195","0.6608621899","0.7572602099","0.5771190674","","","","","","","","","","","","","","75","K","2","","","65","main_expt","",""
"","bandit","147","480830","0.0-107.0-0.0","95155418","wem/bandit_party_2","A3OC3VQF3CZ5T0","either","2","248","","","","","","","0","1","0","","0.686926195","0.8","0.2","0.4","0.6","0.5266288285","0.6535341977","0.686926195","0.4765921407","","","","","","","","","","","","","","75","K","2","","","66","main_expt","",""
"","bandit","148","482601","0.0-108.0-0.0","95155418","wem/bandit_party_2","A3OC3VQF3CZ5T0","either","2","262","","","","","","","0","1","0","","0.7334195653","0.8","0.2","0.4","0.6","0.5588671697","0.6592628399","0.7334195653","0.5714361875","","","","","","","","","","","","","","75","K","2","","","67","main_expt","",""
"","bandit","149","484390","0.0-109.0-0.0","95155418","wem/bandit_party_2","A3OC3VQF3CZ5T0","either","2","280","","","","","","","0","1","0","","0.6114245881","0.8","0.2","0.4","0.6","0.6097536784","0.6735013879","0.6114245881","0.6231829193","","","","","","","","","","","","","","75","K","2","","","68","main_expt","",""
"","bandit","150","486173","0.0-110.0-0.0","95155418","wem/bandit_party_2","A3OC3VQF3CZ5T0","either","2","274","","","","","","","1","0","0","0.6460921668","","0.8","0.2","0.4","0.6","","","","","0.533457584","0.7209687993","0.6460921668","0.5130256365","","","","","","","","","","75","K","2","","","69","main_expt","",""
"","bandit","151","488352","0.0-111.0-0.0","95155418","wem/bandit_party_2","A3OC3VQF3CZ5T0","either","2","670","","","","","","","0","0","1","0.6700702736","","0.8","0.2","0.4","0.6","","","","","0.4124750721","0.690528825","0.6700702736","0.5167166","","","","","","","","","","75","K","2","","","70","main_expt","",""
"","bandit","152","490299","0.0-112.0-0.0","95155418","wem/bandit_party_2","A3OC3VQF3CZ5T0","either","2","438","","","","","","","1","0","0","0.6453310316","","0.8","0.2","0.4","0.6","","","","","0.4486526525","0.6453310316","0.6388012411","0.6448170737","","","","","","","","","","74","J","1","","","71","main_expt","",""
"","bandit","153","491901","0.0-113.0-0.0","95155418","wem/bandit_party_2","A3OC3VQF3CZ5T0","either","2","94","","","","","","","0","1","0","","0.8140348339","0.8","0.2","0.4","0.6","0.4313602212","0.8140348339","0.6046900378","0.5640434706","","","","","","","","","","","","","","74","J","1","","","72","main_expt","",""
"","bandit","154","493664","0.0-114.0-0.0","95155418","wem/bandit_party_2","A3OC3VQF3CZ5T0","either","2","255","","","","","","","0","1","0","","0.820931829","0.8","0.2","0.4","0.6","0.3639072561","0.820931829","0.6062428704","0.6296110197","","","","","","","","","","","","","","74","J","1","","","73","main_expt","",""
"","bandit","155","495448","0.0-115.0-0.0","95155418","wem/bandit_party_2","A3OC3VQF3CZ5T0","either","2","278","","","","","","","0","1","0","","0.8096233945","0.8","0.2","0.4","0.6","0.2882181569","0.8096233945","0.6237194739","0.6730210969","","","","","","","","","","","","","","74","J","1","","","74","main_expt","",""
"","bandit","156","497024","0.0-116.0-0.0","95155418","wem/bandit_party_2","A3OC3VQF3CZ5T0","either","2","66","","","","","","","1","0","0","0.7615001707","","0.8","0.2","0.4","0.6","","","","","0.3561187133","0.7615001707","0.5971007372","0.5720403827","","","","","","","","","","74","J","1","","","75","main_expt","",""
"","bandit","157","498806","0.0-117.0-0.0","95155418","wem/bandit_party_2","A3OC3VQF3CZ5T0","either","2","274","","","","","","","0","1","0","","0.8147365981","0.8","0.2","0.4","0.6","0.4480894403","0.8147365981","0.5810032438","0.6303512149","","","","","","","","","","","","","","74","J","1","","","76","main_expt","",""
"","bandit","158","500554","0.0-118.0-0.0","95155418","wem/bandit_party_2","A3OC3VQF3CZ5T0","either","2","238","","","","","","","0","1","0","","0.8926338818","0.8","0.2","0.4","0.6","0.3220850356","0.8926338818","0.5792233978","0.5531797874","","","","","","","","","","","","","","74","J","1","","","77","main_expt","",""
"","bandit","159","502325","0.0-119.0-0.0","95155418","wem/bandit_party_2","A3OC3VQF3CZ5T0","either","2","265","","","","","","","0","0","1","0.8669072201","","0.8","0.2","0.4","0.6","","","","","0.3281133775","0.8669072201","0.692511921","0.5449672882","","","","","","","","","","74","J","1","","","78","main_expt","",""
"","bandit","160","504113","0.0-120.0-0.0","95155418","wem/bandit_party_2","A3OC3VQF3CZ5T0","either","2","279","","","","","","","0","1","0","","0.9114006046","0.8","0.2","0.4","0.6","0.3814329202","0.9114006046","0.7019625083","0.4484013318","","","","","","","","","","","","","","74","J","1","","","79","main_expt","",""
"","bandit","161","505822","0.0-121.0-0.0","95155418","wem/bandit_party_2","A3OC3VQF3CZ5T0","either","2","194","","","","","","","0","0","1","0.9268398106","","0.8","0.2","0.4","0.6","","","","","0.3512572076","0.9268398106","0.6785675641","0.5041425745","","","","","","","","","","74","J","1","","","80","main_expt","",""
"","bandit","162","508432","0.0-122.0-0.0","95155418","wem/bandit_party_2","A3OC3VQF3CZ5T0","either","2","1101","","","","","","","0","0","1","0.3624285329","","0.8","0.2","0.4","0.6","","","","","0.3624285329","0.9582858862","0.7101061672","0.3462078978","","","","","","","","","","72","H","0","img/none_selected.jpg","","81","main_expt","",""
"","bandit","163","510238","0.0-123.0-0.0","95155418","wem/bandit_party_2","A3OC3VQF3CZ5T0","either","2","297","","","","","","","0","1","0","","0.7217376576","0.8","0.2","0.4","0.6","0.3111883408","0.9590071975","0.7217376576","0.3226795418","","","","","","","","","","","","","","75","K","2","","","82","main_expt","",""
"","bandit","164","511872","0.0-124.0-0.0","95155418","wem/bandit_party_2","A3OC3VQF3CZ5T0","either","2","123","","","","","","","0","1","0","","0.6437777395","0.8","0.2","0.4","0.6","0.243162563","0.9379973093","0.6437777395","0.3023868023","","","","","","","","","","","","","","75","K","2","","","83","main_expt","",""
"","bandit","165","513600","0.0-125.0-0.0","95155418","wem/bandit_party_2","A3OC3VQF3CZ5T0","either","2","217","","","","","","","1","0","0","0.6533183273","","0.8","0.2","0.4","0.6","","","","","0.347146949","0.9411979228","0.6533183273","0.4040419094","","","","","","","","","","75","K","2","","","84","main_expt","",""
"","bandit","166","515349","0.0-126.0-0.0","95155418","wem/bandit_party_2","A3OC3VQF3CZ5T0","either","2","241","","","","","","","0","0","1","0.7469548387","","0.8","0.2","0.4","0.6","","","","","0.4416309426","0.9441700551","0.7469548387","0.4716136817","","","","","","","","","","75","K","2","","","85","main_expt","",""
"","bandit","167","517272","0.0-127.0-0.0","95155418","wem/bandit_party_2","A3OC3VQF3CZ5T0","either","2","413","","","","","","","0","0","1","0.7366570046","","0.8","0.2","0.4","0.6","","","","","0.4523797492","0.9323605113","0.7366570046","0.4455883603","","","","","","","","","","75","K","2","","","86","main_expt","",""
"","bandit","168","519498","0.0-128.0-0.0","95155418","wem/bandit_party_2","A3OC3VQF3CZ5T0","either","2","718","","","","","","","1","0","0","0.8871332711","","0.8","0.2","0.4","0.6","","","","","0.4621103264","0.8871332711","0.7142428019","0.5952575165","","","","","","","","","","74","J","1","","","87","main_expt","",""
"","bandit","169","521258","0.0-129.0-0.0","95155418","wem/bandit_party_2","A3OC3VQF3CZ5T0","either","2","251","","","","","","","0","1","0","","0.8520973281","0.8","0.2","0.4","0.6","0.3800084876","0.8520973281","0.7057172343","0.5333825583","","","","","","","","","","","","","","74","J","1","","","88","main_expt","",""
"","bandit","170","522858","0.0-130.0-0.0","95155418","wem/bandit_party_2","A3OC3VQF3CZ5T0","either","2","90","","","","","","","0","1","0","","0.7882210871","0.8","0.2","0.4","0.6","0.2354372355","0.7882210871","0.7289934888","0.4583166828","","","","","","","","","","","","","","74","J","1","","","89","main_expt","",""
"","bandit","171","525002","0.0-131.0-0.0","95155418","wem/bandit_party_2","A3OC3VQF3CZ5T0","either","2","635","","","","","","","0","1","0","","0.720110267","0.8","0.2","0.4","0.6","0.2978482647","0.720110267","0.7475354559","0.4782349553","","","","","","","","","","","","","","74","J","1","","","90","main_expt","",""
"","bandit","172","526799","0.0-132.0-0.0","95155418","wem/bandit_party_2","A3OC3VQF3CZ5T0","either","2","289","","","","","","","0","1","0","","0.7390342074","0.8","0.2","0.4","0.6","0.3723871884","0.7390342074","0.6316706059","0.464138054","","","","","","","","","","","","","","74","J","1","","","91","main_expt","",""
"","bandit","173","528633","0.0-133.0-0.0","95155418","wem/bandit_party_2","A3OC3VQF3CZ5T0","either","2","326","","","","","","","1","0","0","0.8135224625","","0.8","0.2","0.4","0.6","","","","","0.5400298203","0.8135224625","0.6957908828","0.5084128334","","","","","","","","","","74","J","1","","","92","main_expt","",""
"","bandit","174","530473","0.0-134.0-0.0","95155418","wem/bandit_party_2","A3OC3VQF3CZ5T0","either","2","332","","","","","","","0","1","0","","0.7814404678","0.8","0.2","0.4","0.6","0.5134744583","0.7814404678","0.6812665662","0.5211356389","","","","","","","","","","","","","","74","J","1","","","93","main_expt","",""
"","bandit","175","532229","0.0-135.0-0.0","95155418","wem/bandit_party_2","A3OC3VQF3CZ5T0","either","2","248","","","","","","","0","1","0","","0.7672416568","0.8","0.2","0.4","0.6","0.4101580275","0.7672416568","0.6412933588","0.4554037602","","","","","","","","","","","","","","74","J","1","","","94","main_expt","",""
"","bandit","176","534136","0.0-136.0-0.0","95155418","wem/bandit_party_2","A3OC3VQF3CZ5T0","either","2","398","","","","","","","0","0","1","","0.7573973965","0.8","0.2","0.4","0.6","0.2995167601","0.7573973965","0.5696630174","0.4195046205","","","","","","","","","","","","","","74","J","1","","","95","main_expt","",""
"","bandit","177","535997","0.0-137.0-0.0","95155418","wem/bandit_party_2","A3OC3VQF3CZ5T0","either","2","353","","","","","","","0","0","1","0.2934894425","","0.8","0.2","0.4","0.6","","","","","0.2934894425","0.8177369732","0.6076398096","0.3638478563","","","","","","","","","","72","H","0","img/none_selected.jpg","","96","main_expt","",""
"","bandit","178","538440","0.0-138.0-0.0","95155418","wem/bandit_party_2","A3OC3VQF3CZ5T0","either","2","934","","","","","","","0","1","0","","0.8124666872","0.8","0.2","0.4","0.6","0.2802715202","0.8124666872","0.5551612935","0.2839735208","","","","","","","","","","","","","","74","J","1","","","97","main_expt","",""
"","bandit","179","540201","0.0-139.0-0.0","95155418","wem/bandit_party_2","A3OC3VQF3CZ5T0","either","2","253","","","","","","","0","1","0","","0.881496875","0.8","0.2","0.4","0.6","0.2703087955","0.881496875","0.6354974245","0.2109275999","","","","","","","","","","","","","","74","J","1","","","98","main_expt","",""
"","bandit","180","541962","0.0-140.0-0.0","95155418","wem/bandit_party_2","A3OC3VQF3CZ5T0","either","2","251","","","","","","","1","0","0","0.8785981907","","0.8","0.2","0.4","0.6","","","","","0.3027543159","0.8785981907","0.5945745664","0.1531506719","","","","","","","","","","74","J","1","","","99","main_expt","",""
"","bandit","181","543735","0.0-141.0-0.0","95155418","wem/bandit_party_2","A3OC3VQF3CZ5T0","either","2","265","","","","","","","1","0","0","0.8494581726","","0.8","0.2","0.4","0.6","","","","","0.3645318829","0.8494581726","0.5679097985","0.1262108991","","","","","","","","","","74","J","1","","","100","main_expt","",""
"","bandit","182","545595","0.0-142.0-0.0","95155418","wem/bandit_party_2","A3OC3VQF3CZ5T0","either","2","351","","","","","","","0","0","1","","0.7754784616","0.8","0.2","0.4","0.6","0.4315832637","0.7754784616","0.6430580454","0.1340220502","","","","","","","","","","","","","","74","J","1","","","101","main_expt","",""
"","bandit","183","547459","0.0-143.0-0.0","95155418","wem/bandit_party_2","A3OC3VQF3CZ5T0","either","2","358","","","","","","","0","1","0","","0.7626736499","0.8","0.2","0.4","0.6","0.3608531129","0.7626736499","0.6340200926","0.2167126086","","","","","","","","","","","","","","74","J","1","","","102","main_expt","",""
"","bandit","184","549261","0.0-144.0-0.0","95155418","wem/bandit_party_2","A3OC3VQF3CZ5T0","either","2","294","","","","","","","0","1","0","","0.7329996306","0.8","0.2","0.4","0.6","0.3688981903","0.7329996306","0.6377668076","0.2796352144","","","","","","","","","","","","","","74","J","1","","","103","main_expt","",""
"","bandit","185","551039","0.0-145.0-0.0","95155418","wem/bandit_party_2","A3OC3VQF3CZ5T0","either","2","269","","","","","","","0","1","0","","0.7467689404","0.8","0.2","0.4","0.6","0.3758155051","0.7467689404","0.6578341575","0.3556406549","","","","","","","","","","","","","","74","J","1","","","104","main_expt","",""
"","bandit","186","552798","0.0-146.0-0.0","95155418","wem/bandit_party_2","A3OC3VQF3CZ5T0","either","2","250","","","","","","","0","1","0","","0.737018723","0.8","0.2","0.4","0.6","0.4508947075","0.737018723","0.6727034752","0.3233911601","","","","","","","","","","","","","","74","J","1","","","105","main_expt","",""
"","bandit","187","554561","0.0-147.0-0.0","95155418","wem/bandit_party_2","A3OC3VQF3CZ5T0","either","2","255","","","","","","","0","1","0","","0.655194185","0.8","0.2","0.4","0.6","0.4132181144","0.655194185","0.6386482702","0.2024631506","","","","","","","","","","","","","","74","J","1","","","106","main_expt","",""
"","bandit","188","556457","0.0-148.0-0.0","95155418","wem/bandit_party_2","A3OC3VQF3CZ5T0","either","2","390","","","","","","","0","1","0","","0.7122819559","0.8","0.2","0.4","0.6","0.4393512677","0.7122819559","0.6788938686","0.2290393164","","","","","","","","","","","","","","74","J","1","","","107","main_expt","",""
"","bandit","189","558302","0.0-149.0-0.0","95155418","wem/bandit_party_2","A3OC3VQF3CZ5T0","either","2","338","","","","","","","0","0","1","","0.7326995505","0.8","0.2","0.4","0.6","0.4964319729","0.7326995505","0.7076498576","0.2217712157","","","","","","","","","","","","","","74","J","1","","","108","main_expt","",""
"","bandit","190","560110","0.0-150.0-0.0","95155418","wem/bandit_party_2","A3OC3VQF3CZ5T0","either","2","298","","","","","","","0","1","0","","0.7165499475","0.8","0.2","0.4","0.6","0.4790921069","0.7165499475","0.6932550908","0.1566860935","","","","","","","","","","","","","","74","J","1","","","109","main_expt","",""
"","bandit","191","561833","0.0-151.0-0.0","95155418","wem/bandit_party_2","A3OC3VQF3CZ5T0","either","2","215","","","","","","","0","0","1","0.6058017554","","0.8","0.2","0.4","0.6","","","","","0.5856434505","0.6058017554","0.7436061547","0.1083987113","","","","","","","","","","74","J","1","","","110","main_expt","",""
"","bandit","192","563688","0.0-152.0-0.0","95155418","wem/bandit_party_2","A3OC3VQF3CZ5T0","either","2","345","","","","","","","0","0","1","","0.657194241","0.8","0.2","0.4","0.6","0.6444230696","0.5476823758","0.657194241","0.217828795","","","","","","","","","","","","","","75","K","2","","","111","main_expt","",""
"","bandit","193","565523","0.0-153.0-0.0","95155418","wem/bandit_party_2","A3OC3VQF3CZ5T0","either","2","328","","","","","","","0","0","1","0.2212119155","","0.8","0.2","0.4","0.6","","","","","0.603417252","0.5688313193","0.6317228327","0.2212119155","","","","","","","","","","76","L","3","","","112","main_expt","",""
"","bandit","194","567055","0.0-154.0-0.0","95155418","wem/bandit_party_2","A3OC3VQF3CZ5T0","either","2","22","","","","","","","0","1","0","","0.420613871","0.8","0.2","0.4","0.6","0.420613871","0.50852785","0.4985892417","0.2374112476","","","","","","","","","","","","","","72","H","0","img/none_selected.jpg","","113","main_expt","",""
"","bandit","195","568848","0.0-155.0-0.0","95155418","wem/bandit_party_2","A3OC3VQF3CZ5T0","either","2","285","","","","","","","0","0","1","0.2851569533","","0.8","0.2","0.4","0.6","","","","","0.2851569533","0.5711084253","0.579071345","0.2703699348","","","","","","","","","","72","H","0","img/none_selected.jpg","","114","main_expt","",""
"","bandit","196","570641","0.0-156.0-0.0","95155418","wem/bandit_party_2","A3OC3VQF3CZ5T0","either","2","286","","","","","","","0","0","1","","0.3166589884","0.8","0.2","0.4","0.6","0.3166589884","0.4177754351","0.4595939904","0.1928485376","","","","","","","","","","","","","","72","H","0","img/none_selected.jpg","","115","main_expt","",""
"","bandit","197","572613","0.0-157.0-0.0","95155418","wem/bandit_party_2","A3OC3VQF3CZ5T0","either","2","464","","","","","","","0","0","1","","0.387840809","0.8","0.2","0.4","0.6","0.3928451607","0.387840809","0.3744567546","0.136356343","","","","","","","","","","","","","","74","J","1","","","116","main_expt","",""
"","bandit","198","574356","0.0-158.0-0.0","95155418","wem/bandit_party_2","A3OC3VQF3CZ5T0","either","2","231","","","","","","","0","0","1","","0.302145019","0.8","0.2","0.4","0.6","0.560845346","0.4456731606","0.302145019","0.2193113504","","","","","","","","","","","","","","75","K","2","","","117","main_expt","",""
"","bandit","199","576010","0.0-159.0-0.0","95155418","wem/bandit_party_2","A3OC3VQF3CZ5T0","either","2","147","","","","","","","0","0","1","0.3045880574","","0.8","0.2","0.4","0.6","","","","","0.5536818424","0.3045880574","0.3522466686","0.2686792008","","","","","","","","","","74","J","1","","","118","main_expt","",""
"","bandit","200","577962","0.0-160.0-0.0","95155418","wem/bandit_party_2","A3OC3VQF3CZ5T0","either","2","442","","","","","","","0","0","1","","0.3994134075","0.8","0.2","0.4","0.6","0.3617659687","0.3994134075","0.4425542362","0.2668270476","","","","","","","","","","","","","","74","J","1","","","119","main_expt","",""
"","bandit","201","579658","0.0-161.0-0.0","95155418","wem/bandit_party_2","A3OC3VQF3CZ5T0","either","2","190","","","","","","","0","0","1","0.3454740543","","0.8","0.2","0.4","0.6","","","","","0.3454740543","0.351449483","0.3377532805","0.3723992114","","","","","","","","","","72","H","0","img/none_selected.jpg","","120","main_expt","",""
"","bandit","202","581561","0.0-162.0-0.0","95155418","wem/bandit_party_2","A3OC3VQF3CZ5T0","either","2","392","","","","","","","1","0","0","0.2798257893","","0.8","0.2","0.4","0.6","","","","","0.2798257893","0.3641911367","0.2929504356","0.4001238515","","","","","","","","","","72","H","0","img/none_selected.jpg","","121","main_expt","",""
"","bandit","203","583166","0.0-163.0-0.0","95155418","wem/bandit_party_2","A3OC3VQF3CZ5T0","either","2","97","","","","","","","0","0","1","0.2261540995","","0.8","0.2","0.4","0.6","","","","","0.2261540995","0.2673706252","0.2504028886","0.4090120715","","","","","","","","","","72","H","0","img/none_selected.jpg","","122","main_expt","",""
"","bandit","204","584954","0.0-164.0-0.0","95155418","wem/bandit_party_2","A3OC3VQF3CZ5T0","either","2","278","","","","","","","0","0","1","0.4746108064","","0.8","0.2","0.4","0.6","","","","","0.2766663047","0.3455372181","0.2414849785","0.4746108064","","","","","","","","","","76","L","3","","","123","main_expt","",""
"","bandit","205","586764","0.0-165.0-0.0","95155418","wem/bandit_party_2","A3OC3VQF3CZ5T0","either","2","303","","","","","","","0","0","1","0.3126864395","","0.8","0.2","0.4","0.6","","","","","0.3126864395","0.3524137631","0.1791255979","0.453231646","","","","","","","","","","72","H","0","img/none_selected.jpg","","124","main_expt","",""
"","bandit","206","588653","0.0-166.0-0.0","95155418","wem/bandit_party_2","A3OC3VQF3CZ5T0","either","2","380","","","","","","","0","0","1","","0.3680881866","0.8","0.2","0.4","0.6","0.2772507379","0.3680881866","0.1952456852","0.4888945922","","","","","","","","","","","","","","74","J","1","","","125","main_expt","",""
"","bandit","207","590576","0.0-167.0-0.0","95155418","wem/bandit_party_2","A3OC3VQF3CZ5T0","either","2","413","","","","","","","0","0","1","","0.2614303707","0.8","0.2","0.4","0.6","0.2441417391","0.2884444508","0.2614303707","0.396932523","","","","","","","","","","","","","","75","K","2","","","126","main_expt","",""
"","bandit","208","592396","0.0-168.0-0.0","95155418","wem/bandit_party_2","A3OC3VQF3CZ5T0","either","2","312","","","","","","","1","0","0","0.2304038214","","0.8","0.2","0.4","0.6","","","","","0.2304038214","0.2931854252","0.267511235","0.4026562496","","","","","","","","","","72","H","0","img/none_selected.jpg","","127","main_expt","",""
"","bandit","209","594219","0.0-169.0-0.0","95155418","wem/bandit_party_2","A3OC3VQF3CZ5T0","either","2","314","","","","","","","1","0","0","0.2463692943","","0.8","0.2","0.4","0.6","","","","","0.2463692943","0.3115494401","0.2582460394","0.3072143153","","","","","","","","","","72","H","0","img/none_selected.jpg","","128","main_expt","",""
"","bandit","210","596091","0.0-170.0-0.0","95155418","wem/bandit_party_2","A3OC3VQF3CZ5T0","either","2","364","","","","","","","0","0","1","0.262841392","","0.8","0.2","0.4","0.6","","","","","0.262841392","0.287093163","0.249100023","0.3024431642","","","","","","","","","","72","H","0","img/none_selected.jpg","","129","main_expt","",""
"","bandit","211","598007","0.0-171.0-0.0","95155418","wem/bandit_party_2","A3OC3VQF3CZ5T0","either","2","408","","","","","","","0","0","1","0.3044503748","","0.8","0.2","0.4","0.6","","","","","0.3044503748","0.242368994","0.2014680341","0.383823705","","","","","","","","","","72","H","0","img/none_selected.jpg","","130","main_expt","",""
"","bandit","212","599666","0.0-172.0-0.0","95155418","wem/bandit_party_2","A3OC3VQF3CZ5T0","either","2","150","","","","","","","0","1","0","","0.3141093292","0.8","0.2","0.4","0.6","0.2231782293","0.3141093292","0.2514612397","0.5448185218","","","","","","","","","","","","","","74","J","1","","","131","main_expt","",""
"","bandit","213","601372","0.0-173.0-0.0","95155418","wem/bandit_party_2","A3OC3VQF3CZ5T0","either","2","197","","","","","","","0","0","1","","0.3186943837","0.8","0.2","0.4","0.6","0.265126842","0.3186943837","0.1719215191","0.5741986762","","","","","","","","","","","","","","74","J","1","","","132","main_expt","",""
"","bandit","214","603186","0.0-174.0-0.0","95155418","wem/bandit_party_2","A3OC3VQF3CZ5T0","either","2","304","","","","","","","0","1","0","","0.3218599317","0.8","0.2","0.4","0.6","0.1996467811","0.3218599317","0.151851594","0.54298015","","","","","","","","","","","","","","74","J","1","","","133","main_expt","",""
"","bandit","215","604936","0.0-175.0-0.0","95155418","wem/bandit_party_2","A3OC3VQF3CZ5T0","either","2","242","","","","","","","0","0","1","","0.3372263261","0.8","0.2","0.4","0.6","0.1900899503","0.3372263261","0.1693242304","0.5504084981","","","","","","","","","","","","","","74","J","1","","","134","main_expt","",""
"","bandit","216","606931","0.0-176.0-0.0","95155418","wem/bandit_party_2","A3OC3VQF3CZ5T0","either","2","485","","","","","","","0","0","1","","0.1541174352","0.8","0.2","0.4","0.6","0.172295534","0.3515125386","0.1541174352","0.4874659601","","","","","","","","","","","","","","75","K","2","","","135","main_expt","",""
"","bandit","217","608909","0.0-177.0-0.0","95155418","wem/bandit_party_2","A3OC3VQF3CZ5T0","either","2","469","","","","","","","0","0","1","0.3677382912","","0.8","0.2","0.4","0.6","","","","","0.1171098277","0.2312583875","0.1374012581","0.3677382912","","","","","","","","","","76","L","3","","","136","main_expt","",""
"","bandit","218","610843","0.0-178.0-0.0","95155418","wem/bandit_party_2","A3OC3VQF3CZ5T0","either","2","423","","","","","","","0","0","1","0.1390909791","","0.8","0.2","0.4","0.6","","","","","0.1390909791","0.3496768842","0.2889288236","0.2944012193","","","","","","","","","","72","H","0","img/none_selected.jpg","","137","main_expt","",""
"","bandit","219","612397","0.0-179.0-0.0","95155418","wem/bandit_party_2","A3OC3VQF3CZ5T0","either","2","47","","","","","","","0","0","1","","0.4217982028","0.8","0.2","0.4","0.6","0.1209370274","0.4217982028","0.2177367931","0.3020033879","","","","","","","","","","","","","","74","J","1","","","138","main_expt","",""
"","bandit","220","614154","0.0-180.0-0.0","95155418","wem/bandit_party_2","A3OC3VQF3CZ5T0","either","2","248","","","","","","","0","0","1","","0.5123523738","0.8","0.2","0.4","0.6","0.1441291996","0.5123523738","0.1704259453","0.2908104057","","","","","","","","","","","","","","74","J","1","","","139","main_expt","",""
"","bandit","221","615831","0.0-181.0-0.0","95155418","wem/bandit_party_2","A3OC3VQF3CZ5T0","either","2","167","","","","","","","0","0","1","0.3892042576","","0.8","0.2","0.4","0.6","","","","","0.1380406349","0.3892042576","0.1827322183","0.2738290205","","","","","","","","","","74","J","1","","","140","main_expt","",""
"","bandit","222","617622","0.0-182.0-0.0","95155418","wem/bandit_party_2","A3OC3VQF3CZ5T0","either","2","282","","","","","","","1","0","0","0.2030288612","","0.8","0.2","0.4","0.6","","","","","0.1312769784","0.4680147771","0.2030288612","0.3865798498","","","","","","","","","","75","K","2","","","141","main_expt","",""
"","bandit","223","619338","0.0-183.0-0.0","95155418","wem/bandit_party_2","A3OC3VQF3CZ5T0","either","2","208","","","","","","","0","0","1","","0.1760536641","0.8","0.2","0.4","0.6","0.1880730553","0.3970866904","0.1760536641","0.3507917403","","","","","","","","","","","","","","75","K","2","","","142","main_expt","",""
"","bandit","224","621191","0.0-184.0-0.0","95155418","wem/bandit_party_2","A3OC3VQF3CZ5T0","either","2","341","","","","","","","0","0","1","","0.3609481858","0.8","0.2","0.4","0.6","0.1798266991","0.3609481858","0.1428921374","0.2787839286","","","","","","","","","","","","","","74","J","1","","","143","main_expt","",""
"","bandit","225","622949","0.0-185.0-0.0","95155418","wem/bandit_party_2","A3OC3VQF3CZ5T0","either","2","248","","","","","","","0","0","1","","0.1260474704","0.8","0.2","0.4","0.6","0.1881666754","0.3701270871","0.1260474704","0.2106619402","","","","","","","","","","","","","","75","K","2","","","144","main_expt","",""
"","bandit","226","624752","0.0-186.0-0.0","95155418","wem/bandit_party_2","A3OC3VQF3CZ5T0","either","2","287","","","","","","","0","0","1","0.1683386122","","0.8","0.2","0.4","0.6","","","","","0.1683386122","0.3110645609","0.151337539","0.3211677341","","","","","","","","","","72","H","0","img/none_selected.jpg","","145","main_expt","",""
"","bandit","227","626366","0.0-187.0-0.0","95155418","wem/bandit_party_2","A3OC3VQF3CZ5T0","either","2","106","","","","","","","0","0","1","","0.1600114734","0.8","0.2","0.4","0.6","0.2609121533","0.356964637","0.1600114734","0.4417580917","","","","","","","","","","","","","","75","K","2","","","146","main_expt","",""
"","bandit","228","628088","0.0-188.0-0.0","95155418","wem/bandit_party_2","A3OC3VQF3CZ5T0","either","2","213","","","","","","","0","0","1","","0.1262446547","0.8","0.2","0.4","0.6","0.280259565","0.5143633813","0.1262446547","0.278611551","","","","","","","","","","","","","","75","K","2","","","147","main_expt","",""
"","bandit","229","629606","0.0-189.0-0.0","95155418","wem/bandit_party_2","A3OC3VQF3CZ5T0","either","2","9","","","","","","","0","0","1","","0.5086187798","0.8","0.2","0.4","0.6","0.2972918914","0.5086187798","0.1030311585","0.2811332351","","","","","","","","","","","","","","74","J","1","","","148","main_expt","",""
"","bandit","230","631409","0.0-190.0-0.0","95155418","wem/bandit_party_2","A3OC3VQF3CZ5T0","either","2","293","","","","","","","0","0","1","","0.4676315778","0.8","0.2","0.4","0.6","0.3284309668","0.4676315778","0.123834606","0.2606345315","","","","","","","","","","","","","","74","J","1","","","149","main_expt","",""
"","bandit","231","633210","0.0-191.0-0.0","95155418","wem/bandit_party_2","A3OC3VQF3CZ5T0","either","2","292","","","","","","","0","0","1","","0.3186890608","0.8","0.2","0.4","0.6","0.3186890608","0.4737351686","0.06566206942","0.260677327","","","","","","","","","","","","","","72","H","0","img/none_selected.jpg","","150","main_expt","",""
"","bandit","232","634778","0.0-192.0-0.0","95155418","wem/bandit_party_2","A3OC3VQF3CZ5T0","either","2","58","","","","","","","1","0","0","0.3331747037","","0.8","0.2","0.4","0.6","","","","","0.3331747037","0.5387476985","0.06342121736","0.2579624968","","","","","","","","","","72","H","0","img/none_selected.jpg","","151","main_expt","",""
"","bandit","233","636718","0.0-193.0-0.0","95155418","wem/bandit_party_2","A3OC3VQF3CZ5T0","either","2","432","","","","","","","1","0","0","0.364096089","","0.8","0.2","0.4","0.6","","","","","0.364096089","0.5065138565","0.1162046696","0.2536911072","","","","","","","","","","72","H","0","img/none_selected.jpg","","152","main_expt","",""
"","bandit","234","638697","0.0-194.0-0.0","95155418","wem/bandit_party_2","A3OC3VQF3CZ5T0","either","2","470","","","","","","","0","0","1","0.3189440566","","0.8","0.2","0.4","0.6","","","","","0.3189440566","0.5190676077","0.1388943584","0.1427943183","","","","","","","","","","72","H","0","img/none_selected.jpg","","153","main_expt","",""
"","bandit","235","640215","0.0-195.0-0.0","95155418","wem/bandit_party_2","A3OC3VQF3CZ5T0","either","2","9","","","","","","","0","0","1","0.1188489222","","0.8","0.2","0.4","0.6","","","","","0.486858514","0.4944482457","0.1188489222","0.08934943386","","","","","","","","","","75","K","2","","","154","main_expt","",""
"","bandit","236","641968","0.0-196.0-0.0","95155418","wem/bandit_party_2","A3OC3VQF3CZ5T0","either","2","242","","","","","","","0","0","1","0.1255079792","","0.8","0.2","0.4","0.6","","","","","0.398958755","0.4987902374","0.1255079792","0.1048919666","","","","","","","","","","75","K","2","","","155","main_expt","",""
"","bandit","237","643620","0.0-197.0-0.0","95155418","wem/bandit_party_2","A3OC3VQF3CZ5T0","either","2","144","","","","","","","0","0","1","","0.4151199053","0.8","0.2","0.4","0.6","0.3508932217","0.4151199053","0.1705129017","0.1348874752","","","","","","","","","","","","","","74","J","1","","","156","main_expt","",""
"","bandit","238","645455","0.0-198.0-0.0","95155418","wem/bandit_party_2","A3OC3VQF3CZ5T0","either","2","325","","","","","","","0","0","1","0.1197456909","","0.8","0.2","0.4","0.6","","","","","0.3736640956","0.4215128153","0.1892203872","0.1197456909","","","","","","","","","","76","L","3","","","157","main_expt","",""
"","bandit","239","647298","0.0-199.0-0.0","95155418","wem/bandit_party_2","A3OC3VQF3CZ5T0","either","2","335","","","","","","","0","0","1","0.3215678611","","0.8","0.2","0.4","0.6","","","","","0.3215678611","0.3666899102","0.1589595026","0.1343935597","","","","","","","","","","72","H","0","img/none_selected.jpg","","158","main_expt","",""
"","bandit","240","648980","0.0-200.0-0.0","95155418","wem/bandit_party_2","A3OC3VQF3CZ5T0","either","2","171","","","","","","","0","1","0","","0.3906786657","0.8","0.2","0.4","0.6","0.2732838962","0.3906786657","0.1426383857","0.04604274909","","","","","","","","","","","","","","74","J","1","","","159","main_expt","",""
"","bandit","241","650742","0.0-201.0-0.0","95155418","wem/bandit_party_2","A3OC3VQF3CZ5T0","either","2","254","","","","","","","1","0","0","0.4769972016","","0.8","0.2","0.4","0.6","","","","","0.2323229575","0.4769972016","0.2747613825","0.08927965808","","","","","","","","","","74","J","1","","","160","main_expt","",""
"","bandit","242","652609","0.0-202.0-0.0","95155418","wem/bandit_party_2","A3OC3VQF3CZ5T0","either","2","358","","","","","","","0","0","1","","0.4405879513","0.8","0.2","0.4","0.6","0.399022808","0.4405879513","0.2046882866","0.1038156196","","","","","","","","","","","","","","74","J","1","","","161","main_expt","",""
"","bandit","243","654504","0.0-203.0-0.0","95155418","wem/bandit_party_2","A3OC3VQF3CZ5T0","either","2","386","","","","","","","0","0","1","0.1715152701","","0.8","0.2","0.4","0.6","","","","","0.4967313539","0.44055992","0.1715152701","0.1470739062","","","","","","","","","","75","K","2","","","162","main_expt","",""
"","bandit","244","656161","0.0-204.0-0.0","95155418","wem/bandit_party_2","A3OC3VQF3CZ5T0","either","2","148","","","","","","","0","0","1","0.5245029489","","0.8","0.2","0.4","0.6","","","","","0.5245029489","0.3434222481","0.2396687428","0.1214264794","","","","","","","","","","72","H","0","img/none_selected.jpg","","163","main_expt","",""
"","bandit","245","657966","0.0-205.0-0.0","95155418","wem/bandit_party_2","A3OC3VQF3CZ5T0","either","2","298","","","","","","","0","0","1","","0.3359744524","0.8","0.2","0.4","0.6","0.5808119749","0.3862652833","0.3359744524","0.1563758897","","","","","","","","","","","","","","75","K","2","","","164","main_expt","",""
"","bandit","246","659718","0.0-206.0-0.0","95155418","wem/bandit_party_2","A3OC3VQF3CZ5T0","either","2","242","","","","","","","0","1","0","","0.4270444342","0.8","0.2","0.4","0.6","0.6473032069","0.4270444342","0.4940159592","0.1311500467","","","","","","","","","","","","","","74","J","1","","","165","main_expt","",""
"","bandit","247","661484","0.0-207.0-0.0","95155418","wem/bandit_party_2","A3OC3VQF3CZ5T0","either","2","257","","","","","","","0","0","1","0.5073102058","","0.8","0.2","0.4","0.6","","","","","0.6790689848","0.5073102058","0.5922229292","0.1419689761","","","","","","","","","","74","J","1","","","166","main_expt","",""
"","bandit","248","663338","0.0-208.0-0.0","95155418","wem/bandit_party_2","A3OC3VQF3CZ5T0","either","2","343","","","","","","","0","1","0","","0.5417092253","0.8","0.2","0.4","0.6","0.5959653185","0.5417092253","0.5562626425","0.150246256","","","","","","","","","","","","","","74","J","1","","","167","main_expt","",""
"","bandit","249","665159","0.0-209.0-0.0","95155418","wem/bandit_party_2","A3OC3VQF3CZ5T0","either","2","308","","","","","","","0","0","1","","0.6505471885","0.8","0.2","0.4","0.6","0.361841396","0.6505471885","0.6489587791","0.2070971521","","","","","","","","","","","","","","74","J","1","","","168","main_expt","",""
"","bandit","250","667601","0.0-210.0-0.0","95155418","wem/bandit_party_2","A3OC3VQF3CZ5T0","either","2","934","","","","","","","0","1","0","","0.6226729341","0.8","0.2","0.4","0.6","0.2594844845","0.6226729341","0.5652428614","0.2564452127","","","","","","","","","","","","","","74","J","1","","","169","main_expt","",""
"","bandit","251","669439","0.0-211.0-0.0","95155418","wem/bandit_party_2","A3OC3VQF3CZ5T0","either","2","328","","","","","","","0","1","0","","0.7574543886","0.8","0.2","0.4","0.6","0.1987556041","0.7574543886","0.5344749526","0.2845729388","","","","","","","","","","","","","","74","J","1","","","170","main_expt","",""
"","bandit","252","671251","0.0-212.0-0.0","95155418","wem/bandit_party_2","A3OC3VQF3CZ5T0","either","2","302","","","","","","","0","0","1","","0.774201251","0.8","0.2","0.4","0.6","0.1583585206","0.774201251","0.6364900983","0.2360657399","","","","","","","","","","","","","","74","J","1","","","171","main_expt","",""
"","bandit","253","673018","0.0-213.0-0.0","95155418","wem/bandit_party_2","A3OC3VQF3CZ5T0","either","2","255","","","","","","","0","1","0","","0.7739789177","0.8","0.2","0.4","0.6","0.1494938987","0.7739789177","0.5516193693","0.3453554921","","","","","","","","","","","","","","74","J","1","","","172","main_expt","",""
"","bandit","254","675038","0.0-214.0-0.0","95155418","wem/bandit_party_2","A3OC3VQF3CZ5T0","either","2","512","","","","","","","0","1","0","","0.7146420849","0.8","0.2","0.4","0.6","0.1996494969","0.7146420849","0.5081608063","0.2909261263","","","","","","","","","","","","","","74","J","1","","","173","main_expt","",""
"","bandit","255","676894","0.0-215.0-0.0","95155418","wem/bandit_party_2","A3OC3VQF3CZ5T0","either","2","345","","","","","","","1","0","0","0.683245412","","0.8","0.2","0.4","0.6","","","","","0.2200767262","0.683245412","0.5247340446","0.3807546558","","","","","","","","","","74","J","1","","","174","main_expt","",""
"","bandit","256","678675","0.0-216.0-0.0","95155418","wem/bandit_party_2","A3OC3VQF3CZ5T0","either","2","272","","","","","","","0","1","0","","0.7163731774","0.8","0.2","0.4","0.6","0.1929710708","0.7163731774","0.5823110366","0.3889518003","","","","","","","","","","","","","","74","J","1","","","175","main_expt","",""
"","bandit","257","680521","0.0-217.0-0.0","95155418","wem/bandit_party_2","A3OC3VQF3CZ5T0","either","2","337","","","","","","","0","1","0","","0.6676116703","0.8","0.2","0.4","0.6","0.1756556012","0.6676116703","0.7693722391","0.3662842853","","","","","","","","","","","","","","74","J","1","","","176","main_expt","",""
"","bandit","258","682265","0.0-218.0-0.0","95155418","wem/bandit_party_2","A3OC3VQF3CZ5T0","either","2","232","","","","","","","0","0","1","","0.711116056","0.8","0.2","0.4","0.6","0.2404611203","0.711116056","0.8048595062","0.3102656016","","","","","","","","","","","","","","74","J","1","","","177","main_expt","",""
"","bandit","259","684288","0.0-219.0-0.0","95155418","wem/bandit_party_2","A3OC3VQF3CZ5T0","either","2","511","","","","","","","0","0","1","0.6541247318","","0.8","0.2","0.4","0.6","","","","","0.1651874793","0.6541247318","0.8147320782","0.3272385177","","","","","","","","","","74","J","1","","","178","main_expt","",""
"","bandit","260","686047","0.0-220.0-0.0","95155418","wem/bandit_party_2","A3OC3VQF3CZ5T0","either","2","244","","","","","","","0","0","1","0.1297692321","","0.8","0.2","0.4","0.6","","","","","0.1297692321","0.600925469","0.7755432213","0.3185807274","","","","","","","","","","72","H","0","img/none_selected.jpg","","179","main_expt","",""
"","bandit","261","687820","0.0-221.0-0.0","95155418","wem/bandit_party_2","A3OC3VQF3CZ5T0","either","2","263","","","","","","","0","0","1","","0.7309951384","0.8","0.2","0.4","0.6","0.1311169289","0.6321701674","0.7309951384","0.3896265469","","","","","","","","","","","","","","75","K","2","","","180","main_expt","",""
"","bandit","262","689397","0.0-222.0-0.0","95155418","wem/bandit_party_2","A3OC3VQF3CZ5T0","either","2","68","","","","","","","0","0","1","0.4381139349","","0.8","0.2","0.4","0.6","","","","","0.2184653543","0.7040606398","0.8068071681","0.4381139349","","","","","","","","","","76","L","3","","","181","main_expt","",""
"","bandit","263","691072","0.0-223.0-0.0","95155418","wem/bandit_party_2","A3OC3VQF3CZ5T0","either","2","165","","","","","","","0","0","1","0.156745214","","0.8","0.2","0.4","0.6","","","","","0.156745214","0.6551517927","0.8096694819","0.4339703771","","","","","","","","","","72","H","0","img/none_selected.jpg","","182","main_expt","",""
"","bandit","264","693369","0.0-224.0-0.0","95155418","wem/bandit_party_2","A3OC3VQF3CZ5T0","either","2","785","","","","","","","0","0","1","0.7709035389","","0.8","0.2","0.4","0.6","","","","","0.07710569088","0.7709035389","0.8522040983","0.5270594011","","","","","","","","","","74","J","1","","","183","main_expt","",""
"","bandit","265","695201","0.0-225.0-0.0","95155418","wem/bandit_party_2","A3OC3VQF3CZ5T0","either","2","321","","","","","","","0","0","1","0.8636776132","","0.8","0.2","0.4","0.6","","","","","0.07901501252","0.7869666122","0.8636776132","0.4791569234","","","","","","","","","","75","K","2","","","184","main_expt","",""
"","bandit","266","697280","0.0-226.0-0.0","95155418","wem/bandit_party_2","A3OC3VQF3CZ5T0","either","2","567","","","","","","","0","1","0","","0.804571828","0.8","0.2","0.4","0.6","0.05695362571","0.804571828","0.8605951951","0.464074867","","","","","","","","","","","","","","74","J","1","","","185","main_expt","",""
"","bandit","267","699062","0.0-227.0-0.0","95155418","wem/bandit_party_2","A3OC3VQF3CZ5T0","either","2","267","","","","","","","0","0","1","","0.7866627628","0.8","0.2","0.4","0.6","0.03796608352","0.7866627628","0.8578427848","0.4654947356","","","","","","","","","","","","","","74","J","1","","","186","main_expt","",""
"","bandit","268","701021","0.0-228.0-0.0","95155418","wem/bandit_party_2","A3OC3VQF3CZ5T0","either","2","446","","","","","","","0","0","1","","0.8006736442","0.8","0.2","0.4","0.6","0.05986429342","0.8006736442","0.8253306036","0.4338668179","","","","","","","","","","","","","","74","J","1","","","187","main_expt","",""
"","bandit","269","702808","0.0-229.0-0.0","95155418","wem/bandit_party_2","A3OC3VQF3CZ5T0","either","2","274","","","","","","","0","0","1","0.7687627789","","0.8","0.2","0.4","0.6","","","","","0.05827831728","0.7687627789","0.8118593573","0.4679469354","","","","","","","","","","74","J","1","","","188","main_expt","",""
"","bandit","270","704636","0.0-230.0-0.0","95155418","wem/bandit_party_2","A3OC3VQF3CZ5T0","either","2","317","","","","","","","1","0","0","0.06499387038","","0.8","0.2","0.4","0.6","","","","","0.06499387038","0.7009429779","0.8319104568","0.4645116859","","","","","","","","","","72","H","0","img/none_selected.jpg","","189","main_expt","",""
"","bandit","271","706395","0.0-231.0-0.0","95155418","wem/bandit_party_2","A3OC3VQF3CZ5T0","either","2","246","","","","","","","0","0","1","0.0878029059","","0.8","0.2","0.4","0.6","","","","","0.0878029059","0.7531121838","0.8949986836","0.4260553166","","","","","","","","","","72","H","0","img/none_selected.jpg","","190","main_expt","",""
"","bandit","272","708280","0.0-232.0-0.0","95155418","wem/bandit_party_2","A3OC3VQF3CZ5T0","either","2","374","","","","","","","0","0","1","0.1101088583","","0.8","0.2","0.4","0.6","","","","","0.1101088583","0.6174616994","0.9258368343","0.5323747461","","","","","","","","","","72","H","0","img/none_selected.jpg","","191","main_expt","",""
"","bandit","273","709821","0.0-233.0-0.0","95155418","wem/bandit_party_2","A3OC3VQF3CZ5T0","either","2","21","","","","","","","0","0","1","","0.9221438833","0.8","0.2","0.4","0.6","0.1559643099","0.6331996982","0.9221438833","0.6013900654","","","","","","","","","","","","","","75","K","2","","","192","main_expt","",""
"","bandit","274","711657","0.0-234.0-0.0","95155418","wem/bandit_party_2","A3OC3VQF3CZ5T0","either","2","325","","","","","","","0","0","1","","0.5332063066","0.8","0.2","0.4","0.6","0.1348882638","0.5596167322","0.878376231","0.5332063066","","","","","","","","","","","","","","76","L","3","","","193","main_expt","",""
"","bandit","275","713462","0.0-235.0-0.0","95155418","wem/bandit_party_2","A3OC3VQF3CZ5T0","either","2","295","","","","","","","0","0","1","0.243093686","","0.8","0.2","0.4","0.6","","","","","0.243093686","0.5887018809","0.7914694382","0.5499496643","","","","","","","","","","72","H","0","img/none_selected.jpg","","194","main_expt","",""
"","bandit","276","715198","0.0-236.0-0.0","95155418","wem/bandit_party_2","A3OC3VQF3CZ5T0","either","2","223","","","","","","","0","1","0","","0.561552955","0.8","0.2","0.4","0.6","0.2792315856","0.561552955","0.7843027812","0.4170732774","","","","","","","","","","","","","","74","J","1","","","195","main_expt","",""
"","bandit","277","716953","0.0-237.0-0.0","95155418","wem/bandit_party_2","A3OC3VQF3CZ5T0","either","2","246","","","","","","","0","0","1","0.6199522587","","0.8","0.2","0.4","0.6","","","","","0.2075419965","0.6199522587","0.7888241066","0.4050854298","","","","","","","","","","74","J","1","","","196","main_expt","",""
"","bandit","278","718810","0.0-238.0-0.0","95155418","wem/bandit_party_2","A3OC3VQF3CZ5T0","either","2","346","","","","","","","0","0","1","","0.6886125155","0.8","0.2","0.4","0.6","0.1899284635","0.6886125155","0.8145025162","0.4522405917","","","","","","","","","","","","","","74","J","1","","","197","main_expt","",""
"","bandit","279","720593","0.0-239.0-0.0","95155418","wem/bandit_party_2","A3OC3VQF3CZ5T0","either","2","272","","","","","","","0","0","1","0.1632143895","","0.8","0.2","0.4","0.6","","","","","0.1632143895","0.6468609917","0.8795467387","0.4547961131","","","","","","","","","","72","H","0","img/none_selected.jpg","","198","main_expt","",""
"","bandit","280","722515","0.0-240.0-0.0","95155418","wem/bandit_party_2","A3OC3VQF3CZ5T0","either","2","410","","","","","","","0","0","1","","0.7134983028","0.8","0.2","0.4","0.6","0.1580048483","0.7134983028","0.8716255916","0.456709553","","","","","","","","","","","","","","74","J","1","","","199","main_expt","",""
"","bandit","281","724373","0.0-241.0-0.0","95155418","wem/bandit_party_2","A3OC3VQF3CZ5T0","either","2","348","","","","","","","1","0","0","0.8596876402","","0.8","0.2","0.4","0.6","","","","","0.1815025648","0.6545285445","0.8596876402","0.4197111003","","","","","","","","","","75","K","2","","","200","main_expt","",""
"","bandit","282","726194","0.0-242.0-0.0","95155418","wem/bandit_party_2","A3OC3VQF3CZ5T0","either","2","310","","","","","","","0","1","0","","0.8714244785","0.8","0.2","0.4","0.6","0.1453003075","0.6827561938","0.8714244785","0.4468864226","","","","","","","","","","","","","","75","K","2","","","201","main_expt","",""
"","bandit","283","727978","0.0-243.0-0.0","95155418","wem/bandit_party_2","A3OC3VQF3CZ5T0","either","2","273","","","","","","","0","1","0","","0.8679491409","0.8","0.2","0.4","0.6","0.1061510446","0.6590680519","0.8679491409","0.3852152277","","","","","","","","","","","","","","75","K","2","","","202","main_expt","",""
"","bandit","284","729782","0.0-244.0-0.0","95155418","wem/bandit_party_2","A3OC3VQF3CZ5T0","either","2","292","","","","","","","1","0","0","0.8421855008","","0.8","0.2","0.4","0.6","","","","","0.09667757311","0.67998256","0.8421855008","0.3481501846","","","","","","","","","","75","K","2","","","203","main_expt","",""
"","bandit","285","731668","0.0-245.0-0.0","95155418","wem/bandit_party_2","A3OC3VQF3CZ5T0","either","2","376","","","","","","","0","1","0","","0.8741547355","0.8","0.2","0.4","0.6","0.109576977","0.7157802034","0.8741547355","0.3688904748","","","","","","","","","","","","","","75","K","2","","","204","main_expt","",""
"","bandit","286","733462","0.0-246.0-0.0","95155418","wem/bandit_party_2","A3OC3VQF3CZ5T0","either","2","284","","","","","","","0","1","0","","0.8589537271","0.8","0.2","0.4","0.6","0.1370524017","0.6750594522","0.8589537271","0.4196025605","","","","","","","","","","","","","","75","K","2","","","205","main_expt","",""
"","bandit","287","735281","0.0-247.0-0.0","95155418","wem/bandit_party_2","A3OC3VQF3CZ5T0","either","2","307","","","","","","","0","1","0","","0.8009191088","0.8","0.2","0.4","0.6","0.1005848846","0.7170784861","0.8009191088","0.3558717694","","","","","","","","","","","","","","75","K","2","","","206","main_expt","",""
"","bandit","288","737122","0.0-248.0-0.0","95155418","wem/bandit_party_2","A3OC3VQF3CZ5T0","either","2","330","","","","","","","0","1","0","","0.8146279372","0.8","0.2","0.4","0.6","0.1100528349","0.6886550294","0.8146279372","0.3978287694","","","","","","","","","","","","","","75","K","2","","","207","main_expt","",""
"","bandit","289","738934","0.0-249.0-0.0","95155418","wem/bandit_party_2","A3OC3VQF3CZ5T0","either","2","301","","","","","","","0","1","0","","0.7498886323","0.8","0.2","0.4","0.6","0.1165568201","0.7340041914","0.7498886323","0.3647175361","","","","","","","","","","","","","","75","K","2","","","208","main_expt","",""
"","bandit","290","740609","0.0-250.0-0.0","95155418","wem/bandit_party_2","A3OC3VQF3CZ5T0","either","2","165","","","","","","","1","0","0","0.781298432","","0.8","0.2","0.4","0.6","","","","","0.1607141963","0.7108339061","0.781298432","0.2942091963","","","","","","","","","","75","K","2","","","209","main_expt","",""
"","bandit","291","742406","0.0-251.0-0.0","95155418","wem/bandit_party_2","A3OC3VQF3CZ5T0","either","2","287","","","","","","","1","0","0","0.8374694261","","0.8","0.2","0.4","0.6","","","","","0.2005879304","0.7322658343","0.8374694261","0.3228874634","","","","","","","","","","75","K","2","","","210","main_expt","",""
"","bandit","292","744182","0.0-252.0-0.0","95155418","wem/bandit_party_2","A3OC3VQF3CZ5T0","either","2","267","","","","","","","1","0","0","0.7461264045","","0.8","0.2","0.4","0.6","","","","","0.1999716741","0.6220956771","0.7461264045","0.3300931135","","","","","","","","","","75","K","2","","","211","main_expt","",""
"","bandit","293","745804","0.0-253.0-0.0","95155418","wem/bandit_party_2","A3OC3VQF3CZ5T0","either","2","110","","","","","","","0","1","0","","0.7267359419","0.8","0.2","0.4","0.6","0.2135957141","0.5400145011","0.7267359419","0.4044608811","","","","","","","","","","","","","","75","K","2","","","212","main_expt","",""
"","bandit","294","747533","0.0-254.0-0.0","95155418","wem/bandit_party_2","A3OC3VQF3CZ5T0","either","2","217","","","","","","","0","1","0","","0.6529835343","0.8","0.2","0.4","0.6","0.2041793084","0.5419994818","0.6529835343","0.4916994921","","","","","","","","","","","","","","75","K","2","","","213","main_expt","",""
"","bandit","295","749461","0.0-255.0-0.0","95155418","wem/bandit_party_2","A3OC3VQF3CZ5T0","either","2","417","","","","","","","1","0","0","0.5734554779","","0.8","0.2","0.4","0.6","","","","","0.2563089198","0.6195319152","0.5734554779","0.5387088508","","","","","","","","","","75","K","2","","","214","main_expt","",""
"","bandit","296","751255","0.0-256.0-0.0","95155418","wem/bandit_party_2","A3OC3VQF3CZ5T0","either","2","281","","","","","","","0","1","0","","0.7056003711","0.8","0.2","0.4","0.6","0.2870699064","0.7405966814","0.7056003711","0.567041903","","","","","","","","","","","","","","75","K","2","","","215","main_expt","",""
"","bandit","297","753064","0.0-257.0-0.0","95155418","wem/bandit_party_2","A3OC3VQF3CZ5T0","either","2","301","","","","","","","0","1","0","","0.7717913507","0.8","0.2","0.4","0.6","0.2715554895","0.8005734678","0.7717913507","0.539749723","","","","","","","","","","","","","","75","K","2","","","216","main_expt","",""
"","bandit","298","754922","0.0-258.0-0.0","95155418","wem/bandit_party_2","A3OC3VQF3CZ5T0","either","2","348","","","","","","","0","1","0","","0.834894728","0.8","0.2","0.4","0.6","0.2027777883","0.8392159132","0.834894728","0.3803352486","","","","","","","","","","","","","","75","K","2","","","217","main_expt","",""
"","bandit","299","756708","0.0-259.0-0.0","95155418","wem/bandit_party_2","A3OC3VQF3CZ5T0","either","2","276","","","","","","","0","1","0","","0.868580258","0.8","0.2","0.4","0.6","0.2169787163","0.7445585264","0.868580258","0.3236333655","","","","","","","","","","","","","","75","K","2","","","218","main_expt","",""
"","bandit","300","758478","0.0-260.0-0.0","95155418","wem/bandit_party_2","A3OC3VQF3CZ5T0","either","2","259","","","","","","","0","1","0","","0.8236231074","0.8","0.2","0.4","0.6","0.2292932202","0.7174829008","0.8236231074","0.2612589469","","","","","","","","","","","","","","75","K","2","","","219","main_expt","",""
"","bandit","301","760311","0.0-261.0-0.0","95155418","wem/bandit_party_2","A3OC3VQF3CZ5T0","either","2","322","","","","","","","1","0","0","0.7719294443","","0.8","0.2","0.4","0.6","","","","","0.2829053382","0.6601767392","0.7719294443","0.2228319794","","","","","","","","","","75","K","2","","","220","main_expt","",""
"","bandit","302","762174","0.0-262.0-0.0","95155418","wem/bandit_party_2","A3OC3VQF3CZ5T0","either","2","354","","","","","","","0","1","0","","0.7609360252","0.8","0.2","0.4","0.6","0.2691731019","0.703996204","0.7609360252","0.2204856404","","","","","","","","","","","","","","75","K","2","","","221","main_expt","",""
"","bandit","303","764014","0.0-263.0-0.0","95155418","wem/bandit_party_2","A3OC3VQF3CZ5T0","either","2","329","","","","","","","0","1","0","","0.7319851961","0.8","0.2","0.4","0.6","0.1974112065","0.6188024556","0.7319851961","0.2269951902","","","","","","","","","","","","","","75","K","2","","","222","main_expt","",""
"","bandit","304","765795","0.0-264.0-0.0","95155418","wem/bandit_party_2","A3OC3VQF3CZ5T0","either","2","270","","","","","","","1","0","0","0.6994646324","","0.8","0.2","0.4","0.6","","","","","0.08486155027","0.5695888615","0.6994646324","0.3417830843","","","","","","","","","","75","K","2","","","223","main_expt","",""
"","bandit","305","767486","0.0-265.0-0.0","95155418","wem/bandit_party_2","A3OC3VQF3CZ5T0","either","2","182","","","","","","","1","0","0","0.6817307813","","0.8","0.2","0.4","0.6","","","","","0.1930609847","0.6590173842","0.6817307813","0.4057490183","","","","","","","","","","75","K","2","","","224","main_expt","",""
"","bandit","306","769257","0.0-266.0-0.0","95155418","wem/bandit_party_2","A3OC3VQF3CZ5T0","either","2","259","","","","","","","0","1","0","","0.67394888","0.8","0.2","0.4","0.6","0.2026087193","0.6779124893","0.67394888","0.4266979185","","","","","","","","","","","","","","75","K","2","","","225","main_expt","",""
"","bandit","307","770825","0.0-267.0-0.0","95155418","wem/bandit_party_2","A3OC3VQF3CZ5T0","either","2","54","","","","","","","0","0","1","","0.6520670614","0.8","0.2","0.4","0.6","0.1295559036","0.6433757785","0.6520670614","0.4723095555","","","","","","","","","","","","","","75","K","2","","","226","main_expt","",""
"","bandit","308","772566","0.0-268.0-0.0","95155418","wem/bandit_party_2","A3OC3VQF3CZ5T0","either","2","228","","","","","","","0","1","0","","0.6050090536","0.8","0.2","0.4","0.6","0.1014701128","0.6050090536","0.6598054912","0.4396274322","","","","","","","","","","","","","","74","J","1","","","227","main_expt","",""
"","bandit","309","774458","0.0-269.0-0.0","95155418","wem/bandit_party_2","A3OC3VQF3CZ5T0","either","2","382","","","","","","","0","0","1","","0.5614220587","0.8","0.2","0.4","0.6","0.1374428951","0.5614220587","0.7313296172","0.4581465293","","","","","","","","","","","","","","74","J","1","","","228","main_expt","",""
"","bandit","310","776309","0.0-270.0-0.0","95155418","wem/bandit_party_2","A3OC3VQF3CZ5T0","either","2","339","","","","","","","0","1","0","","0.536938762","0.8","0.2","0.4","0.6","0.2147377822","0.536938762","0.5771612872","0.3635076811","","","","","","","","","","","","","","74","J","1","","","229","main_expt","",""
"","bandit","311","778197","0.0-271.0-0.0","95155418","wem/bandit_party_2","A3OC3VQF3CZ5T0","either","2","373","","","","","","","0","0","1","0.4691369301","","0.8","0.2","0.4","0.6","","","","","0.2128984172","0.4691369301","0.6474737632","0.4109812081","","","","","","","","","","74","J","1","","","230","main_expt","",""
"","bandit","312","780038","0.0-272.0-0.0","95155418","wem/bandit_party_2","A3OC3VQF3CZ5T0","either","2","328","","","","","","","0","1","0","","0.77083729","0.8","0.2","0.4","0.6","0.2566260117","0.3801843724","0.77083729","0.3769467169","","","","","","","","","","","","","","75","K","2","","","231","main_expt","",""
"","bandit","313","781757","0.0-273.0-0.0","95155418","wem/bandit_party_2","A3OC3VQF3CZ5T0","either","2","209","","","","","","","0","1","0","","0.7372448464","0.8","0.2","0.4","0.6","0.307190163","0.4401380948","0.7372448464","0.4489681289","","","","","","","","","","","","","","75","K","2","","","232","main_expt","",""
"","bandit","314","783547","0.0-274.0-0.0","95155418","wem/bandit_party_2","A3OC3VQF3CZ5T0","either","2","280","","","","","","","1","0","0","0.8061851957","","0.8","0.2","0.4","0.6","","","","","0.3235632008","0.4589823784","0.8061851957","0.5191563331","","","","","","","","","","75","K","2","","","233","main_expt","",""
