"consent","trial_type","trial_index","time_elapsed","internal_node_id","subjID","study","MID","cond","drift","rt","responses","button_pressed","key_press","like","value","connected","gems","bombs","no_reward","GemPrChosen","BombPrChosen","GainOverPainPr_0","GainOverPainPr_1","GainOverPainPr_2","GainOverPainPr_3","LosePr_0","LosePr_1","LosePr_2","LosePr_3","WinPr_0","WinPr_1","WinPr_2","WinPr_3","Q0","Q1","Q2","gender","age","ethnicity","label","expt_phase","target","respCharCode","respKey","respChoiceNum","respChoice","practice","trial_counter","trial_label","Q0_index"
"GDM/GDM_behavioral_consent_30min_online.html","consent","0","6347","0.0-0.0","95382750","wem/bandit_party_2","A1QTFE8FVK3HMG","either","4","","","","","","","","","","","","","","","","","","","","","","","","","","","","","","","","","","","","","","","","",""
"","survey-text","1","10357","0.0-1.0","95382750","wem/bandit_party_2","A1QTFE8FVK3HMG","either","4","2992","{""Q0"":""A1QTFE8FVK3HMG""}","","","","","","","","","","","","","","","","","","","","","","","","","","","","","","","","","","","","","","",""
"","button-response","2","12662","0.0-2.0","95382750","wem/bandit_party_2","A1QTFE8FVK3HMG","either","4","1295","","1","","","","","","","","","","","","","","","","","","","","","","","","","","","","","","","","","","","","","",""
"","text-replacement","3","18257","0.0-3.0","95382750","wem/bandit_party_2","A1QTFE8FVK3HMG","either","4","4588","","","32","","","","","","","","","","","","","","","","","","","","","","","","","","","","","","","","","","","","",""
"","text-replacement","4","22022","0.0-4.0","95382750","wem/bandit_party_2","A1QTFE8FVK3HMG","either","4","3762","","","32","","","","","","","","","","","","","","","","","","","","","","","","","","","","","","","","","","","","",""
"","identification","5","28137","0.0-6.0-0.0","95382750","wem/bandit_party_2","A1QTFE8FVK3HMG","either","4","6085","","","","3","4","4","","","","","","","","","","","","","","","","","","","","","","","","pre","identification_pre","the Democratic Party","","","","","","","",""
"","identification","6","31315","0.0-6.0-1.0","95382750","wem/bandit_party_2","A1QTFE8FVK3HMG","either","4","2148","","","","0","0","0","","","","","","","","","","","","","","","","","","","","","","","","pre","identification_pre","the Republican Party","","","","","","","",""
"","text-replacement","7","35934","0.0-7.0","95382750","wem/bandit_party_2","A1QTFE8FVK3HMG","either","4","3615","","","32","","","","","","","","","","","","","","","","","","","","","","","","","","","","","","","","","","","","",""
"","text-replacement","8","39473","0.0-8.0","95382750","wem/bandit_party_2","A1QTFE8FVK3HMG","either","4","3534","","","32","","","","","","","","","","","","","","","","","","","","","","","","","","","","","","","","","","","","",""
"","text-replacement","9","44728","0.0-9.0","95382750","wem/bandit_party_2","A1QTFE8FVK3HMG","either","4","5253","","","32","","","","","","","","","","","","","","","","","","","","","","","","","","","","","","","","","","","","",""
"","text-replacement","10","46883","0.0-10.0","95382750","wem/bandit_party_2","A1QTFE8FVK3HMG","either","4","2152","","","32","","","","","","","","","","","","","","","","","","","","","","","","","","","","","","","","","","","","",""
"","text-replacement","11","52261","0.0-11.0","95382750","wem/bandit_party_2","A1QTFE8FVK3HMG","either","4","5376","","","32","","","","","","","","","","","","","","","","","","","","","","","","","","","","","","","","","","","","",""
"","bandit","12","55009","0.0-12.0-0.0","95382750","wem/bandit_party_2","A1QTFE8FVK3HMG","either","4","1233","","","","","","","0","0","1","0","0","","","","","0","","","","0","","","","","","","","","","","","","74","J","0","img/none_selected_demo.jpg","true","0","",""
"","bandit","13","57621","0.0-13.0-0.0","95382750","wem/bandit_party_2","A1QTFE8FVK3HMG","either","4","1103","","","","","","","0","0","1","0","0","","","","","0","","","","0","","","","","","","","","","","","","75","K","0","img/none_selected_demo.jpg","true","0","",""
"","text-replacement","14","59930","0.0-14.0","95382750","wem/bandit_party_2","A1QTFE8FVK3HMG","either","4","2306","","","32","","","","","","","","","","","","","","","","","","","","","","","","","","","","","","","","","","","","",""
"","text-replacement","15","66822","0.0-15.0","95382750","wem/bandit_party_2","A1QTFE8FVK3HMG","either","4","6889","","","32","","","","","","","","","","","","","","","","","","","","","","","","","","","","","","","","","","","","",""
"","text-replacement","16","70206","0.0-16.0","95382750","wem/bandit_party_2","A1QTFE8FVK3HMG","either","4","3381","","","32","","","","","","","","","","","","","","","","","","","","","","","","","","","","","","","","","","","","",""
"","text-replacement","17","75582","0.0-17.0","95382750","wem/bandit_party_2","A1QTFE8FVK3HMG","either","4","5373","","","32","","","","","","","","","","","","","","","","","","","","","","","","","","","","","","","","","","","","",""
"","bandit","18","77707","0.0-18.0-0.0","95382750","wem/bandit_party_2","A1QTFE8FVK3HMG","either","4","617","","","","","","","0","1","0","","0.8","0.5","0.5","","","0.8","0.2","","","","","","","","","","","","","","","","74","J","0","img/none_selected_demo.jpg","true","0","80_20_practice",""
"","bandit","19","79262","0.0-18.0-1.0","95382750","wem/bandit_party_2","A1QTFE8FVK3HMG","either","4","45","","","","","","","0","1","0","","0.8","0.5","0.5","","","0.8","0.2","","","","","","","","","","","","","","","","74","J","0","img/none_selected_demo.jpg","true","0","80_20_practice",""
"","bandit","20","81030","0.0-18.0-2.0","95382750","wem/bandit_party_2","A1QTFE8FVK3HMG","either","4","260","","","","","","","0","0","1","","0.8","0.5","0.5","","","0.8","0.2","","","","","","","","","","","","","","","","74","J","0","img/none_selected_demo.jpg","true","0","80_20_practice",""
"","bandit","21","82539","0.0-18.0-3.0","95382750","wem/bandit_party_2","A1QTFE8FVK3HMG","either","4","1","","","","","","","0","1","0","","0.8","0.5","0.5","","","0.8","0.2","","","","","","","","","","","","","","","","74","J","0","img/none_selected_demo.jpg","true","0","80_20_practice",""
"","bandit","22","84132","0.0-18.0-4.0","95382750","wem/bandit_party_2","A1QTFE8FVK3HMG","either","4","84","","","","","","","1","0","0","0.8","","0.5","0.5","","","","","","","0.8","0.2","","","","","","","","","","","","74","J","0","img/none_selected_demo.jpg","true","0","80_20_practice",""
"","bandit","23","86476","0.0-18.0-5.0","95382750","wem/bandit_party_2","A1QTFE8FVK3HMG","either","4","836","","","","","","","1","0","0","0.8","","0.5","0.5","","","","","","","0.8","0.2","","","","","","","","","","","","74","J","0","img/none_selected_demo.jpg","true","0","80_20_practice",""
"","bandit","24","88269","0.0-18.0-6.0","95382750","wem/bandit_party_2","A1QTFE8FVK3HMG","either","4","285","","","","","","","1","0","0","0.8","","0.5","0.5","","","","","","","0.8","0.2","","","","","","","","","","","","74","J","0","img/none_selected_demo.jpg","true","0","80_20_practice",""
"","bandit","25","89997","0.0-18.0-7.0","95382750","wem/bandit_party_2","A1QTFE8FVK3HMG","either","4","219","","","","","","","1","0","0","0.8","","0.5","0.5","","","","","","","0.8","0.2","","","","","","","","","","","","74","J","0","img/none_selected_demo.jpg","true","0","80_20_practice",""
"","bandit","26","91688","0.0-18.0-8.0","95382750","wem/bandit_party_2","A1QTFE8FVK3HMG","either","4","181","","","","","","","0","0","1","0.8","","0.5","0.5","","","","","","","0.8","0.2","","","","","","","","","","","","74","J","0","img/none_selected_demo.jpg","true","0","80_20_practice",""
"","bandit","27","93452","0.0-18.0-9.0","95382750","wem/bandit_party_2","A1QTFE8FVK3HMG","either","4","256","","","","","","","1","0","0","0.8","","0.5","0.5","","","","","","","0.8","0.2","","","","","","","","","","","","74","J","0","img/none_selected_demo.jpg","true","0","80_20_practice",""
"","bandit","28","96038","0.0-18.0-10.0","95382750","wem/bandit_party_2","A1QTFE8FVK3HMG","either","4","1076","","","","","","","0","0","1","0.8","","0.5","0.5","","","","","","","0.8","0.2","","","","","","","","","","","","74","J","0","img/none_selected_demo.jpg","true","0","80_20_practice",""
"","bandit","29","97587","0.0-18.0-11.0","95382750","wem/bandit_party_2","A1QTFE8FVK3HMG","either","4","40","","","","","","","0","1","0","","0.8","0.5","0.5","","","0.8","0.2","","","","","","","","","","","","","","","","74","J","0","img/none_selected_demo.jpg","true","0","80_20_practice",""
"","bandit","30","99286","0.0-18.0-12.0","95382750","wem/bandit_party_2","A1QTFE8FVK3HMG","either","4","189","","","","","","","1","0","0","0.8","","0.5","0.5","","","","","","","0.8","0.2","","","","","","","","","","","","74","J","0","img/none_selected_demo.jpg","true","0","80_20_practice",""
"","bandit","31","100824","0.0-18.0-13.0","95382750","wem/bandit_party_2","A1QTFE8FVK3HMG","either","4","28","","","","","","","1","0","0","0.8","","0.5","0.5","","","","","","","0.8","0.2","","","","","","","","","","","","74","J","0","img/none_selected_demo.jpg","true","0","80_20_practice",""
"","bandit","32","102350","0.0-18.0-14.0","95382750","wem/bandit_party_2","A1QTFE8FVK3HMG","either","4","17","","","","","","","1","0","0","0.8","","0.5","0.5","","","","","","","0.8","0.2","","","","","","","","","","","","74","J","0","img/none_selected_demo.jpg","true","0","80_20_practice",""
"","bandit","33","104715","0.0-18.0-15.0","95382750","wem/bandit_party_2","A1QTFE8FVK3HMG","either","4","857","","","","","","","1","0","0","0.8","","0.5","0.5","","","","","","","0.8","0.2","","","","","","","","","","","","74","J","0","img/none_selected_demo.jpg","true","0","80_20_practice",""
"","bandit","34","106598","0.0-18.0-16.0","95382750","wem/bandit_party_2","A1QTFE8FVK3HMG","either","4","371","","","","","","","1","0","0","0.8","","0.5","0.5","","","","","","","0.8","0.2","","","","","","","","","","","","74","J","0","img/none_selected_demo.jpg","true","0","80_20_practice",""
"","bandit","35","108232","0.0-18.0-17.0","95382750","wem/bandit_party_2","A1QTFE8FVK3HMG","either","4","124","","","","","","","0","1","0","","0.8","0.5","0.5","","","0.8","0.2","","","","","","","","","","","","","","","","74","J","0","img/none_selected_demo.jpg","true","0","80_20_practice",""
"","bandit","36","109807","0.0-18.0-18.0","95382750","wem/bandit_party_2","A1QTFE8FVK3HMG","either","4","63","","","","","","","1","0","0","0.8","","0.5","0.5","","","","","","","0.8","0.2","","","","","","","","","","","","74","J","0","img/none_selected_demo.jpg","true","0","80_20_practice",""
"","bandit","37","111433","0.0-18.0-19.0","95382750","wem/bandit_party_2","A1QTFE8FVK3HMG","either","4","118","","","","","","","0","0","1","","0.8","0.5","0.5","","","0.8","0.2","","","","","","","","","","","","","","","","74","J","0","img/none_selected_demo.jpg","true","0","80_20_practice",""
"","text-replacement","38","115876","0.0-19.0","95382750","wem/bandit_party_2","A1QTFE8FVK3HMG","either","4","4439","","","32","","","","","","","","","","","","","","","","","","","","","","","","","","","","","","","","","","","","",""
"","bandit","39","117868","0.0-20.0-0.0","95382750","wem/bandit_party_2","A1QTFE8FVK3HMG","either","4","482","","","","","","","1","0","0","1","0","","","","","0","1","","","1","0","","","","","","","","","","","","74","J","0","img/none_selected_demo.jpg","true","0","",""
"","text-replacement","40","119277","0.0-21.0","95382750","wem/bandit_party_2","A1QTFE8FVK3HMG","either","4","1404","","","32","","","","","","","","","","","","","","","","","","","","","","","","","","","","","","","","","","","","",""
"","text-replacement","41","120959","0.0-22.0","95382750","wem/bandit_party_2","A1QTFE8FVK3HMG","either","4","1680","","","32","","","","","","","","","","","","","","","","","","","","","","","","","","","","","","","","","","","","",""
"","text-replacement","42","122067","0.0-23.0","95382750","wem/bandit_party_2","A1QTFE8FVK3HMG","either","4","1104","","","32","","","","","","","","","","","","","","","","","","","","","","","","","","","","","","","","","","","","",""
"","text-replacement","43","123578","0.0-24.0","95382750","wem/bandit_party_2","A1QTFE8FVK3HMG","either","4","1507","","","32","","","","","","","","","","","","","","","","","","","","","","","","","","","","","","","","","","","","",""
"","text-replacement","44","126611","0.0-25.0","95382750","wem/bandit_party_2","A1QTFE8FVK3HMG","either","4","3029","","","32","","","","","","","","","","","","","","","","","","","","","","","","","","","","","","","","","","","","",""
"","text-replacement","45","127813","0.0-26.0","95382750","wem/bandit_party_2","A1QTFE8FVK3HMG","either","4","1199","","","32","","","","","","","","","","","","","","","","","","","","","","","","","","","","","","","","","","","","",""
"","text-replacement","46","129999","0.0-27.0","95382750","wem/bandit_party_2","A1QTFE8FVK3HMG","either","4","2183","","","32","","","","","","","","","","","","","","","","","","","","","","","","","","","","","","","","","","","","",""
"","text-replacement","47","131442","0.0-28.0","95382750","wem/bandit_party_2","A1QTFE8FVK3HMG","either","4","1439","","","32","","","","","","","","","","","","","","","","","","","","","","","","","","","","","","","","","","","","",""
"","text-replacement","48","133043","0.0-29.0","95382750","wem/bandit_party_2","A1QTFE8FVK3HMG","either","4","1598","","","32","","","","","","","","","","","","","","","","","","","","","","","","","","","","","","","","","","","","",""
"","text-replacement","49","133928","0.0-30.0","95382750","wem/bandit_party_2","A1QTFE8FVK3HMG","either","4","882","","","32","","","","","","","","","","","","","","","","","","","","","","","","","","","","","","","","","","","","",""
"","text-replacement","50","134678","0.0-31.0","95382750","wem/bandit_party_2","A1QTFE8FVK3HMG","either","4","746","","","32","","","","","","","","","","","","","","","","","","","","","","","","","","","","","","","","","","","","",""
"","bandit","51","136892","0.0-32.0-0.0","95382750","wem/bandit_party_2","A1QTFE8FVK3HMG","either","4","705","","","","","","","1","0","0","0.2","","0.5","0.5","0.5","0.5","","","","","0.8","0.2","0.6","0.2","","","","","","","","","","74","J","1","","true","0","full_practice",""
"","bandit","52","138795","0.0-32.0-1.0","95382750","wem/bandit_party_2","A1QTFE8FVK3HMG","either","4","393","","","","","","","0","0","1","","0.2","0.5","0.5","0.5","0.5","0.8","0.2","0.6","0.2","","","","","","","","","","","","","","74","J","1","","true","0","full_practice",""
"","bandit","53","140648","0.0-32.0-2.0","95382750","wem/bandit_party_2","A1QTFE8FVK3HMG","either","4","343","","","","","","","0","0","1","0.2","","0.5","0.5","0.5","0.5","","","","","0.8","0.2","0.6","0.2","","","","","","","","","","74","J","1","","true","0","full_practice",""
"","bandit","54","142557","0.0-32.0-3.0","95382750","wem/bandit_party_2","A1QTFE8FVK3HMG","either","4","399","","","","","","","0","0","1","0.6","","0.5","0.5","0.5","0.5","","","","","0.8","0.2","0.6","0.2","","","","","","","","","","75","K","2","","true","0","full_practice",""
"","bandit","55","144316","0.0-32.0-4.0","95382750","wem/bandit_party_2","A1QTFE8FVK3HMG","either","4","251","","","","","","","0","0","1","0.2","","0.5","0.5","0.5","0.5","","","","","0.8","0.2","0.6","0.2","","","","","","","","","","76","L","3","","true","0","full_practice",""
"","bandit","56","146096","0.0-32.0-5.0","95382750","wem/bandit_party_2","A1QTFE8FVK3HMG","either","4","272","","","","","","","1","0","0","0.8","","0.5","0.5","0.5","0.5","","","","","0.8","0.2","0.6","0.2","","","","","","","","","","72","H","0","img/none_selected.jpg","true","0","full_practice",""
"","bandit","57","147897","0.0-32.0-6.0","95382750","wem/bandit_party_2","A1QTFE8FVK3HMG","either","4","291","","","","","","","0","0","1","0.8","","0.5","0.5","0.5","0.5","","","","","0.8","0.2","0.6","0.2","","","","","","","","","","72","H","0","img/none_selected.jpg","true","0","full_practice",""
"","bandit","58","149586","0.0-32.0-7.0","95382750","wem/bandit_party_2","A1QTFE8FVK3HMG","either","4","181","","","","","","","0","1","0","","0.8","0.5","0.5","0.5","0.5","0.8","0.2","0.6","0.2","","","","","","","","","","","","","","72","H","0","img/none_selected.jpg","true","0","full_practice",""
"","bandit","59","151581","0.0-32.0-8.0","95382750","wem/bandit_party_2","A1QTFE8FVK3HMG","either","4","486","","","","","","","1","0","0","0.8","","0.5","0.5","0.5","0.5","","","","","0.8","0.2","0.6","0.2","","","","","","","","","","72","H","0","img/none_selected.jpg","true","0","full_practice",""
"","bandit","60","153445","0.0-32.0-9.0","95382750","wem/bandit_party_2","A1QTFE8FVK3HMG","either","4","356","","","","","","","0","1","0","","0.8","0.5","0.5","0.5","0.5","0.8","0.2","0.6","0.2","","","","","","","","","","","","","","72","H","0","img/none_selected.jpg","true","0","full_practice",""
"","bandit","61","155285","0.0-32.0-10.0","95382750","wem/bandit_party_2","A1QTFE8FVK3HMG","either","4","330","","","","","","","0","1","0","","0.8","0.5","0.5","0.5","0.5","0.8","0.2","0.6","0.2","","","","","","","","","","","","","","72","H","0","img/none_selected.jpg","true","0","full_practice",""
"","bandit","62","157117","0.0-32.0-11.0","95382750","wem/bandit_party_2","A1QTFE8FVK3HMG","either","4","321","","","","","","","1","0","0","0.8","","0.5","0.5","0.5","0.5","","","","","0.8","0.2","0.6","0.2","","","","","","","","","","72","H","0","img/none_selected.jpg","true","0","full_practice",""
"","bandit","63","158941","0.0-32.0-12.0","95382750","wem/bandit_party_2","A1QTFE8FVK3HMG","either","4","315","","","","","","","1","0","0","0.8","","0.5","0.5","0.5","0.5","","","","","0.8","0.2","0.6","0.2","","","","","","","","","","72","H","0","img/none_selected.jpg","true","0","full_practice",""
"","bandit","64","160524","0.0-32.0-13.0","95382750","wem/bandit_party_2","A1QTFE8FVK3HMG","either","4","77","","","","","","","0","1","0","","0.8","0.5","0.5","0.5","0.5","0.8","0.2","0.6","0.2","","","","","","","","","","","","","","72","H","0","img/none_selected.jpg","true","0","full_practice",""
"","bandit","65","162171","0.0-32.0-14.0","95382750","wem/bandit_party_2","A1QTFE8FVK3HMG","either","4","137","","","","","","","1","0","0","0.8","","0.5","0.5","0.5","0.5","","","","","0.8","0.2","0.6","0.2","","","","","","","","","","72","H","0","img/none_selected.jpg","true","0","full_practice",""
"","bandit","66","163682","0.0-32.0-15.0","95382750","wem/bandit_party_2","A1QTFE8FVK3HMG","either","4","1","","","","","","","0","1","0","","0.8","0.5","0.5","0.5","0.5","0.8","0.2","0.6","0.2","","","","","","","","","","","","","","72","H","0","img/none_selected.jpg","true","0","full_practice",""
"","bandit","67","165314","0.0-32.0-16.0","95382750","wem/bandit_party_2","A1QTFE8FVK3HMG","either","4","121","","","","","","","1","0","0","0.8","","0.5","0.5","0.5","0.5","","","","","0.8","0.2","0.6","0.2","","","","","","","","","","72","H","0","img/none_selected.jpg","true","0","full_practice",""
"","bandit","68","166960","0.0-32.0-17.0","95382750","wem/bandit_party_2","A1QTFE8FVK3HMG","either","4","135","","","","","","","0","1","0","","0.8","0.5","0.5","0.5","0.5","0.8","0.2","0.6","0.2","","","","","","","","","","","","","","72","H","0","img/none_selected.jpg","true","0","full_practice",""
"","bandit","69","168622","0.0-32.0-18.0","95382750","wem/bandit_party_2","A1QTFE8FVK3HMG","either","4","150","","","","","","","1","0","0","0.8","","0.5","0.5","0.5","0.5","","","","","0.8","0.2","0.6","0.2","","","","","","","","","","72","H","0","img/none_selected.jpg","true","0","full_practice",""
"","bandit","70","170299","0.0-32.0-19.0","95382750","wem/bandit_party_2","A1QTFE8FVK3HMG","either","4","166","","","","","","","0","1","0","","0.8","0.5","0.5","0.5","0.5","0.8","0.2","0.6","0.2","","","","","","","","","","","","","","72","H","0","img/none_selected.jpg","true","0","full_practice",""
"","text","71","173053","0.0-33.0","95382750","wem/bandit_party_2","A1QTFE8FVK3HMG","either","4","2739","","","32","","","","","","","","","","","","","","","","","","","","","","","","","","","","","","","","","","","","",""
"","text-replacement","72","180736","0.0-34.0","95382750","wem/bandit_party_2","A1QTFE8FVK3HMG","either","4","6677","","","32","","","","","","","","","","","","","","","","","","","","","","","","","","","","","","","","","","","","",""
"","text-replacement","73","184322","0.0-35.0","95382750","wem/bandit_party_2","A1QTFE8FVK3HMG","either","4","3582","","","32","","","","","","","","","","","","","","","","","","","","","","","","","","","","","","","","","","","","",""
"","text-replacement","74","186727","0.0-36.0","95382750","wem/bandit_party_2","A1QTFE8FVK3HMG","either","4","2400","","","32","","","","","","","","","","","","","","","","","","","","","","","","","","","","","","","","","","","","",""
"","text-replacement","75","189578","0.0-37.0","95382750","wem/bandit_party_2","A1QTFE8FVK3HMG","either","4","2846","","","32","","","","","","","","","","","","","","","","","","","","","","","","","","","","","","","","","","","","",""
"","text-replacement","76","191566","0.0-38.0","95382750","wem/bandit_party_2","A1QTFE8FVK3HMG","either","4","1984","","","32","","","","","","","","","","","","","","","","","","","","","","","","","","","","","","","","","","","","",""
"","survey-multi-choice-replacement","77","195310","0.0-39.0-0.0","95382750","wem/bandit_party_2","A1QTFE8FVK3HMG","either","4","3726","","","","","","","","","","","","","","","","","","","","","","","","Money will be added to the pool for <span style='color:blue;'>DEMOCRATS</span>","","","","","","","attn_check","","","","","","","","","0"
"","survey-multi-choice-replacement","78","200048","0.0-40.0-0.0","95382750","wem/bandit_party_2","A1QTFE8FVK3HMG","either","4","3719","","","","","","","","","","","","","","","","","","","","","","","","Equal amounts of money will be added to the pool for <span style='color:blue;'>DEMOCRATS</span> and subtracted from the pool for <span style='color:red;'>REPUBLICANS</span>","","","","","","","attn_check","","","","","","","","","2"
"","survey-multi-choice-replacement","79","204029","0.0-41.0-0.0","95382750","wem/bandit_party_2","A1QTFE8FVK3HMG","either","4","2961","","","","","","","","","","","","","","","","","","","","","","","","No money will be added to either pool","","","","","","","attn_check","","","","","","","","","3"
"","bandit","80","207947","0.0-42.0-0.0","95382750","wem/bandit_party_2","A1QTFE8FVK3HMG","either","4","1402","","","","","","","1","0","0","0.8209843215","","0.6","0.8","0.2","0.4","","","","","0.8209843215","0.2887693562","0.9858900825","0.7267404998","","","","","","","","","","72","H","0","img/none_selected.jpg","","1","main_expt",""
"","bandit","81","209773","0.0-43.0-0.0","95382750","wem/bandit_party_2","A1QTFE8FVK3HMG","either","4","315","","","","","","","0","0","1","","0.8179122382","0.6","0.8","0.2","0.4","0.8179122382","0.2986217167","0.9854924354","0.7034907646","","","","","","","","","","","","","","72","H","0","img/none_selected.jpg","","2","main_expt",""
"","bandit","82","211535","0.0-44.0-0.0","95382750","wem/bandit_party_2","A1QTFE8FVK3HMG","either","4","250","","","","","","","1","0","0","0.8301291561","","0.6","0.8","0.2","0.4","","","","","0.8301291561","0.261346942","0.9789624529","0.6574847675","","","","","","","","","","72","H","0","img/none_selected.jpg","","3","main_expt",""
"","bandit","83","213341","0.0-45.0-0.0","95382750","wem/bandit_party_2","A1QTFE8FVK3HMG","either","4","296","","","","","","","0","1","0","","0.8219157537","0.6","0.8","0.2","0.4","0.8219157537","0.2757740293","0.9565345184","0.5092805277","","","","","","","","","","","","","","72","H","0","img/none_selected.jpg","","4","main_expt",""
"","bandit","84","215113","0.0-46.0-0.0","95382750","wem/bandit_party_2","A1QTFE8FVK3HMG","either","4","264","","","","","","","0","0","1","0.7759220463","","0.6","0.8","0.2","0.4","","","","","0.7759220463","0.3329857669","0.941194936","0.5952926025","","","","","","","","","","72","H","0","img/none_selected.jpg","","5","main_expt",""
"","bandit","85","216645","0.0-47.0-0.0","95382750","wem/bandit_party_2","A1QTFE8FVK3HMG","either","4","24","","","","","","","1","0","0","0.7495930044","","0.6","0.8","0.2","0.4","","","","","0.7495930044","0.331878758","0.9305219143","0.6160758637","","","","","","","","","","72","H","0","img/none_selected.jpg","","6","main_expt",""
"","bandit","86","218477","0.0-48.0-0.0","95382750","wem/bandit_party_2","A1QTFE8FVK3HMG","either","4","321","","","","","","","1","0","0","0.7078030286","","0.6","0.8","0.2","0.4","","","","","0.7078030286","0.3863389794","0.937738562","0.6381806331","","","","","","","","","","72","H","0","img/none_selected.jpg","","7","main_expt",""
"","bandit","87","220281","0.0-49.0-0.0","95382750","wem/bandit_party_2","A1QTFE8FVK3HMG","either","4","294","","","","","","","1","0","0","0.689407674","","0.6","0.8","0.2","0.4","","","","","0.689407674","0.4242016385","0.8269671957","0.7047831713","","","","","","","","","","72","H","0","img/none_selected.jpg","","8","main_expt",""
"","bandit","88","222046","0.0-50.0-0.0","95382750","wem/bandit_party_2","A1QTFE8FVK3HMG","either","4","253","","","","","","","1","0","0","0.7848236408","","0.6","0.8","0.2","0.4","","","","","0.7848236408","0.379169242","0.7696709776","0.6222923336","","","","","","","","","","72","H","0","img/none_selected.jpg","","9","main_expt",""
"","bandit","89","223896","0.0-51.0-0.0","95382750","wem/bandit_party_2","A1QTFE8FVK3HMG","either","4","333","","","","","","","0","0","1","","0.791363481","0.6","0.8","0.2","0.4","0.791363481","0.40569916","0.7313552403","0.5629201009","","","","","","","","","","","","","","72","H","0","img/none_selected.jpg","","10","main_expt",""
"","bandit","90","225564","0.0-52.0-0.0","95382750","wem/bandit_party_2","A1QTFE8FVK3HMG","either","4","159","","","","","","","1","0","0","0.7800632456","","0.6","0.8","0.2","0.4","","","","","0.7800632456","0.4188021694","0.8129169819","0.644159789","","","","","","","","","","72","H","0","img/none_selected.jpg","","11","main_expt",""
"","bandit","91","227225","0.0-53.0-0.0","95382750","wem/bandit_party_2","A1QTFE8FVK3HMG","either","4","149","","","","","","","0","1","0","","0.7559884596","0.6","0.8","0.2","0.4","0.7559884596","0.3689559917","0.7611571711","0.6840372722","","","","","","","","","","","","","","72","H","0","img/none_selected.jpg","","12","main_expt",""
"","bandit","92","228891","0.0-54.0-0.0","95382750","wem/bandit_party_2","A1QTFE8FVK3HMG","either","4","154","","","","","","","1","0","0","0.7695577991","","0.6","0.8","0.2","0.4","","","","","0.7695577991","0.4584943612","0.7628417147","0.6236151953","","","","","","","","","","72","H","0","img/none_selected.jpg","","13","main_expt",""
"","bandit","93","230701","0.0-55.0-0.0","95382750","wem/bandit_party_2","A1QTFE8FVK3HMG","either","4","298","","","","","","","0","0","1","0.8509931145","","0.6","0.8","0.2","0.4","","","","","0.8509931145","0.455083938","0.7436451733","0.5388331182","","","","","","","","","","72","H","0","img/none_selected.jpg","","14","main_expt",""
"","bandit","94","232415","0.0-56.0-0.0","95382750","wem/bandit_party_2","A1QTFE8FVK3HMG","either","4","202","","","","","","","0","1","0","","0.7745856811","0.6","0.8","0.2","0.4","0.7745856811","0.5360112786","0.8256008488","0.4802769188","","","","","","","","","","","","","","72","H","0","img/none_selected.jpg","","15","main_expt",""
"","bandit","95","234090","0.0-57.0-0.0","95382750","wem/bandit_party_2","A1QTFE8FVK3HMG","either","4","163","","","","","","","1","0","0","0.7576521113","","0.6","0.8","0.2","0.4","","","","","0.7576521113","0.4791571541","0.7683027423","0.4688000192","","","","","","","","","","72","H","0","img/none_selected.jpg","","16","main_expt",""
"","bandit","96","235747","0.0-58.0-0.0","95382750","wem/bandit_party_2","A1QTFE8FVK3HMG","either","4","147","","","","","","","0","1","0","","0.8099558365","0.6","0.8","0.2","0.4","0.8099558365","0.5263630166","0.7857675768","0.6000602573","","","","","","","","","","","","","","72","H","0","img/none_selected.jpg","","17","main_expt",""
"","bandit","97","238237","0.0-59.0-0.0","95382750","wem/bandit_party_2","A1QTFE8FVK3HMG","either","4","979","","","","","","","0","1","0","","0.7535280451","0.6","0.8","0.2","0.4","0.7535280451","0.543945959","0.7303419725","0.6046592687","","","","","","","","","","","","","","72","H","0","img/none_selected.jpg","","18","main_expt",""
"","bandit","98","239765","0.0-60.0-0.0","95382750","wem/bandit_party_2","A1QTFE8FVK3HMG","either","4","16","","","","","","","0","1","0","","0.7206444799","0.6","0.8","0.2","0.4","0.7206444799","0.4579801682","0.7243255268","0.6177236116","","","","","","","","","","","","","","72","H","0","img/none_selected.jpg","","19","main_expt",""
"","bandit","99","241574","0.0-61.0-0.0","95382750","wem/bandit_party_2","A1QTFE8FVK3HMG","either","4","296","","","","","","","1","0","0","0.6388551968","","0.6","0.8","0.2","0.4","","","","","0.6388551968","0.5439896582","0.7691283854","0.5484637992","","","","","","","","","","72","H","0","img/none_selected.jpg","","20","main_expt",""
"","bandit","100","243179","0.0-62.0-0.0","95382750","wem/bandit_party_2","A1QTFE8FVK3HMG","either","4","94","","","","","","","0","0","1","0.4956822649","","0.6","0.8","0.2","0.4","","","","","0.4956822649","0.5796019833","0.7068464658","0.6646151354","","","","","","","","","","72","H","0","img/none_selected.jpg","","21","main_expt",""
"","bandit","101","244905","0.0-63.0-0.0","95382750","wem/bandit_party_2","A1QTFE8FVK3HMG","either","4","214","","","","","","","0","1","0","","0.4316307404","0.6","0.8","0.2","0.4","0.4316307404","0.5885929095","0.7407239748","0.7223938077","","","","","","","","","","","","","","72","H","0","img/none_selected.jpg","","22","main_expt",""
"","bandit","102","246728","0.0-64.0-0.0","95382750","wem/bandit_party_2","A1QTFE8FVK3HMG","either","4","310","","","","","","","0","0","1","","0.4158022912","0.6","0.8","0.2","0.4","0.4158022912","0.4899642796","0.7300920021","0.7548690184","","","","","","","","","","","","","","72","H","0","img/none_selected.jpg","","23","main_expt",""
"","bandit","103","248380","0.0-65.0-0.0","95382750","wem/bandit_party_2","A1QTFE8FVK3HMG","either","4","141","","","","","","","0","0","1","0.4099928258","","0.6","0.8","0.2","0.4","","","","","0.4099928258","0.4984159311","0.7074307303","0.7794954679","","","","","","","","","","72","H","0","img/none_selected.jpg","","24","main_expt",""
"","bandit","104","249955","0.0-66.0-0.0","95382750","wem/bandit_party_2","A1QTFE8FVK3HMG","either","4","62","","","","","","","0","0","1","","0.5885503773","0.6","0.8","0.2","0.4","0.4303724308","0.5885503773","0.6228099684","0.8029664172","","","","","","","","","","","","","","74","J","1","","","25","main_expt",""
"","bandit","105","251545","0.0-67.0-0.0","95382750","wem/bandit_party_2","A1QTFE8FVK3HMG","either","4","77","","","","","","","0","0","1","","0.5588879168","0.6","0.8","0.2","0.4","0.3291624114","0.6978100054","0.5588879168","0.6980766755","","","","","","","","","","","","","","75","K","2","","","26","main_expt",""
"","bandit","106","253281","0.0-68.0-0.0","95382750","wem/bandit_party_2","A1QTFE8FVK3HMG","either","4","226","","","","","","","0","0","1","","0.7021498626","0.6","0.8","0.2","0.4","0.3795789415","0.6442468271","0.5033257713","0.7021498626","","","","","","","","","","","","","","76","L","3","","","27","main_expt",""
"","bandit","107","255153","0.0-69.0-0.0","95382750","wem/bandit_party_2","A1QTFE8FVK3HMG","either","4","359","","","","","","","1","0","0","0.7399213538","","0.6","0.8","0.2","0.4","","","","","0.3208573938","0.7399213538","0.4915102133","0.7802436781","","","","","","","","","","74","J","1","","","28","main_expt",""
"","bandit","108","256750","0.0-70.0-0.0","95382750","wem/bandit_party_2","A1QTFE8FVK3HMG","either","4","86","","","","","","","0","0","1","0.7520253205","","0.6","0.8","0.2","0.4","","","","","0.3352919619","0.7520253205","0.4291187576","0.6907923131","","","","","","","","","","74","J","1","","","29","main_expt",""
"","bandit","109","258399","0.0-71.0-0.0","95382750","wem/bandit_party_2","A1QTFE8FVK3HMG","either","4","138","","","","","","","1","0","0","0.7528469829","","0.6","0.8","0.2","0.4","","","","","0.3452717309","0.7528469829","0.5379907803","0.6771306444","","","","","","","","","","74","J","1","","","30","main_expt",""
"","bandit","110","260213","0.0-72.0-0.0","95382750","wem/bandit_party_2","A1QTFE8FVK3HMG","either","4","302","","","","","","","0","1","0","","0.7571908429","0.6","0.8","0.2","0.4","0.2967094522","0.7571908429","0.646046857","0.7130915948","","","","","","","","","","","","","","74","J","1","","","31","main_expt",""
"","bandit","111","261965","0.0-73.0-0.0","95382750","wem/bandit_party_2","A1QTFE8FVK3HMG","either","4","241","","","","","","","0","0","1","0.7530934884","","0.6","0.8","0.2","0.4","","","","","0.255781972","0.7530934884","0.5608885347","0.6849190202","","","","","","","","","","74","J","1","","","32","main_expt",""
"","bandit","112","264310","0.0-74.0-0.0","95382750","wem/bandit_party_2","A1QTFE8FVK3HMG","either","4","835","","","","","","","1","0","0","0.7163673585","","0.6","0.8","0.2","0.4","","","","","0.2703771925","0.7163673585","0.5952322697","0.7392612035","","","","","","","","","","74","J","1","","","33","main_expt",""
"","bandit","113","266038","0.0-75.0-0.0","95382750","wem/bandit_party_2","A1QTFE8FVK3HMG","either","4","222","","","","","","","1","0","0","0.6817248107","","0.6","0.8","0.2","0.4","","","","","0.3572673824","0.6817248107","0.6206609301","0.7026009082","","","","","","","","","","74","J","1","","","34","main_expt",""
"","bandit","114","267678","0.0-76.0-0.0","95382750","wem/bandit_party_2","A1QTFE8FVK3HMG","either","4","121","","","","","","","1","0","0","0.6903641832","","0.6","0.8","0.2","0.4","","","","","0.3237575066","0.6903641832","0.6223058769","0.632003728","","","","","","","","","","74","J","1","","","35","main_expt",""
"","bandit","115","269224","0.0-77.0-0.0","95382750","wem/bandit_party_2","A1QTFE8FVK3HMG","either","4","34","","","","","","","1","0","0","0.6953747248","","0.6","0.8","0.2","0.4","","","","","0.3724209237","0.6953747248","0.7304722347","0.7266912659","","","","","","","","","","74","J","1","","","36","main_expt",""
"","bandit","116","272872","0.0-78.0-0.0","95382750","wem/bandit_party_2","A1QTFE8FVK3HMG","either","4","2135","","","","","","","0","0","1","0.7552078918","","0.6","0.8","0.2","0.4","","","","","0.3848591071","0.7552078918","0.6789706255","0.5512211225","","","","","","","","","","74","J","1","","","37","main_expt",""
"","bandit","117","274473","0.0-79.0-0.0","95382750","wem/bandit_party_2","A1QTFE8FVK3HMG","either","4","89","","","","","","","1","0","0","0.7095976639","","0.6","0.8","0.2","0.4","","","","","0.4026628424","0.7095976639","0.6758320082","0.5888446875","","","","","","","","","","74","J","1","","","38","main_expt",""
"","bandit","118","275987","0.0-80.0-0.0","95382750","wem/bandit_party_2","A1QTFE8FVK3HMG","either","4","1","","","","","","","0","1","0","","0.7813817897","0.6","0.8","0.2","0.4","0.460229008","0.7813817897","0.753286291","0.7349010221","","","","","","","","","","","","","","74","J","1","","","39","main_expt",""
"","bandit","119","277609","0.0-81.0-0.0","95382750","wem/bandit_party_2","A1QTFE8FVK3HMG","either","4","110","","","","","","","1","0","0","0.7604460558","","0.6","0.8","0.2","0.4","","","","","0.3392787789","0.7604460558","0.7527041006","0.6715391024","","","","","","","","","","74","J","1","","","40","main_expt",""
"","bandit","120","279276","0.0-82.0-0.0","95382750","wem/bandit_party_2","A1QTFE8FVK3HMG","either","4","154","","","","","","","0","1","0","","0.7588214983","0.6","0.8","0.2","0.4","0.2983701942","0.7588214983","0.7900808451","0.688235262","","","","","","","","","","","","","","74","J","1","","","41","main_expt",""
"","bandit","121","280789","0.0-83.0-0.0","95382750","wem/bandit_party_2","A1QTFE8FVK3HMG","either","4","0","","","","","","","0","0","1","0.8204813903","","0.6","0.8","0.2","0.4","","","","","0.2390858253","0.8204813903","0.7261157662","0.750516412","","","","","","","","","","74","J","1","","","42","main_expt",""
"","bandit","122","282329","0.0-84.0-0.0","95382750","wem/bandit_party_2","A1QTFE8FVK3HMG","either","4","26","","","","","","","0","0","1","","0.8310219988","0.6","0.8","0.2","0.4","0.1877526289","0.8310219988","0.772887471","0.775378891","","","","","","","","","","","","","","74","J","1","","","43","main_expt",""
"","bandit","123","284024","0.0-85.0-0.0","95382750","wem/bandit_party_2","A1QTFE8FVK3HMG","either","4","183","","","","","","","1","0","0","0.8165903167","","0.6","0.8","0.2","0.4","","","","","0.2713877418","0.8165903167","0.7359848823","0.5983035632","","","","","","","","","","74","J","1","","","44","main_expt",""
"","bandit","124","285699","0.0-86.0-0.0","95382750","wem/bandit_party_2","A1QTFE8FVK3HMG","either","4","164","","","","","","","1","0","0","0.6765015189","","0.6","0.8","0.2","0.4","","","","","0.2600408605","0.6765015189","0.6223954065","0.6453890447","","","","","","","","","","74","J","1","","","45","main_expt",""
"","bandit","125","287213","0.0-87.0-0.0","95382750","wem/bandit_party_2","A1QTFE8FVK3HMG","either","4","0","","","","","","","0","0","1","0.6613510417","","0.6","0.8","0.2","0.4","","","","","0.2435580982","0.6613510417","0.5963379238","0.4979639723","","","","","","","","","","74","J","1","","","46","main_expt",""
"","bandit","126","288861","0.0-88.0-0.0","95382750","wem/bandit_party_2","A1QTFE8FVK3HMG","either","4","136","","","","","","","1","0","0","0.7373034573","","0.6","0.8","0.2","0.4","","","","","0.3258971046","0.7373034573","0.6161308884","0.4475739324","","","","","","","","","","74","J","1","","","47","main_expt",""
"","bandit","127","290441","0.0-89.0-0.0","95382750","wem/bandit_party_2","A1QTFE8FVK3HMG","either","4","66","","","","","","","1","0","0","0.6580913366","","0.6","0.8","0.2","0.4","","","","","0.2934977076","0.6580913366","0.6354722558","0.570942939","","","","","","","","","","74","J","1","","","48","main_expt",""
"","bandit","128","292016","0.0-90.0-0.0","95382750","wem/bandit_party_2","A1QTFE8FVK3HMG","either","4","62","","","","","","","1","0","0","0.6518545324","","0.6","0.8","0.2","0.4","","","","","0.3381222087","0.6518545324","0.5941747261","0.5943858444","","","","","","","","","","74","J","1","","","49","main_expt",""
"","bandit","129","293607","0.0-91.0-0.0","95382750","wem/bandit_party_2","A1QTFE8FVK3HMG","either","4","77","","","","","","","1","0","0","0.6362385309","","0.6","0.8","0.2","0.4","","","","","0.4149653651","0.6362385309","0.5510631732","0.72156704","","","","","","","","","","74","J","1","","","50","main_expt",""
"","bandit","130","295138","0.0-92.0-0.0","95382750","wem/bandit_party_2","A1QTFE8FVK3HMG","either","4","18","","","","","","","0","0","1","0.6673370403","","0.6","0.8","0.2","0.4","","","","","0.315936401","0.6673370403","0.5580995271","0.6453884322","","","","","","","","","","74","J","1","","","51","main_expt",""
"","bandit","131","296698","0.0-93.0-0.0","95382750","wem/bandit_party_2","A1QTFE8FVK3HMG","either","4","48","","","","","","","1","0","0","0.6614759556","","0.6","0.8","0.2","0.4","","","","","0.34776451","0.6614759556","0.4492126091","0.635653338","","","","","","","","","","74","J","1","","","52","main_expt",""
"","bandit","132","298228","0.0-94.0-0.0","95382750","wem/bandit_party_2","A1QTFE8FVK3HMG","either","4","17","","","","","","","0","0","1","0.5099009019","","0.6","0.8","0.2","0.4","","","","","0.2946288454","0.5099009019","0.4600129001","0.5700640027","","","","","","","","","","74","J","1","","","53","main_expt",""
"","bandit","133","299740","0.0-95.0-0.0","95382750","wem/bandit_party_2","A1QTFE8FVK3HMG","either","4","0","","","","","","","0","0","1","","0.5323874036","0.6","0.8","0.2","0.4","0.3757560715","0.5323874036","0.4005354829","0.4535518587","","","","","","","","","","","","","","74","J","1","","","54","main_expt",""
"","bandit","134","301368","0.0-96.0-0.0","95382750","wem/bandit_party_2","A1QTFE8FVK3HMG","either","4","114","","","","","","","1","0","0","0.5410243768","","0.6","0.8","0.2","0.4","","","","","0.3258455482","0.5410243768","0.3305694417","0.4271895083","","","","","","","","","","74","J","1","","","55","main_expt",""
"","bandit","135","302882","0.0-97.0-0.0","95382750","wem/bandit_party_2","A1QTFE8FVK3HMG","either","4","1","","","","","","","1","0","0","0.5594159285","","0.6","0.8","0.2","0.4","","","","","0.4350401219","0.5594159285","0.3443449075","0.3506641683","","","","","","","","","","74","J","1","","","56","main_expt",""
"","bandit","136","304496","0.0-98.0-0.0","95382750","wem/bandit_party_2","A1QTFE8FVK3HMG","either","4","102","","","","","","","1","0","0","0.5057935102","","0.6","0.8","0.2","0.4","","","","","0.3707313189","0.5057935102","0.3719720486","0.3266461122","","","","","","","","","","74","J","1","","","57","main_expt",""
"","bandit","137","306102","0.0-99.0-0.0","95382750","wem/bandit_party_2","A1QTFE8FVK3HMG","either","4","94","","","","","","","0","0","1","0.4921421838","","0.6","0.8","0.2","0.4","","","","","0.5588799977","0.4921421838","0.2230753252","0.3024401834","","","","","","","","","","74","J","1","","","58","main_expt",""
"","bandit","138","307703","0.0-100.0-0.0","95382750","wem/bandit_party_2","A1QTFE8FVK3HMG","either","4","89","","","","","","","1","0","0","0.4740341295","","0.6","0.8","0.2","0.4","","","","","0.6863198467","0.4740341295","0.2255195526","0.4306619987","","","","","","","","","","74","J","1","","","59","main_expt",""
"","bandit","139","309313","0.0-101.0-0.0","95382750","wem/bandit_party_2","A1QTFE8FVK3HMG","either","4","98","","","","","","","1","0","0","0.4853159436","","0.6","0.8","0.2","0.4","","","","","0.6998437478","0.4853159436","0.2150487889","0.4710521126","","","","","","","","","","74","J","1","","","60","main_expt",""
"","bandit","140","311025","0.0-102.0-0.0","95382750","wem/bandit_party_2","A1QTFE8FVK3HMG","either","4","199","","","","","","","1","0","0","0.4843563089","","0.6","0.8","0.2","0.4","","","","","0.7027468204","0.4843563089","0.2670703017","0.4797168847","","","","","","","","","","74","J","1","","","61","main_expt",""
"","bandit","141","312576","0.0-103.0-0.0","95382750","wem/bandit_party_2","A1QTFE8FVK3HMG","either","4","37","","","","","","","0","0","1","0.4970562682","","0.6","0.8","0.2","0.4","","","","","0.7461433662","0.4970562682","0.1622034337","0.441351191","","","","","","","","","","74","J","1","","","62","main_expt",""
"","bandit","142","314221","0.0-104.0-0.0","95382750","wem/bandit_party_2","A1QTFE8FVK3HMG","either","4","132","","","","","","","0","0","1","0.4870743105","","0.6","0.8","0.2","0.4","","","","","0.7956877632","0.4870743105","0.1872430185","0.6405696824","","","","","","","","","","74","J","1","","","63","main_expt",""
"","bandit","143","315860","0.0-105.0-0.0","95382750","wem/bandit_party_2","A1QTFE8FVK3HMG","either","4","127","","","","","","","1","0","0","0.5297884171","","0.6","0.8","0.2","0.4","","","","","0.7533911137","0.5297884171","0.1921602407","0.5093225209","","","","","","","","","","74","J","1","","","64","main_expt",""
"","bandit","144","317390","0.0-106.0-0.0","95382750","wem/bandit_party_2","A1QTFE8FVK3HMG","either","4","16","","","","","","","0","0","1","","0.5510281753","0.6","0.8","0.2","0.4","0.8407665504","0.5510281753","0.1747679693","0.5190422554","","","","","","","","","","","","","","74","J","1","","","65","main_expt",""
"","bandit","145","319030","0.0-107.0-0.0","95382750","wem/bandit_party_2","A1QTFE8FVK3HMG","either","4","128","","","","","","","0","0","1","","0.149475979","0.6","0.8","0.2","0.4","0.8392190168","0.6548378986","0.149475979","0.4367989657","","","","","","","","","","","","","","75","K","2","","","66","main_expt",""
"","bandit","146","320786","0.0-108.0-0.0","95382750","wem/bandit_party_2","A1QTFE8FVK3HMG","either","4","242","","","","","","","0","1","0","","0.4515976155","0.6","0.8","0.2","0.4","0.7998105719","0.7873643744","0.1340316754","0.4515976155","","","","","","","","","","","","","","76","L","3","","","67","main_expt",""
"","bandit","147","322332","0.0-109.0-0.0","95382750","wem/bandit_party_2","A1QTFE8FVK3HMG","either","4","33","","","","","","","0","1","0","","0.4605235732","0.6","0.8","0.2","0.4","0.8055175736","0.8374830125","0.1635100664","0.4605235732","","","","","","","","","","","","","","76","L","3","","","68","main_expt",""
"","bandit","148","323906","0.0-110.0-0.0","95382750","wem/bandit_party_2","A1QTFE8FVK3HMG","either","4","60","","","","","","","0","1","0","","0.3799115548","0.6","0.8","0.2","0.4","0.9157616325","0.7948054761","0.1227365859","0.3799115548","","","","","","","","","","","","","","76","L","3","","","69","main_expt",""
"","bandit","149","325441","0.0-111.0-0.0","95382750","wem/bandit_party_2","A1QTFE8FVK3HMG","either","4","22","","","","","","","0","1","0","","0.4215965018","0.6","0.8","0.2","0.4","0.9575411193","0.8257183208","0.1248437045","0.4215965018","","","","","","","","","","","","","","76","L","3","","","70","main_expt",""
"","bandit","150","326973","0.0-112.0-0.0","95382750","wem/bandit_party_2","A1QTFE8FVK3HMG","either","4","18","","","","","","","0","1","0","","0.4069040491","0.6","0.8","0.2","0.4","0.9604429572","0.7378076352","0.1153860856","0.4069040491","","","","","","","","","","","","","","76","L","3","","","71","main_expt",""
"","bandit","151","328543","0.0-113.0-0.0","95382750","wem/bandit_party_2","A1QTFE8FVK3HMG","either","4","55","","","","","","","0","0","1","","0.4396577013","0.6","0.8","0.2","0.4","0.9598545795","0.7402058239","0.1355011504","0.4396577013","","","","","","","","","","","","","","76","L","3","","","72","main_expt",""
"","bandit","152","330102","0.0-114.0-0.0","95382750","wem/bandit_party_2","A1QTFE8FVK3HMG","either","4","43","","","","","","","0","0","1","","0.6562772762","0.6","0.8","0.2","0.4","0.944667289","0.6976791507","0.05996807606","0.6562772762","","","","","","","","","","","","","","76","L","3","","","73","main_expt",""
"","bandit","153","331654","0.0-115.0-0.0","95382750","wem/bandit_party_2","A1QTFE8FVK3HMG","either","4","38","","","","","","","0","1","0","","0.6973429816","0.6","0.8","0.2","0.4","0.9226304804","0.7918365236","0.05405538329","0.6973429816","","","","","","","","","","","","","","76","L","3","","","74","main_expt",""
"","bandit","154","333206","0.0-116.0-0.0","95382750","wem/bandit_party_2","A1QTFE8FVK3HMG","either","4","40","","","","","","","0","1","0","","0.7736122178","0.6","0.8","0.2","0.4","0.9398646798","0.7822783488","0.02989929625","0.7736122178","","","","","","","","","","","","","","76","L","3","","","75","main_expt",""
"","bandit","155","334870","0.0-117.0-0.0","95382750","wem/bandit_party_2","A1QTFE8FVK3HMG","either","4","149","","","","","","","1","0","0","0.8130420724","","0.6","0.8","0.2","0.4","","","","","0.9344412274","0.7290889389","0.0563551135","0.8130420724","","","","","","","","","","76","L","3","","","76","main_expt",""
"","bandit","156","336474","0.0-118.0-0.0","95382750","wem/bandit_party_2","A1QTFE8FVK3HMG","either","4","88","","","","","","","0","1","0","","0.8182773084","0.6","0.8","0.2","0.4","0.9512527415","0.7903383215","0.0510075381","0.8182773084","","","","","","","","","","","","","","76","L","3","","","77","main_expt",""
"","bandit","157","338307","0.0-119.0-0.0","95382750","wem/bandit_party_2","A1QTFE8FVK3HMG","either","4","320","","","","","","","1","0","0","0.910984946","","0.6","0.8","0.2","0.4","","","","","0.945324638","0.8093770606","0.07280641377","0.910984946","","","","","","","","","","76","L","3","","","78","main_expt",""
"","bandit","158","340184","0.0-120.0-0.0","95382750","wem/bandit_party_2","A1QTFE8FVK3HMG","either","4","361","","","","","","","0","1","0","","0.9303795674","0.6","0.8","0.2","0.4","0.9313693401","0.7310189459","0.06591604593","0.9303795674","","","","","","","","","","","","","","76","L","3","","","79","main_expt",""
"","bandit","159","344204","0.0-121.0-0.0","95382750","wem/bandit_party_2","A1QTFE8FVK3HMG","either","4","2507","","","","","","","0","1","0","","0.9581515868","0.6","0.8","0.2","0.4","0.9272018461","0.7915113188","0.02790121052","0.9581515868","","","","","","","","","","","","","","76","L","3","","","80","main_expt",""
"","bandit","160","345763","0.0-122.0-0.0","95382750","wem/bandit_party_2","A1QTFE8FVK3HMG","either","4","44","","","","","","","0","1","0","","0.9107397581","0.6","0.8","0.2","0.4","0.9340165544","0.8463201033","0.03997429631","0.9107397581","","","","","","","","","","","","","","76","L","3","","","81","main_expt",""
"","bandit","161","347407","0.0-123.0-0.0","95382750","wem/bandit_party_2","A1QTFE8FVK3HMG","either","4","132","","","","","","","0","1","0","","0.9531247327","0.6","0.8","0.2","0.4","0.9778602254","0.9043915002","0.03692483048","0.9531247327","","","","","","","","","","","","","","76","L","3","","","82","main_expt",""
"","bandit","162","348934","0.0-124.0-0.0","95382750","wem/bandit_party_2","A1QTFE8FVK3HMG","either","4","12","","","","","","","0","1","0","","0.91574064","0.6","0.8","0.2","0.4","0.9593015187","0.922294541","0.04167024954","0.91574064","","","","","","","","","","","","","","76","L","3","","","83","main_expt",""
"","bandit","163","350453","0.0-125.0-0.0","95382750","wem/bandit_party_2","A1QTFE8FVK3HMG","either","4","4","","","","","","","0","1","0","","0.9287460716","0.6","0.8","0.2","0.4","0.9398758864","0.9079954767","0.03449326924","0.9287460716","","","","","","","","","","","","","","76","L","3","","","84","main_expt",""
"","bandit","164","351977","0.0-126.0-0.0","95382750","wem/bandit_party_2","A1QTFE8FVK3HMG","either","4","9","","","","","","","0","1","0","","0.9817994773","0.6","0.8","0.2","0.4","0.9256746213","0.92293493","0.07382848834","0.9817994773","","","","","","","","","","","","","","76","L","3","","","85","main_expt",""
"","bandit","165","353652","0.0-127.0-0.0","95382750","wem/bandit_party_2","A1QTFE8FVK3HMG","either","4","165","","","","","","","1","0","0","0.9651028603","","0.6","0.8","0.2","0.4","","","","","0.8910640916","0.8831043051","0.08839198485","0.9651028603","","","","","","","","","","76","L","3","","","86","main_expt",""
"","bandit","166","355194","0.0-128.0-0.0","95382750","wem/bandit_party_2","A1QTFE8FVK3HMG","either","4","25","","","","","","","0","1","0","","0.9364705545","0.6","0.8","0.2","0.4","0.8729480744","0.876749115","0.08767612821","0.9364705545","","","","","","","","","","","","","","76","L","3","","","87","main_expt",""
"","bandit","167","374336","0.0-129.0-0.0","95382750","wem/bandit_party_2","A1QTFE8FVK3HMG","either","4","17628","","","","","","","0","1","0","","0.9235767634","0.6","0.8","0.2","0.4","0.8780151739","0.9189432589","0.1606359608","0.9235767634","","","","","","","","","","","","","","76","L","3","","","88","main_expt",""
"","bandit","168","375954","0.0-130.0-0.0","95382750","wem/bandit_party_2","A1QTFE8FVK3HMG","either","4","105","","","","","","","0","1","0","","0.9375107972","0.6","0.8","0.2","0.4","0.8856980863","0.8770582065","0.2051996915","0.9375107972","","","","","","","","","","","","","","76","L","3","","","89","main_expt",""
"","bandit","169","377559","0.0-131.0-0.0","95382750","wem/bandit_party_2","A1QTFE8FVK3HMG","either","4","89","","","","","","","1","0","0","0.9201099193","","0.6","0.8","0.2","0.4","","","","","0.8828292745","0.9303780437","0.1757431166","0.9201099193","","","","","","","","","","76","L","3","","","90","main_expt",""
"","bandit","170","379075","0.0-132.0-0.0","95382750","wem/bandit_party_2","A1QTFE8FVK3HMG","either","4","1","","","","","","","0","1","0","","0.9416722714","0.6","0.8","0.2","0.4","0.9016480115","0.8870296602","0.3470073597","0.9416722714","","","","","","","","","","","","","","76","L","3","","","91","main_expt",""
"","bandit","171","380592","0.0-133.0-0.0","95382750","wem/bandit_party_2","A1QTFE8FVK3HMG","either","4","0","","","","","","","0","1","0","","0.943817784","0.6","0.8","0.2","0.4","0.9077272713","0.8466670433","0.4969118024","0.943817784","","","","","","","","","","","","","","76","L","3","","","92","main_expt",""
"","bandit","172","382140","0.0-134.0-0.0","95382750","wem/bandit_party_2","A1QTFE8FVK3HMG","either","4","31","","","","","","","1","0","0","0.9078517942","","0.6","0.8","0.2","0.4","","","","","0.875936713","0.850017275","0.5773598144","0.9078517942","","","","","","","","","","76","L","3","","","93","main_expt",""
"","bandit","173","383790","0.0-135.0-0.0","95382750","wem/bandit_party_2","A1QTFE8FVK3HMG","either","4","127","","","","","","","0","1","0","","0.8983200186","0.6","0.8","0.2","0.4","0.8089346838","0.6893652978","0.5513550223","0.8983200186","","","","","","","","","","","","","","76","L","3","","","94","main_expt",""
"","bandit","174","385432","0.0-136.0-0.0","95382750","wem/bandit_party_2","A1QTFE8FVK3HMG","either","4","126","","","","","","","0","1","0","","0.8744309931","0.6","0.8","0.2","0.4","0.7472177953","0.6025630118","0.5461825447","0.8744309931","","","","","","","","","","","","","","76","L","3","","","95","main_expt",""
"","bandit","175","386993","0.0-137.0-0.0","95382750","wem/bandit_party_2","A1QTFE8FVK3HMG","either","4","42","","","","","","","0","1","0","","0.8894212924","0.6","0.8","0.2","0.4","0.631257407","0.5565182624","0.5564841108","0.8894212924","","","","","","","","","","","","","","76","L","3","","","96","main_expt",""
"","bandit","176","388700","0.0-138.0-0.0","95382750","wem/bandit_party_2","A1QTFE8FVK3HMG","either","4","193","","","","","","","0","1","0","","0.891162681","0.6","0.8","0.2","0.4","0.7474787878","0.4820287155","0.6513715187","0.891162681","","","","","","","","","","","","","","76","L","3","","","97","main_expt",""
"","bandit","177","390973","0.0-139.0-0.0","95382750","wem/bandit_party_2","A1QTFE8FVK3HMG","either","4","756","","","","","","","0","0","1","0.8495400438","","0.6","0.8","0.2","0.4","","","","","0.7753317291","0.4599621431","0.7004254565","0.8495400438","","","","","","","","","","76","L","3","","","98","main_expt",""
"","bandit","178","392579","0.0-140.0-0.0","95382750","wem/bandit_party_2","A1QTFE8FVK3HMG","either","4","90","","","","","","","0","1","0","","0.8671572546","0.6","0.8","0.2","0.4","0.7088399779","0.4109144258","0.6473310623","0.8671572546","","","","","","","","","","","","","","76","L","3","","","99","main_expt",""
"","bandit","179","394147","0.0-141.0-0.0","95382750","wem/bandit_party_2","A1QTFE8FVK3HMG","either","4","52","","","","","","","0","0","1","0.8312294914","","0.6","0.8","0.2","0.4","","","","","0.7328055719","0.3466085394","0.6160818326","0.8312294914","","","","","","","","","","76","L","3","","","100","main_expt",""
"","bandit","180","395767","0.0-142.0-0.0","95382750","wem/bandit_party_2","A1QTFE8FVK3HMG","either","4","103","","","","","","","0","1","0","","0.8135240708","0.6","0.8","0.2","0.4","0.8183789849","0.3712289037","0.6963675268","0.8135240708","","","","","","","","","","","","","","76","L","3","","","101","main_expt",""
"","bandit","181","397324","0.0-143.0-0.0","95382750","wem/bandit_party_2","A1QTFE8FVK3HMG","either","4","42","","","","","","","0","1","0","","0.8556055773","0.6","0.8","0.2","0.4","0.7854635714","0.3626324234","0.6339579424","0.8556055773","","","","","","","","","","","","","","76","L","3","","","102","main_expt",""
"","bandit","182","398908","0.0-144.0-0.0","95382750","wem/bandit_party_2","A1QTFE8FVK3HMG","either","4","67","","","","","","","0","0","1","0.7632006143","","0.6","0.8","0.2","0.4","","","","","0.8481411385","0.2748825764","0.6908430899","0.7632006143","","","","","","","","","","76","L","3","","","103","main_expt",""
"","bandit","183","401231","0.0-145.0-0.0","95382750","wem/bandit_party_2","A1QTFE8FVK3HMG","either","4","807","","","","","","","1","0","0","0.8273213265","","0.6","0.8","0.2","0.4","","","","","0.8129446485","0.2381725209","0.6866318891","0.8273213265","","","","","","","","","","76","L","3","","","104","main_expt",""
"","bandit","184","402791","0.0-146.0-0.0","95382750","wem/bandit_party_2","A1QTFE8FVK3HMG","either","4","45","","","","","","","0","0","1","","0.7898688037","0.6","0.8","0.2","0.4","0.7898688037","0.1939551764","0.6749941214","0.7930501456","","","","","","","","","","","","","","72","H","0","img/none_selected.jpg","","105","main_expt",""
"","bandit","185","404628","0.0-147.0-0.0","95382750","wem/bandit_party_2","A1QTFE8FVK3HMG","either","4","319","","","","","","","1","0","0","0.7810744832","","0.6","0.8","0.2","0.4","","","","","0.7810744832","0.1884153881","0.7300347885","0.7186603115","","","","","","","","","","72","H","0","img/none_selected.jpg","","106","main_expt",""
"","bandit","186","406202","0.0-148.0-0.0","95382750","wem/bandit_party_2","A1QTFE8FVK3HMG","either","4","58","","","","","","","0","0","1","0.7837395221","","0.6","0.8","0.2","0.4","","","","","0.7837395221","0.1011451677","0.8133516847","0.7155595947","","","","","","","","","","72","H","0","img/none_selected.jpg","","107","main_expt",""
"","bandit","187","408012","0.0-149.0-0.0","95382750","wem/bandit_party_2","A1QTFE8FVK3HMG","either","4","294","","","","","","","0","1","0","","0.787971135","0.6","0.8","0.2","0.4","0.787971135","0.1500242655","0.8009432675","0.7654707556","","","","","","","","","","","","","","72","H","0","img/none_selected.jpg","","108","main_expt",""
"","bandit","188","409530","0.0-150.0-0.0","95382750","wem/bandit_party_2","A1QTFE8FVK3HMG","either","4","1","","","","","","","0","1","0","","0.6866525704","0.6","0.8","0.2","0.4","0.6866525704","0.1285750889","0.7379370491","0.6288612937","","","","","","","","","","","","","","72","H","0","img/none_selected.jpg","","109","main_expt",""
"","bandit","189","411064","0.0-151.0-0.0","95382750","wem/bandit_party_2","A1QTFE8FVK3HMG","either","4","15","","","","","","","0","0","1","","0.5824748378","0.6","0.8","0.2","0.4","0.5824748378","0.06279291231","0.7379992527","0.6309058105","","","","","","","","","","","","","","72","H","0","img/none_selected.jpg","","110","main_expt",""
"","bandit","190","412679","0.0-152.0-0.0","95382750","wem/bandit_party_2","A1QTFE8FVK3HMG","either","4","99","","","","","","","0","0","1","0.07144278273","","0.6","0.8","0.2","0.4","","","","","0.659702805","0.07144278273","0.7464430213","0.6218965746","","","","","","","","","","74","J","1","","","111","main_expt",""
"","bandit","191","414461","0.0-153.0-0.0","95382750","wem/bandit_party_2","A1QTFE8FVK3HMG","either","4","264","","","","","","","0","0","1","","0.06013221683","0.6","0.8","0.2","0.4","0.5111205641","0.06013221683","0.7736339118","0.6741482942","","","","","","","","","","","","","","74","J","1","","","112","main_expt",""
"","bandit","192","416209","0.0-154.0-0.0","95382750","wem/bandit_party_2","A1QTFE8FVK3HMG","either","4","231","","","","","","","0","1","0","","0.8480767854","0.6","0.8","0.2","0.4","0.4852392648","0.1442356489","0.8480767854","0.7405202534","","","","","","","","","","","","","","75","K","2","","","113","main_expt",""
"","bandit","193","417848","0.0-155.0-0.0","95382750","wem/bandit_party_2","A1QTFE8FVK3HMG","either","4","122","","","","","","","1","0","0","0.8016933152","","0.6","0.8","0.2","0.4","","","","","0.3531287621","0.1733870882","0.8016933152","0.743157628","","","","","","","","","","75","K","2","","","114","main_expt",""
"","bandit","194","419530","0.0-156.0-0.0","95382750","wem/bandit_party_2","A1QTFE8FVK3HMG","either","4","165","","","","","","","0","1","0","","0.8200260584","0.6","0.8","0.2","0.4","0.4090792957","0.2198725907","0.8200260584","0.7732583829","","","","","","","","","","","","","","75","K","2","","","115","main_expt",""
"","bandit","195","421048","0.0-157.0-0.0","95382750","wem/bandit_party_2","A1QTFE8FVK3HMG","either","4","0","","","","","","","0","1","0","","0.7761954976","0.6","0.8","0.2","0.4","0.4927933112","0.2116870815","0.7761954976","0.6224016225","","","","","","","","","","","","","","75","K","2","","","116","main_expt",""
"","bandit","196","422732","0.0-158.0-0.0","95382750","wem/bandit_party_2","A1QTFE8FVK3HMG","either","4","167","","","","","","","0","0","1","","0.7722233998","0.6","0.8","0.2","0.4","0.4255499736","0.1293815938","0.7722233998","0.6784399158","","","","","","","","","","","","","","75","K","2","","","117","main_expt",""
"","bandit","197","424306","0.0-159.0-0.0","95382750","wem/bandit_party_2","A1QTFE8FVK3HMG","either","4","57","","","","","","","0","1","0","","0.8049831996","0.6","0.8","0.2","0.4","0.4073726931","0.1442073762","0.8049831996","0.7499631032","","","","","","","","","","","","","","75","K","2","","","118","main_expt",""
"","bandit","198","425826","0.0-160.0-0.0","95382750","wem/bandit_party_2","A1QTFE8FVK3HMG","either","4","3","","","","","","","0","0","1","0.8469405197","","0.6","0.8","0.2","0.4","","","","","0.5447318884","0.2098334931","0.8469405197","0.6258432538","","","","","","","","","","75","K","2","","","119","main_expt",""
"","bandit","199","427419","0.0-161.0-0.0","95382750","wem/bandit_party_2","A1QTFE8FVK3HMG","either","4","74","","","","","","","0","1","0","","0.783925966","0.6","0.8","0.2","0.4","0.5336717705","0.243218138","0.783925966","0.5602994123","","","","","","","","","","","","","","75","K","2","","","120","main_expt",""
"","bandit","200","429089","0.0-162.0-0.0","95382750","wem/bandit_party_2","A1QTFE8FVK3HMG","either","4","153","","","","","","","0","1","0","","0.8031476983","0.6","0.8","0.2","0.4","0.5621279662","0.1595445902","0.8031476983","0.5850644561","","","","","","","","","","","","","","75","K","2","","","121","main_expt",""
"","bandit","201","431153","0.0-163.0-0.0","95382750","wem/bandit_party_2","A1QTFE8FVK3HMG","either","4","544","","","","","","","1","0","0","0.776878313","","0.6","0.8","0.2","0.4","","","","","0.5664238538","0.1939767007","0.776878313","0.6205732407","","","","","","","","","","75","K","2","","","122","main_expt",""
"","bandit","202","432723","0.0-164.0-0.0","95382750","wem/bandit_party_2","A1QTFE8FVK3HMG","either","4","54","","","","","","","0","1","0","","0.7695343448","0.6","0.8","0.2","0.4","0.6501842916","0.2265728871","0.7695343448","0.7954206102","","","","","","","","","","","","","","75","K","2","","","123","main_expt",""
"","bandit","203","434385","0.0-165.0-0.0","95382750","wem/bandit_party_2","A1QTFE8FVK3HMG","either","4","143","","","","","","","0","1","0","","0.6154230174","0.6","0.8","0.2","0.4","0.5413703051","0.2027469411","0.6154230174","0.881213352","","","","","","","","","","","","","","75","K","2","","","124","main_expt",""
"","bandit","204","436008","0.0-166.0-0.0","95382750","wem/bandit_party_2","A1QTFE8FVK3HMG","either","4","106","","","","","","","0","1","0","","0.4710930195","0.6","0.8","0.2","0.4","0.5191338098","0.1506135949","0.4710930195","0.8598562332","","","","","","","","","","","","","","75","K","2","","","125","main_expt",""
"","bandit","205","437539","0.0-167.0-0.0","95382750","wem/bandit_party_2","A1QTFE8FVK3HMG","either","4","14","","","","","","","0","0","1","","0.5258886302","0.6","0.8","0.2","0.4","0.6232591378","0.1875851228","0.5258886302","0.867144728","","","","","","","","","","","","","","75","K","2","","","126","main_expt",""
"","bandit","206","439076","0.0-168.0-0.0","95382750","wem/bandit_party_2","A1QTFE8FVK3HMG","either","4","19","","","","","","","0","0","1","","0.3996486754","0.6","0.8","0.2","0.4","0.601333273","0.2106184636","0.3996486754","0.8677917819","","","","","","","","","","","","","","75","K","2","","","127","main_expt",""
"","bandit","207","440631","0.0-169.0-0.0","95382750","wem/bandit_party_2","A1QTFE8FVK3HMG","either","4","38","","","","","","","0","0","1","","0.3557241191","0.6","0.8","0.2","0.4","0.6312294041","0.1276240755","0.3557241191","0.8194058857","","","","","","","","","","","","","","75","K","2","","","128","main_expt",""
"","bandit","208","442266","0.0-170.0-0.0","95382750","wem/bandit_party_2","A1QTFE8FVK3HMG","either","4","117","","","","","","","0","1","0","","0.813940224","0.6","0.8","0.2","0.4","0.6655034733","0.2163335705","0.2432070908","0.813940224","","","","","","","","","","","","","","76","L","3","","","129","main_expt",""
"","bandit","209","443836","0.0-171.0-0.0","95382750","wem/bandit_party_2","A1QTFE8FVK3HMG","either","4","51","","","","","","","0","1","0","","0.7296764962","0.6","0.8","0.2","0.4","0.6882303755","0.2448863899","0.1722843937","0.7296764962","","","","","","","","","","","","","","76","L","3","","","130","main_expt",""
"","bandit","210","445355","0.0-172.0-0.0","95382750","wem/bandit_party_2","A1QTFE8FVK3HMG","either","4","1","","","","","","","0","1","0","","0.614258276","0.6","0.8","0.2","0.4","0.6772884453","0.3447645787","0.1336027919","0.614258276","","","","","","","","","","","","","","76","L","3","","","131","main_expt",""
"","bandit","211","446959","0.0-173.0-0.0","95382750","wem/bandit_party_2","A1QTFE8FVK3HMG","either","4","86","","","","","","","0","1","0","","0.5349540706","0.6","0.8","0.2","0.4","0.6773684555","0.3622527956","0.1351629047","0.5349540706","","","","","","","","","","","","","","76","L","3","","","132","main_expt",""
"","bandit","212","448573","0.0-174.0-0.0","95382750","wem/bandit_party_2","A1QTFE8FVK3HMG","either","4","97","","","","","","","0","0","1","","0.5449090787","0.6","0.8","0.2","0.4","0.7437755928","0.2961885878","0.2495029","0.5449090787","","","","","","","","","","","","","","76","L","3","","","133","main_expt",""
"","bandit","213","450222","0.0-175.0-0.0","95382750","wem/bandit_party_2","A1QTFE8FVK3HMG","either","4","134","","","","","","","1","0","0","0.5037108559","","0.6","0.8","0.2","0.4","","","","","0.7423545867","0.2932126781","0.2118512663","0.5037108559","","","","","","","","","","76","L","3","","","134","main_expt",""
"","bandit","214","451804","0.0-176.0-0.0","95382750","wem/bandit_party_2","A1QTFE8FVK3HMG","either","4","63","","","","","","","0","1","0","","0.5131336393","0.6","0.8","0.2","0.4","0.7462440124","0.2836439675","0.2474577379","0.5131336393","","","","","","","","","","","","","","76","L","3","","","135","main_expt",""
"","bandit","215","453404","0.0-177.0-0.0","95382750","wem/bandit_party_2","A1QTFE8FVK3HMG","either","4","84","","","","","","","0","1","0","","0.5847952324","0.6","0.8","0.2","0.4","0.6372772774","0.1985775905","0.1496333288","0.5847952324","","","","","","","","","","","","","","76","L","3","","","136","main_expt",""
"","bandit","216","454922","0.0-178.0-0.0","95382750","wem/bandit_party_2","A1QTFE8FVK3HMG","either","4","0","","","","","","","1","0","0","0.5191620222","","0.6","0.8","0.2","0.4","","","","","0.6587707878","0.2655975","0.164835495","0.5191620222","","","","","","","","","","76","L","3","","","137","main_expt",""
"","bandit","217","456519","0.0-179.0-0.0","95382750","wem/bandit_party_2","A1QTFE8FVK3HMG","either","4","79","","","","","","","0","0","1","0.3830682141","","0.6","0.8","0.2","0.4","","","","","0.6545472314","0.4066298912","0.1629561883","0.3830682141","","","","","","","","","","76","L","3","","","138","main_expt",""
"","bandit","218","458069","0.0-180.0-0.0","95382750","wem/bandit_party_2","A1QTFE8FVK3HMG","either","4","40","","","","","","","0","1","0","","0.3036015776","0.6","0.8","0.2","0.4","0.5773899651","0.4537429859","0.1162724323","0.3036015776","","","","","","","","","","","","","","76","L","3","","","139","main_expt",""
"","bandit","219","459646","0.0-181.0-0.0","95382750","wem/bandit_party_2","A1QTFE8FVK3HMG","either","4","59","","","","","","","1","0","0","0.2541790234","","0.6","0.8","0.2","0.4","","","","","0.5786924042","0.410026376","0.1262651596","0.2541790234","","","","","","","","","","76","L","3","","","140","main_expt",""
"","bandit","220","461171","0.0-182.0-0.0","95382750","wem/bandit_party_2","A1QTFE8FVK3HMG","either","4","5","","","","","","","0","1","0","","0.1899663758","0.6","0.8","0.2","0.4","0.4589731036","0.3978668086","0.1258799353","0.1899663758","","","","","","","","","","","","","","76","L","3","","","141","main_expt",""
"","bandit","221","462693","0.0-183.0-0.0","95382750","wem/bandit_party_2","A1QTFE8FVK3HMG","either","4","3","","","","","","","1","0","0","0.214868544","","0.6","0.8","0.2","0.4","","","","","0.3667804619","0.4096738096","0.1220135665","0.214868544","","","","","","","","","","76","L","3","","","142","main_expt",""
"","bandit","222","464353","0.0-184.0-0.0","95382750","wem/bandit_party_2","A1QTFE8FVK3HMG","either","4","140","","","","","","","0","0","1","0.1549416237","","0.6","0.8","0.2","0.4","","","","","0.3563831379","0.5422751762","0.1600355681","0.1549416237","","","","","","","","","","76","L","3","","","143","main_expt",""
"","bandit","223","465971","0.0-185.0-0.0","95382750","wem/bandit_party_2","A1QTFE8FVK3HMG","either","4","100","","","","","","","0","1","0","","0.2142728447","0.6","0.8","0.2","0.4","0.3675361202","0.6045197677","0.103653669","0.2142728447","","","","","","","","","","","","","","76","L","3","","","144","main_expt",""
"","bandit","224","467612","0.0-186.0-0.0","95382750","wem/bandit_party_2","A1QTFE8FVK3HMG","either","4","122","","","","","","","0","0","1","","0.2166472609","0.6","0.8","0.2","0.4","0.3266856562","0.6140727406","0.1417267119","0.2166472609","","","","","","","","","","","","","","76","L","3","","","145","main_expt",""
"","bandit","225","469132","0.0-187.0-0.0","95382750","wem/bandit_party_2","A1QTFE8FVK3HMG","either","4","1","","","","","","","1","0","0","0.2446047688","","0.6","0.8","0.2","0.4","","","","","0.2815179259","0.5553742365","0.1508894681","0.2446047688","","","","","","","","","","76","L","3","","","146","main_expt",""
"","bandit","226","470682","0.0-188.0-0.0","95382750","wem/bandit_party_2","A1QTFE8FVK3HMG","either","4","33","","","","","","","0","1","0","","0.3011136322","0.6","0.8","0.2","0.4","0.3560244833","0.52787167","0.1207147728","0.3011136322","","","","","","","","","","","","","","76","L","3","","","147","main_expt",""
"","bandit","227","472262","0.0-189.0-0.0","95382750","wem/bandit_party_2","A1QTFE8FVK3HMG","either","4","61","","","","","","","0","0","1","","0.2519777133","0.6","0.8","0.2","0.4","0.3585854149","0.5053851794","0.1362234148","0.2519777133","","","","","","","","","","","","","","76","L","3","","","148","main_expt",""
"","bandit","228","473819","0.0-190.0-0.0","95382750","wem/bandit_party_2","A1QTFE8FVK3HMG","either","4","32","","","","","","","0","0","1","","0.2996109941","0.6","0.8","0.2","0.4","0.284478414","0.5431256022","0.1244444975","0.2996109941","","","","","","","","","","","","","","76","L","3","","","149","main_expt",""
"","bandit","229","475398","0.0-191.0-0.0","95382750","wem/bandit_party_2","A1QTFE8FVK3HMG","either","4","61","","","","","","","0","0","1","0.2617238314","","0.6","0.8","0.2","0.4","","","","","0.2617238314","0.422574086","0.1109305632","0.2963563975","","","","","","","","","","72","H","0","img/none_selected.jpg","","150","main_expt",""
"","bandit","230","476980","0.0-192.0-0.0","95382750","wem/bandit_party_2","A1QTFE8FVK3HMG","either","4","75","","","","","","","0","0","1","0.2709462114","","0.6","0.8","0.2","0.4","","","","","0.2709462114","0.3907227364","0.11412436","0.4327396174","","","","","","","","","","72","H","0","img/none_selected.jpg","","151","main_expt",""
"","bandit","231","478603","0.0-193.0-0.0","95382750","wem/bandit_party_2","A1QTFE8FVK3HMG","either","4","106","","","","","","","0","1","0","","0.5580814469","0.6","0.8","0.2","0.4","0.2993716907","0.5580814469","0.1469045903","0.4303068123","","","","","","","","","","","","","","74","J","1","","","152","main_expt",""
"","bandit","232","480159","0.0-194.0-0.0","95382750","wem/bandit_party_2","A1QTFE8FVK3HMG","either","4","38","","","","","","","0","1","0","","0.51223936","0.6","0.8","0.2","0.4","0.2733354782","0.51223936","0.1633028487","0.455197397","","","","","","","","","","","","","","74","J","1","","","153","main_expt",""
"","bandit","233","481843","0.0-195.0-0.0","95382750","wem/bandit_party_2","A1QTFE8FVK3HMG","either","4","164","","","","","","","0","0","1","0.4811601507","","0.6","0.8","0.2","0.4","","","","","0.3264007987","0.4811601507","0.1340882311","0.6184454144","","","","","","","","","","74","J","1","","","154","main_expt",""
"","bandit","234","483400","0.0-196.0-0.0","95382750","wem/bandit_party_2","A1QTFE8FVK3HMG","either","4","36","","","","","","","0","0","1","0.575425417","","0.6","0.8","0.2","0.4","","","","","0.204433578","0.575425417","0.1041462846","0.5833601464","","","","","","","","","","74","J","1","","","155","main_expt",""
"","bandit","235","485017","0.0-197.0-0.0","95382750","wem/bandit_party_2","A1QTFE8FVK3HMG","either","4","96","","","","","","","1","0","0","0.6109018817","","0.6","0.8","0.2","0.4","","","","","0.07451572188","0.6109018817","0.08564190031","0.646897734","","","","","","","","","","74","J","1","","","156","main_expt",""
"","bandit","236","486690","0.0-198.0-0.0","95382750","wem/bandit_party_2","A1QTFE8FVK3HMG","either","4","150","","","","","","","1","0","0","0.6812883852","","0.6","0.8","0.2","0.4","","","","","0.1251686374","0.6812883852","0.06977116317","0.6912470103","","","","","","","","","","74","J","1","","","157","main_expt",""
"","bandit","237","488209","0.0-199.0-0.0","95382750","wem/bandit_party_2","A1QTFE8FVK3HMG","either","4","0","","","","","","","1","0","0","0.73777041","","0.6","0.8","0.2","0.4","","","","","0.1292052795","0.73777041","0.1504927074","0.7865398282","","","","","","","","","","74","J","1","","","158","main_expt",""
"","bandit","238","489727","0.0-200.0-0.0","95382750","wem/bandit_party_2","A1QTFE8FVK3HMG","either","4","1","","","","","","","1","0","0","0.8388849062","","0.6","0.8","0.2","0.4","","","","","0.1200050714","0.8388849062","0.1429264201","0.7220910122","","","","","","","","","","74","J","1","","","159","main_expt",""
"","bandit","239","491275","0.0-201.0-0.0","95382750","wem/bandit_party_2","A1QTFE8FVK3HMG","either","4","34","","","","","","","0","0","1","","0.8006667519","0.6","0.8","0.2","0.4","0.1156014834","0.8006667519","0.1832893837","0.710563805","","","","","","","","","","","","","","74","J","1","","","160","main_expt",""
"","bandit","240","492794","0.0-202.0-0.0","95382750","wem/bandit_party_2","A1QTFE8FVK3HMG","either","4","0","","","","","","","0","1","0","","0.7406956812","0.6","0.8","0.2","0.4","0.1425751263","0.7406956812","0.2337310763","0.6205281072","","","","","","","","","","","","","","74","J","1","","","161","main_expt",""
"","bandit","241","494315","0.0-203.0-0.0","95382750","wem/bandit_party_2","A1QTFE8FVK3HMG","either","4","4","","","","","","","1","0","0","0.775259894","","0.6","0.8","0.2","0.4","","","","","0.2108345254","0.775259894","0.2326198937","0.5246840185","","","","","","","","","","74","J","1","","","162","main_expt",""
"","bandit","242","495834","0.0-204.0-0.0","95382750","wem/bandit_party_2","A1QTFE8FVK3HMG","either","4","1","","","","","","","0","0","1","0.6539471222","","0.6","0.8","0.2","0.4","","","","","0.1664621688","0.6539471222","0.1584290897","0.569340372","","","","","","","","","","74","J","1","","","163","main_expt",""
"","bandit","243","497478","0.0-205.0-0.0","95382750","wem/bandit_party_2","A1QTFE8FVK3HMG","either","4","124","","","","","","","0","0","1","0.7914062868","","0.6","0.8","0.2","0.4","","","","","0.1741279052","0.7914062868","0.1417900361","0.5688323765","","","","","","","","","","74","J","1","","","164","main_expt",""
"","bandit","244","499031","0.0-206.0-0.0","95382750","wem/bandit_party_2","A1QTFE8FVK3HMG","either","4","34","","","","","","","1","0","0","0.8415061218","","0.6","0.8","0.2","0.4","","","","","0.1891196979","0.8415061218","0.08849486786","0.5195648955","","","","","","","","","","74","J","1","","","165","main_expt",""
"","bandit","245","500556","0.0-207.0-0.0","95382750","wem/bandit_party_2","A1QTFE8FVK3HMG","either","4","5","","","","","","","0","0","1","0.9084068317","","0.6","0.8","0.2","0.4","","","","","0.3016440744","0.9084068317","0.1010416226","0.536500984","","","","","","","","","","74","J","1","","","166","main_expt",""
"","bandit","246","502083","0.0-208.0-0.0","95382750","wem/bandit_party_2","A1QTFE8FVK3HMG","either","4","9","","","","","","","0","0","1","0.8857506799","","0.6","0.8","0.2","0.4","","","","","0.3427468607","0.8857506799","0.1506776516","0.4243381616","","","","","","","","","","74","J","1","","","167","main_expt",""
"","bandit","247","503736","0.0-209.0-0.0","95382750","wem/bandit_party_2","A1QTFE8FVK3HMG","either","4","135","","","","","","","0","1","0","","0.2532220847","0.6","0.8","0.2","0.4","0.3759001064","0.9247721234","0.2532220847","0.4877327119","","","","","","","","","","","","","","75","K","2","","","168","main_expt",""
"","bandit","248","505267","0.0-210.0-0.0","95382750","wem/bandit_party_2","A1QTFE8FVK3HMG","either","4","20","","","","","","","0","0","1","","0.2223654062","0.6","0.8","0.2","0.4","0.3824832387","0.8870410368","0.2223654062","0.5096331713","","","","","","","","","","","","","","75","K","2","","","169","main_expt",""
"","bandit","249","506899","0.0-211.0-0.0","95382750","wem/bandit_party_2","A1QTFE8FVK3HMG","either","4","115","","","","","","","0","0","1","0.2161840498","","0.6","0.8","0.2","0.4","","","","","0.3257043992","0.8782412079","0.2161840498","0.6111595203","","","","","","","","","","75","K","2","","","170","main_expt",""
"","bandit","250","508426","0.0-212.0-0.0","95382750","wem/bandit_party_2","A1QTFE8FVK3HMG","either","4","8","","","","","","","0","0","1","0.2943589708","","0.6","0.8","0.2","0.4","","","","","0.2943589708","0.7978982074","0.1996440145","0.5888321224","","","","","","","","","","72","H","0","img/none_selected.jpg","","171","main_expt",""
"","bandit","251","509950","0.0-213.0-0.0","95382750","wem/bandit_party_2","A1QTFE8FVK3HMG","either","4","6","","","","","","","1","0","0","0.4298537702","","0.6","0.8","0.2","0.4","","","","","0.4298537702","0.7896885826","0.275753823","0.6295404033","","","","","","","","","","72","H","0","img/none_selected.jpg","","172","main_expt",""
"","bandit","252","511535","0.0-214.0-0.0","95382750","wem/bandit_party_2","A1QTFE8FVK3HMG","either","4","65","","","","","","","0","0","1","","0.4196262671","0.6","0.8","0.2","0.4","0.4196262671","0.7771385218","0.2850946521","0.5976712981","","","","","","","","","","","","","","72","H","0","img/none_selected.jpg","","173","main_expt",""
"","bandit","253","513180","0.0-215.0-0.0","95382750","wem/bandit_party_2","A1QTFE8FVK3HMG","either","4","126","","","","","","","1","0","0","0.4056978145","","0.6","0.8","0.2","0.4","","","","","0.4056978145","0.8412209493","0.2836726952","0.5936331925","","","","","","","","","","72","H","0","img/none_selected.jpg","","174","main_expt",""
"","bandit","254","514989","0.0-216.0-0.0","95382750","wem/bandit_party_2","A1QTFE8FVK3HMG","either","4","290","","","","","","","0","0","1","0.3323311207","","0.6","0.8","0.2","0.4","","","","","0.3323311207","0.8433491626","0.27413619","0.544145328","","","","","","","","","","72","H","0","img/none_selected.jpg","","175","main_expt",""
"","bandit","255","516570","0.0-217.0-0.0","95382750","wem/bandit_party_2","A1QTFE8FVK3HMG","either","4","63","","","","","","","0","0","1","0.3087900888","","0.6","0.8","0.2","0.4","","","","","0.3087900888","0.778586436","0.2369491767","0.3584947592","","","","","","","","","","72","H","0","img/none_selected.jpg","","176","main_expt",""
"","bandit","256","518207","0.0-218.0-0.0","95382750","wem/bandit_party_2","A1QTFE8FVK3HMG","either","4","116","","","","","","","0","0","1","0.436171931","","0.6","0.8","0.2","0.4","","","","","0.3898613412","0.7488794252","0.3440943848","0.436171931","","","","","","","","","","76","L","3","","","177","main_expt",""
"","bandit","257","519774","0.0-219.0-0.0","95382750","wem/bandit_party_2","A1QTFE8FVK3HMG","either","4","46","","","","","","","0","1","0","","0.5193680035","0.6","0.8","0.2","0.4","0.5236321052","0.7738581751","0.3529135521","0.5193680035","","","","","","","","","","","","","","76","L","3","","","178","main_expt",""
"","bandit","258","521341","0.0-220.0-0.0","95382750","wem/bandit_party_2","A1QTFE8FVK3HMG","either","4","47","","","","","","","1","0","0","0.3957798075","","0.6","0.8","0.2","0.4","","","","","0.2955080601","0.7527820287","0.3787243664","0.3957798075","","","","","","","","","","76","L","3","","","179","main_expt",""
"","bandit","259","522860","0.0-221.0-0.0","95382750","wem/bandit_party_2","A1QTFE8FVK3HMG","either","4","1","","","","","","","0","0","1","","0.4249873197","0.6","0.8","0.2","0.4","0.3174151272","0.8022950929","0.3092677326","0.4249873197","","","","","","","","","","","","","","76","L","3","","","180","main_expt",""
"","bandit","260","524441","0.0-222.0-0.0","95382750","wem/bandit_party_2","A1QTFE8FVK3HMG","either","4","63","","","","","","","0","0","1","","0.4260342439","0.6","0.8","0.2","0.4","0.3560995969","0.7505347306","0.3701559146","0.4260342439","","","","","","","","","","","","","","76","L","3","","","181","main_expt",""
"","bandit","261","526025","0.0-223.0-0.0","95382750","wem/bandit_party_2","A1QTFE8FVK3HMG","either","4","66","","","","","","","0","0","1","0.4305619521","","0.6","0.8","0.2","0.4","","","","","0.4649908644","0.603349844","0.2672844749","0.4305619521","","","","","","","","","","76","L","3","","","182","main_expt",""
"","bandit","262","527615","0.0-224.0-0.0","95382750","wem/bandit_party_2","A1QTFE8FVK3HMG","either","4","79","","","","","","","0","1","0","","0.6464544124","0.6","0.8","0.2","0.4","0.4588174784","0.6464544124","0.3046315644","0.4638513582","","","","","","","","","","","","","","74","J","1","","","183","main_expt",""
"","bandit","263","529186","0.0-225.0-0.0","95382750","wem/bandit_party_2","A1QTFE8FVK3HMG","either","4","51","","","","","","","0","0","1","","0.6606024443","0.6","0.8","0.2","0.4","0.509799977","0.6606024443","0.3507685813","0.5084330557","","","","","","","","","","","","","","74","J","1","","","184","main_expt",""
"","bandit","264","530719","0.0-226.0-0.0","95382750","wem/bandit_party_2","A1QTFE8FVK3HMG","either","4","13","","","","","","","1","0","0","0.7034535028","","0.6","0.8","0.2","0.4","","","","","0.4557178443","0.7034535028","0.3250269766","0.5853778332","","","","","","","","","","74","J","1","","","185","main_expt",""
"","bandit","265","532385","0.0-227.0-0.0","95382750","wem/bandit_party_2","A1QTFE8FVK3HMG","either","4","146","","","","","","","0","1","0","","0.7672503758","0.6","0.8","0.2","0.4","0.3250172706","0.7672503758","0.3636669497","0.5009207633","","","","","","","","","","","","","","74","J","1","","","186","main_expt",""
"","bandit","266","533924","0.0-228.0-0.0","95382750","wem/bandit_party_2","A1QTFE8FVK3HMG","either","4","20","","","","","","","1","0","0","0.7505037824","","0.6","0.8","0.2","0.4","","","","","0.2982192525","0.7505037824","0.4095027401","0.4376492532","","","","","","","","","","74","J","1","","","187","main_expt",""
"","bandit","267","535594","0.0-229.0-0.0","95382750","wem/bandit_party_2","A1QTFE8FVK3HMG","either","4","151","","","","","","","1","0","0","0.7458261356","","0.6","0.8","0.2","0.4","","","","","0.2647713636","0.7458261356","0.3356624093","0.317868257","","","","","","","","","","74","J","1","","","188","main_expt",""
"","bandit","268","537190","0.0-230.0-0.0","95382750","wem/bandit_party_2","A1QTFE8FVK3HMG","either","4","76","","","","","","","1","0","0","0.747965221","","0.6","0.8","0.2","0.4","","","","","0.2798663258","0.747965221","0.3717951419","0.3700786551","","","","","","","","","","74","J","1","","","189","main_expt",""
"","bandit","269","538836","0.0-231.0-0.0","95382750","wem/bandit_party_2","A1QTFE8FVK3HMG","either","4","126","","","","","","","1","0","0","0.7459095382","","0.6","0.8","0.2","0.4","","","","","0.2146362806","0.7459095382","0.3266606931","0.3423477616","","","","","","","","","","74","J","1","","","190","main_expt",""
"","bandit","270","540356","0.0-232.0-0.0","95382750","wem/bandit_party_2","A1QTFE8FVK3HMG","either","4","1","","","","","","","0","0","1","0.6299055833","","0.6","0.8","0.2","0.4","","","","","0.3132783624","0.6299055833","0.4206899072","0.2488230813","","","","","","","","","","74","J","1","","","191","main_expt",""
"","bandit","271","541909","0.0-233.0-0.0","95382750","wem/bandit_party_2","A1QTFE8FVK3HMG","either","4","32","","","","","","","0","0","1","0.688533977","","0.6","0.8","0.2","0.4","","","","","0.2488083766","0.688533977","0.4982817076","0.2193108308","","","","","","","","","","74","J","1","","","192","main_expt",""
"","bandit","272","543593","0.0-234.0-0.0","95382750","wem/bandit_party_2","A1QTFE8FVK3HMG","either","4","165","","","","","","","1","0","0","0.7176496952","","0.6","0.8","0.2","0.4","","","","","0.225611763","0.7176496952","0.4820211017","0.4057276106","","","","","","","","","","74","J","1","","","193","main_expt",""
"","bandit","273","545133","0.0-235.0-0.0","95382750","wem/bandit_party_2","A1QTFE8FVK3HMG","either","4","21","","","","","","","0","0","1","0.746212457","","0.6","0.8","0.2","0.4","","","","","0.2159393038","0.746212457","0.5373891537","0.3826056333","","","","","","","","","","74","J","1","","","194","main_expt",""
"","bandit","274","546655","0.0-236.0-0.0","95382750","wem/bandit_party_2","A1QTFE8FVK3HMG","either","4","1","","","","","","","0","1","0","","0.6800784202","0.6","0.8","0.2","0.4","0.3112228701","0.6800784202","0.3890275207","0.4922935908","","","","","","","","","","","","","","74","J","1","","","195","main_expt",""
"","bandit","275","548289","0.0-237.0-0.0","95382750","wem/bandit_party_2","A1QTFE8FVK3HMG","either","4","114","","","","","","","0","1","0","","0.5986295964","0.6","0.8","0.2","0.4","0.3249051539","0.5986295964","0.4329462643","0.5475793877","","","","","","","","","","","","","","74","J","1","","","196","main_expt",""
"","bandit","276","549919","0.0-238.0-0.0","95382750","wem/bandit_party_2","A1QTFE8FVK3HMG","either","4","108","","","","","","","0","0","1","0.5323622673","","0.6","0.8","0.2","0.4","","","","","0.2985018541","0.5323622673","0.416825946","0.6069385875","","","","","","","","","","74","J","1","","","197","main_expt",""
"","bandit","277","551558","0.0-239.0-0.0","95382750","wem/bandit_party_2","A1QTFE8FVK3HMG","either","4","118","","","","","","","0","0","1","0.5348043844","","0.6","0.8","0.2","0.4","","","","","0.3109366799","0.5348043844","0.4063336836","0.4946816555","","","","","","","","","","74","J","1","","","198","main_expt",""
"","bandit","278","553199","0.0-240.0-0.0","95382750","wem/bandit_party_2","A1QTFE8FVK3HMG","either","4","119","","","","","","","1","0","0","0.4534403339","","0.6","0.8","0.2","0.4","","","","","0.3143364341","0.4534403339","0.361264989","0.479635203","","","","","","","","","","74","J","1","","","199","main_expt",""
"","bandit","279","554879","0.0-241.0-0.0","95382750","wem/bandit_party_2","A1QTFE8FVK3HMG","either","4","160","","","","","","","0","0","1","0.4185876589","","0.6","0.8","0.2","0.4","","","","","0.3176919365","0.4185876589","0.4700223374","0.4969837249","","","","","","","","","","74","J","1","","","200","main_expt",""
"","bandit","280","556443","0.0-242.0-0.0","95382750","wem/bandit_party_2","A1QTFE8FVK3HMG","either","4","42","","","","","","","0","0","1","0.3812211227","","0.6","0.8","0.2","0.4","","","","","0.2848283651","0.3812211227","0.4751543938","0.4548125401","","","","","","","","","","74","J","1","","","201","main_expt",""
"","bandit","281","558015","0.0-243.0-0.0","95382750","wem/bandit_party_2","A1QTFE8FVK3HMG","either","4","62","","","","","","","1","0","0","0.4414728031","","0.6","0.8","0.2","0.4","","","","","0.2439676923","0.4414728031","0.4044794657","0.5767771981","","","","","","","","","","74","J","1","","","202","main_expt",""
"","bandit","282","559538","0.0-244.0-0.0","95382750","wem/bandit_party_2","A1QTFE8FVK3HMG","either","4","1","","","","","","","0","0","1","0.3698030662","","0.6","0.8","0.2","0.4","","","","","0.2582922662","0.3698030662","0.3321077444","0.6118171827","","","","","","","","","","74","J","1","","","203","main_expt",""
"","bandit","283","561087","0.0-245.0-0.0","95382750","wem/bandit_party_2","A1QTFE8FVK3HMG","either","4","29","","","","","","","0","0","1","0.4899087748","","0.6","0.8","0.2","0.4","","","","","0.3799793739","0.4899087748","0.3697340749","0.5373194108","","","","","","","","","","74","J","1","","","204","main_expt",""
"","bandit","284","562666","0.0-246.0-0.0","95382750","wem/bandit_party_2","A1QTFE8FVK3HMG","either","4","59","","","","","","","0","1","0","","0.4441528059","0.6","0.8","0.2","0.4","0.4441528059","0.4310108402","0.3998168993","0.5501461309","","","","","","","","","","","","","","72","H","0","img/none_selected.jpg","","205","main_expt",""
"","bandit","285","564366","0.0-247.0-0.0","95382750","wem/bandit_party_2","A1QTFE8FVK3HMG","either","4","180","","","","","","","0","0","1","0.4468516792","","0.6","0.8","0.2","0.4","","","","","0.4468516792","0.3912115078","0.4929909192","0.5094027242","","","","","","","","","","72","H","0","img/none_selected.jpg","","206","main_expt",""
"","bandit","286","566008","0.0-248.0-0.0","95382750","wem/bandit_party_2","A1QTFE8FVK3HMG","either","4","123","","","","","","","0","1","0","","0.399366085","0.6","0.8","0.2","0.4","0.399366085","0.3195818707","0.4960693894","0.6449696869","","","","","","","","","","","","","","72","H","0","img/none_selected.jpg","","207","main_expt",""
"","bandit","287","567552","0.0-249.0-0.0","95382750","wem/bandit_party_2","A1QTFE8FVK3HMG","either","4","24","","","","","","","0","0","1","0.4206610772","","0.6","0.8","0.2","0.4","","","","","0.4206610772","0.2378171997","0.3912862986","0.549996868","","","","","","","","","","72","H","0","img/none_selected.jpg","","208","main_expt",""
"","bandit","288","569245","0.0-250.0-0.0","95382750","wem/bandit_party_2","A1QTFE8FVK3HMG","either","4","171","","","","","","","1","0","0","0.5145499259","","0.6","0.8","0.2","0.4","","","","","0.5145499259","0.2339104391","0.4218938049","0.5258833792","","","","","","","","","","72","H","0","img/none_selected.jpg","","209","main_expt",""
"","bandit","289","570779","0.0-251.0-0.0","95382750","wem/bandit_party_2","A1QTFE8FVK3HMG","either","4","14","","","","","","","0","1","0","","0.3497539355","0.6","0.8","0.2","0.4","0.3497539355","0.2506558306","0.6003160005","0.5453980868","","","","","","","","","","","","","","72","H","0","img/none_selected.jpg","","210","main_expt",""
"","bandit","290","572340","0.0-252.0-0.0","95382750","wem/bandit_party_2","A1QTFE8FVK3HMG","either","4","40","","","","","","","0","0","1","","0.3335821388","0.6","0.8","0.2","0.4","0.3335821388","0.3466578502","0.5481562991","0.5370950561","","","","","","","","","","","","","","72","H","0","img/none_selected.jpg","","211","main_expt",""
"","bandit","291","573883","0.0-253.0-0.0","95382750","wem/bandit_party_2","A1QTFE8FVK3HMG","either","4","23","","","","","","","0","0","1","0.2778022227","","0.6","0.8","0.2","0.4","","","","","0.2778022227","0.4162959965","0.6210595125","0.5774996514","","","","","","","","","","72","H","0","img/none_selected.jpg","","212","main_expt",""
"","bandit","292","575503","0.0-254.0-0.0","95382750","wem/bandit_party_2","A1QTFE8FVK3HMG","either","4","99","","","","","","","0","1","0","","0.2949104287","0.6","0.8","0.2","0.4","0.2949104287","0.545788555","0.7732161257","0.4826056363","","","","","","","","","","","","","","72","H","0","img/none_selected.jpg","","213","main_expt",""
"","bandit","293","577202","0.0-255.0-0.0","95382750","wem/bandit_party_2","A1QTFE8FVK3HMG","either","4","179","","","","","","","0","0","1","0.2443343027","","0.6","0.8","0.2","0.4","","","","","0.2443343027","0.6077749924","0.7689771773","0.4913277851","","","","","","","","","","72","H","0","img/none_selected.jpg","","214","main_expt",""
"","bandit","294","578921","0.0-256.0-0.0","95382750","wem/bandit_party_2","A1QTFE8FVK3HMG","either","4","197","","","","","","","0","1","0","","0.6841712945","0.6","0.8","0.2","0.4","0.2232989174","0.4883429648","0.6841712945","0.5415006571","","","","","","","","","","","","","","75","K","2","","","215","main_expt",""
"","bandit","295","580594","0.0-257.0-0.0","95382750","wem/bandit_party_2","A1QTFE8FVK3HMG","either","4","148","","","","","","","0","1","0","","0.7019934296","0.6","0.8","0.2","0.4","0.2918619336","0.3309854328","0.7019934296","0.5198015267","","","","","","","","","","","","","","75","K","2","","","216","main_expt",""
"","bandit","296","582168","0.0-258.0-0.0","95382750","wem/bandit_party_2","A1QTFE8FVK3HMG","either","4","53","","","","","","","0","1","0","","0.7537099884","0.6","0.8","0.2","0.4","0.3571058798","0.3310528633","0.7537099884","0.545097872","","","","","","","","","","","","","","75","K","2","","","217","main_expt",""
"","bandit","297","583696","0.0-259.0-0.0","95382750","wem/bandit_party_2","A1QTFE8FVK3HMG","either","4","9","","","","","","","0","1","0","","0.8428980993","0.6","0.8","0.2","0.4","0.3738303097","0.4147218791","0.8428980993","0.5776025334","","","","","","","","","","","","","","75","K","2","","","218","main_expt",""
"","bandit","298","585235","0.0-260.0-0.0","95382750","wem/bandit_party_2","A1QTFE8FVK3HMG","either","4","18","","","","","","","0","1","0","","0.8007326434","0.6","0.8","0.2","0.4","0.4832874948","0.3402104323","0.8007326434","0.5616346574","","","","","","","","","","","","","","75","K","2","","","219","main_expt",""
"","bandit","299","586833","0.0-261.0-0.0","95382750","wem/bandit_party_2","A1QTFE8FVK3HMG","either","4","77","","","","","","","0","0","1","","0.8518850648","0.6","0.8","0.2","0.4","0.475455537","0.3448871422","0.8518850648","0.6261942659","","","","","","","","","","","","","","75","K","2","","","220","main_expt",""
"","bandit","300","588442","0.0-262.0-0.0","95382750","wem/bandit_party_2","A1QTFE8FVK3HMG","either","4","88","","","","","","","0","1","0","","0.8488451861","0.6","0.8","0.2","0.4","0.3849790123","0.4438284365","0.8488451861","0.6533416475","","","","","","","","","","","","","","75","K","2","","","221","main_expt",""
"","bandit","301","590002","0.0-263.0-0.0","95382750","wem/bandit_party_2","A1QTFE8FVK3HMG","either","4","38","","","","","","","0","1","0","","0.8202185963","0.6","0.8","0.2","0.4","0.2708628555","0.3768672835","0.8202185963","0.6780524799","","","","","","","","","","","","","","75","K","2","","","222","main_expt",""
"","bandit","302","591669","0.0-264.0-0.0","95382750","wem/bandit_party_2","A1QTFE8FVK3HMG","either","4","144","","","","","","","0","1","0","","0.839196386","0.6","0.8","0.2","0.4","0.3886191555","0.4599748191","0.839196386","0.638470603","","","","","","","","","","","","","","75","K","2","","","223","main_expt",""
"","bandit","303","593356","0.0-265.0-0.0","95382750","wem/bandit_party_2","A1QTFE8FVK3HMG","either","4","165","","","","","","","0","1","0","","0.8340435664","0.6","0.8","0.2","0.4","0.3352763987","0.5868274652","0.8340435664","0.560582988","","","","","","","","","","","","","","75","K","2","","","224","main_expt",""
"","bandit","304","595014","0.0-266.0-0.0","95382750","wem/bandit_party_2","A1QTFE8FVK3HMG","either","4","136","","","","","","","0","0","1","0.8229669419","","0.6","0.8","0.2","0.4","","","","","0.3948846532","0.510759767","0.8229669419","0.5004803289","","","","","","","","","","75","K","2","","","225","main_expt",""
"","bandit","305","596555","0.0-267.0-0.0","95382750","wem/bandit_party_2","A1QTFE8FVK3HMG","either","4","19","","","","","","","0","0","1","0.8326575293","","0.6","0.8","0.2","0.4","","","","","0.385279681","0.6026028704","0.8326575293","0.5109709899","","","","","","","","","","75","K","2","","","226","main_expt",""
"","bandit","306","598104","0.0-268.0-0.0","95382750","wem/bandit_party_2","A1QTFE8FVK3HMG","either","4","27","","","","","","","0","0","1","0.588132951","","0.6","0.8","0.2","0.4","","","","","0.3296530349","0.588132951","0.8904476858","0.4271661703","","","","","","","","","","74","J","1","","","227","main_expt",""
"","bandit","307","599692","0.0-269.0-0.0","95382750","wem/bandit_party_2","A1QTFE8FVK3HMG","either","4","68","","","","","","","0","0","1","","0.374673526","0.6","0.8","0.2","0.4","0.4227788413","0.5754590721","0.8877596604","0.374673526","","","","","","","","","","","","","","76","L","3","","","228","main_expt",""
"","bandit","308","601286","0.0-270.0-0.0","95382750","wem/bandit_party_2","A1QTFE8FVK3HMG","either","4","72","","","","","","","1","0","0","0.4470353227","","0.6","0.8","0.2","0.4","","","","","0.4470353227","0.6311951266","0.8647697669","0.393435759","","","","","","","","","","72","H","0","img/none_selected.jpg","","229","main_expt",""
"","bandit","309","602867","0.0-271.0-0.0","95382750","wem/bandit_party_2","A1QTFE8FVK3HMG","either","4","59","","","","","","","0","0","1","0.2986819632","","0.6","0.8","0.2","0.4","","","","","0.2986819632","0.6164228117","0.8704214291","0.3299431778","","","","","","","","","","72","H","0","img/none_selected.jpg","","230","main_expt",""
"","bandit","310","604389","0.0-272.0-0.0","95382750","wem/bandit_party_2","A1QTFE8FVK3HMG","either","4","1","","","","","","","0","0","1","","0.4508866759","0.6","0.8","0.2","0.4","0.4508866759","0.5943568022","0.8598686354","0.3477061432","","","","","","","","","","","","","","72","H","0","img/none_selected.jpg","","231","main_expt",""
"","bandit","311","605907","0.0-273.0-0.0","95382750","wem/bandit_party_2","A1QTFE8FVK3HMG","either","4","1","","","","","","","1","0","0","0.5125968159","","0.6","0.8","0.2","0.4","","","","","0.5125968159","0.6032910051","0.7939027672","0.3430234075","","","","","","","","","","72","H","0","img/none_selected.jpg","","232","main_expt",""
"","bandit","312","607580","0.0-274.0-0.0","95382750","wem/bandit_party_2","A1QTFE8FVK3HMG","either","4","166","","","","","","","1","0","0","0.6020802482","","0.6","0.8","0.2","0.4","","","","","0.6020802482","0.7225660168","0.7930400566","0.2812772396","","","","","","","","","","72","H","0","img/none_selected.jpg","","233","main_expt",""
"","bandit","313","609163","0.0-275.0-0.0","95382750","wem/bandit_party_2","A1QTFE8FVK3HMG","either","4","62","","","","","","","1","0","0","0.5927943616","","0.6","0.8","0.2","0.4","","","","","0.5927943616","0.6718439238","0.7549101179","0.2049555934","","","","","","","","","","72","H","0","img/none_selected.jpg","","234","main_expt",""
"","bandit","314","610707","0.0-276.0-0.0","95382750","wem/bandit_party_2","A1QTFE8FVK3HMG","either","4","23","","","","","","","0","1","0","","0.5814417759","0.6","0.8","0.2","0.4","0.5814417759","0.6025803433","0.7654291135","0.144612338","","","","","","","","","","","","","","72","H","0","img/none_selected.jpg","","235","main_expt",""
"","bandit","315","612275","0.0-277.0-0.0","95382750","wem/bandit_party_2","A1QTFE8FVK3HMG","either","4","46","","","","","","","0","0","1","0.6530024001","","0.6","0.8","0.2","0.4","","","","","0.6530024001","0.6170166349","0.6965918162","0.1509581517","","","","","","","","","","72","H","0","img/none_selected.jpg","","236","main_expt",""
"","bandit","316","644723","0.0-278.0-0.0","95382750","wem/bandit_party_2","A1QTFE8FVK3HMG","either","4","30929","","","","","","","0","1","0","","0.5861490443","0.6","0.8","0.2","0.4","0.5861490443","0.6426153702","0.8151927982","0.2267465707","","","","","","","","","","","","","","72","H","0","img/none_selected.jpg","","237","main_expt",""
