"consent","trial_type","trial_index","time_elapsed","internal_node_id","subjID","study","MID","cond","drift","rt","responses","button_pressed","key_press","like","value","connected","gems","bombs","no_reward","GemPrChosen","BombPrChosen","GainOverPainPr_0","GainOverPainPr_1","GainOverPainPr_2","GainOverPainPr_3","LosePr_0","LosePr_1","LosePr_2","LosePr_3","WinPr_0","WinPr_1","WinPr_2","WinPr_3","Q0","Q1","Q2","gender","age","ethnicity","label","expt_phase","target","respCharCode","respKey","respChoiceNum","respChoice","practice","trial_counter","trial_label","Q0_index"
"GDM/GDM_behavioral_consent_30min_online.html","consent","0","23785","0.0-0.0","95524357","wem/bandit_party_2","A3PN17H3QT51O","either","6","","","","","","","","","","","","","","","","","","","","","","","","","","","","","","","","","","","","","","","","",""
"","survey-text","1","28070","0.0-1.0","95524357","wem/bandit_party_2","A3PN17H3QT51O","either","6","3262","{""Q0"":""A3PN17H3QT51O""}","","","","","","","","","","","","","","","","","","","","","","","","","","","","","","","","","","","","","","",""
"","button-response","2","31054","0.0-2.0","95524357","wem/bandit_party_2","A3PN17H3QT51O","either","6","1967","","0","","","","","","","","","","","","","","","","","","","","","","","","","","","","","","","","","","","","","",""
"","text-replacement","3","51121","0.0-3.0","95524357","wem/bandit_party_2","A3PN17H3QT51O","either","6","19059","","","32","","","","","","","","","","","","","","","","","","","","","","","","","","","","","","","","","","","","",""
"","text-replacement","4","61224","0.0-4.0","95524357","wem/bandit_party_2","A3PN17H3QT51O","either","6","10099","","","32","","","","","","","","","","","","","","","","","","","","","","","","","","","","","","","","","","","","",""
"","identification","5","70082","0.0-6.0-0.0","95524357","wem/bandit_party_2","A3PN17H3QT51O","either","6","8813","","","","3","3","3","","","","","","","","","","","","","","","","","","","","","","","","pre","identification_pre","the Republican Party","","","","","","","",""
"","identification","6","78697","0.0-6.0-1.0","95524357","wem/bandit_party_2","A3PN17H3QT51O","either","6","7569","","","","0","0","0","","","","","","","","","","","","","","","","","","","","","","","","pre","identification_pre","the Democratic Party","","","","","","","",""
"","text-replacement","7","85854","0.0-7.0","95524357","wem/bandit_party_2","A3PN17H3QT51O","either","6","6153","","","32","","","","","","","","","","","","","","","","","","","","","","","","","","","","","","","","","","","","",""
"","text-replacement","8","91238","0.0-8.0","95524357","wem/bandit_party_2","A3PN17H3QT51O","either","6","5379","","","32","","","","","","","","","","","","","","","","","","","","","","","","","","","","","","","","","","","","",""
"","text-replacement","9","105052","0.0-9.0","95524357","wem/bandit_party_2","A3PN17H3QT51O","either","6","13806","","","32","","","","","","","","","","","","","","","","","","","","","","","","","","","","","","","","","","","","",""
"","text-replacement","10","110351","0.0-10.0","95524357","wem/bandit_party_2","A3PN17H3QT51O","either","6","5293","","","32","","","","","","","","","","","","","","","","","","","","","","","","","","","","","","","","","","","","",""
"","text-replacement","11","114534","0.0-11.0","95524357","wem/bandit_party_2","A3PN17H3QT51O","either","6","4177","","","32","","","","","","","","","","","","","","","","","","","","","","","","","","","","","","","","","","","","",""
"","bandit","12","118163","0.0-12.0-0.0","95524357","wem/bandit_party_2","A3PN17H3QT51O","either","6","2099","","","","","","","0","0","1","0","0","","","","","0","","","","0","","","","","","","","","","","","","74","J","0","img/none_selected_demo.jpg","true","0","",""
"","bandit","13","120636","0.0-13.0-0.0","95524357","wem/bandit_party_2","A3PN17H3QT51O","either","6","947","","","","","","","0","0","1","0","0","","","","","0","","","","0","","","","","","","","","","","","","75","K","0","img/none_selected_demo.jpg","true","0","",""
"","text-replacement","14","129062","0.0-14.0","95524357","wem/bandit_party_2","A3PN17H3QT51O","either","6","8421","","","32","","","","","","","","","","","","","","","","","","","","","","","","","","","","","","","","","","","","",""
"","text-replacement","15","135117","0.0-15.0","95524357","wem/bandit_party_2","A3PN17H3QT51O","either","6","6051","","","32","","","","","","","","","","","","","","","","","","","","","","","","","","","","","","","","","","","","",""
"","text-replacement","16","141037","0.0-16.0","95524357","wem/bandit_party_2","A3PN17H3QT51O","either","6","5917","","","32","","","","","","","","","","","","","","","","","","","","","","","","","","","","","","","","","","","","",""
"","text-replacement","17","144501","0.0-17.0","95524357","wem/bandit_party_2","A3PN17H3QT51O","either","6","3461","","","32","","","","","","","","","","","","","","","","","","","","","","","","","","","","","","","","","","","","",""
"","bandit","18","146450","0.0-18.0-0.0","95524357","wem/bandit_party_2","A3PN17H3QT51O","either","6","433","","","","","","","1","0","0","0.8","","0.5","0.5","","","","","","","0.8","0.2","","","","","","","","","","","","74","J","0","img/none_selected_demo.jpg","true","0","80_20_practice",""
"","bandit","19","148467","0.0-18.0-1.0","95524357","wem/bandit_party_2","A3PN17H3QT51O","either","6","500","","","","","","","0","0","1","0.2","","0.5","0.5","","","","","","","0.8","0.2","","","","","","","","","","","","75","K","1","","true","0","80_20_practice",""
"","bandit","20","150377","0.0-18.0-2.0","95524357","wem/bandit_party_2","A3PN17H3QT51O","either","6","394","","","","","","","1","0","0","0.8","","0.5","0.5","","","","","","","0.8","0.2","","","","","","","","","","","","74","J","0","img/none_selected_demo.jpg","true","0","80_20_practice",""
"","bandit","21","152202","0.0-18.0-3.0","95524357","wem/bandit_party_2","A3PN17H3QT51O","either","6","309","","","","","","","1","0","0","0.8","","0.5","0.5","","","","","","","0.8","0.2","","","","","","","","","","","","74","J","0","img/none_selected_demo.jpg","true","0","80_20_practice",""
"","bandit","22","154442","0.0-18.0-4.0","95524357","wem/bandit_party_2","A3PN17H3QT51O","either","6","723","","","","","","","0","1","0","","0.8","0.5","0.5","","","0.8","0.2","","","","","","","","","","","","","","","","74","J","0","img/none_selected_demo.jpg","true","0","80_20_practice",""
"","bandit","23","156289","0.0-18.0-5.0","95524357","wem/bandit_party_2","A3PN17H3QT51O","either","6","332","","","","","","","0","1","0","","0.8","0.5","0.5","","","0.8","0.2","","","","","","","","","","","","","","","","74","J","0","img/none_selected_demo.jpg","true","0","80_20_practice",""
"","bandit","24","158273","0.0-18.0-6.0","95524357","wem/bandit_party_2","A3PN17H3QT51O","either","6","338","","","","","","","1","0","0","0.8","","0.5","0.5","","","","","","","0.8","0.2","","","","","","","","","","","","74","J","0","img/none_selected_demo.jpg","true","0","80_20_practice",""
"","bandit","25","160057","0.0-18.0-7.0","95524357","wem/bandit_party_2","A3PN17H3QT51O","either","6","268","","","","","","","0","1","0","","0.8","0.5","0.5","","","0.8","0.2","","","","","","","","","","","","","","","","74","J","0","img/none_selected_demo.jpg","true","0","80_20_practice",""
"","bandit","26","161779","0.0-18.0-8.0","95524357","wem/bandit_party_2","A3PN17H3QT51O","either","6","203","","","","","","","0","0","1","","0.8","0.5","0.5","","","0.8","0.2","","","","","","","","","","","","","","","","74","J","0","img/none_selected_demo.jpg","true","0","80_20_practice",""
"","bandit","27","163840","0.0-18.0-9.0","95524357","wem/bandit_party_2","A3PN17H3QT51O","either","6","537","","","","","","","1","0","0","0.8","","0.5","0.5","","","","","","","0.8","0.2","","","","","","","","","","","","74","J","0","img/none_selected_demo.jpg","true","0","80_20_practice",""
"","bandit","28","165425","0.0-18.0-10.0","95524357","wem/bandit_party_2","A3PN17H3QT51O","either","6","68","","","","","","","0","1","0","","0.8","0.5","0.5","","","0.8","0.2","","","","","","","","","","","","","","","","74","J","0","img/none_selected_demo.jpg","true","0","80_20_practice",""
"","bandit","29","167228","0.0-18.0-11.0","95524357","wem/bandit_party_2","A3PN17H3QT51O","either","6","285","","","","","","","1","0","0","0.8","","0.5","0.5","","","","","","","0.8","0.2","","","","","","","","","","","","74","J","0","img/none_selected_demo.jpg","true","0","80_20_practice",""
"","bandit","30","169805","0.0-18.0-12.0","95524357","wem/bandit_party_2","A3PN17H3QT51O","either","6","1053","","","","","","","0","1","0","","0.8","0.5","0.5","","","0.8","0.2","","","","","","","","","","","","","","","","74","J","0","img/none_selected_demo.jpg","true","0","80_20_practice",""
"","bandit","31","171716","0.0-18.0-13.0","95524357","wem/bandit_party_2","A3PN17H3QT51O","either","6","392","","","","","","","0","0","1","0.2","","0.5","0.5","","","","","","","0.8","0.2","","","","","","","","","","","","75","K","1","","true","0","80_20_practice",""
"","bandit","32","173484","0.0-18.0-14.0","95524357","wem/bandit_party_2","A3PN17H3QT51O","either","6","250","","","","","","","0","0","1","0.2","","0.5","0.5","","","","","","","0.8","0.2","","","","","","","","","","","","75","K","1","","true","0","80_20_practice",""
"","bandit","33","175243","0.0-18.0-15.0","95524357","wem/bandit_party_2","A3PN17H3QT51O","either","6","243","","","","","","","0","0","1","0.2","","0.5","0.5","","","","","","","0.8","0.2","","","","","","","","","","","","75","K","1","","true","0","80_20_practice",""
"","bandit","34","177037","0.0-18.0-16.0","95524357","wem/bandit_party_2","A3PN17H3QT51O","either","6","265","","","","","","","0","1","0","","0.8","0.5","0.5","","","0.8","0.2","","","","","","","","","","","","","","","","74","J","0","img/none_selected_demo.jpg","true","0","80_20_practice",""
"","bandit","35","178567","0.0-18.0-17.0","95524357","wem/bandit_party_2","A3PN17H3QT51O","either","6","10","","","","","","","0","0","1","0.8","","0.5","0.5","","","","","","","0.8","0.2","","","","","","","","","","","","74","J","0","img/none_selected_demo.jpg","true","0","80_20_practice",""
"","bandit","36","180176","0.0-18.0-18.0","95524357","wem/bandit_party_2","A3PN17H3QT51O","either","6","93","","","","","","","0","1","0","","0.8","0.5","0.5","","","0.8","0.2","","","","","","","","","","","","","","","","74","J","0","img/none_selected_demo.jpg","true","0","80_20_practice",""
"","bandit","37","183032","0.0-18.0-19.0","95524357","wem/bandit_party_2","A3PN17H3QT51O","either","6","1341","","","","","","","0","0","1","","0.8","0.5","0.5","","","0.8","0.2","","","","","","","","","","","","","","","","74","J","0","img/none_selected_demo.jpg","true","0","80_20_practice",""
"","text-replacement","38","183300","0.0-19.0","95524357","wem/bandit_party_2","A3PN17H3QT51O","either","6","265","","","32","","","","","","","","","","","","","","","","","","","","","","","","","","","","","","","","","","","","",""
"","bandit","39","186751","0.0-20.0-0.0","95524357","wem/bandit_party_2","A3PN17H3QT51O","either","6","1936","","","","","","","1","0","0","1","0","","","","","0","1","","","1","0","","","","","","","","","","","","74","J","0","img/none_selected_demo.jpg","true","0","",""
"","text-replacement","40","190100","0.0-21.0","95524357","wem/bandit_party_2","A3PN17H3QT51O","either","6","3344","","","32","","","","","","","","","","","","","","","","","","","","","","","","","","","","","","","","","","","","",""
"","text-replacement","41","193420","0.0-22.0","95524357","wem/bandit_party_2","A3PN17H3QT51O","either","6","3317","","","32","","","","","","","","","","","","","","","","","","","","","","","","","","","","","","","","","","","","",""
"","text-replacement","42","197133","0.0-23.0","95524357","wem/bandit_party_2","A3PN17H3QT51O","either","6","3709","","","32","","","","","","","","","","","","","","","","","","","","","","","","","","","","","","","","","","","","",""
"","text-replacement","43","201155","0.0-24.0","95524357","wem/bandit_party_2","A3PN17H3QT51O","either","6","4020","","","32","","","","","","","","","","","","","","","","","","","","","","","","","","","","","","","","","","","","",""
"","text-replacement","44","203947","0.0-25.0","95524357","wem/bandit_party_2","A3PN17H3QT51O","either","6","2789","","","32","","","","","","","","","","","","","","","","","","","","","","","","","","","","","","","","","","","","",""
"","text-replacement","45","206267","0.0-26.0","95524357","wem/bandit_party_2","A3PN17H3QT51O","either","6","2316","","","32","","","","","","","","","","","","","","","","","","","","","","","","","","","","","","","","","","","","",""
"","text-replacement","46","210875","0.0-27.0","95524357","wem/bandit_party_2","A3PN17H3QT51O","either","6","4605","","","32","","","","","","","","","","","","","","","","","","","","","","","","","","","","","","","","","","","","",""
"","text-replacement","47","215259","0.0-28.0","95524357","wem/bandit_party_2","A3PN17H3QT51O","either","6","4379","","","32","","","","","","","","","","","","","","","","","","","","","","","","","","","","","","","","","","","","",""
"","text-replacement","48","220363","0.0-29.0","95524357","wem/bandit_party_2","A3PN17H3QT51O","either","6","5101","","","32","","","","","","","","","","","","","","","","","","","","","","","","","","","","","","","","","","","","",""
"","text-replacement","49","222764","0.0-30.0","95524357","wem/bandit_party_2","A3PN17H3QT51O","either","6","2398","","","32","","","","","","","","","","","","","","","","","","","","","","","","","","","","","","","","","","","","",""
"","text-replacement","50","226915","0.0-31.0","95524357","wem/bandit_party_2","A3PN17H3QT51O","either","6","4147","","","32","","","","","","","","","","","","","","","","","","","","","","","","","","","","","","","","","","","","",""
"","bandit","51","228986","0.0-32.0-0.0","95524357","wem/bandit_party_2","A3PN17H3QT51O","either","6","531","","","","","","","1","0","0","0.8","","0.5","0.5","0.5","0.5","","","","","0.8","0.2","0.6","0.2","","","","","","","","","","72","H","0","img/none_selected.jpg","true","0","full_practice",""
"","bandit","52","230953","0.0-32.0-1.0","95524357","wem/bandit_party_2","A3PN17H3QT51O","either","6","447","","","","","","","0","1","0","","0.2","0.5","0.5","0.5","0.5","0.8","0.2","0.6","0.2","","","","","","","","","","","","","","74","J","1","","true","0","full_practice",""
"","bandit","53","232894","0.0-32.0-2.0","95524357","wem/bandit_party_2","A3PN17H3QT51O","either","6","427","","","","","","","1","0","0","0.2","","0.5","0.5","0.5","0.5","","","","","0.8","0.2","0.6","0.2","","","","","","","","","","74","J","1","","true","0","full_practice",""
"","bandit","54","234699","0.0-32.0-3.0","95524357","wem/bandit_party_2","A3PN17H3QT51O","either","6","279","","","","","","","0","1","0","","0.6","0.5","0.5","0.5","0.5","0.8","0.2","0.6","0.2","","","","","","","","","","","","","","75","K","2","","true","0","full_practice",""
"","bandit","55","236384","0.0-32.0-4.0","95524357","wem/bandit_party_2","A3PN17H3QT51O","either","6","167","","","","","","","1","0","0","0.2","","0.5","0.5","0.5","0.5","","","","","0.8","0.2","0.6","0.2","","","","","","","","","","76","L","3","","true","0","full_practice",""
"","bandit","56","238127","0.0-32.0-5.0","95524357","wem/bandit_party_2","A3PN17H3QT51O","either","6","228","","","","","","","0","0","1","","0.2","0.5","0.5","0.5","0.5","0.8","0.2","0.6","0.2","","","","","","","","","","","","","","74","J","1","","true","0","full_practice",""
"","bandit","57","239835","0.0-32.0-6.0","95524357","wem/bandit_party_2","A3PN17H3QT51O","either","6","173","","","","","","","0","0","1","","0.2","0.5","0.5","0.5","0.5","0.8","0.2","0.6","0.2","","","","","","","","","","","","","","74","J","1","","true","0","full_practice",""
"","bandit","58","241662","0.0-32.0-7.0","95524357","wem/bandit_party_2","A3PN17H3QT51O","either","6","312","","","","","","","0","1","0","","0.8","0.5","0.5","0.5","0.5","0.8","0.2","0.6","0.2","","","","","","","","","","","","","","72","H","0","img/none_selected.jpg","true","0","full_practice",""
"","bandit","59","243455","0.0-32.0-8.0","95524357","wem/bandit_party_2","A3PN17H3QT51O","either","6","278","","","","","","","0","1","0","","0.8","0.5","0.5","0.5","0.5","0.8","0.2","0.6","0.2","","","","","","","","","","","","","","72","H","0","img/none_selected.jpg","true","0","full_practice",""
"","bandit","60","245256","0.0-32.0-9.0","95524357","wem/bandit_party_2","A3PN17H3QT51O","either","6","283","","","","","","","0","0","1","0.8","","0.5","0.5","0.5","0.5","","","","","0.8","0.2","0.6","0.2","","","","","","","","","","72","H","0","img/none_selected.jpg","true","0","full_practice",""
"","bandit","61","247111","0.0-32.0-10.0","95524357","wem/bandit_party_2","A3PN17H3QT51O","either","6","339","","","","","","","0","0","1","","0.6","0.5","0.5","0.5","0.5","0.8","0.2","0.6","0.2","","","","","","","","","","","","","","75","K","2","","true","0","full_practice",""
"","bandit","62","249061","0.0-32.0-11.0","95524357","wem/bandit_party_2","A3PN17H3QT51O","either","6","425","","","","","","","0","0","1","","0.6","0.5","0.5","0.5","0.5","0.8","0.2","0.6","0.2","","","","","","","","","","","","","","75","K","2","","true","0","full_practice",""
"","bandit","63","250855","0.0-32.0-12.0","95524357","wem/bandit_party_2","A3PN17H3QT51O","either","6","277","","","","","","","0","1","0","","0.2","0.5","0.5","0.5","0.5","0.8","0.2","0.6","0.2","","","","","","","","","","","","","","76","L","3","","true","0","full_practice",""
"","bandit","64","252589","0.0-32.0-13.0","95524357","wem/bandit_party_2","A3PN17H3QT51O","either","6","212","","","","","","","1","0","0","0.2","","0.5","0.5","0.5","0.5","","","","","0.8","0.2","0.6","0.2","","","","","","","","","","76","L","3","","true","0","full_practice",""
"","bandit","65","254379","0.0-32.0-14.0","95524357","wem/bandit_party_2","A3PN17H3QT51O","either","6","268","","","","","","","0","0","1","0.2","","0.5","0.5","0.5","0.5","","","","","0.8","0.2","0.6","0.2","","","","","","","","","","76","L","3","","true","0","full_practice",""
"","bandit","66","255958","0.0-32.0-15.0","95524357","wem/bandit_party_2","A3PN17H3QT51O","either","6","64","","","","","","","0","1","0","","0.8","0.5","0.5","0.5","0.5","0.8","0.2","0.6","0.2","","","","","","","","","","","","","","72","H","0","img/none_selected.jpg","true","0","full_practice",""
"","bandit","67","257716","0.0-32.0-16.0","95524357","wem/bandit_party_2","A3PN17H3QT51O","either","6","245","","","","","","","1","0","0","0.8","","0.5","0.5","0.5","0.5","","","","","0.8","0.2","0.6","0.2","","","","","","","","","","72","H","0","img/none_selected.jpg","true","0","full_practice",""
"","bandit","68","259478","0.0-32.0-17.0","95524357","wem/bandit_party_2","A3PN17H3QT51O","either","6","246","","","","","","","0","0","1","0.8","","0.5","0.5","0.5","0.5","","","","","0.8","0.2","0.6","0.2","","","","","","","","","","72","H","0","img/none_selected.jpg","true","0","full_practice",""
"","bandit","69","261105","0.0-32.0-18.0","95524357","wem/bandit_party_2","A3PN17H3QT51O","either","6","106","","","","","","","0","0","1","","0.2","0.5","0.5","0.5","0.5","0.8","0.2","0.6","0.2","","","","","","","","","","","","","","74","J","1","","true","0","full_practice",""
"","bandit","70","262890","0.0-32.0-19.0","95524357","wem/bandit_party_2","A3PN17H3QT51O","either","6","264","","","","","","","0","0","1","","0.6","0.5","0.5","0.5","0.5","0.8","0.2","0.6","0.2","","","","","","","","","","","","","","75","K","2","","true","0","full_practice",""
"","text","71","266394","0.0-33.0","95524357","wem/bandit_party_2","A3PN17H3QT51O","either","6","3494","","","32","","","","","","","","","","","","","","","","","","","","","","","","","","","","","","","","","","","","",""
"","text-replacement","72","278434","0.0-34.0","95524357","wem/bandit_party_2","A3PN17H3QT51O","either","6","11032","","","32","","","","","","","","","","","","","","","","","","","","","","","","","","","","","","","","","","","","",""
"","text-replacement","73","293930","0.0-35.0","95524357","wem/bandit_party_2","A3PN17H3QT51O","either","6","15491","","","32","","","","","","","","","","","","","","","","","","","","","","","","","","","","","","","","","","","","",""
"","text-replacement","74","298205","0.0-36.0","95524357","wem/bandit_party_2","A3PN17H3QT51O","either","6","4263","","","32","","","","","","","","","","","","","","","","","","","","","","","","","","","","","","","","","","","","",""
"","text-replacement","75","302748","0.0-37.0","95524357","wem/bandit_party_2","A3PN17H3QT51O","either","6","4531","","","32","","","","","","","","","","","","","","","","","","","","","","","","","","","","","","","","","","","","",""
"","text-replacement","76","305340","0.0-38.0","95524357","wem/bandit_party_2","A3PN17H3QT51O","either","6","2577","","","32","","","","","","","","","","","","","","","","","","","","","","","","","","","","","","","","","","","","",""
"","survey-multi-choice-replacement","77","310794","0.0-39.0-0.0","95524357","wem/bandit_party_2","A3PN17H3QT51O","either","6","5421","","","","","","","","","","","","","","","","","","","","","","","","Money will be added to the pool for <span style='color:red;'>REPUBLICANS</span>","","","","","","","attn_check","","","","","","","","","0"
"","survey-multi-choice-replacement","78","317464","0.0-40.0-0.0","95524357","wem/bandit_party_2","A3PN17H3QT51O","either","6","5638","","","","","","","","","","","","","","","","","","","","","","","","Equal amounts of money will be added to the pool for <span style='color:red;'>REPUBLICANS</span> and subtracted from the pool for <span style='color:blue;'>DEMOCRATS</span>","","","","","","","attn_check","","","","","","","","","2"
"","survey-multi-choice-replacement","79","321897","0.0-41.0-0.0","95524357","wem/bandit_party_2","A3PN17H3QT51O","either","6","3411","","","","","","","","","","","","","","","","","","","","","","","","No money will be added to either pool","","","","","","","attn_check","","","","","","","","","3"
"","bandit","80","326038","0.0-42.0-0.0","95524357","wem/bandit_party_2","A3PN17H3QT51O","either","6","1614","","","","","","","0","0","1","","0.7197236342","0.4","0.8","0.2","0.6","0.7197236342","0.3049938501","0.1947351938","0.2309914537","","","","","","","","","","","","","","72","H","0","img/none_selected.jpg","","1","main_expt",""
"","bandit","81","328078","0.0-43.0-0.0","95524357","wem/bandit_party_2","A3PN17H3QT51O","either","6","520","","","","","","","0","0","1","","0.3105507028","0.4","0.8","0.2","0.6","0.7453792406","0.3105507028","0.1865171684","0.2351366282","","","","","","","","","","","","","","74","J","1","","","2","main_expt",""
"","bandit","82","329880","0.0-44.0-0.0","95524357","wem/bandit_party_2","A3PN17H3QT51O","either","6","280","","","","","","","0","0","1","0.1578482069","","0.4","0.8","0.2","0.6","","","","","0.7422746785","0.347932066","0.1578482069","0.3338792953","","","","","","","","","","75","K","2","","","3","main_expt",""
"","bandit","83","331690","0.0-45.0-0.0","95524357","wem/bandit_party_2","A3PN17H3QT51O","either","6","287","","","","","","","0","0","1","0.2578124611","","0.4","0.8","0.2","0.6","","","","","0.8152876082","0.294099503","0.1733557992","0.2578124611","","","","","","","","","","76","L","3","","","4","main_expt",""
"","bandit","84","333542","0.0-46.0-0.0","95524357","wem/bandit_party_2","A3PN17H3QT51O","either","6","334","","","","","","","0","0","1","","0.152782507","0.4","0.8","0.2","0.6","0.8494846052","0.256228135","0.1275681293","0.152782507","","","","","","","","","","","","","","76","L","3","","","5","main_expt",""
"","bandit","85","335372","0.0-47.0-0.0","95524357","wem/bandit_party_2","A3PN17H3QT51O","either","6","312","","","","","","","0","1","0","","0.8036792828","0.4","0.8","0.2","0.6","0.8036792828","0.3142053347","0.1776351543","0.200224935","","","","","","","","","","","","","","72","H","0","img/none_selected.jpg","","6","main_expt",""
"","bandit","86","337140","0.0-48.0-0.0","95524357","wem/bandit_party_2","A3PN17H3QT51O","either","6","251","","","","","","","0","1","0","","0.8659664865","0.4","0.8","0.2","0.6","0.8659664865","0.2382568898","0.1412615145","0.2200442108","","","","","","","","","","","","","","72","H","0","img/none_selected.jpg","","7","main_expt",""
"","bandit","87","338961","0.0-49.0-0.0","95524357","wem/bandit_party_2","A3PN17H3QT51O","either","6","228","","","","","","","0","1","0","","0.8475436228","0.4","0.8","0.2","0.6","0.8475436228","0.220471749","0.1508054742","0.1516915951","","","","","","","","","","","","","","72","H","0","img/none_selected.jpg","","8","main_expt",""
"","bandit","88","340717","0.0-50.0-0.0","95524357","wem/bandit_party_2","A3PN17H3QT51O","either","6","239","","","","","","","1","0","0","0.8034999265","","0.4","0.8","0.2","0.6","","","","","0.8034999265","0.2842820234","0.1882404854","0.1468829212","","","","","","","","","","72","H","0","img/none_selected.jpg","","9","main_expt",""
"","bandit","89","342469","0.0-51.0-0.0","95524357","wem/bandit_party_2","A3PN17H3QT51O","either","6","235","","","","","","","1","0","0","0.7148412232","","0.4","0.8","0.2","0.6","","","","","0.7148412232","0.3392415315","0.1731305678","0.1507643719","","","","","","","","","","72","H","0","img/none_selected.jpg","","10","main_expt",""
"","bandit","90","344242","0.0-52.0-0.0","95524357","wem/bandit_party_2","A3PN17H3QT51O","either","6","248","","","","","","","0","1","0","","0.7213030285","0.4","0.8","0.2","0.6","0.7213030285","0.4470346709","0.2475279461","0.18301","","","","","","","","","","","","","","72","H","0","img/none_selected.jpg","","11","main_expt",""
"","bandit","91","346049","0.0-53.0-0.0","95524357","wem/bandit_party_2","A3PN17H3QT51O","either","6","276","","","","","","","0","1","0","","0.7396148754","0.4","0.8","0.2","0.6","0.7396148754","0.5143820195","0.2068792089","0.209562337","","","","","","","","","","","","","","72","H","0","img/none_selected.jpg","","12","main_expt",""
"","bandit","92","347838","0.0-54.0-0.0","95524357","wem/bandit_party_2","A3PN17H3QT51O","either","6","271","","","","","","","0","1","0","","0.6870781676","0.4","0.8","0.2","0.6","0.6870781676","0.4934308908","0.1594062408","0.2133897639","","","","","","","","","","","","","","72","H","0","img/none_selected.jpg","","13","main_expt",""
"","bandit","93","349596","0.0-55.0-0.0","95524357","wem/bandit_party_2","A3PN17H3QT51O","either","6","237","","","","","","","1","0","0","0.6561171826","","0.4","0.8","0.2","0.6","","","","","0.6561171826","0.5884397519","0.1808320347","0.1865122749","","","","","","","","","","72","H","0","img/none_selected.jpg","","14","main_expt",""
"","bandit","94","351356","0.0-56.0-0.0","95524357","wem/bandit_party_2","A3PN17H3QT51O","either","6","242","","","","","","","0","0","1","","0.6255101569","0.4","0.8","0.2","0.6","0.6255101569","0.425765204","0.2401125286","0.3169691733","","","","","","","","","","","","","","72","H","0","img/none_selected.jpg","","15","main_expt",""
"","bandit","95","353116","0.0-57.0-0.0","95524357","wem/bandit_party_2","A3PN17H3QT51O","either","6","243","","","","","","","1","0","0","0.6101220295","","0.4","0.8","0.2","0.6","","","","","0.6101220295","0.4458974369","0.1823220599","0.3927767979","","","","","","","","","","72","H","0","img/none_selected.jpg","","16","main_expt",""
"","bandit","96","354819","0.0-58.0-0.0","95524357","wem/bandit_party_2","A3PN17H3QT51O","either","6","186","","","","","","","0","1","0","","0.6233337625","0.4","0.8","0.2","0.6","0.6233337625","0.4907358526","0.2076179308","0.2882183284","","","","","","","","","","","","","","72","H","0","img/none_selected.jpg","","17","main_expt",""
"","bandit","97","356590","0.0-59.0-0.0","95524357","wem/bandit_party_2","A3PN17H3QT51O","either","6","254","","","","","","","0","0","1","","0.598865074","0.4","0.8","0.2","0.6","0.598865074","0.4895096529","0.2310064443","0.3212622409","","","","","","","","","","","","","","72","H","0","img/none_selected.jpg","","18","main_expt",""
"","bandit","98","358332","0.0-60.0-0.0","95524357","wem/bandit_party_2","A3PN17H3QT51O","either","6","226","","","","","","","0","1","0","","0.5437378015","0.4","0.8","0.2","0.6","0.6318918302","0.5437378015","0.1919199612","0.3678238944","","","","","","","","","","","","","","74","J","1","","","19","main_expt",""
"","bandit","99","360149","0.0-61.0-0.0","95524357","wem/bandit_party_2","A3PN17H3QT51O","either","6","267","","","","","","","1","0","0","0.543071052","","0.4","0.8","0.2","0.6","","","","","0.5667690756","0.543071052","0.2150176637","0.4357360734","","","","","","","","","","74","J","1","","","20","main_expt",""
"","bandit","100","362030","0.0-62.0-0.0","95524357","wem/bandit_party_2","A3PN17H3QT51O","either","6","211","","","","","","","0","0","1","","0.5457928974","0.4","0.8","0.2","0.6","0.6364396753","0.5457928974","0.2980309021","0.4486518506","","","","","","","","","","","","","","74","J","1","","","21","main_expt",""
"","bandit","101","363582","0.0-63.0-0.0","95524357","wem/bandit_party_2","A3PN17H3QT51O","either","6","27","","","","","","","1","0","0","0.4531799458","","0.4","0.8","0.2","0.6","","","","","0.5563436533","0.4531799458","0.3238742104","0.5145372488","","","","","","","","","","74","J","1","","","22","main_expt",""
"","bandit","102","365349","0.0-64.0-0.0","95524357","wem/bandit_party_2","A3PN17H3QT51O","either","6","250","","","","","","","0","0","1","0.4321579995","","0.4","0.8","0.2","0.6","","","","","0.4555064456","0.4321579995","0.4158928209","0.6324996067","","","","","","","","","","74","J","1","","","23","main_expt",""
"","bandit","103","367191","0.0-65.0-0.0","95524357","wem/bandit_party_2","A3PN17H3QT51O","either","6","320","","","","","","","0","0","1","","0.2798670784","0.4","0.8","0.2","0.6","0.4398961724","0.3892872195","0.2798670784","0.6665025749","","","","","","","","","","","","","","75","K","2","","","24","main_expt",""
"","bandit","104","368938","0.0-66.0-0.0","95524357","wem/bandit_party_2","A3PN17H3QT51O","either","6","219","","","","","","","0","0","1","","0.3932164435","0.4","0.8","0.2","0.6","0.3810464824","0.4322880781","0.3932164435","0.5316582614","","","","","","","","","","","","","","75","K","2","","","25","main_expt",""
"","bandit","105","370732","0.0-67.0-0.0","95524357","wem/bandit_party_2","A3PN17H3QT51O","either","6","274","","","","","","","0","1","0","","0.4282094451","0.4","0.8","0.2","0.6","0.451695138","0.4560392573","0.3243459504","0.4282094451","","","","","","","","","","","","","","76","L","3","","","26","main_expt",""
"","bandit","106","372477","0.0-68.0-0.0","95524357","wem/bandit_party_2","A3PN17H3QT51O","either","6","225","","","","","","","0","0","1","0.4711380508","","0.4","0.8","0.2","0.6","","","","","0.4423729324","0.5372901799","0.4266302179","0.4711380508","","","","","","","","","","76","L","3","","","27","main_expt",""
"","bandit","107","374629","0.0-69.0-0.0","95524357","wem/bandit_party_2","A3PN17H3QT51O","either","6","635","","","","","","","0","0","1","","0.4539290932","0.4","0.8","0.2","0.6","0.4221124674","0.6619872032","0.4206607535","0.4539290932","","","","","","","","","","","","","","76","L","3","","","28","main_expt",""
"","bandit","108","376220","0.0-70.0-0.0","95524357","wem/bandit_party_2","A3PN17H3QT51O","either","6","73","","","","","","","0","0","1","0.489207998","","0.4","0.8","0.2","0.6","","","","","0.489207998","0.5939885142","0.440099583","0.4378511583","","","","","","","","","","72","H","0","img/none_selected.jpg","","29","main_expt",""
"","bandit","109","377988","0.0-71.0-0.0","95524357","wem/bandit_party_2","A3PN17H3QT51O","either","6","249","","","","","","","0","0","1","0.5602145404","","0.4","0.8","0.2","0.6","","","","","0.4406356357","0.5602145404","0.3982168329","0.3425428874","","","","","","","","","","74","J","1","","","30","main_expt",""
"","bandit","110","379792","0.0-72.0-0.0","95524357","wem/bandit_party_2","A3PN17H3QT51O","either","6","284","","","","","","","0","0","1","","0.3573437221","0.4","0.8","0.2","0.6","0.484130952","0.5376870091","0.3573437221","0.2354865125","","","","","","","","","","","","","","75","K","2","","","31","main_expt",""
"","bandit","111","381506","0.0-73.0-0.0","95524357","wem/bandit_party_2","A3PN17H3QT51O","either","6","199","","","","","","","0","0","1","","0.2552437171","0.4","0.8","0.2","0.6","0.432294219","0.6346195819","0.3712986889","0.2552437171","","","","","","","","","","","","","","76","L","3","","","32","main_expt",""
"","bandit","112","383402","0.0-74.0-0.0","95524357","wem/bandit_party_2","A3PN17H3QT51O","either","6","380","","","","","","","0","1","0","","0.7540961955","0.4","0.8","0.2","0.6","0.4821309474","0.7540961955","0.45096985","0.2470382599","","","","","","","","","","","","","","74","J","1","","","33","main_expt",""
"","bandit","113","385327","0.0-75.0-0.0","95524357","wem/bandit_party_2","A3PN17H3QT51O","either","6","408","","","","","","","0","0","1","","0.699797925","0.4","0.8","0.2","0.6","0.4702474349","0.699797925","0.5559331637","0.2951894024","","","","","","","","","","","","","","74","J","1","","","34","main_expt",""
"","bandit","114","386881","0.0-76.0-0.0","95524357","wem/bandit_party_2","A3PN17H3QT51O","either","6","40","","","","","","","1","0","0","0.7410295452","","0.4","0.8","0.2","0.6","","","","","0.5363697359","0.7410295452","0.7354386419","0.2596626779","","","","","","","","","","74","J","1","","","35","main_expt",""
"","bandit","115","388644","0.0-77.0-0.0","95524357","wem/bandit_party_2","A3PN17H3QT51O","either","6","244","","","","","","","1","0","0","0.7332281969","","0.4","0.8","0.2","0.6","","","","","0.602250539","0.7332281969","0.6934166837","0.3164764808","","","","","","","","","","74","J","1","","","36","main_expt",""
"","bandit","116","390414","0.0-78.0-0.0","95524357","wem/bandit_party_2","A3PN17H3QT51O","either","6","253","","","","","","","1","0","0","0.736713329","","0.4","0.8","0.2","0.6","","","","","0.5337433964","0.736713329","0.6311869688","0.3672962009","","","","","","","","","","74","J","1","","","37","main_expt",""
"","bandit","117","392178","0.0-79.0-0.0","95524357","wem/bandit_party_2","A3PN17H3QT51O","either","6","249","","","","","","","1","0","0","0.6860808007","","0.4","0.8","0.2","0.6","","","","","0.5970413872","0.6860808007","0.6583504975","0.4056598401","","","","","","","","","","74","J","1","","","38","main_expt",""
"","bandit","118","393940","0.0-80.0-0.0","95524357","wem/bandit_party_2","A3PN17H3QT51O","either","6","245","","","","","","","1","0","0","0.7498761973","","0.4","0.8","0.2","0.6","","","","","0.6529448079","0.7498761973","0.5861321806","0.4236995386","","","","","","","","","","74","J","1","","","39","main_expt",""
"","bandit","119","395722","0.0-81.0-0.0","95524357","wem/bandit_party_2","A3PN17H3QT51O","either","6","266","","","","","","","1","0","0","0.7043283504","","0.4","0.8","0.2","0.6","","","","","0.6612991154","0.7043283504","0.4892836735","0.4365163158","","","","","","","","","","74","J","1","","","40","main_expt",""
"","bandit","120","397513","0.0-82.0-0.0","95524357","wem/bandit_party_2","A3PN17H3QT51O","either","6","269","","","","","","","0","0","1","","0.6469690382","0.4","0.8","0.2","0.6","0.7390431107","0.6469690382","0.3479900608","0.4854269132","","","","","","","","","","","","","","74","J","1","","","41","main_expt",""
"","bandit","121","399278","0.0-83.0-0.0","95524357","wem/bandit_party_2","A3PN17H3QT51O","either","6","245","","","","","","","1","0","0","0.6388905256","","0.4","0.8","0.2","0.6","","","","","0.7609423287","0.6388905256","0.376709287","0.4753587859","","","","","","","","","","74","J","1","","","42","main_expt",""
"","bandit","122","400930","0.0-84.0-0.0","95524357","wem/bandit_party_2","A3PN17H3QT51O","either","6","133","","","","","","","1","0","0","0.6383372244","","0.4","0.8","0.2","0.6","","","","","0.8039673949","0.6383372244","0.4319300722","0.452202747","","","","","","","","","","74","J","1","","","43","main_expt",""
"","bandit","123","402712","0.0-85.0-0.0","95524357","wem/bandit_party_2","A3PN17H3QT51O","either","6","260","","","","","","","0","0","1","0.6247854939","","0.4","0.8","0.2","0.6","","","","","0.8216753652","0.6247854939","0.4458636389","0.5522191005","","","","","","","","","","74","J","1","","","44","main_expt",""
"","bandit","124","404518","0.0-86.0-0.0","95524357","wem/bandit_party_2","A3PN17H3QT51O","either","6","285","","","","","","","0","1","0","","0.6341880498","0.4","0.8","0.2","0.6","0.7636866317","0.6341880498","0.4323480181","0.4878962787","","","","","","","","","","","","","","74","J","1","","","45","main_expt",""
"","bandit","125","406291","0.0-87.0-0.0","95524357","wem/bandit_party_2","A3PN17H3QT51O","either","6","256","","","","","","","0","0","1","","0.5081310512","0.4","0.8","0.2","0.6","0.8203755575","0.5081310512","0.4348202433","0.487595293","","","","","","","","","","","","","","74","J","1","","","46","main_expt",""
"","bandit","126","408105","0.0-88.0-0.0","95524357","wem/bandit_party_2","A3PN17H3QT51O","either","6","295","","","","","","","0","0","1","0.4202927251","","0.4","0.8","0.2","0.6","","","","","0.8706375764","0.4202927251","0.3430847618","0.444754188","","","","","","","","","","74","J","1","","","47","main_expt",""
"","bandit","127","409894","0.0-89.0-0.0","95524357","wem/bandit_party_2","A3PN17H3QT51O","either","6","272","","","","","","","0","0","1","","0.2601977795","0.4","0.8","0.2","0.6","0.8019506245","0.4767868938","0.2601977795","0.5044276746","","","","","","","","","","","","","","75","K","2","","","48","main_expt",""
"","bandit","128","411771","0.0-90.0-0.0","95524357","wem/bandit_party_2","A3PN17H3QT51O","either","6","361","","","","","","","0","0","1","0.3766714482","","0.4","0.8","0.2","0.6","","","","","0.7331224435","0.3749468019","0.2368144698","0.3766714482","","","","","","","","","","76","L","3","","","49","main_expt",""
"","bandit","129","413579","0.0-91.0-0.0","95524357","wem/bandit_party_2","A3PN17H3QT51O","either","6","290","","","","","","","0","0","1","","0.7908344101","0.4","0.8","0.2","0.6","0.7908344101","0.3532902347","0.2484527115","0.406992786","","","","","","","","","","","","","","72","H","0","img/none_selected.jpg","","50","main_expt",""
"","bandit","130","415354","0.0-92.0-0.0","95524357","wem/bandit_party_2","A3PN17H3QT51O","either","6","258","","","","","","","0","1","0","","0.230268934","0.4","0.8","0.2","0.6","0.7922828235","0.2413466802","0.230268934","0.3854505747","","","","","","","","","","","","","","75","K","2","","","51","main_expt",""
"","bandit","131","417121","0.0-93.0-0.0","95524357","wem/bandit_party_2","A3PN17H3QT51O","either","6","251","","","","","","","0","0","1","","0.3429002399","0.4","0.8","0.2","0.6","0.7485378942","0.2673723166","0.3429002399","0.3956915145","","","","","","","","","","","","","","75","K","2","","","52","main_expt",""
"","bandit","132","418739","0.0-94.0-0.0","95524357","wem/bandit_party_2","A3PN17H3QT51O","either","6","101","","","","","","","0","0","1","0.2871029552","","0.4","0.8","0.2","0.6","","","","","0.6603794952","0.2806035608","0.2871029552","0.3062348001","","","","","","","","","","75","K","2","","","53","main_expt",""
"","bandit","133","420506","0.0-95.0-0.0","95524357","wem/bandit_party_2","A3PN17H3QT51O","either","6","249","","","","","","","0","0","1","0.2996500993","","0.4","0.8","0.2","0.6","","","","","0.6931449795","0.2544312064","0.2594444468","0.2996500993","","","","","","","","","","76","L","3","","","54","main_expt",""
"","bandit","134","422282","0.0-96.0-0.0","95524357","wem/bandit_party_2","A3PN17H3QT51O","either","6","259","","","","","","","0","0","1","0.3362815808","","0.4","0.8","0.2","0.6","","","","","0.7553272845","0.3362815808","0.3333749245","0.2518247787","","","","","","","","","","74","J","1","","","55","main_expt",""
"","bandit","135","423978","0.0-97.0-0.0","95524357","wem/bandit_party_2","A3PN17H3QT51O","either","6","148","","","","","","","1","0","0","0.3014763065","","0.4","0.8","0.2","0.6","","","","","0.7231548626","0.3798256012","0.3049104067","0.3014763065","","","","","","","","","","76","L","3","","","56","main_expt",""
"","bandit","136","425564","0.0-98.0-0.0","95524357","wem/bandit_party_2","A3PN17H3QT51O","either","6","63","","","","","","","0","0","1","0.2730843718","","0.4","0.8","0.2","0.6","","","","","0.7485901337","0.3989549393","0.3623273811","0.2730843718","","","","","","","","","","76","L","3","","","57","main_expt",""
"","bandit","137","427323","0.0-99.0-0.0","95524357","wem/bandit_party_2","A3PN17H3QT51O","either","6","239","","","","","","","0","0","1","","0.367239041","0.4","0.8","0.2","0.6","0.797082508","0.3373398956","0.3621169042","0.367239041","","","","","","","","","","","","","","76","L","3","","","58","main_expt",""
"","bandit","138","429026","0.0-100.0-0.0","95524357","wem/bandit_party_2","A3PN17H3QT51O","either","6","179","","","","","","","1","0","0","0.7466963627","","0.4","0.8","0.2","0.6","","","","","0.7466963627","0.3381045731","0.3672848169","0.4005220403","","","","","","","","","","72","H","0","img/none_selected.jpg","","59","main_expt",""
"","bandit","139","430813","0.0-101.0-0.0","95524357","wem/bandit_party_2","A3PN17H3QT51O","either","6","151","","","","","","","0","1","0","","0.6359615323","0.4","0.8","0.2","0.6","0.6359615323","0.4838111383","0.5123874715","0.4863912708","","","","","","","","","","","","","","72","H","0","img/none_selected.jpg","","60","main_expt",""
"","bandit","140","432566","0.0-102.0-0.0","95524357","wem/bandit_party_2","A3PN17H3QT51O","either","6","224","","","","","","","1","0","0","0.7125939799","","0.4","0.8","0.2","0.6","","","","","0.7125939799","0.4290776342","0.5218319631","0.5220595343","","","","","","","","","","72","H","0","img/none_selected.jpg","","61","main_expt",""
"","bandit","141","434332","0.0-103.0-0.0","95524357","wem/bandit_party_2","A3PN17H3QT51O","either","6","246","","","","","","","0","1","0","","0.5978650666","0.4","0.8","0.2","0.6","0.5978650666","0.4387439774","0.6482151027","0.5447889898","","","","","","","","","","","","","","72","H","0","img/none_selected.jpg","","62","main_expt",""
"","bandit","142","436135","0.0-104.0-0.0","95524357","wem/bandit_party_2","A3PN17H3QT51O","either","6","280","","","","","","","0","0","1","0.5166338879","","0.4","0.8","0.2","0.6","","","","","0.5166338879","0.3670418014","0.6966290852","0.5517390004","","","","","","","","","","72","H","0","img/none_selected.jpg","","63","main_expt",""
"","bandit","143","437874","0.0-105.0-0.0","95524357","wem/bandit_party_2","A3PN17H3QT51O","either","6","212","","","","","","","0","0","1","","0.6497033777","0.4","0.8","0.2","0.6","0.4901650138","0.3470393933","0.6497033777","0.6576188384","","","","","","","","","","","","","","75","K","2","","","64","main_expt",""
"","bandit","144","439771","0.0-106.0-0.0","95524357","wem/bandit_party_2","A3PN17H3QT51O","either","6","378","","","","","","","0","1","0","","0.459365688","0.4","0.8","0.2","0.6","0.459365688","0.3361574661","0.6925184903","0.5156176703","","","","","","","","","","","","","","72","H","0","img/none_selected.jpg","","65","main_expt",""
"","bandit","145","441345","0.0-107.0-0.0","95524357","wem/bandit_party_2","A3PN17H3QT51O","either","6","58","","","","","","","1","0","0","0.4666104807","","0.4","0.8","0.2","0.6","","","","","0.4666104807","0.34308242","0.8298767513","0.3851410914","","","","","","","","","","72","H","0","img/none_selected.jpg","","66","main_expt",""
"","bandit","146","443065","0.0-108.0-0.0","95524357","wem/bandit_party_2","A3PN17H3QT51O","either","6","204","","","","","","","0","1","0","","0.5547259005","0.4","0.8","0.2","0.6","0.5547259005","0.3730603492","0.8506596021","0.3925250542","","","","","","","","","","","","","","72","H","0","img/none_selected.jpg","","67","main_expt",""
"","bandit","147","444833","0.0-109.0-0.0","95524357","wem/bandit_party_2","A3PN17H3QT51O","either","6","251","","","","","","","0","1","0","","0.6038719492","0.4","0.8","0.2","0.6","0.6038719492","0.4089949532","0.8536910832","0.3884113518","","","","","","","","","","","","","","72","H","0","img/none_selected.jpg","","68","main_expt",""
"","bandit","148","446601","0.0-110.0-0.0","95524357","wem/bandit_party_2","A3PN17H3QT51O","either","6","249","","","","","","","0","1","0","","0.6148283845","0.4","0.8","0.2","0.6","0.6148283845","0.3749002533","0.8642538991","0.3434478979","","","","","","","","","","","","","","72","H","0","img/none_selected.jpg","","69","main_expt",""
"","bandit","149","448329","0.0-111.0-0.0","95524357","wem/bandit_party_2","A3PN17H3QT51O","either","6","212","","","","","","","1","0","0","0.6683283761","","0.4","0.8","0.2","0.6","","","","","0.6683283761","0.4133869845","0.8073802352","0.4426642051","","","","","","","","","","72","H","0","img/none_selected.jpg","","70","main_expt",""
"","bandit","150","450109","0.0-112.0-0.0","95524357","wem/bandit_party_2","A3PN17H3QT51O","either","6","260","","","","","","","0","0","1","","0.738459761","0.4","0.8","0.2","0.6","0.738459761","0.3302164541","0.8059201048","0.4518046004","","","","","","","","","","","","","","72","H","0","img/none_selected.jpg","","71","main_expt",""
"","bandit","151","451754","0.0-113.0-0.0","95524357","wem/bandit_party_2","A3PN17H3QT51O","either","6","128","","","","","","","0","0","1","","0.6525166508","0.4","0.8","0.2","0.6","0.6525166508","0.2570952275","0.8262275011","0.4903223245","","","","","","","","","","","","","","72","H","0","img/none_selected.jpg","","72","main_expt",""
"","bandit","152","453521","0.0-114.0-0.0","95524357","wem/bandit_party_2","A3PN17H3QT51O","either","6","251","","","","","","","1","0","0","0.5715134512","","0.4","0.8","0.2","0.6","","","","","0.5715134512","0.2042885023","0.7334390718","0.5296083002","","","","","","","","","","72","H","0","img/none_selected.jpg","","73","main_expt",""
"","bandit","153","455253","0.0-115.0-0.0","95524357","wem/bandit_party_2","A3PN17H3QT51O","either","6","203","","","","","","","0","0","1","","0.6228045854","0.4","0.8","0.2","0.6","0.6228045854","0.2152837516","0.7490977197","0.4883026933","","","","","","","","","","","","","","72","H","0","img/none_selected.jpg","","74","main_expt",""
"","bandit","154","457032","0.0-116.0-0.0","95524357","wem/bandit_party_2","A3PN17H3QT51O","either","6","263","","","","","","","1","0","0","0.2044775694","","0.4","0.8","0.2","0.6","","","","","0.613630376","0.2044775694","0.7554087461","0.4914171484","","","","","","","","","","74","J","1","","","75","main_expt",""
"","bandit","155","458628","0.0-117.0-0.0","95524357","wem/bandit_party_2","A3PN17H3QT51O","either","6","76","","","","","","","0","0","1","0.2247613499","","0.4","0.8","0.2","0.6","","","","","0.7047266053","0.2247613499","0.804443878","0.6059218973","","","","","","","","","","74","J","1","","","76","main_expt",""
"","bandit","156","460383","0.0-118.0-0.0","95524357","wem/bandit_party_2","A3PN17H3QT51O","either","6","239","","","","","","","0","1","0","","0.2266335256","0.4","0.8","0.2","0.6","0.6910360943","0.2266335256","0.6656620098","0.553792366","","","","","","","","","","","","","","74","J","1","","","77","main_expt",""
"","bandit","157","462034","0.0-119.0-0.0","95524357","wem/bandit_party_2","A3PN17H3QT51O","either","6","133","","","","","","","0","0","1","","0.1659731505","0.4","0.8","0.2","0.6","0.5515992215","0.1659731505","0.5898140708","0.6884193839","","","","","","","","","","","","","","74","J","1","","","78","main_expt",""
"","bandit","158","463834","0.0-120.0-0.0","95524357","wem/bandit_party_2","A3PN17H3QT51O","either","6","282","","","","","","","0","0","1","","0.2343921172","0.4","0.8","0.2","0.6","0.6448399581","0.2343921172","0.613215191","0.7214277645","","","","","","","","","","","","","","74","J","1","","","79","main_expt",""
"","bandit","159","465602","0.0-121.0-0.0","95524357","wem/bandit_party_2","A3PN17H3QT51O","either","6","249","","","","","","","0","1","0","","0.7328142644","0.4","0.8","0.2","0.6","0.739479497","0.2164054515","0.4605925783","0.7328142644","","","","","","","","","","","","","","76","L","3","","","80","main_expt",""
"","bandit","160","467288","0.0-122.0-0.0","95524357","wem/bandit_party_2","A3PN17H3QT51O","either","6","169","","","","","","","1","0","0","0.7101675561","","0.4","0.8","0.2","0.6","","","","","0.6956071838","0.1361232007","0.5390789087","0.7101675561","","","","","","","","","","76","L","3","","","81","main_expt",""
"","bandit","161","468997","0.0-123.0-0.0","95524357","wem/bandit_party_2","A3PN17H3QT51O","either","6","189","","","","","","","1","0","0","0.6984384541","","0.4","0.8","0.2","0.6","","","","","0.5886517937","0.2275447725","0.621290364","0.6984384541","","","","","","","","","","76","L","3","","","82","main_expt",""
"","bandit","162","470818","0.0-124.0-0.0","95524357","wem/bandit_party_2","A3PN17H3QT51O","either","6","305","","","","","","","1","0","0","0.7447883659","","0.4","0.8","0.2","0.6","","","","","0.4764182235","0.1900607051","0.6359424421","0.7447883659","","","","","","","","","","76","L","3","","","83","main_expt",""
"","bandit","163","472923","0.0-125.0-0.0","95524357","wem/bandit_party_2","A3PN17H3QT51O","either","6","587","","","","","","","0","0","1","0.6900592863","","0.4","0.8","0.2","0.6","","","","","0.5149027494","0.1306868958","0.6133664729","0.6900592863","","","","","","","","","","76","L","3","","","84","main_expt",""
"","bandit","164","474636","0.0-126.0-0.0","95524357","wem/bandit_party_2","A3PN17H3QT51O","either","6","162","","","","","","","0","1","0","","0.7010597455","0.4","0.8","0.2","0.6","0.4908067213","0.1683201849","0.7815463305","0.7010597455","","","","","","","","","","","","","","76","L","3","","","85","main_expt",""
"","bandit","165","476393","0.0-127.0-0.0","95524357","wem/bandit_party_2","A3PN17H3QT51O","either","6","238","","","","","","","0","1","0","","0.6171062652","0.4","0.8","0.2","0.6","0.4139472458","0.1290314955","0.7355789231","0.6171062652","","","","","","","","","","","","","","76","L","3","","","86","main_expt",""
"","bandit","166","478169","0.0-128.0-0.0","95524357","wem/bandit_party_2","A3PN17H3QT51O","either","6","259","","","","","","","0","0","1","","0.5629375242","0.4","0.8","0.2","0.6","0.4253818619","0.2297537383","0.7267399876","0.5629375242","","","","","","","","","","","","","","76","L","3","","","87","main_expt",""
"","bandit","167","480005","0.0-129.0-0.0","95524357","wem/bandit_party_2","A3PN17H3QT51O","either","6","318","","","","","","","0","0","1","","0.6434443074","0.4","0.8","0.2","0.6","0.4448862761","0.1878263516","0.7703195612","0.6434443074","","","","","","","","","","","","","","76","L","3","","","88","main_expt",""
"","bandit","168","481768","0.0-130.0-0.0","95524357","wem/bandit_party_2","A3PN17H3QT51O","either","6","247","","","","","","","0","0","1","0.81872988","","0.4","0.8","0.2","0.6","","","","","0.4295642349","0.1896964823","0.81872988","0.7296698787","","","","","","","","","","75","K","2","","","89","main_expt",""
"","bandit","169","483537","0.0-131.0-0.0","95524357","wem/bandit_party_2","A3PN17H3QT51O","either","6","252","","","","","","","1","0","0","0.1614970172","","0.4","0.8","0.2","0.6","","","","","0.3655203192","0.1614970172","0.8032570632","0.7042864347","","","","","","","","","","74","J","1","","","90","main_expt",""
"","bandit","170","485196","0.0-132.0-0.0","95524357","wem/bandit_party_2","A3PN17H3QT51O","either","6","138","","","","","","","0","0","1","0.2107705911","","0.4","0.8","0.2","0.6","","","","","0.402428746","0.2107705911","0.8257352781","0.7606559624","","","","","","","","","","74","J","1","","","91","main_expt",""
"","bandit","171","486964","0.0-133.0-0.0","95524357","wem/bandit_party_2","A3PN17H3QT51O","either","6","232","","","","","","","0","0","1","0.1317951273","","0.4","0.8","0.2","0.6","","","","","0.452733603","0.1317951273","0.7762210657","0.8466818248","","","","","","","","","","74","J","1","","","92","main_expt",""
"","bandit","172","488958","0.0-134.0-0.0","95524357","wem/bandit_party_2","A3PN17H3QT51O","either","6","278","","","","","","","0","1","0","","0.5416456901","0.4","0.8","0.2","0.6","0.5416456901","0.09268613222","0.8293629201","0.8181600593","","","","","","","","","","","","","","72","H","0","img/none_selected.jpg","","93","main_expt",""
"","bandit","173","490499","0.0-135.0-0.0","95524357","wem/bandit_party_2","A3PN17H3QT51O","either","6","18","","","","","","","0","0","1","","0.5246039132","0.4","0.8","0.2","0.6","0.5246039132","0.06418168538","0.7849393417","0.7259749053","","","","","","","","","","","","","","72","H","0","img/none_selected.jpg","","94","main_expt",""
"","bandit","174","492099","0.0-136.0-0.0","95524357","wem/bandit_party_2","A3PN17H3QT51O","either","6","81","","","","","","","0","1","0","","0.606801291","0.4","0.8","0.2","0.6","0.606801291","0.100072779","0.7850226125","0.6538641892","","","","","","","","","","","","","","72","H","0","img/none_selected.jpg","","95","main_expt",""
"","bandit","175","493933","0.0-137.0-0.0","95524357","wem/bandit_party_2","A3PN17H3QT51O","either","6","284","","","","","","","1","0","0","0.7175242067","","0.4","0.8","0.2","0.6","","","","","0.7175242067","0.09628221604","0.8013150942","0.6384360591","","","","","","","","","","72","H","0","img/none_selected.jpg","","96","main_expt",""
"","bandit","176","495602","0.0-138.0-0.0","95524357","wem/bandit_party_2","A3PN17H3QT51O","either","6","147","","","","","","","0","1","0","","0.7706560561","0.4","0.8","0.2","0.6","0.7706560561","0.1335622201","0.70340399","0.6836118029","","","","","","","","","","","","","","72","H","0","img/none_selected.jpg","","97","main_expt",""
"","bandit","177","497373","0.0-139.0-0.0","95524357","wem/bandit_party_2","A3PN17H3QT51O","either","6","248","","","","","","","0","1","0","","0.7234704616","0.4","0.8","0.2","0.6","0.7234704616","0.167202632","0.7562517051","0.659457158","","","","","","","","","","","","","","72","H","0","img/none_selected.jpg","","98","main_expt",""
"","bandit","178","499179","0.0-140.0-0.0","95524357","wem/bandit_party_2","A3PN17H3QT51O","either","6","278","","","","","","","0","1","0","","0.6582042781","0.4","0.8","0.2","0.6","0.6582042781","0.1216125457","0.6514659141","0.7726162223","","","","","","","","","","","","","","72","H","0","img/none_selected.jpg","","99","main_expt",""
"","bandit","179","500951","0.0-141.0-0.0","95524357","wem/bandit_party_2","A3PN17H3QT51O","either","6","256","","","","","","","0","0","1","","0.6530973887","0.4","0.8","0.2","0.6","0.6530973887","0.1163239148","0.7112237606","0.8446518706","","","","","","","","","","","","","","72","H","0","img/none_selected.jpg","","100","main_expt",""
"","bandit","180","502566","0.0-142.0-0.0","95524357","wem/bandit_party_2","A3PN17H3QT51O","either","6","99","","","","","","","0","1","0","","0.6690961394","0.4","0.8","0.2","0.6","0.6690961394","0.1037928869","0.6865981462","0.8784151442","","","","","","","","","","","","","","72","H","0","img/none_selected.jpg","","101","main_expt",""
"","bandit","181","504327","0.0-143.0-0.0","95524357","wem/bandit_party_2","A3PN17H3QT51O","either","6","242","","","","","","","0","1","0","","0.6268844929","0.4","0.8","0.2","0.6","0.6268844929","0.0991068806","0.6663704066","0.8781202538","","","","","","","","","","","","","","72","H","0","img/none_selected.jpg","","102","main_expt",""
"","bandit","182","506135","0.0-144.0-0.0","95524357","wem/bandit_party_2","A3PN17H3QT51O","either","6","288","","","","","","","0","1","0","","0.6657789595","0.4","0.8","0.2","0.6","0.6657789595","0.1226752409","0.6006744832","0.8123732176","","","","","","","","","","","","","","72","H","0","img/none_selected.jpg","","103","main_expt",""
"","bandit","183","507935","0.0-145.0-0.0","95524357","wem/bandit_party_2","A3PN17H3QT51O","either","6","282","","","","","","","0","0","1","","0.6951589836","0.4","0.8","0.2","0.6","0.6951589836","0.1552466415","0.518723913","0.8461937008","","","","","","","","","","","","","","72","H","0","img/none_selected.jpg","","104","main_expt",""
"","bandit","184","509611","0.0-146.0-0.0","95524357","wem/bandit_party_2","A3PN17H3QT51O","either","6","150","","","","","","","0","1","0","","0.6382729445","0.4","0.8","0.2","0.6","0.6382729445","0.1702138509","0.5343999165","0.8664825842","","","","","","","","","","","","","","72","H","0","img/none_selected.jpg","","105","main_expt",""
"","bandit","185","511417","0.0-147.0-0.0","95524357","wem/bandit_party_2","A3PN17H3QT51O","either","6","286","","","","","","","1","0","0","0.7139624249","","0.4","0.8","0.2","0.6","","","","","0.7139624249","0.2021425125","0.4959998489","0.8703997655","","","","","","","","","","72","H","0","img/none_selected.jpg","","106","main_expt",""
"","bandit","186","513160","0.0-148.0-0.0","95524357","wem/bandit_party_2","A3PN17H3QT51O","either","6","226","","","","","","","1","0","0","0.7718136471","","0.4","0.8","0.2","0.6","","","","","0.7718136471","0.2196373816","0.5052663648","0.8964314806","","","","","","","","","","72","H","0","img/none_selected.jpg","","107","main_expt",""
"","bandit","187","515030","0.0-149.0-0.0","95524357","wem/bandit_party_2","A3PN17H3QT51O","either","6","353","","","","","","","0","1","0","","0.8818715302","0.4","0.8","0.2","0.6","0.8818715302","0.2393661099","0.4859582203","0.9080126319","","","","","","","","","","","","","","72","H","0","img/none_selected.jpg","","108","main_expt",""
"","bandit","188","516803","0.0-150.0-0.0","95524357","wem/bandit_party_2","A3PN17H3QT51O","either","6","228","","","","","","","0","1","0","","0.8757741924","0.4","0.8","0.2","0.6","0.8757741924","0.2516352594","0.523617738","0.8880845243","","","","","","","","","","","","","","72","H","0","img/none_selected.jpg","","109","main_expt",""
"","bandit","189","518537","0.0-151.0-0.0","95524357","wem/bandit_party_2","A3PN17H3QT51O","either","6","215","","","","","","","1","0","0","0.8657151097","","0.4","0.8","0.2","0.6","","","","","0.8657151097","0.2424291788","0.5492010791","0.899251136","","","","","","","","","","72","H","0","img/none_selected.jpg","","110","main_expt",""
"","bandit","190","520199","0.0-152.0-0.0","95524357","wem/bandit_party_2","A3PN17H3QT51O","either","6","145","","","","","","","0","1","0","","0.8457624762","0.4","0.8","0.2","0.6","0.8457624762","0.2033086481","0.5467154696","0.9019514556","","","","","","","","","","","","","","72","H","0","img/none_selected.jpg","","111","main_expt",""
"","bandit","191","521982","0.0-153.0-0.0","95524357","wem/bandit_party_2","A3PN17H3QT51O","either","6","267","","","","","","","0","1","0","","0.8756116827","0.4","0.8","0.2","0.6","0.8756116827","0.208613213","0.5396215981","0.9315537639","","","","","","","","","","","","","","72","H","0","img/none_selected.jpg","","112","main_expt",""
"","bandit","192","523761","0.0-154.0-0.0","95524357","wem/bandit_party_2","A3PN17H3QT51O","either","6","260","","","","","","","1","0","0","0.8773181328","","0.4","0.8","0.2","0.6","","","","","0.8773181328","0.2743958833","0.5542875214","0.9254394702","","","","","","","","","","72","H","0","img/none_selected.jpg","","113","main_expt",""
"","bandit","193","525487","0.0-155.0-0.0","95524357","wem/bandit_party_2","A3PN17H3QT51O","either","6","207","","","","","","","0","1","0","","0.8842236373","0.4","0.8","0.2","0.6","0.8842236373","0.2657329006","0.6411428718","0.9394904604","","","","","","","","","","","","","","72","H","0","img/none_selected.jpg","","114","main_expt",""
"","bandit","194","527943","0.0-156.0-0.0","95524357","wem/bandit_party_2","A3PN17H3QT51O","either","6","888","","","","","","","0","1","0","","0.8499121835","0.4","0.8","0.2","0.6","0.8499121835","0.3234316928","0.7261400339","0.9533355239","","","","","","","","","","","","","","72","H","0","img/none_selected.jpg","","115","main_expt",""
"","bandit","195","529667","0.0-157.0-0.0","95524357","wem/bandit_party_2","A3PN17H3QT51O","either","6","200","","","","","","","1","0","0","0.7890056153","","0.4","0.8","0.2","0.6","","","","","0.7890056153","0.3625587123","0.7395407697","0.960842596","","","","","","","","","","72","H","0","img/none_selected.jpg","","116","main_expt",""
"","bandit","196","531455","0.0-158.0-0.0","95524357","wem/bandit_party_2","A3PN17H3QT51O","either","6","270","","","","","","","0","0","1","","0.7709890197","0.4","0.8","0.2","0.6","0.7709890197","0.4946904956","0.8231731708","0.937733065","","","","","","","","","","","","","","72","H","0","img/none_selected.jpg","","117","main_expt",""
"","bandit","197","533150","0.0-159.0-0.0","95524357","wem/bandit_party_2","A3PN17H3QT51O","either","6","177","","","","","","","0","1","0","","0.7459937787","0.4","0.8","0.2","0.6","0.7459937787","0.6246330079","0.8278750807","0.9561499645","","","","","","","","","","","","","","72","H","0","img/none_selected.jpg","","118","main_expt",""
"","bandit","198","534946","0.0-160.0-0.0","95524357","wem/bandit_party_2","A3PN17H3QT51O","either","6","275","","","","","","","0","1","0","","0.716881491","0.4","0.8","0.2","0.6","0.716881491","0.5818097722","0.8715827524","0.9595118281","","","","","","","","","","","","","","72","H","0","img/none_selected.jpg","","119","main_expt",""
"","bandit","199","537457","0.0-161.0-0.0","95524357","wem/bandit_party_2","A3PN17H3QT51O","either","6","988","","","","","","","0","1","0","","0.6595649419","0.4","0.8","0.2","0.6","0.6595649419","0.5990025551","0.8522670476","0.9548463758","","","","","","","","","","","","","","72","H","0","img/none_selected.jpg","","120","main_expt",""
"","bandit","200","539168","0.0-162.0-0.0","95524357","wem/bandit_party_2","A3PN17H3QT51O","either","6","192","","","","","","","0","1","0","","0.6576447048","0.4","0.8","0.2","0.6","0.6576447048","0.6534424477","0.8266542562","0.958085665","","","","","","","","","","","","","","72","H","0","img/none_selected.jpg","","121","main_expt",""
"","bandit","201","540976","0.0-163.0-0.0","95524357","wem/bandit_party_2","A3PN17H3QT51O","either","6","286","","","","","","","0","1","0","","0.6391957719","0.4","0.8","0.2","0.6","0.6391957719","0.5952731017","0.81688531","0.9630601427","","","","","","","","","","","","","","72","H","0","img/none_selected.jpg","","122","main_expt",""
"","bandit","202","542790","0.0-164.0-0.0","95524357","wem/bandit_party_2","A3PN17H3QT51O","either","6","297","","","","","","","1","0","0","0.5873908865","","0.4","0.8","0.2","0.6","","","","","0.5873908865","0.6469086187","0.8307363081","0.9790283764","","","","","","","","","","72","H","0","img/none_selected.jpg","","123","main_expt",""
"","bandit","203","544457","0.0-165.0-0.0","95524357","wem/bandit_party_2","A3PN17H3QT51O","either","6","147","","","","","","","0","0","1","","0.6592760984","0.4","0.8","0.2","0.6","0.6592760984","0.6911454426","0.6943824695","0.9718765302","","","","","","","","","","","","","","72","H","0","img/none_selected.jpg","","124","main_expt",""
"","bandit","204","546214","0.0-166.0-0.0","95524357","wem/bandit_party_2","A3PN17H3QT51O","either","6","240","","","","","","","0","1","0","","0.6012083746","0.4","0.8","0.2","0.6","0.6012083746","0.750572215","0.7137568944","0.9845173964","","","","","","","","","","","","","","72","H","0","img/none_selected.jpg","","125","main_expt",""
"","bandit","205","547976","0.0-167.0-0.0","95524357","wem/bandit_party_2","A3PN17H3QT51O","either","6","234","","","","","","","0","0","1","0.6043440275","","0.4","0.8","0.2","0.6","","","","","0.6043440275","0.8108432581","0.6878742658","0.9804670004","","","","","","","","","","72","H","0","img/none_selected.jpg","","126","main_expt",""
"","bandit","206","550184","0.0-168.0-0.0","95524357","wem/bandit_party_2","A3PN17H3QT51O","either","6","687","","","","","","","0","1","0","","0.8338196277","0.4","0.8","0.2","0.6","0.5043142332","0.8338196277","0.6175454059","0.9792667249","","","","","","","","","","","","","","74","J","1","","","127","main_expt",""
"","bandit","207","551712","0.0-169.0-0.0","95524357","wem/bandit_party_2","A3PN17H3QT51O","either","6","10","","","","","","","1","0","0","0.8624128669","","0.4","0.8","0.2","0.6","","","","","0.5778209799","0.8624128669","0.5556505876","0.9853815399","","","","","","","","","","74","J","1","","","128","main_expt",""
"","bandit","208","553289","0.0-170.0-0.0","95524357","wem/bandit_party_2","A3PN17H3QT51O","either","6","46","","","","","","","0","1","0","","0.9026068167","0.4","0.8","0.2","0.6","0.5806273004","0.9026068167","0.5948532478","0.9838319732","","","","","","","","","","","","","","74","J","1","","","129","main_expt",""
"","bandit","209","555071","0.0-171.0-0.0","95524357","wem/bandit_party_2","A3PN17H3QT51O","either","6","263","","","","","","","0","1","0","","0.8983636673","0.4","0.8","0.2","0.6","0.4152233618","0.8983636673","0.6646968067","0.9798768453","","","","","","","","","","","","","","74","J","1","","","130","main_expt",""
"","bandit","210","556741","0.0-172.0-0.0","95524357","wem/bandit_party_2","A3PN17H3QT51O","either","6","154","","","","","","","0","1","0","","0.888478962","0.4","0.8","0.2","0.6","0.4527057242","0.888478962","0.6676177377","0.9628017066","","","","","","","","","","","","","","74","J","1","","","131","main_expt",""
"","bandit","211","558278","0.0-173.0-0.0","95524357","wem/bandit_party_2","A3PN17H3QT51O","either","6","20","","","","","","","1","0","0","0.8470567254","","0.4","0.8","0.2","0.6","","","","","0.5185753891","0.8470567254","0.7638630926","0.9723970119","","","","","","","","","","74","J","1","","","132","main_expt",""
"","bandit","212","560066","0.0-174.0-0.0","95524357","wem/bandit_party_2","A3PN17H3QT51O","either","6","267","","","","","","","1","0","0","0.8852081265","","0.4","0.8","0.2","0.6","","","","","0.4567386081","0.8852081265","0.726350598","0.9754432393","","","","","","","","","","74","J","1","","","133","main_expt",""
"","bandit","213","561830","0.0-175.0-0.0","95524357","wem/bandit_party_2","A3PN17H3QT51O","either","6","247","","","","","","","0","1","0","","0.8317422298","0.4","0.8","0.2","0.6","0.4494056808","0.8317422298","0.7638059904","0.9635376407","","","","","","","","","","","","","","74","J","1","","","134","main_expt",""
"","bandit","214","563560","0.0-176.0-0.0","95524357","wem/bandit_party_2","A3PN17H3QT51O","either","6","210","","","","","","","1","0","0","0.8121858422","","0.4","0.8","0.2","0.6","","","","","0.4608562393","0.8121858422","0.7337835984","0.9304273523","","","","","","","","","","74","J","1","","","135","main_expt",""
"","bandit","215","565288","0.0-177.0-0.0","95524357","wem/bandit_party_2","A3PN17H3QT51O","either","6","208","","","","","","","0","0","1","0.8473276522","","0.4","0.8","0.2","0.6","","","","","0.6684020244","0.8473276522","0.7869055623","0.9295592062","","","","","","","","","","74","J","1","","","136","main_expt",""
"","bandit","216","567021","0.0-178.0-0.0","95524357","wem/bandit_party_2","A3PN17H3QT51O","either","6","217","","","","","","","0","1","0","","0.8251243182","0.4","0.8","0.2","0.6","0.614137061","0.8251243182","0.8033651193","0.9343332129","","","","","","","","","","","","","","74","J","1","","","137","main_expt",""
"","bandit","217","568787","0.0-179.0-0.0","95524357","wem/bandit_party_2","A3PN17H3QT51O","either","6","224","","","","","","","0","0","1","0.7892590299","","0.4","0.8","0.2","0.6","","","","","0.711021659","0.7892590299","0.7620089345","0.9325781127","","","","","","","","","","74","J","1","","","138","main_expt",""
"","bandit","218","570413","0.0-180.0-0.0","95524357","wem/bandit_party_2","A3PN17H3QT51O","either","6","107","","","","","","","1","0","0","0.753698647","","0.4","0.8","0.2","0.6","","","","","0.5731932267","0.753698647","0.8098853196","0.9687763229","","","","","","","","","","74","J","1","","","139","main_expt",""
"","bandit","219","572207","0.0-181.0-0.0","95524357","wem/bandit_party_2","A3PN17H3QT51O","either","6","241","","","","","","","1","0","0","0.7281837229","","0.4","0.8","0.2","0.6","","","","","0.6553783698","0.7281837229","0.8737133651","0.9520204639","","","","","","","","","","74","J","1","","","140","main_expt",""
"","bandit","220","573983","0.0-182.0-0.0","95524357","wem/bandit_party_2","A3PN17H3QT51O","either","6","257","","","","","","","1","0","0","0.7913145473","","0.4","0.8","0.2","0.6","","","","","0.5665224918","0.7913145473","0.8464817719","0.9615613541","","","","","","","","","","74","J","1","","","141","main_expt",""
"","bandit","221","575851","0.0-183.0-0.0","95524357","wem/bandit_party_2","A3PN17H3QT51O","either","6","349","","","","","","","1","0","0","0.7498898283","","0.4","0.8","0.2","0.6","","","","","0.5230460729","0.7498898283","0.8457688645","0.9438722422","","","","","","","","","","74","J","1","","","142","main_expt",""
"","bandit","222","577599","0.0-184.0-0.0","95524357","wem/bandit_party_2","A3PN17H3QT51O","either","6","220","","","","","","","1","0","0","0.723110339","","0.4","0.8","0.2","0.6","","","","","0.5401897842","0.723110339","0.8801682128","0.9419241064","","","","","","","","","","74","J","1","","","143","main_expt",""
"","bandit","223","579396","0.0-185.0-0.0","95524357","wem/bandit_party_2","A3PN17H3QT51O","either","6","234","","","","","","","1","0","0","0.7697142539","","0.4","0.8","0.2","0.6","","","","","0.5495292383","0.7697142539","0.7806105972","0.9383966058","","","","","","","","","","74","J","1","","","144","main_expt",""
"","bandit","224","581103","0.0-186.0-0.0","95524357","wem/bandit_party_2","A3PN17H3QT51O","either","6","154","","","","","","","1","0","0","0.8279494337","","0.4","0.8","0.2","0.6","","","","","0.4718854897","0.8279494337","0.7384744451","0.9442204223","","","","","","","","","","74","J","1","","","145","main_expt",""
"","bandit","225","583488","0.0-187.0-0.0","95524357","wem/bandit_party_2","A3PN17H3QT51O","either","6","863","","","","","","","0","0","1","","0.747104877","0.4","0.8","0.2","0.6","0.3790577705","0.747104877","0.7078417075","0.9461270134","","","","","","","","","","","","","","74","J","1","","","146","main_expt",""
"","bandit","226","585142","0.0-188.0-0.0","95524357","wem/bandit_party_2","A3PN17H3QT51O","either","6","136","","","","","","","1","0","0","0.7635883185","","0.4","0.8","0.2","0.6","","","","","0.3671333747","0.7635883185","0.7671729372","0.9677113618","","","","","","","","","","74","J","1","","","147","main_expt",""
"","bandit","227","586745","0.0-189.0-0.0","95524357","wem/bandit_party_2","A3PN17H3QT51O","either","6","78","","","","","","","0","0","1","0.6650729927","","0.4","0.8","0.2","0.6","","","","","0.4462771912","0.6650729927","0.7515071201","0.9603287673","","","","","","","","","","74","J","1","","","148","main_expt",""
"","bandit","228","588494","0.0-190.0-0.0","95524357","wem/bandit_party_2","A3PN17H3QT51O","either","6","228","","","","","","","0","1","0","","0.594527628","0.4","0.8","0.2","0.6","0.3929125452","0.594527628","0.7582160768","0.9256305183","","","","","","","","","","","","","","74","J","1","","","149","main_expt",""
"","bandit","229","590150","0.0-191.0-0.0","95524357","wem/bandit_party_2","A3PN17H3QT51O","either","6","135","","","","","","","0","0","1","","0.5101412162","0.4","0.8","0.2","0.6","0.3825194633","0.5101412162","0.6843302658","0.9222609783","","","","","","","","","","","","","","74","J","1","","","150","main_expt",""
"","bandit","230","591942","0.0-192.0-0.0","95524357","wem/bandit_party_2","A3PN17H3QT51O","either","6","272","","","","","","","0","1","0","","0.4980827124","0.4","0.8","0.2","0.6","0.3889652011","0.5755011036","0.4980827124","0.9522131909","","","","","","","","","","","","","","75","K","2","","","151","main_expt",""
"","bandit","231","593509","0.0-193.0-0.0","95524357","wem/bandit_party_2","A3PN17H3QT51O","either","6","49","","","","","","","0","0","1","0.5418861514","","0.4","0.8","0.2","0.6","","","","","0.372169082","0.5415628766","0.5418861514","0.9351777179","","","","","","","","","","75","K","2","","","152","main_expt",""
"","bandit","232","595125","0.0-194.0-0.0","95524357","wem/bandit_party_2","A3PN17H3QT51O","either","6","97","","","","","","","1","0","0","0.6424708626","","0.4","0.8","0.2","0.6","","","","","0.4275919172","0.6392888902","0.6424708626","0.9526549669","","","","","","","","","","75","K","2","","","153","main_expt",""
"","bandit","233","596861","0.0-195.0-0.0","95524357","wem/bandit_party_2","A3PN17H3QT51O","either","6","218","","","","","","","0","0","1","0.6200403258","","0.4","0.8","0.2","0.6","","","","","0.3978897223","0.6798835142","0.6200403258","0.944677936","","","","","","","","","","75","K","2","","","154","main_expt",""
"","bandit","234","598749","0.0-196.0-0.0","95524357","wem/bandit_party_2","A3PN17H3QT51O","either","6","369","","","","","","","0","1","0","","0.5087788092","0.4","0.8","0.2","0.6","0.4922143253","0.7376683638","0.5087788092","0.9443948233","","","","","","","","","","","","","","75","K","2","","","155","main_expt",""
"","bandit","235","600527","0.0-197.0-0.0","95524357","wem/bandit_party_2","A3PN17H3QT51O","either","6","256","","","","","","","0","0","1","","0.4397360723","0.4","0.8","0.2","0.6","0.5060601407","0.7740838489","0.4397360723","0.9312029685","","","","","","","","","","","","","","75","K","2","","","156","main_expt",""
"","bandit","236","602242","0.0-198.0-0.0","95524357","wem/bandit_party_2","A3PN17H3QT51O","either","6","196","","","","","","","0","0","1","","0.4529934193","0.4","0.8","0.2","0.6","0.56460533","0.7526352547","0.4529934193","0.9009413449","","","","","","","","","","","","","","75","K","2","","","157","main_expt",""
"","bandit","237","603907","0.0-199.0-0.0","95524357","wem/bandit_party_2","A3PN17H3QT51O","either","6","143","","","","","","","1","0","0","0.8799225656","","0.4","0.8","0.2","0.6","","","","","0.5551408743","0.807066173","0.522014142","0.8799225656","","","","","","","","","","76","L","3","","","158","main_expt",""
"","bandit","238","605453","0.0-200.0-0.0","95524357","wem/bandit_party_2","A3PN17H3QT51O","either","6","28","","","","","","","0","1","0","","0.9103166083","0.4","0.8","0.2","0.6","0.6362487126","0.8348587906","0.447178695","0.9103166083","","","","","","","","","","","","","","76","L","3","","","159","main_expt",""
"","bandit","239","607125","0.0-201.0-0.0","95524357","wem/bandit_party_2","A3PN17H3QT51O","either","6","154","","","","","","","0","1","0","","0.9575168601","0.4","0.8","0.2","0.6","0.5818198138","0.8054329593","0.4293784973","0.9575168601","","","","","","","","","","","","","","76","L","3","","","160","main_expt",""
"","bandit","240","608830","0.0-202.0-0.0","95524357","wem/bandit_party_2","A3PN17H3QT51O","either","6","186","","","","","","","1","0","0","0.9323430526","","0.4","0.8","0.2","0.6","","","","","0.5079421761","0.8263011938","0.4263694152","0.9323430526","","","","","","","","","","76","L","3","","","161","main_expt",""
"","bandit","241","610535","0.0-203.0-0.0","95524357","wem/bandit_party_2","A3PN17H3QT51O","either","6","185","","","","","","","1","0","0","0.8731035433","","0.4","0.8","0.2","0.6","","","","","0.3944353318","0.8468561623","0.4394756583","0.8731035433","","","","","","","","","","76","L","3","","","162","main_expt",""
"","bandit","242","612278","0.0-204.0-0.0","95524357","wem/bandit_party_2","A3PN17H3QT51O","either","6","223","","","","","","","0","1","0","","0.860239847","0.4","0.8","0.2","0.6","0.4560534757","0.866861138","0.4632532181","0.860239847","","","","","","","","","","","","","","76","L","3","","","163","main_expt",""
"","bandit","243","614488","0.0-205.0-0.0","95524357","wem/bandit_party_2","A3PN17H3QT51O","either","6","690","","","","","","","1","0","0","0.8327160304","","0.4","0.8","0.2","0.6","","","","","0.4338988853","0.8621839131","0.469091439","0.8327160304","","","","","","","","","","76","L","3","","","164","main_expt",""
"","bandit","244","616330","0.0-206.0-0.0","95524357","wem/bandit_party_2","A3PN17H3QT51O","either","6","302","","","","","","","1","0","0","0.8780399083","","0.4","0.8","0.2","0.6","","","","","0.3640020004","0.8368369455","0.4691854483","0.8780399083","","","","","","","","","","76","L","3","","","165","main_expt",""
"","bandit","245","618115","0.0-207.0-0.0","95524357","wem/bandit_party_2","A3PN17H3QT51O","either","6","256","","","","","","","1","0","0","0.8659509199","","0.4","0.8","0.2","0.6","","","","","0.4433911144","0.8543831227","0.424594696","0.8659509199","","","","","","","","","","76","L","3","","","166","main_expt",""
"","bandit","246","619966","0.0-208.0-0.0","95524357","wem/bandit_party_2","A3PN17H3QT51O","either","6","327","","","","","","","0","1","0","","0.8458676595","0.4","0.8","0.2","0.6","0.4852122499","0.8444257961","0.4691217736","0.8458676595","","","","","","","","","","","","","","76","L","3","","","167","main_expt",""
"","bandit","247","621764","0.0-209.0-0.0","95524357","wem/bandit_party_2","A3PN17H3QT51O","either","6","280","","","","","","","0","1","0","","0.7368025647","0.4","0.8","0.2","0.6","0.4829488348","0.8895061166","0.4605946041","0.7368025647","","","","","","","","","","","","","","76","L","3","","","168","main_expt",""
"","bandit","248","623633","0.0-210.0-0.0","95524357","wem/bandit_party_2","A3PN17H3QT51O","either","6","345","","","","","","","0","0","1","","0.6811301937","0.4","0.8","0.2","0.6","0.467087579","0.8980662015","0.4302520818","0.6811301937","","","","","","","","","","","","","","76","L","3","","","169","main_expt",""
"","bandit","249","625696","0.0-211.0-0.0","95524357","wem/bandit_party_2","A3PN17H3QT51O","either","6","539","","","","","","","1","0","0","0.6781719117","","0.4","0.8","0.2","0.6","","","","","0.3575164989","0.9399190154","0.3846086554","0.6781719117","","","","","","","","","","76","L","3","","","170","main_expt",""
"","bandit","250","627551","0.0-212.0-0.0","95524357","wem/bandit_party_2","A3PN17H3QT51O","either","6","317","","","","","","","0","0","1","0.5779776893","","0.4","0.8","0.2","0.6","","","","","0.3433755155","0.9199626721","0.4938912128","0.5779776893","","","","","","","","","","76","L","3","","","171","main_expt",""
"","bandit","251","629221","0.0-213.0-0.0","95524357","wem/bandit_party_2","A3PN17H3QT51O","either","6","147","","","","","","","1","0","0","0.5461867433","","0.4","0.8","0.2","0.6","","","","","0.2921203137","0.8885959212","0.5409242696","0.5461867433","","","","","","","","","","76","L","3","","","172","main_expt",""
"","bandit","252","630998","0.0-214.0-0.0","95524357","wem/bandit_party_2","A3PN17H3QT51O","either","6","257","","","","","","","1","0","0","0.5898781272","","0.4","0.8","0.2","0.6","","","","","0.3237382503","0.8502068985","0.4899310385","0.5898781272","","","","","","","","","","76","L","3","","","173","main_expt",""
"","bandit","253","632782","0.0-215.0-0.0","95524357","wem/bandit_party_2","A3PN17H3QT51O","either","6","264","","","","","","","0","0","1","","0.5990225055","0.4","0.8","0.2","0.6","0.2935635685","0.9054067092","0.4464532747","0.5990225055","","","","","","","","","","","","","","76","L","3","","","174","main_expt",""
"","bandit","254","634445","0.0-216.0-0.0","95524357","wem/bandit_party_2","A3PN17H3QT51O","either","6","143","","","","","","","1","0","0","0.6129624105","","0.4","0.8","0.2","0.6","","","","","0.2797951809","0.9096893241","0.4363040476","0.6129624105","","","","","","","","","","76","L","3","","","175","main_expt",""
"","bandit","255","636211","0.0-217.0-0.0","95524357","wem/bandit_party_2","A3PN17H3QT51O","either","6","247","","","","","","","1","0","0","0.5434192492","","0.4","0.8","0.2","0.6","","","","","0.2067270565","0.9081003197","0.4198776974","0.5434192492","","","","","","","","","","76","L","3","","","176","main_expt",""
"","bandit","256","637990","0.0-218.0-0.0","95524357","wem/bandit_party_2","A3PN17H3QT51O","either","6","259","","","","","","","0","0","1","","0.5893108522","0.4","0.8","0.2","0.6","0.19266164","0.8417535431","0.4001478854","0.5893108522","","","","","","","","","","","","","","76","L","3","","","177","main_expt",""
"","bandit","257","639856","0.0-219.0-0.0","95524357","wem/bandit_party_2","A3PN17H3QT51O","either","6","340","","","","","","","0","0","1","0.1393448617","","0.4","0.8","0.2","0.6","","","","","0.1393448617","0.8045518304","0.3015477047","0.4862463398","","","","","","","","","","72","H","0","img/none_selected.jpg","","178","main_expt",""
"","bandit","258","641488","0.0-220.0-0.0","95524357","wem/bandit_party_2","A3PN17H3QT51O","either","6","104","","","","","","","1","0","0","0.8250115846","","0.4","0.8","0.2","0.6","","","","","0.1149816072","0.8250115846","0.2700131006","0.4227787996","","","","","","","","","","74","J","1","","","179","main_expt",""
"","bandit","259","643247","0.0-221.0-0.0","95524357","wem/bandit_party_2","A3PN17H3QT51O","either","6","237","","","","","","","1","0","0","0.7418096358","","0.4","0.8","0.2","0.6","","","","","0.1231561222","0.7418096358","0.3473069","0.3583368423","","","","","","","","","","74","J","1","","","180","main_expt",""
"","bandit","260","645086","0.0-222.0-0.0","95524357","wem/bandit_party_2","A3PN17H3QT51O","either","6","270","","","","","","","1","0","0","0.7180260456","","0.4","0.8","0.2","0.6","","","","","0.1134989143","0.7180260456","0.3478804011","0.3820052134","","","","","","","","","","74","J","1","","","181","main_expt",""
"","bandit","261","646806","0.0-223.0-0.0","95524357","wem/bandit_party_2","A3PN17H3QT51O","either","6","197","","","","","","","0","0","1","0.6777378447","","0.4","0.8","0.2","0.6","","","","","0.07317944644","0.6777378447","0.3304981007","0.437769555","","","","","","","","","","74","J","1","","","182","main_expt",""
"","bandit","262","648509","0.0-224.0-0.0","95524357","wem/bandit_party_2","A3PN17H3QT51O","either","6","182","","","","","","","0","0","1","0.6331465848","","0.4","0.8","0.2","0.6","","","","","0.05085611098","0.6331465848","0.2578466268","0.3951330089","","","","","","","","","","74","J","1","","","183","main_expt",""
"","bandit","263","650256","0.0-225.0-0.0","95524357","wem/bandit_party_2","A3PN17H3QT51O","either","6","223","","","","","","","1","0","0","0.6578519513","","0.4","0.8","0.2","0.6","","","","","0.07152820202","0.6578519513","0.3550464129","0.4062376343","","","","","","","","","","74","J","1","","","184","main_expt",""
"","bandit","264","652021","0.0-226.0-0.0","95524357","wem/bandit_party_2","A3PN17H3QT51O","either","6","245","","","","","","","1","0","0","0.7160298793","","0.4","0.8","0.2","0.6","","","","","0.08814522307","0.7160298793","0.2993299556","0.4035727276","","","","","","","","","","74","J","1","","","185","main_expt",""
"","bandit","265","653806","0.0-227.0-0.0","95524357","wem/bandit_party_2","A3PN17H3QT51O","either","6","263","","","","","","","1","0","0","0.7081703269","","0.4","0.8","0.2","0.6","","","","","0.0931487442","0.7081703269","0.3985972224","0.4595565904","","","","","","","","","","74","J","1","","","186","main_expt",""
"","bandit","266","655596","0.0-228.0-0.0","95524357","wem/bandit_party_2","A3PN17H3QT51O","either","6","269","","","","","","","1","0","0","0.7670757258","","0.4","0.8","0.2","0.6","","","","","0.05847154344","0.7670757258","0.4563810555","0.4956959756","","","","","","","","","","74","J","1","","","187","main_expt",""
"","bandit","267","658124","0.0-229.0-0.0","95524357","wem/bandit_party_2","A3PN17H3QT51O","either","6","1008","","","","","","","1","0","0","0.7986884496","","0.4","0.8","0.2","0.6","","","","","0.05005107021","0.7986884496","0.4621092719","0.4295585103","","","","","","","","","","74","J","1","","","188","main_expt",""
"","bandit","268","659918","0.0-230.0-0.0","95524357","wem/bandit_party_2","A3PN17H3QT51O","either","6","267","","","","","","","1","0","0","0.8113194514","","0.4","0.8","0.2","0.6","","","","","0.05158958255","0.8113194514","0.4214675273","0.4121259827","","","","","","","","","","74","J","1","","","189","main_expt",""
"","bandit","269","661707","0.0-231.0-0.0","95524357","wem/bandit_party_2","A3PN17H3QT51O","either","6","270","","","","","","","0","1","0","","0.8311477635","0.4","0.8","0.2","0.6","0.0530996007","0.8311477635","0.4445162903","0.40505342","","","","","","","","","","","","","","74","J","1","","","190","main_expt",""
"","bandit","270","663469","0.0-232.0-0.0","95524357","wem/bandit_party_2","A3PN17H3QT51O","either","6","241","","","","","","","1","0","0","0.7941336253","","0.4","0.8","0.2","0.6","","","","","0.05342003941","0.7941336253","0.4077799102","0.3671493273","","","","","","","","","","74","J","1","","","191","main_expt",""
"","bandit","271","665285","0.0-233.0-0.0","95524357","wem/bandit_party_2","A3PN17H3QT51O","either","6","296","","","","","","","1","0","0","0.841847859","","0.4","0.8","0.2","0.6","","","","","0.05264216412","0.841847859","0.413117206","0.3367263454","","","","","","","","","","74","J","1","","","192","main_expt",""
"","bandit","272","667075","0.0-234.0-0.0","95524357","wem/bandit_party_2","A3PN17H3QT51O","either","6","268","","","","","","","1","0","0","0.865127625","","0.4","0.8","0.2","0.6","","","","","0.07418965368","0.865127625","0.374663265","0.2587514209","","","","","","","","","","74","J","1","","","193","main_expt",""
"","bandit","273","668908","0.0-235.0-0.0","95524357","wem/bandit_party_2","A3PN17H3QT51O","either","6","313","","","","","","","0","1","0","","0.8369883383","0.4","0.8","0.2","0.6","0.1148515542","0.8369883383","0.2792309937","0.2123696513","","","","","","","","","","","","","","74","J","1","","","194","main_expt",""
"","bandit","274","670715","0.0-236.0-0.0","95524357","wem/bandit_party_2","A3PN17H3QT51O","either","6","288","","","","","","","0","1","0","","0.8226177272","0.4","0.8","0.2","0.6","0.1102075851","0.8226177272","0.3090424304","0.2551117677","","","","","","","","","","","","","","74","J","1","","","195","main_expt",""
"","bandit","275","672477","0.0-237.0-0.0","95524357","wem/bandit_party_2","A3PN17H3QT51O","either","6","241","","","","","","","0","1","0","","0.8759919892","0.4","0.8","0.2","0.6","0.09307195637","0.8759919892","0.2254203465","0.2948177706","","","","","","","","","","","","","","74","J","1","","","196","main_expt",""
"","bandit","276","674280","0.0-238.0-0.0","95524357","wem/bandit_party_2","A3PN17H3QT51O","either","6","271","","","","","","","0","1","0","","0.9413038234","0.4","0.8","0.2","0.6","0.08341332984","0.9413038234","0.2104085952","0.2864074111","","","","","","","","","","","","","","74","J","1","","","197","main_expt",""
"","bandit","277","676748","0.0-239.0-0.0","95524357","wem/bandit_party_2","A3PN17H3QT51O","either","6","948","","","","","","","1","0","0","0.9384937307","","0.4","0.8","0.2","0.6","","","","","0.06206278739","0.9384937307","0.1686499416","0.3044962429","","","","","","","","","","74","J","1","","","198","main_expt",""
"","bandit","278","678554","0.0-240.0-0.0","95524357","wem/bandit_party_2","A3PN17H3QT51O","either","6","288","","","","","","","1","0","0","0.927250614","","0.4","0.8","0.2","0.6","","","","","0.1015706687","0.927250614","0.1696058054","0.2804127106","","","","","","","","","","74","J","1","","","199","main_expt",""
"","bandit","279","680510","0.0-241.0-0.0","95524357","wem/bandit_party_2","A3PN17H3QT51O","either","6","434","","","","","","","1","0","0","0.8840406778","","0.4","0.8","0.2","0.6","","","","","0.07348353789","0.8840406778","0.1940139532","0.3151112274","","","","","","","","","","74","J","1","","","200","main_expt",""
"","bandit","280","682290","0.0-242.0-0.0","95524357","wem/bandit_party_2","A3PN17H3QT51O","either","6","259","","","","","","","1","0","0","0.8866639954","","0.4","0.8","0.2","0.6","","","","","0.09218994405","0.8866639954","0.2384341862","0.3124471347","","","","","","","","","","74","J","1","","","201","main_expt",""
"","bandit","281","684060","0.0-243.0-0.0","95524357","wem/bandit_party_2","A3PN17H3QT51O","either","6","249","","","","","","","1","0","0","0.8188103646","","0.4","0.8","0.2","0.6","","","","","0.1662378481","0.8188103646","0.2069173963","0.3418115628","","","","","","","","","","74","J","1","","","202","main_expt",""
"","bandit","282","685927","0.0-244.0-0.0","95524357","wem/bandit_party_2","A3PN17H3QT51O","either","6","346","","","","","","","0","1","0","","0.8026106274","0.4","0.8","0.2","0.6","0.1808123801","0.8026106274","0.2502389624","0.2676578736","","","","","","","","","","","","","","74","J","1","","","203","main_expt",""
"","bandit","283","687915","0.0-245.0-0.0","95524357","wem/bandit_party_2","A3PN17H3QT51O","either","6","469","","","","","","","0","0","1","0.6613987003","","0.4","0.8","0.2","0.6","","","","","0.2011980288","0.6613987003","0.2226806","0.2513587973","","","","","","","","","","74","J","1","","","204","main_expt",""
"","bandit","284","689806","0.0-246.0-0.0","95524357","wem/bandit_party_2","A3PN17H3QT51O","either","6","366","","","","","","","1","0","0","0.7402115251","","0.4","0.8","0.2","0.6","","","","","0.1877492959","0.7402115251","0.2327973494","0.2733703365","","","","","","","","","","74","J","1","","","205","main_expt",""
"","bandit","285","691611","0.0-247.0-0.0","95524357","wem/bandit_party_2","A3PN17H3QT51O","either","6","286","","","","","","","1","0","0","0.6792505986","","0.4","0.8","0.2","0.6","","","","","0.1891298069","0.6792505986","0.3134624789","0.3212331514","","","","","","","","","","74","J","1","","","206","main_expt",""
"","bandit","286","693508","0.0-248.0-0.0","95524357","wem/bandit_party_2","A3PN17H3QT51O","either","6","377","","","","","","","0","0","1","0.6510378203","","0.4","0.8","0.2","0.6","","","","","0.2092890992","0.6510378203","0.3808856429","0.3381772831","","","","","","","","","","74","J","1","","","207","main_expt",""
"","bandit","287","695369","0.0-249.0-0.0","95524357","wem/bandit_party_2","A3PN17H3QT51O","either","6","333","","","","","","","0","0","1","0.5971377862","","0.4","0.8","0.2","0.6","","","","","0.2563161799","0.5971377862","0.318509643","0.2370260631","","","","","","","","","","74","J","1","","","208","main_expt",""
"","bandit","288","696949","0.0-250.0-0.0","95524357","wem/bandit_party_2","A3PN17H3QT51O","either","6","58","","","","","","","0","0","1","","0.2932847295","0.4","0.8","0.2","0.6","0.2643940457","0.6040603887","0.2932847295","0.2157004535","","","","","","","","","","","","","","75","K","2","","","209","main_expt",""
"","bandit","289","698682","0.0-251.0-0.0","95524357","wem/bandit_party_2","A3PN17H3QT51O","either","6","214","","","","","","","0","0","1","","0.2710870001","0.4","0.8","0.2","0.6","0.2710870001","0.7794442159","0.2230023122","0.2655169153","","","","","","","","","","","","","","72","H","0","img/none_selected.jpg","","210","main_expt",""
"","bandit","290","700442","0.0-252.0-0.0","95524357","wem/bandit_party_2","A3PN17H3QT51O","either","6","239","","","","","","","0","0","1","0.2359505063","","0.4","0.8","0.2","0.6","","","","","0.2056380183","0.8397026392","0.1899351836","0.2359505063","","","","","","","","","","76","L","3","","","211","main_expt",""
"","bandit","291","702139","0.0-253.0-0.0","95524357","wem/bandit_party_2","A3PN17H3QT51O","either","6","177","","","","","","","0","0","1","0.2593929449","","0.4","0.8","0.2","0.6","","","","","0.2487045614","0.7883870126","0.2593929449","0.2431981852","","","","","","","","","","75","K","2","","","212","main_expt",""
"","bandit","292","703922","0.0-254.0-0.0","95524357","wem/bandit_party_2","A3PN17H3QT51O","either","6","255","","","","","","","0","0","1","0.3520378668","","0.4","0.8","0.2","0.6","","","","","0.3520378668","0.7160446845","0.2304425673","0.3385658967","","","","","","","","","","72","H","0","img/none_selected.jpg","","213","main_expt",""
"","bandit","293","705613","0.0-255.0-0.0","95524357","wem/bandit_party_2","A3PN17H3QT51O","either","6","110","","","","","","","0","0","1","0.7501162241","","0.4","0.8","0.2","0.6","","","","","0.3455661114","0.7501162241","0.2849244028","0.445002088","","","","","","","","","","74","J","1","","","214","main_expt",""
"","bandit","294","707360","0.0-256.0-0.0","95524357","wem/bandit_party_2","A3PN17H3QT51O","either","6","224","","","","","","","0","0","1","0.3184819088","","0.4","0.8","0.2","0.6","","","","","0.3290646698","0.7574589115","0.3184819088","0.4340580748","","","","","","","","","","75","K","2","","","215","main_expt",""
"","bandit","295","709219","0.0-257.0-0.0","95524357","wem/bandit_party_2","A3PN17H3QT51O","either","6","338","","","","","","","1","0","0","0.3996931216","","0.4","0.8","0.2","0.6","","","","","0.2737258078","0.7376674805","0.2989728513","0.3996931216","","","","","","","","","","76","L","3","","","216","main_expt",""
"","bandit","296","711115","0.0-258.0-0.0","95524357","wem/bandit_party_2","A3PN17H3QT51O","either","6","359","","","","","","","0","1","0","","0.453570069","0.4","0.8","0.2","0.6","0.2401291484","0.67262171","0.5538830624","0.453570069","","","","","","","","","","","","","","76","L","3","","","217","main_expt",""
"","bandit","297","712903","0.0-259.0-0.0","95524357","wem/bandit_party_2","A3PN17H3QT51O","either","6","262","","","","","","","1","0","0","0.3566620654","","0.4","0.8","0.2","0.6","","","","","0.2395298113","0.6309662891","0.5331458927","0.3566620654","","","","","","","","","","76","L","3","","","218","main_expt",""
"","bandit","298","714613","0.0-260.0-0.0","95524357","wem/bandit_party_2","A3PN17H3QT51O","either","6","179","","","","","","","0","0","1","0.3114207129","","0.4","0.8","0.2","0.6","","","","","0.2333127667","0.610488243","0.409279481","0.3114207129","","","","","","","","","","76","L","3","","","219","main_expt",""
"","bandit","299","716251","0.0-261.0-0.0","95524357","wem/bandit_party_2","A3PN17H3QT51O","either","6","117","","","","","","","0","0","1","","0.348491043","0.4","0.8","0.2","0.6","0.2097963002","0.6741838821","0.3910907299","0.348491043","","","","","","","","","","","","","","76","L","3","","","220","main_expt",""
"","bandit","300","718131","0.0-262.0-0.0","95524357","wem/bandit_party_2","A3PN17H3QT51O","either","6","359","","","","","","","0","0","1","","0.1761429423","0.4","0.8","0.2","0.6","0.1761429423","0.6938787555","0.37386253","0.325682353","","","","","","","","","","","","","","72","H","0","img/none_selected.jpg","","221","main_expt",""
"","bandit","301","719907","0.0-263.0-0.0","95524357","wem/bandit_party_2","A3PN17H3QT51O","either","6","252","","","","","","","0","0","1","0.622086605","","0.4","0.8","0.2","0.6","","","","","0.1770547834","0.622086605","0.5460784034","0.3582518194","","","","","","","","","","74","J","1","","","222","main_expt",""
"","bandit","302","721723","0.0-264.0-0.0","95524357","wem/bandit_party_2","A3PN17H3QT51O","either","6","296","","","","","","","0","0","1","0.5484594206","","0.4","0.8","0.2","0.6","","","","","0.1494166006","0.6190419158","0.5484594206","0.3596631187","","","","","","","","","","75","K","2","","","223","main_expt",""
"","bandit","303","723482","0.0-265.0-0.0","95524357","wem/bandit_party_2","A3PN17H3QT51O","either","6","240","","","","","","","0","0","1","","0.4757784632","0.4","0.8","0.2","0.6","0.1444184755","0.6525227655","0.5156266917","0.4757784632","","","","","","","","","","","","","","76","L","3","","","224","main_expt",""
"","bandit","304","725601","0.0-266.0-0.0","95524357","wem/bandit_party_2","A3PN17H3QT51O","either","6","600","","","","","","","0","0","1","0.5384710229","","0.4","0.8","0.2","0.6","","","","","0.2381889698","0.5739960468","0.5120039273","0.5384710229","","","","","","","","","","76","L","3","","","225","main_expt",""
"","bandit","305","727409","0.0-267.0-0.0","95524357","wem/bandit_party_2","A3PN17H3QT51O","either","6","289","","","","","","","0","1","0","","0.5568413113","0.4","0.8","0.2","0.6","0.1429230379","0.6038380469","0.5568413113","0.5308581489","","","","","","","","","","","","","","75","K","2","","","226","main_expt",""
"","bandit","306","729187","0.0-268.0-0.0","95524357","wem/bandit_party_2","A3PN17H3QT51O","either","6","257","","","","","","","0","1","0","","0.5277183188","0.4","0.8","0.2","0.6","0.124100867","0.5203417309","0.5277183188","0.488482713","","","","","","","","","","","","","","75","K","2","","","227","main_expt",""
"","bandit","307","730842","0.0-269.0-0.0","95524357","wem/bandit_party_2","A3PN17H3QT51O","either","6","135","","","","","","","0","0","1","","0.5041270258","0.4","0.8","0.2","0.6","0.1762219884","0.4263922038","0.5041270258","0.4406219513","","","","","","","","","","","","","","75","K","2","","","228","main_expt",""
"","bandit","308","732608","0.0-270.0-0.0","95524357","wem/bandit_party_2","A3PN17H3QT51O","either","6","245","","","","","","","0","1","0","","0.4541369304","0.4","0.8","0.2","0.6","0.1910325121","0.3475105047","0.4541369304","0.4892119921","","","","","","","","","","","","","","75","K","2","","","229","main_expt",""
"","bandit","309","734348","0.0-271.0-0.0","95524357","wem/bandit_party_2","A3PN17H3QT51O","either","6","217","","","","","","","0","1","0","","0.4504381994","0.4","0.8","0.2","0.6","0.2571549068","0.3353007417","0.4504381994","0.5129573662","","","","","","","","","","","","","","75","K","2","","","230","main_expt",""
"","bandit","310","736081","0.0-272.0-0.0","95524357","wem/bandit_party_2","A3PN17H3QT51O","either","6","212","","","","","","","0","0","1","","0.4698668598","0.4","0.8","0.2","0.6","0.1781345747","0.2870546929","0.4698668598","0.4382888871","","","","","","","","","","","","","","75","K","2","","","231","main_expt",""
"","bandit","311","737712","0.0-273.0-0.0","95524357","wem/bandit_party_2","A3PN17H3QT51O","either","6","112","","","","","","","0","0","1","0.5460008395","","0.4","0.8","0.2","0.6","","","","","0.1748933913","0.3092655517","0.5460008395","0.42174841","","","","","","","","","","75","K","2","","","232","main_expt",""
"","bandit","312","739477","0.0-274.0-0.0","95524357","wem/bandit_party_2","A3PN17H3QT51O","either","6","240","","","","","","","1","0","0","0.4231157335","","0.4","0.8","0.2","0.6","","","","","0.2196371411","0.4231157335","0.5345299581","0.4297142637","","","","","","","","","","74","J","1","","","233","main_expt",""
"","bandit","313","741090","0.0-275.0-0.0","95524357","wem/bandit_party_2","A3PN17H3QT51O","either","6","91","","","","","","","1","0","0","0.5525929145","","0.4","0.8","0.2","0.6","","","","","0.2052749597","0.5525929145","0.508060833","0.3016140143","","","","","","","","","","74","J","1","","","234","main_expt",""
"","bandit","314","742691","0.0-276.0-0.0","95524357","wem/bandit_party_2","A3PN17H3QT51O","either","6","79","","","","","","","1","0","0","0.7239072418","","0.4","0.8","0.2","0.6","","","","","0.3158924645","0.7239072418","0.4956589368","0.2735586703","","","","","","","","","","74","J","1","","","235","main_expt",""
"","bandit","315","744284","0.0-277.0-0.0","95524357","wem/bandit_party_2","A3PN17H3QT51O","either","6","70","","","","","","","0","1","0","","0.8076920848","0.4","0.8","0.2","0.6","0.3668106878","0.8076920848","0.5514737959","0.2536827631","","","","","","","","","","","","","","74","J","1","","","236","main_expt",""
"","bandit","316","746060","0.0-278.0-0.0","95524357","wem/bandit_party_2","A3PN17H3QT51O","either","6","252","","","","","","","1","0","0","0.7703095863","","0.4","0.8","0.2","0.6","","","","","0.3866395083","0.7703095863","0.5183580196","0.2478783488","","","","","","","","","","74","J","1","","","237","main_expt",""
