"consent","trial_type","trial_index","time_elapsed","internal_node_id","subjID","study","MID","cond","drift","rt","responses","button_pressed","key_press","like","value","connected","gems","bombs","no_reward","GemPrChosen","BombPrChosen","GainOverPainPr_0","GainOverPainPr_1","GainOverPainPr_2","GainOverPainPr_3","LosePr_0","LosePr_1","LosePr_2","LosePr_3","WinPr_0","WinPr_1","WinPr_2","WinPr_3","Q0","Q1","Q2","gender","age","ethnicity","label","expt_phase","target","respCharCode","respKey","respChoiceNum","respChoice","practice","trial_counter","trial_label","Q0_index"
"GDM/GDM_behavioral_consent_30min_online.html","consent","0","28568","0.0-0.0","95984210","wem/bandit_party_2","A2ZPH76PDI9XIQ","either","8","","","","","","","","","","","","","","","","","","","","","","","","","","","","","","","","","","","","","","","","",""
"","survey-text","1","34537","0.0-1.0","95984210","wem/bandit_party_2","A2ZPH76PDI9XIQ","either","8","4965","{""Q0"":""A2ZPH76PDI9XIQ""}","","","","","","","","","","","","","","","","","","","","","","","","","","","","","","","","","","","","","","",""
"","button-response","2","37231","0.0-2.0","95984210","wem/bandit_party_2","A2ZPH76PDI9XIQ","either","8","1691","","0","","","","","","","","","","","","","","","","","","","","","","","","","","","","","","","","","","","","","",""
"","text-replacement","3","55585","0.0-3.0","95984210","wem/bandit_party_2","A2ZPH76PDI9XIQ","either","8","17350","","","32","","","","","","","","","","","","","","","","","","","","","","","","","","","","","","","","","","","","",""
"","text-replacement","4","68327","0.0-4.0","95984210","wem/bandit_party_2","A2ZPH76PDI9XIQ","either","8","12742","","","32","","","","","","","","","","","","","","","","","","","","","","","","","","","","","","","","","","","","",""
"","identification","5","88705","0.0-6.0-0.0","95984210","wem/bandit_party_2","A2ZPH76PDI9XIQ","either","8","20370","","","","4","3","2","","","","","","","","","","","","","","","","","","","","","","","","pre","identification_pre","the Republican Party","","","","","","","",""
"","identification","6","95279","0.0-6.0-1.0","95984210","wem/bandit_party_2","A2ZPH76PDI9XIQ","either","8","5568","","","","0","0","0","","","","","","","","","","","","","","","","","","","","","","","","pre","identification_pre","the Democratic Party","","","","","","","",""
"","text-replacement","7","109647","0.0-7.0","95984210","wem/bandit_party_2","A2ZPH76PDI9XIQ","either","8","13365","","","32","","","","","","","","","","","","","","","","","","","","","","","","","","","","","","","","","","","","",""
"","text-replacement","8","118489","0.0-8.0","95984210","wem/bandit_party_2","A2ZPH76PDI9XIQ","either","8","8841","","","32","","","","","","","","","","","","","","","","","","","","","","","","","","","","","","","","","","","","",""
"","text-replacement","9","127767","0.0-9.0","95984210","wem/bandit_party_2","A2ZPH76PDI9XIQ","either","8","9278","","","32","","","","","","","","","","","","","","","","","","","","","","","","","","","","","","","","","","","","",""
"","text-replacement","10","135862","0.0-10.0","95984210","wem/bandit_party_2","A2ZPH76PDI9XIQ","either","8","8094","","","32","","","","","","","","","","","","","","","","","","","","","","","","","","","","","","","","","","","","",""
"","text-replacement","11","141199","0.0-11.0","95984210","wem/bandit_party_2","A2ZPH76PDI9XIQ","either","8","5336","","","32","","","","","","","","","","","","","","","","","","","","","","","","","","","","","","","","","","","","",""
"","bandit","12","146822","0.0-12.0-0.0","95984210","wem/bandit_party_2","A2ZPH76PDI9XIQ","either","8","4117","","","","","","","0","0","1","0","0","","","","","0","","","","0","","","","","","","","","","","","","74","J","0","img/none_selected_demo.jpg","true","0","",""
"","bandit","13","149396","0.0-13.0-0.0","95984210","wem/bandit_party_2","A2ZPH76PDI9XIQ","either","8","1071","","","","","","","0","0","1","0","0","","","","","0","","","","0","","","","","","","","","","","","","75","K","0","img/none_selected_demo.jpg","true","0","",""
"","text-replacement","14","157247","0.0-14.0","95984210","wem/bandit_party_2","A2ZPH76PDI9XIQ","either","8","7849","","","32","","","","","","","","","","","","","","","","","","","","","","","","","","","","","","","","","","","","",""
"","text-replacement","15","164327","0.0-15.0","95984210","wem/bandit_party_2","A2ZPH76PDI9XIQ","either","8","7078","","","32","","","","","","","","","","","","","","","","","","","","","","","","","","","","","","","","","","","","",""
"","text-replacement","16","177639","0.0-16.0","95984210","wem/bandit_party_2","A2ZPH76PDI9XIQ","either","8","13311","","","32","","","","","","","","","","","","","","","","","","","","","","","","","","","","","","","","","","","","",""
"","text-replacement","17","199623","0.0-17.0","95984210","wem/bandit_party_2","A2ZPH76PDI9XIQ","either","8","21983","","","32","","","","","","","","","","","","","","","","","","","","","","","","","","","","","","","","","","","","",""
"","bandit","18","202156","0.0-18.0-0.0","95984210","wem/bandit_party_2","A2ZPH76PDI9XIQ","either","8","1030","","","","","","","1","0","0","0.8","","0.5","0.5","","","","","","","0.8","0.2","","","","","","","","","","","","74","J","0","img/none_selected_demo.jpg","true","0","80_20_practice",""
"","bandit","19","205213","0.0-18.0-1.0","95984210","wem/bandit_party_2","A2ZPH76PDI9XIQ","either","8","1554","","","","","","","0","0","1","0.2","","0.5","0.5","","","","","","","0.8","0.2","","","","","","","","","","","","75","K","1","","true","0","80_20_practice",""
"","bandit","20","207844","0.0-18.0-2.0","95984210","wem/bandit_party_2","A2ZPH76PDI9XIQ","either","8","1128","","","","","","","0","0","1","0.8","","0.5","0.5","","","","","","","0.8","0.2","","","","","","","","","","","","74","J","0","img/none_selected_demo.jpg","true","0","80_20_practice",""
"","bandit","21","209796","0.0-18.0-3.0","95984210","wem/bandit_party_2","A2ZPH76PDI9XIQ","either","8","449","","","","","","","0","0","1","","0.2","0.5","0.5","","","0.8","0.2","","","","","","","","","","","","","","","","75","K","1","","true","0","80_20_practice",""
"","bandit","22","211813","0.0-18.0-4.0","95984210","wem/bandit_party_2","A2ZPH76PDI9XIQ","either","8","513","","","","","","","0","0","1","0.8","","0.5","0.5","","","","","","","0.8","0.2","","","","","","","","","","","","74","J","0","img/none_selected_demo.jpg","true","0","80_20_practice",""
"","bandit","23","213662","0.0-18.0-5.0","95984210","wem/bandit_party_2","A2ZPH76PDI9XIQ","either","8","345","","","","","","","0","0","1","0.2","","0.5","0.5","","","","","","","0.8","0.2","","","","","","","","","","","","75","K","1","","true","0","80_20_practice",""
"","bandit","24","215436","0.0-18.0-6.0","95984210","wem/bandit_party_2","A2ZPH76PDI9XIQ","either","8","270","","","","","","","1","0","0","0.8","","0.5","0.5","","","","","","","0.8","0.2","","","","","","","","","","","","74","J","0","img/none_selected_demo.jpg","true","0","80_20_practice",""
"","bandit","25","217302","0.0-18.0-7.0","95984210","wem/bandit_party_2","A2ZPH76PDI9XIQ","either","8","363","","","","","","","0","0","1","0.2","","0.5","0.5","","","","","","","0.8","0.2","","","","","","","","","","","","75","K","1","","true","0","80_20_practice",""
"","bandit","26","219148","0.0-18.0-8.0","95984210","wem/bandit_party_2","A2ZPH76PDI9XIQ","either","8","343","","","","","","","0","1","0","","0.8","0.5","0.5","","","0.8","0.2","","","","","","","","","","","","","","","","74","J","0","img/none_selected_demo.jpg","true","0","80_20_practice",""
"","bandit","27","220972","0.0-18.0-9.0","95984210","wem/bandit_party_2","A2ZPH76PDI9XIQ","either","8","321","","","","","","","0","0","1","0.2","","0.5","0.5","","","","","","","0.8","0.2","","","","","","","","","","","","75","K","1","","true","0","80_20_practice",""
"","bandit","28","223268","0.0-18.0-10.0","95984210","wem/bandit_party_2","A2ZPH76PDI9XIQ","either","8","793","","","","","","","0","0","1","0.8","","0.5","0.5","","","","","","","0.8","0.2","","","","","","","","","","","","74","J","0","img/none_selected_demo.jpg","true","0","80_20_practice",""
"","bandit","29","225125","0.0-18.0-11.0","95984210","wem/bandit_party_2","A2ZPH76PDI9XIQ","either","8","353","","","","","","","0","1","0","","0.2","0.5","0.5","","","0.8","0.2","","","","","","","","","","","","","","","","75","K","1","","true","0","80_20_practice",""
"","bandit","30","227037","0.0-18.0-12.0","95984210","wem/bandit_party_2","A2ZPH76PDI9XIQ","either","8","408","","","","","","","0","1","0","","0.8","0.5","0.5","","","0.8","0.2","","","","","","","","","","","","","","","","74","J","0","img/none_selected_demo.jpg","true","0","80_20_practice",""
"","bandit","31","228829","0.0-18.0-13.0","95984210","wem/bandit_party_2","A2ZPH76PDI9XIQ","either","8","289","","","","","","","0","0","1","0.2","","0.5","0.5","","","","","","","0.8","0.2","","","","","","","","","","","","75","K","1","","true","0","80_20_practice",""
"","bandit","32","230628","0.0-18.0-14.0","95984210","wem/bandit_party_2","A2ZPH76PDI9XIQ","either","8","295","","","","","","","1","0","0","0.8","","0.5","0.5","","","","","","","0.8","0.2","","","","","","","","","","","","74","J","0","img/none_selected_demo.jpg","true","0","80_20_practice",""
"","bandit","33","232460","0.0-18.0-15.0","95984210","wem/bandit_party_2","A2ZPH76PDI9XIQ","either","8","328","","","","","","","0","0","1","","0.2","0.5","0.5","","","0.8","0.2","","","","","","","","","","","","","","","","75","K","1","","true","0","80_20_practice",""
"","bandit","34","234220","0.0-18.0-16.0","95984210","wem/bandit_party_2","A2ZPH76PDI9XIQ","either","8","257","","","","","","","0","1","0","","0.8","0.5","0.5","","","0.8","0.2","","","","","","","","","","","","","","","","74","J","0","img/none_selected_demo.jpg","true","0","80_20_practice",""
"","bandit","35","235989","0.0-18.0-17.0","95984210","wem/bandit_party_2","A2ZPH76PDI9XIQ","either","8","265","","","","","","","1","0","0","0.2","","0.5","0.5","","","","","","","0.8","0.2","","","","","","","","","","","","75","K","1","","true","0","80_20_practice",""
"","bandit","36","237816","0.0-18.0-18.0","95984210","wem/bandit_party_2","A2ZPH76PDI9XIQ","either","8","323","","","","","","","0","0","1","","0.8","0.5","0.5","","","0.8","0.2","","","","","","","","","","","","","","","","74","J","0","img/none_selected_demo.jpg","true","0","80_20_practice",""
"","bandit","37","239596","0.0-18.0-19.0","95984210","wem/bandit_party_2","A2ZPH76PDI9XIQ","either","8","277","","","","","","","0","0","1","","0.2","0.5","0.5","","","0.8","0.2","","","","","","","","","","","","","","","","75","K","1","","true","0","80_20_practice",""
"","text-replacement","38","243767","0.0-19.0","95984210","wem/bandit_party_2","A2ZPH76PDI9XIQ","either","8","4169","","","32","","","","","","","","","","","","","","","","","","","","","","","","","","","","","","","","","","","","",""
"","bandit","39","245846","0.0-20.0-0.0","95984210","wem/bandit_party_2","A2ZPH76PDI9XIQ","either","8","575","","","","","","","1","0","0","1","0","","","","","0","1","","","1","0","","","","","","","","","","","","74","J","0","img/none_selected_demo.jpg","true","0","",""
"","text-replacement","40","254671","0.0-21.0","95984210","wem/bandit_party_2","A2ZPH76PDI9XIQ","either","8","8824","","","32","","","","","","","","","","","","","","","","","","","","","","","","","","","","","","","","","","","","",""
"","text-replacement","41","259446","0.0-22.0","95984210","wem/bandit_party_2","A2ZPH76PDI9XIQ","either","8","4774","","","32","","","","","","","","","","","","","","","","","","","","","","","","","","","","","","","","","","","","",""
"","text-replacement","42","263231","0.0-23.0","95984210","wem/bandit_party_2","A2ZPH76PDI9XIQ","either","8","3783","","","32","","","","","","","","","","","","","","","","","","","","","","","","","","","","","","","","","","","","",""
"","text-replacement","43","270233","0.0-24.0","95984210","wem/bandit_party_2","A2ZPH76PDI9XIQ","either","8","7002","","","32","","","","","","","","","","","","","","","","","","","","","","","","","","","","","","","","","","","","",""
"","text-replacement","44","283577","0.0-25.0","95984210","wem/bandit_party_2","A2ZPH76PDI9XIQ","either","8","13343","","","32","","","","","","","","","","","","","","","","","","","","","","","","","","","","","","","","","","","","",""
"","text-replacement","45","288871","0.0-26.0","95984210","wem/bandit_party_2","A2ZPH76PDI9XIQ","either","8","5292","","","32","","","","","","","","","","","","","","","","","","","","","","","","","","","","","","","","","","","","",""
"","text-replacement","46","296383","0.0-27.0","95984210","wem/bandit_party_2","A2ZPH76PDI9XIQ","either","8","7512","","","32","","","","","","","","","","","","","","","","","","","","","","","","","","","","","","","","","","","","",""
"","text-replacement","47","301104","0.0-28.0","95984210","wem/bandit_party_2","A2ZPH76PDI9XIQ","either","8","4719","","","32","","","","","","","","","","","","","","","","","","","","","","","","","","","","","","","","","","","","",""
"","text-replacement","48","308832","0.0-29.0","95984210","wem/bandit_party_2","A2ZPH76PDI9XIQ","either","8","7727","","","32","","","","","","","","","","","","","","","","","","","","","","","","","","","","","","","","","","","","",""
"","text-replacement","49","311934","0.0-30.0","95984210","wem/bandit_party_2","A2ZPH76PDI9XIQ","either","8","3101","","","32","","","","","","","","","","","","","","","","","","","","","","","","","","","","","","","","","","","","",""
"","text-replacement","50","313582","0.0-31.0","95984210","wem/bandit_party_2","A2ZPH76PDI9XIQ","either","8","1647","","","32","","","","","","","","","","","","","","","","","","","","","","","","","","","","","","","","","","","","",""
"","bandit","51","316564","0.0-32.0-0.0","95984210","wem/bandit_party_2","A2ZPH76PDI9XIQ","either","8","1478","","","","","","","1","0","0","0.8","","0.5","0.5","0.5","0.5","","","","","0.8","0.2","0.6","0.2","","","","","","","","","","72","H","0","img/none_selected.jpg","true","0","full_practice",""
"","bandit","52","318493","0.0-32.0-1.0","95984210","wem/bandit_party_2","A2ZPH76PDI9XIQ","either","8","424","","","","","","","0","0","1","","0.2","0.5","0.5","0.5","0.5","0.8","0.2","0.6","0.2","","","","","","","","","","","","","","74","J","1","","true","0","full_practice",""
"","bandit","53","320285","0.0-32.0-2.0","95984210","wem/bandit_party_2","A2ZPH76PDI9XIQ","either","8","289","","","","","","","0","1","0","","0.6","0.5","0.5","0.5","0.5","0.8","0.2","0.6","0.2","","","","","","","","","","","","","","75","K","2","","true","0","full_practice",""
"","bandit","54","322262","0.0-32.0-3.0","95984210","wem/bandit_party_2","A2ZPH76PDI9XIQ","either","8","473","","","","","","","0","0","1","0.2","","0.5","0.5","0.5","0.5","","","","","0.8","0.2","0.6","0.2","","","","","","","","","","76","L","3","","true","0","full_practice",""
"","bandit","55","325062","0.0-32.0-4.0","95984210","wem/bandit_party_2","A2ZPH76PDI9XIQ","either","8","1297","","","","","","","0","1","0","","0.8","0.5","0.5","0.5","0.5","0.8","0.2","0.6","0.2","","","","","","","","","","","","","","72","H","0","img/none_selected.jpg","true","0","full_practice",""
"","bandit","56","327141","0.0-32.0-5.0","95984210","wem/bandit_party_2","A2ZPH76PDI9XIQ","either","8","575","","","","","","","0","0","1","","0.2","0.5","0.5","0.5","0.5","0.8","0.2","0.6","0.2","","","","","","","","","","","","","","74","J","1","","true","0","full_practice",""
"","bandit","57","328908","0.0-32.0-6.0","95984210","wem/bandit_party_2","A2ZPH76PDI9XIQ","either","8","263","","","","","","","1","0","0","0.6","","0.5","0.5","0.5","0.5","","","","","0.8","0.2","0.6","0.2","","","","","","","","","","75","K","2","","true","0","full_practice",""
"","bandit","58","330844","0.0-32.0-7.0","95984210","wem/bandit_party_2","A2ZPH76PDI9XIQ","either","8","433","","","","","","","0","0","1","0.2","","0.5","0.5","0.5","0.5","","","","","0.8","0.2","0.6","0.2","","","","","","","","","","76","L","3","","true","0","full_practice",""
"","bandit","59","333565","0.0-32.0-8.0","95984210","wem/bandit_party_2","A2ZPH76PDI9XIQ","either","8","1218","","","","","","","0","1","0","","0.8","0.5","0.5","0.5","0.5","0.8","0.2","0.6","0.2","","","","","","","","","","","","","","72","H","0","img/none_selected.jpg","true","0","full_practice",""
"","bandit","60","335548","0.0-32.0-9.0","95984210","wem/bandit_party_2","A2ZPH76PDI9XIQ","either","8","479","","","","","","","0","0","1","","0.2","0.5","0.5","0.5","0.5","0.8","0.2","0.6","0.2","","","","","","","","","","","","","","74","J","1","","true","0","full_practice",""
"","bandit","61","337404","0.0-32.0-10.0","95984210","wem/bandit_party_2","A2ZPH76PDI9XIQ","either","8","352","","","","","","","0","1","0","","0.6","0.5","0.5","0.5","0.5","0.8","0.2","0.6","0.2","","","","","","","","","","","","","","75","K","2","","true","0","full_practice",""
"","bandit","62","339285","0.0-32.0-11.0","95984210","wem/bandit_party_2","A2ZPH76PDI9XIQ","either","8","376","","","","","","","0","0","1","","0.2","0.5","0.5","0.5","0.5","0.8","0.2","0.6","0.2","","","","","","","","","","","","","","76","L","3","","true","0","full_practice",""
"","bandit","63","341236","0.0-32.0-12.0","95984210","wem/bandit_party_2","A2ZPH76PDI9XIQ","either","8","448","","","","","","","0","1","0","","0.8","0.5","0.5","0.5","0.5","0.8","0.2","0.6","0.2","","","","","","","","","","","","","","72","H","0","img/none_selected.jpg","true","0","full_practice",""
"","bandit","64","343060","0.0-32.0-13.0","95984210","wem/bandit_party_2","A2ZPH76PDI9XIQ","either","8","320","","","","","","","0","0","1","0.2","","0.5","0.5","0.5","0.5","","","","","0.8","0.2","0.6","0.2","","","","","","","","","","74","J","1","","true","0","full_practice",""
"","bandit","65","344973","0.0-32.0-14.0","95984210","wem/bandit_party_2","A2ZPH76PDI9XIQ","either","8","409","","","","","","","0","1","0","","0.6","0.5","0.5","0.5","0.5","0.8","0.2","0.6","0.2","","","","","","","","","","","","","","75","K","2","","true","0","full_practice",""
"","bandit","66","346884","0.0-32.0-15.0","95984210","wem/bandit_party_2","A2ZPH76PDI9XIQ","either","8","408","","","","","","","0","0","1","0.2","","0.5","0.5","0.5","0.5","","","","","0.8","0.2","0.6","0.2","","","","","","","","","","76","L","3","","true","0","full_practice",""
"","bandit","67","349621","0.0-32.0-16.0","95984210","wem/bandit_party_2","A2ZPH76PDI9XIQ","either","8","1233","","","","","","","1","0","0","0.8","","0.5","0.5","0.5","0.5","","","","","0.8","0.2","0.6","0.2","","","","","","","","","","72","H","0","img/none_selected.jpg","true","0","full_practice",""
"","bandit","68","351516","0.0-32.0-17.0","95984210","wem/bandit_party_2","A2ZPH76PDI9XIQ","either","8","391","","","","","","","0","0","1","","0.2","0.5","0.5","0.5","0.5","0.8","0.2","0.6","0.2","","","","","","","","","","","","","","74","J","1","","true","0","full_practice",""
"","bandit","69","353452","0.0-32.0-18.0","95984210","wem/bandit_party_2","A2ZPH76PDI9XIQ","either","8","433","","","","","","","0","0","1","0.6","","0.5","0.5","0.5","0.5","","","","","0.8","0.2","0.6","0.2","","","","","","","","","","75","K","2","","true","0","full_practice",""
"","bandit","70","355301","0.0-32.0-19.0","95984210","wem/bandit_party_2","A2ZPH76PDI9XIQ","either","8","346","","","","","","","0","0","1","0.2","","0.5","0.5","0.5","0.5","","","","","0.8","0.2","0.6","0.2","","","","","","","","","","76","L","3","","true","0","full_practice",""
"","text","71","359295","0.0-33.0","95984210","wem/bandit_party_2","A2ZPH76PDI9XIQ","either","8","3988","","","32","","","","","","","","","","","","","","","","","","","","","","","","","","","","","","","","","","","","",""
"","text-replacement","72","375919","0.0-34.0","95984210","wem/bandit_party_2","A2ZPH76PDI9XIQ","either","8","15622","","","32","","","","","","","","","","","","","","","","","","","","","","","","","","","","","","","","","","","","",""
"","text-replacement","73","391621","0.0-35.0","95984210","wem/bandit_party_2","A2ZPH76PDI9XIQ","either","8","15700","","","32","","","","","","","","","","","","","","","","","","","","","","","","","","","","","","","","","","","","",""
"","text-replacement","74","397253","0.0-36.0","95984210","wem/bandit_party_2","A2ZPH76PDI9XIQ","either","8","5631","","","32","","","","","","","","","","","","","","","","","","","","","","","","","","","","","","","","","","","","",""
"","text-replacement","75","407286","0.0-37.0","95984210","wem/bandit_party_2","A2ZPH76PDI9XIQ","either","8","10031","","","32","","","","","","","","","","","","","","","","","","","","","","","","","","","","","","","","","","","","",""
"","text-replacement","76","410912","0.0-38.0","95984210","wem/bandit_party_2","A2ZPH76PDI9XIQ","either","8","3624","","","32","","","","","","","","","","","","","","","","","","","","","","","","","","","","","","","","","","","","",""
"","survey-multi-choice-replacement","77","427481","0.0-39.0-0.0","95984210","wem/bandit_party_2","A2ZPH76PDI9XIQ","either","8","16565","","","","","","","","","","","","","","","","","","","","","","","","Money will be added to the pool for <span style='color:red;'>REPUBLICANS</span>","","","","","","","attn_check","","","","","","","","","0"
"","survey-multi-choice-replacement","78","435750","0.0-40.0-0.0","95984210","wem/bandit_party_2","A2ZPH76PDI9XIQ","either","8","7263","","","","","","","","","","","","","","","","","","","","","","","","Equal amounts of money will be added to the pool for <span style='color:red;'>REPUBLICANS</span> and subtracted from the pool for <span style='color:blue;'>DEMOCRATS</span>","","","","","","","attn_check","","","","","","","","","2"
"","survey-multi-choice-replacement","79","439046","0.0-41.0-0.0","95984210","wem/bandit_party_2","A2ZPH76PDI9XIQ","either","8","2291","","","","","","","","","","","","","","","","","","","","","","","","No money will be added to either pool","","","","","","","attn_check","","","","","","","","","3"
"","bandit","80","443636","0.0-42.0-0.0","95984210","wem/bandit_party_2","A2ZPH76PDI9XIQ","either","8","2083","","","","","","","0","0","1","","0.4468950172","0.2","0.6","0.8","0.4","0.4468950172","0.2428949588","0.3040937467","0.6337563202","","","","","","","","","","","","","","72","H","0","img/none_selected.jpg","","1","main_expt",""
"","bandit","81","445610","0.0-43.0-0.0","95984210","wem/bandit_party_2","A2ZPH76PDI9XIQ","either","8","471","","","","","","","0","0","1","0.248961424","","0.2","0.6","0.8","0.4","","","","","0.3846124694","0.248961424","0.2687625136","0.7380673114","","","","","","","","","","74","J","1","","","2","main_expt",""
"","bandit","82","447972","0.0-44.0-0.0","95984210","wem/bandit_party_2","A2ZPH76PDI9XIQ","either","8","858","","","","","","","0","0","1","0.3017919557","","0.2","0.6","0.8","0.4","","","","","0.3885967974","0.1878604038","0.3017919557","0.7715549737","","","","","","","","","","75","K","2","","","3","main_expt",""
"","bandit","83","449818","0.0-45.0-0.0","95984210","wem/bandit_party_2","A2ZPH76PDI9XIQ","either","8","343","","","","","","","1","0","0","0.8257013646","","0.2","0.6","0.8","0.4","","","","","0.2891644394","0.1194049449","0.3388517529","0.8257013646","","","","","","","","","","76","L","3","","","4","main_expt",""
"","bandit","84","451726","0.0-46.0-0.0","95984210","wem/bandit_party_2","A2ZPH76PDI9XIQ","either","8","392","","","","","","","0","0","1","","0.2654579937","0.2","0.6","0.8","0.4","0.2654579937","0.197046458","0.389096829","0.8617886559","","","","","","","","","","","","","","72","H","0","img/none_selected.jpg","","5","main_expt",""
"","bandit","85","453510","0.0-47.0-0.0","95984210","wem/bandit_party_2","A2ZPH76PDI9XIQ","either","8","280","","","","","","","0","0","1","","0.2312720201","0.2","0.6","0.8","0.4","0.355160999","0.2312720201","0.4799636182","0.8452125903","","","","","","","","","","","","","","74","J","1","","","6","main_expt",""
"","bandit","86","455406","0.0-48.0-0.0","95984210","wem/bandit_party_2","A2ZPH76PDI9XIQ","either","8","392","","","","","","","0","0","1","0.5316557606","","0.2","0.6","0.8","0.4","","","","","0.4733904832","0.3255591742","0.5316557606","0.8765288384","","","","","","","","","","75","K","2","","","7","main_expt",""
"","bandit","87","457302","0.0-49.0-0.0","95984210","wem/bandit_party_2","A2ZPH76PDI9XIQ","either","8","392","","","","","","","0","1","0","","0.8625068071","0.2","0.6","0.8","0.4","0.4900136729","0.163151729","0.4935712437","0.8625068071","","","","","","","","","","","","","","76","L","3","","","8","main_expt",""
"","bandit","88","459127","0.0-50.0-0.0","95984210","wem/bandit_party_2","A2ZPH76PDI9XIQ","either","8","321","","","","","","","0","1","0","","0.8385781597","0.2","0.6","0.8","0.4","0.4543552171","0.1671639775","0.5400450001","0.8385781597","","","","","","","","","","","","","","76","L","3","","","9","main_expt",""
"","bandit","89","460984","0.0-51.0-0.0","95984210","wem/bandit_party_2","A2ZPH76PDI9XIQ","either","8","350","","","","","","","1","0","0","0.833356221","","0.2","0.6","0.8","0.4","","","","","0.4523920981","0.1315225434","0.6510952772","0.833356221","","","","","","","","","","76","L","3","","","10","main_expt",""
"","bandit","90","462942","0.0-52.0-0.0","95984210","wem/bandit_party_2","A2ZPH76PDI9XIQ","either","8","455","","","","","","","0","1","0","","0.9030756702","0.2","0.6","0.8","0.4","0.4053083118","0.1287002637","0.6117649901","0.9030756702","","","","","","","","","","","","","","76","L","3","","","11","main_expt",""
"","bandit","91","464814","0.0-53.0-0.0","95984210","wem/bandit_party_2","A2ZPH76PDI9XIQ","either","8","368","","","","","","","1","0","0","0.9129290363","","0.2","0.6","0.8","0.4","","","","","0.4059907931","0.1026596936","0.6360746298","0.9129290363","","","","","","","","","","76","L","3","","","12","main_expt",""
"","bandit","92","466646","0.0-54.0-0.0","95984210","wem/bandit_party_2","A2ZPH76PDI9XIQ","either","8","328","","","","","","","0","1","0","","0.8638417716","0.2","0.6","0.8","0.4","0.2934167972","0.1287514256","0.5673960652","0.8638417716","","","","","","","","","","","","","","76","L","3","","","13","main_expt",""
"","bandit","93","468511","0.0-55.0-0.0","95984210","wem/bandit_party_2","A2ZPH76PDI9XIQ","either","8","361","","","","","","","0","0","1","","0.787806988","0.2","0.6","0.8","0.4","0.3260927596","0.1786171179","0.6747725803","0.787806988","","","","","","","","","","","","","","76","L","3","","","14","main_expt",""
"","bandit","94","470791","0.0-56.0-0.0","95984210","wem/bandit_party_2","A2ZPH76PDI9XIQ","either","8","775","","","","","","","1","0","0","0.6277188345","","0.2","0.6","0.8","0.4","","","","","0.3355382734","0.1459410532","0.6277188345","0.7254212376","","","","","","","","","","75","K","2","","","15","main_expt",""
"","bandit","95","472742","0.0-57.0-0.0","95984210","wem/bandit_party_2","A2ZPH76PDI9XIQ","either","8","447","","","","","","","0","0","1","0.5435568235","","0.2","0.6","0.8","0.4","","","","","0.3040928121","0.2255600906","0.5435568235","0.7238415528","","","","","","","","","","75","K","2","","","16","main_expt",""
"","bandit","96","474515","0.0-58.0-0.0","95984210","wem/bandit_party_2","A2ZPH76PDI9XIQ","either","8","268","","","","","","","0","1","0","","0.7796243455","0.2","0.6","0.8","0.4","0.2730366263","0.2052013943","0.4180161478","0.7796243455","","","","","","","","","","","","","","76","L","3","","","17","main_expt",""
"","bandit","97","476542","0.0-59.0-0.0","95984210","wem/bandit_party_2","A2ZPH76PDI9XIQ","either","8","524","","","","","","","0","1","0","","0.6928902724","0.2","0.6","0.8","0.4","0.4105298721","0.1780354615","0.4961111773","0.6928902724","","","","","","","","","","","","","","76","L","3","","","18","main_expt",""
"","bandit","98","478486","0.0-60.0-0.0","95984210","wem/bandit_party_2","A2ZPH76PDI9XIQ","either","8","440","","","","","","","0","0","1","","0.7658630901","0.2","0.6","0.8","0.4","0.3586923344","0.1576496117","0.445530788","0.7658630901","","","","","","","","","","","","","","76","L","3","","","19","main_expt",""
"","bandit","99","480382","0.0-61.0-0.0","95984210","wem/bandit_party_2","A2ZPH76PDI9XIQ","either","8","392","","","","","","","0","1","0","","0.7584200513","0.2","0.6","0.8","0.4","0.3220075653","0.1618752313","0.3443163705","0.7584200513","","","","","","","","","","","","","","76","L","3","","","20","main_expt",""
"","bandit","100","482207","0.0-62.0-0.0","95984210","wem/bandit_party_2","A2ZPH76PDI9XIQ","either","8","321","","","","","","","1","0","0","0.7727038765","","0.2","0.6","0.8","0.4","","","","","0.2729660799","0.2152187387","0.3012808647","0.7727038765","","","","","","","","","","76","L","3","","","21","main_expt",""
"","bandit","101","484022","0.0-63.0-0.0","95984210","wem/bandit_party_2","A2ZPH76PDI9XIQ","either","8","311","","","","","","","1","0","0","0.8152565923","","0.2","0.6","0.8","0.4","","","","","0.2712352107","0.3547982299","0.2882062485","0.8152565923","","","","","","","","","","76","L","3","","","22","main_expt",""
"","bandit","102","485766","0.0-64.0-0.0","95984210","wem/bandit_party_2","A2ZPH76PDI9XIQ","either","8","240","","","","","","","1","0","0","0.7537075358","","0.2","0.6","0.8","0.4","","","","","0.3390855774","0.323805638","0.2113421372","0.7537075358","","","","","","","","","","76","L","3","","","23","main_expt",""
"","bandit","103","487574","0.0-65.0-0.0","95984210","wem/bandit_party_2","A2ZPH76PDI9XIQ","either","8","303","","","","","","","0","1","0","","0.7108822858","0.2","0.6","0.8","0.4","0.3483259141","0.3588909826","0.2201805416","0.7108822858","","","","","","","","","","","","","","76","L","3","","","24","main_expt",""
"","bandit","104","489351","0.0-66.0-0.0","95984210","wem/bandit_party_2","A2ZPH76PDI9XIQ","either","8","272","","","","","","","0","1","0","","0.6930515954","0.2","0.6","0.8","0.4","0.3416976173","0.3885553436","0.2580956466","0.6930515954","","","","","","","","","","","","","","76","L","3","","","25","main_expt",""
"","bandit","105","491118","0.0-67.0-0.0","95984210","wem/bandit_party_2","A2ZPH76PDI9XIQ","either","8","263","","","","","","","0","0","1","","0.6905393417","0.2","0.6","0.8","0.4","0.4243476322","0.4871556374","0.2153432854","0.6905393417","","","","","","","","","","","","","","76","L","3","","","26","main_expt",""
"","bandit","106","492903","0.0-68.0-0.0","95984210","wem/bandit_party_2","A2ZPH76PDI9XIQ","either","8","281","","","","","","","1","0","0","0.7531652131","","0.2","0.6","0.8","0.4","","","","","0.5257754898","0.4934119911","0.1727955236","0.7531652131","","","","","","","","","","76","L","3","","","27","main_expt",""
"","bandit","107","494671","0.0-69.0-0.0","95984210","wem/bandit_party_2","A2ZPH76PDI9XIQ","either","8","263","","","","","","","1","0","0","0.8001777041","","0.2","0.6","0.8","0.4","","","","","0.5246232361","0.4322092846","0.1894296703","0.8001777041","","","","","","","","","","76","L","3","","","28","main_expt",""
"","bandit","108","496526","0.0-70.0-0.0","95984210","wem/bandit_party_2","A2ZPH76PDI9XIQ","either","8","351","","","","","","","0","1","0","","0.8118404327","0.2","0.6","0.8","0.4","0.375994784","0.3459113699","0.2128919211","0.8118404327","","","","","","","","","","","","","","76","L","3","","","29","main_expt",""
"","bandit","109","498326","0.0-71.0-0.0","95984210","wem/bandit_party_2","A2ZPH76PDI9XIQ","either","8","296","","","","","","","0","0","1","","0.7839534503","0.2","0.6","0.8","0.4","0.2936890161","0.280789843","0.206056468","0.7839534503","","","","","","","","","","","","","","76","L","3","","","30","main_expt",""
"","bandit","110","500166","0.0-72.0-0.0","95984210","wem/bandit_party_2","A2ZPH76PDI9XIQ","either","8","336","","","","","","","1","0","0","0.8066372971","","0.2","0.6","0.8","0.4","","","","","0.2878812258","0.2613810438","0.1725623241","0.8066372971","","","","","","","","","","76","L","3","","","31","main_expt",""
"","bandit","111","501953","0.0-73.0-0.0","95984210","wem/bandit_party_2","A2ZPH76PDI9XIQ","either","8","283","","","","","","","0","1","0","","0.8049259064","0.2","0.6","0.8","0.4","0.2451492808","0.3821585683","0.1629883914","0.8049259064","","","","","","","","","","","","","","76","L","3","","","32","main_expt",""
"","bandit","112","503759","0.0-74.0-0.0","95984210","wem/bandit_party_2","A2ZPH76PDI9XIQ","either","8","302","","","","","","","0","0","1","","0.7891664673","0.2","0.6","0.8","0.4","0.2802113289","0.2714925976","0.2107911223","0.7891664673","","","","","","","","","","","","","","76","L","3","","","33","main_expt",""
"","bandit","113","505478","0.0-75.0-0.0","95984210","wem/bandit_party_2","A2ZPH76PDI9XIQ","either","8","215","","","","","","","1","0","0","0.7854278051","","0.2","0.6","0.8","0.4","","","","","0.2892342718","0.2755575364","0.1025901997","0.7854278051","","","","","","","","","","76","L","3","","","34","main_expt",""
"","bandit","114","507246","0.0-76.0-0.0","95984210","wem/bandit_party_2","A2ZPH76PDI9XIQ","either","8","263","","","","","","","0","1","0","","0.7260182018","0.2","0.6","0.8","0.4","0.2486893666","0.2697856654","0.1289879153","0.7260182018","","","","","","","","","","","","","","76","L","3","","","35","main_expt",""
"","bandit","115","509032","0.0-77.0-0.0","95984210","wem/bandit_party_2","A2ZPH76PDI9XIQ","either","8","282","","","","","","","0","0","1","","0.7910957192","0.2","0.6","0.8","0.4","0.3536408983","0.2483646443","0.1645491317","0.7910957192","","","","","","","","","","","","","","76","L","3","","","36","main_expt",""
"","bandit","116","510782","0.0-78.0-0.0","95984210","wem/bandit_party_2","A2ZPH76PDI9XIQ","either","8","246","","","","","","","0","1","0","","0.7996551039","0.2","0.6","0.8","0.4","0.2493566902","0.2103950957","0.1698046746","0.7996551039","","","","","","","","","","","","","","76","L","3","","","37","main_expt",""
"","bandit","117","512595","0.0-79.0-0.0","95984210","wem/bandit_party_2","A2ZPH76PDI9XIQ","either","8","296","","","","","","","1","0","0","0.6717479894","","0.2","0.6","0.8","0.4","","","","","0.2948354516","0.2128944509","0.2281502886","0.6717479894","","","","","","","","","","76","L","3","","","38","main_expt",""
"","bandit","118","514362","0.0-80.0-0.0","95984210","wem/bandit_party_2","A2ZPH76PDI9XIQ","either","8","263","","","","","","","1","0","0","0.7121128808","","0.2","0.6","0.8","0.4","","","","","0.3373274679","0.2965153327","0.1561271762","0.7121128808","","","","","","","","","","76","L","3","","","39","main_expt",""
"","bandit","119","516187","0.0-81.0-0.0","95984210","wem/bandit_party_2","A2ZPH76PDI9XIQ","either","8","319","","","","","","","1","0","0","0.7157410044","","0.2","0.6","0.8","0.4","","","","","0.4138768052","0.4447532253","0.1543620621","0.7157410044","","","","","","","","","","76","L","3","","","40","main_expt",""
"","bandit","120","517994","0.0-82.0-0.0","95984210","wem/bandit_party_2","A2ZPH76PDI9XIQ","either","8","303","","","","","","","0","0","1","","0.681196038","0.2","0.6","0.8","0.4","0.438096834","0.5330008696","0.2271499981","0.681196038","","","","","","","","","","","","","","76","L","3","","","41","main_expt",""
"","bandit","121","519754","0.0-83.0-0.0","95984210","wem/bandit_party_2","A2ZPH76PDI9XIQ","either","8","256","","","","","","","1","0","0","0.6504320647","","0.2","0.6","0.8","0.4","","","","","0.4185173612","0.573861049","0.2882452936","0.6504320647","","","","","","","","","","76","L","3","","","42","main_expt",""
"","bandit","122","521562","0.0-84.0-0.0","95984210","wem/bandit_party_2","A2ZPH76PDI9XIQ","either","8","304","","","","","","","0","0","1","","0.7369830744","0.2","0.6","0.8","0.4","0.3796335567","0.6654349765","0.298522686","0.7369830744","","","","","","","","","","","","","","76","L","3","","","43","main_expt",""
"","bandit","123","523362","0.0-85.0-0.0","95984210","wem/bandit_party_2","A2ZPH76PDI9XIQ","either","8","295","","","","","","","0","1","0","","0.6797935378","0.2","0.6","0.8","0.4","0.31766129","0.691198465","0.3188886026","0.6797935378","","","","","","","","","","","","","","76","L","3","","","44","main_expt",""
"","bandit","124","525859","0.0-86.0-0.0","95984210","wem/bandit_party_2","A2ZPH76PDI9XIQ","either","8","992","","","","","","","0","0","1","0.6507473666","","0.2","0.6","0.8","0.4","","","","","0.4047397141","0.7652674903","0.2705760174","0.6507473666","","","","","","","","","","76","L","3","","","45","main_expt",""
"","bandit","125","528634","0.0-87.0-0.0","95984210","wem/bandit_party_2","A2ZPH76PDI9XIQ","either","8","1271","","","","","","","1","0","0","0.6334510787","","0.2","0.6","0.8","0.4","","","","","0.4961613307","0.8065230058","0.2506880939","0.6334510787","","","","","","","","","","76","L","3","","","46","main_expt",""
"","bandit","126","530675","0.0-88.0-0.0","95984210","wem/bandit_party_2","A2ZPH76PDI9XIQ","either","8","536","","","","","","","0","0","1","","0.6143175143","0.2","0.6","0.8","0.4","0.4624468315","0.7774474893","0.2491585872","0.6143175143","","","","","","","","","","","","","","76","L","3","","","47","main_expt",""
"","bandit","127","532651","0.0-89.0-0.0","95984210","wem/bandit_party_2","A2ZPH76PDI9XIQ","either","8","472","","","","","","","0","0","1","0.1997021219","","0.2","0.6","0.8","0.4","","","","","0.4886537242","0.7693176975","0.1997021219","0.6404512611","","","","","","","","","","75","K","2","","","48","main_expt",""
"","bandit","128","534411","0.0-90.0-0.0","95984210","wem/bandit_party_2","A2ZPH76PDI9XIQ","either","8","256","","","","","","","1","0","0","0.807419373","","0.2","0.6","0.8","0.4","","","","","0.4270302022","0.807419373","0.2119577724","0.6758621215","","","","","","","","","","74","J","1","","","49","main_expt",""
"","bandit","129","536394","0.0-91.0-0.0","95984210","wem/bandit_party_2","A2ZPH76PDI9XIQ","either","8","479","","","","","","","1","0","0","0.8562769227","","0.2","0.6","0.8","0.4","","","","","0.5151345658","0.8562769227","0.2615271711","0.6873234502","","","","","","","","","","74","J","1","","","50","main_expt",""
"","bandit","130","538186","0.0-92.0-0.0","95984210","wem/bandit_party_2","A2ZPH76PDI9XIQ","either","8","288","","","","","","","1","0","0","0.8705114925","","0.2","0.6","0.8","0.4","","","","","0.5134524181","0.8705114925","0.2764427577","0.7776044395","","","","","","","","","","74","J","1","","","51","main_expt",""
"","bandit","131","540171","0.0-93.0-0.0","95984210","wem/bandit_party_2","A2ZPH76PDI9XIQ","either","8","479","","","","","","","1","0","0","0.9310361031","","0.2","0.6","0.8","0.4","","","","","0.4842684999","0.9310361031","0.3833776697","0.8403410939","","","","","","","","","","74","J","1","","","52","main_expt",""
"","bandit","132","542314","0.0-94.0-0.0","95984210","wem/bandit_party_2","A2ZPH76PDI9XIQ","either","8","639","","","","","","","1","0","0","0.905794742","","0.2","0.6","0.8","0.4","","","","","0.4412850773","0.905794742","0.4356502318","0.8151983534","","","","","","","","","","74","J","1","","","53","main_expt",""
"","bandit","133","544354","0.0-95.0-0.0","95984210","wem/bandit_party_2","A2ZPH76PDI9XIQ","either","8","535","","","","","","","0","1","0","","0.9391541593","0.2","0.6","0.8","0.4","0.4397693946","0.9391541593","0.4120588364","0.8081222638","","","","","","","","","","","","","","74","J","1","","","54","main_expt",""
"","bandit","134","546243","0.0-96.0-0.0","95984210","wem/bandit_party_2","A2ZPH76PDI9XIQ","either","8","384","","","","","","","1","0","0","0.9596285882","","0.2","0.6","0.8","0.4","","","","","0.3928202278","0.9596285882","0.2714296105","0.742009976","","","","","","","","","","74","J","1","","","55","main_expt",""
"","bandit","135","548059","0.0-97.0-0.0","95984210","wem/bandit_party_2","A2ZPH76PDI9XIQ","either","8","311","","","","","","","1","0","0","0.9565658233","","0.2","0.6","0.8","0.4","","","","","0.4593665993","0.9565658233","0.2122311877","0.7065076074","","","","","","","","","","74","J","1","","","56","main_expt",""
"","bandit","136","549834","0.0-98.0-0.0","95984210","wem/bandit_party_2","A2ZPH76PDI9XIQ","either","8","271","","","","","","","1","0","0","0.9681540372","","0.2","0.6","0.8","0.4","","","","","0.4006145211","0.9681540372","0.2282278588","0.6860695476","","","","","","","","","","74","J","1","","","57","main_expt",""
"","bandit","137","551706","0.0-99.0-0.0","95984210","wem/bandit_party_2","A2ZPH76PDI9XIQ","either","8","367","","","","","","","1","0","0","0.9207083952","","0.2","0.6","0.8","0.4","","","","","0.4597890412","0.9207083952","0.1392076118","0.742301155","","","","","","","","","","74","J","1","","","58","main_expt",""
"","bandit","138","553547","0.0-100.0-0.0","95984210","wem/bandit_party_2","A2ZPH76PDI9XIQ","either","8","336","","","","","","","1","0","0","0.9178227258","","0.2","0.6","0.8","0.4","","","","","0.4232266093","0.9178227258","0.1706239206","0.5291004622","","","","","","","","","","74","J","1","","","59","main_expt",""
"","bandit","139","555378","0.0-101.0-0.0","95984210","wem/bandit_party_2","A2ZPH76PDI9XIQ","either","8","327","","","","","","","0","0","1","0.8951285427","","0.2","0.6","0.8","0.4","","","","","0.3565880291","0.8951285427","0.1674269281","0.6348838793","","","","","","","","","","74","J","1","","","60","main_expt",""
"","bandit","140","557218","0.0-102.0-0.0","95984210","wem/bandit_party_2","A2ZPH76PDI9XIQ","either","8","336","","","","","","","0","0","1","","0.3663276413","0.2","0.6","0.8","0.4","0.3663276413","0.8506814954","0.2182313474","0.6796423313","","","","","","","","","","","","","","72","H","0","img/none_selected.jpg","","61","main_expt",""
"","bandit","141","559058","0.0-103.0-0.0","95984210","wem/bandit_party_2","A2ZPH76PDI9XIQ","either","8","336","","","","","","","0","0","1","0.2949218256","","0.2","0.6","0.8","0.4","","","","","0.3193005293","0.8513854559","0.2949218256","0.6928172916","","","","","","","","","","75","K","2","","","62","main_expt",""
"","bandit","142","560922","0.0-104.0-0.0","95984210","wem/bandit_party_2","A2ZPH76PDI9XIQ","either","8","359","","","","","","","0","1","0","","0.1562068481","0.2","0.6","0.8","0.4","0.1562068481","0.8927579502","0.3170222383","0.6996506825","","","","","","","","","","","","","","72","H","0","img/none_selected.jpg","","63","main_expt",""
"","bandit","143","562763","0.0-105.0-0.0","95984210","wem/bandit_party_2","A2ZPH76PDI9XIQ","either","8","337","","","","","","","1","0","0","0.2300477965","","0.2","0.6","0.8","0.4","","","","","0.2300477965","0.9217936765","0.3033511374","0.7294442249","","","","","","","","","","72","H","0","img/none_selected.jpg","","64","main_expt",""
"","bandit","144","564674","0.0-106.0-0.0","95984210","wem/bandit_party_2","A2ZPH76PDI9XIQ","either","8","406","","","","","","","0","1","0","","0.2869838185","0.2","0.6","0.8","0.4","0.2869838185","0.9357047413","0.3973690147","0.6605354899","","","","","","","","","","","","","","72","H","0","img/none_selected.jpg","","65","main_expt",""
"","bandit","145","566650","0.0-107.0-0.0","95984210","wem/bandit_party_2","A2ZPH76PDI9XIQ","either","8","472","","","","","","","0","0","1","0.3287476356","","0.2","0.6","0.8","0.4","","","","","0.3287476356","0.910343843","0.4320294497","0.6959621059","","","","","","","","","","72","H","0","img/none_selected.jpg","","66","main_expt",""
"","bandit","146","568770","0.0-108.0-0.0","95984210","wem/bandit_party_2","A2ZPH76PDI9XIQ","either","8","616","","","","","","","0","0","1","","0.3018365728","0.2","0.6","0.8","0.4","0.3018365728","0.9022080512","0.3208465419","0.653899752","","","","","","","","","","","","","","72","H","0","img/none_selected.jpg","","67","main_expt",""
"","bandit","147","570563","0.0-109.0-0.0","95984210","wem/bandit_party_2","A2ZPH76PDI9XIQ","either","8","288","","","","","","","1","0","0","0.8492414063","","0.2","0.6","0.8","0.4","","","","","0.3208616414","0.8492414063","0.3570730799","0.6517851336","","","","","","","","","","74","J","1","","","68","main_expt",""
"","bandit","148","572410","0.0-110.0-0.0","95984210","wem/bandit_party_2","A2ZPH76PDI9XIQ","either","8","341","","","","","","","0","0","1","","0.768219052","0.2","0.6","0.8","0.4","0.386863802","0.768219052","0.3451514791","0.7011615004","","","","","","","","","","","","","","74","J","1","","","69","main_expt",""
"","bandit","149","574248","0.0-111.0-0.0","95984210","wem/bandit_party_2","A2ZPH76PDI9XIQ","either","8","333","","","","","","","0","1","0","","0.6278947594","0.2","0.6","0.8","0.4","0.3628244161","0.7996218848","0.3127714871","0.6278947594","","","","","","","","","","","","","","76","L","3","","","70","main_expt",""
"","bandit","150","576111","0.0-112.0-0.0","95984210","wem/bandit_party_2","A2ZPH76PDI9XIQ","either","8","357","","","","","","","0","0","1","0.688517509","","0.2","0.6","0.8","0.4","","","","","0.2969295023","0.9130189757","0.3855297895","0.688517509","","","","","","","","","","76","L","3","","","71","main_expt",""
"","bandit","151","578270","0.0-113.0-0.0","95984210","wem/bandit_party_2","A2ZPH76PDI9XIQ","either","8","655","","","","","","","1","0","0","0.9016843832","","0.2","0.6","0.8","0.4","","","","","0.3512325323","0.9016843832","0.3555010044","0.6125440106","","","","","","","","","","74","J","1","","","72","main_expt",""
"","bandit","152","580118","0.0-114.0-0.0","95984210","wem/bandit_party_2","A2ZPH76PDI9XIQ","either","8","344","","","","","","","0","0","1","","0.3845321254","0.2","0.6","0.8","0.4","0.3845321254","0.9166584401","0.3278360739","0.4884410468","","","","","","","","","","","","","","72","H","0","img/none_selected.jpg","","73","main_expt",""
"","bandit","153","581895","0.0-115.0-0.0","95984210","wem/bandit_party_2","A2ZPH76PDI9XIQ","either","8","272","","","","","","","0","0","1","0.8699410266","","0.2","0.6","0.8","0.4","","","","","0.3760614253","0.8699410266","0.3275161349","0.5800760741","","","","","","","","","","74","J","1","","","74","main_expt",""
"","bandit","154","583718","0.0-116.0-0.0","95984210","wem/bandit_party_2","A2ZPH76PDI9XIQ","either","8","319","","","","","","","0","1","0","","0.8192171788","0.2","0.6","0.8","0.4","0.370831352","0.8192171788","0.3454333807","0.6614390465","","","","","","","","","","","","","","74","J","1","","","75","main_expt",""
"","bandit","155","593710","0.0-117.0-0.0","95984210","wem/bandit_party_2","A2ZPH76PDI9XIQ","either","8","8487","","","","","","","1","0","0","0.8990587115","","0.2","0.6","0.8","0.4","","","","","0.4008199491","0.8990587115","0.4213924804","0.6861570843","","","","","","","","","","74","J","1","","","76","main_expt",""
"","bandit","156","595687","0.0-118.0-0.0","95984210","wem/bandit_party_2","A2ZPH76PDI9XIQ","either","8","473","","","","","","","0","1","0","","0.9062137116","0.2","0.6","0.8","0.4","0.3928984844","0.9062137116","0.439510692","0.5980737028","","","","","","","","","","","","","","74","J","1","","","77","main_expt",""
"","bandit","157","597510","0.0-119.0-0.0","95984210","wem/bandit_party_2","A2ZPH76PDI9XIQ","either","8","318","","","","","","","1","0","0","0.9215914722","","0.2","0.6","0.8","0.4","","","","","0.4709058574","0.9215914722","0.4419424199","0.6754083514","","","","","","","","","","74","J","1","","","78","main_expt",""
"","bandit","158","599822","0.0-120.0-0.0","95984210","wem/bandit_party_2","A2ZPH76PDI9XIQ","either","8","808","","","","","","","0","1","0","","0.895443078","0.2","0.6","0.8","0.4","0.4971614577","0.895443078","0.5056762283","0.7012934339","","","","","","","","","","","","","","74","J","1","","","79","main_expt",""
"","bandit","159","601774","0.0-121.0-0.0","95984210","wem/bandit_party_2","A2ZPH76PDI9XIQ","either","8","447","","","","","","","0","1","0","","0.7789772955","0.2","0.6","0.8","0.4","0.4828267768","0.7789772955","0.4558190996","0.7067798052","","","","","","","","","","","","","","74","J","1","","","80","main_expt",""
"","bandit","160","603671","0.0-122.0-0.0","95984210","wem/bandit_party_2","A2ZPH76PDI9XIQ","either","8","393","","","","","","","0","0","1","","0.755426824","0.2","0.6","0.8","0.4","0.4280570329","0.755426824","0.4774921548","0.7259433061","","","","","","","","","","","","","","74","J","1","","","81","main_expt",""
"","bandit","161","605630","0.0-123.0-0.0","95984210","wem/bandit_party_2","A2ZPH76PDI9XIQ","either","8","453","","","","","","","0","0","1","","0.486136241","0.2","0.6","0.8","0.4","0.486136241","0.8356426425","0.3611036613","0.7022130872","","","","","","","","","","","","","","72","H","0","img/none_selected.jpg","","82","main_expt",""
"","bandit","162","607390","0.0-124.0-0.0","95984210","wem/bandit_party_2","A2ZPH76PDI9XIQ","either","8","255","","","","","","","1","0","0","0.8783145762","","0.2","0.6","0.8","0.4","","","","","0.3539143083","0.8783145762","0.3341354767","0.75927227","","","","","","","","","","74","J","1","","","83","main_expt",""
"","bandit","163","609318","0.0-125.0-0.0","95984210","wem/bandit_party_2","A2ZPH76PDI9XIQ","either","8","424","","","","","","","0","0","1","0.9087743635","","0.2","0.6","0.8","0.4","","","","","0.374811954","0.9087743635","0.288479151","0.8556046088","","","","","","","","","","74","J","1","","","84","main_expt",""
"","bandit","164","611070","0.0-126.0-0.0","95984210","wem/bandit_party_2","A2ZPH76PDI9XIQ","either","8","248","","","","","","","1","0","0","0.8632011641","","0.2","0.6","0.8","0.4","","","","","0.4518264681","0.8632011641","0.3061923995","0.7835234447","","","","","","","","","","74","J","1","","","85","main_expt",""
"","bandit","165","612919","0.0-127.0-0.0","95984210","wem/bandit_party_2","A2ZPH76PDI9XIQ","either","8","345","","","","","","","1","0","0","0.8341253046","","0.2","0.6","0.8","0.4","","","","","0.461936863","0.8341253046","0.3370204437","0.7037548709","","","","","","","","","","74","J","1","","","86","main_expt",""
"","bandit","166","614751","0.0-128.0-0.0","95984210","wem/bandit_party_2","A2ZPH76PDI9XIQ","either","8","328","","","","","","","1","0","0","0.8728746981","","0.2","0.6","0.8","0.4","","","","","0.3681660755","0.8728746981","0.3900809043","0.6903674631","","","","","","","","","","74","J","1","","","87","main_expt",""
"","bandit","167","616526","0.0-129.0-0.0","95984210","wem/bandit_party_2","A2ZPH76PDI9XIQ","either","8","270","","","","","","","1","0","0","0.8408980459","","0.2","0.6","0.8","0.4","","","","","0.3788462328","0.8408980459","0.4296615172","0.5883284312","","","","","","","","","","74","J","1","","","88","main_expt",""
"","bandit","168","618318","0.0-130.0-0.0","95984210","wem/bandit_party_2","A2ZPH76PDI9XIQ","either","8","287","","","","","","","1","0","0","0.8585781628","","0.2","0.6","0.8","0.4","","","","","0.3316952272","0.8585781628","0.4636560077","0.5258490985","","","","","","","","","","74","J","1","","","89","main_expt",""
"","bandit","169","620102","0.0-131.0-0.0","95984210","wem/bandit_party_2","A2ZPH76PDI9XIQ","either","8","280","","","","","","","1","0","0","0.925840658","","0.2","0.6","0.8","0.4","","","","","0.438068917","0.925840658","0.4463585346","0.6395041767","","","","","","","","","","74","J","1","","","90","main_expt",""
"","bandit","170","621966","0.0-132.0-0.0","95984210","wem/bandit_party_2","A2ZPH76PDI9XIQ","either","8","359","","","","","","","0","0","1","0.9201841885","","0.2","0.6","0.8","0.4","","","","","0.5158843935","0.9201841885","0.4734463503","0.6931091445","","","","","","","","","","74","J","1","","","91","main_expt",""
"","bandit","171","623854","0.0-133.0-0.0","95984210","wem/bandit_party_2","A2ZPH76PDI9XIQ","either","8","384","","","","","","","0","0","1","","0.8508076908","0.2","0.6","0.8","0.4","0.5182757575","0.8508076908","0.5248255385","0.6725373887","","","","","","","","","","","","","","74","J","1","","","92","main_expt",""
"","bandit","172","625648","0.0-134.0-0.0","95984210","wem/bandit_party_2","A2ZPH76PDI9XIQ","either","8","288","","","","","","","1","0","0","0.8106711147","","0.2","0.6","0.8","0.4","","","","","0.5498130742","0.8106711147","0.3386726181","0.7388835399","","","","","","","","","","74","J","1","","","93","main_expt",""
"","bandit","173","627430","0.0-135.0-0.0","95984210","wem/bandit_party_2","A2ZPH76PDI9XIQ","either","8","276","","","","","","","1","0","0","0.8543263914","","0.2","0.6","0.8","0.4","","","","","0.6049407638","0.8543263914","0.3718894848","0.697373586","","","","","","","","","","74","J","1","","","94","main_expt",""
"","bandit","174","629246","0.0-136.0-0.0","95984210","wem/bandit_party_2","A2ZPH76PDI9XIQ","either","8","312","","","","","","","0","1","0","","0.8387782901","0.2","0.6","0.8","0.4","0.6604115927","0.8387782901","0.4005278521","0.7550322224","","","","","","","","","","","","","","74","J","1","","","95","main_expt",""
"","bandit","175","631022","0.0-137.0-0.0","95984210","wem/bandit_party_2","A2ZPH76PDI9XIQ","either","8","272","","","","","","","1","0","0","0.8208071174","","0.2","0.6","0.8","0.4","","","","","0.7003847986","0.8208071174","0.3694595514","0.6576962358","","","","","","","","","","74","J","1","","","96","main_expt",""
"","bandit","176","632914","0.0-138.0-0.0","95984210","wem/bandit_party_2","A2ZPH76PDI9XIQ","either","8","375","","","","","","","1","0","0","0.765358829","","0.2","0.6","0.8","0.4","","","","","0.6793148949","0.765358829","0.3186037095","0.6802484638","","","","","","","","","","74","J","1","","","97","main_expt",""
"","bandit","177","634713","0.0-139.0-0.0","95984210","wem/bandit_party_2","A2ZPH76PDI9XIQ","either","8","294","","","","","","","0","1","0","","0.7823463211","0.2","0.6","0.8","0.4","0.6204607354","0.7823463211","0.2786717818","0.7042077447","","","","","","","","","","","","","","74","J","1","","","98","main_expt",""
"","bandit","178","636497","0.0-140.0-0.0","95984210","wem/bandit_party_2","A2ZPH76PDI9XIQ","either","8","280","","","","","","","1","0","0","0.7523003034","","0.2","0.6","0.8","0.4","","","","","0.6166262367","0.7523003034","0.32929866","0.7355617892","","","","","","","","","","74","J","1","","","99","main_expt",""
"","bandit","179","638305","0.0-141.0-0.0","95984210","wem/bandit_party_2","A2ZPH76PDI9XIQ","either","8","304","","","","","","","1","0","0","0.7174790615","","0.2","0.6","0.8","0.4","","","","","0.5347115766","0.7174790615","0.3115323478","0.7117411671","","","","","","","","","","74","J","1","","","100","main_expt",""
"","bandit","180","640505","0.0-142.0-0.0","95984210","wem/bandit_party_2","A2ZPH76PDI9XIQ","either","8","695","","","","","","","1","0","0","0.7660578318","","0.2","0.6","0.8","0.4","","","","","0.3418016043","0.7660578318","0.4221749579","0.7263903312","","","","","","","","","","74","J","1","","","101","main_expt",""
"","bandit","181","642297","0.0-143.0-0.0","95984210","wem/bandit_party_2","A2ZPH76PDI9XIQ","either","8","288","","","","","","","0","0","1","0.7201180075","","0.2","0.6","0.8","0.4","","","","","0.2550922237","0.7201180075","0.2718078598","0.7357346189","","","","","","","","","","74","J","1","","","102","main_expt",""
"","bandit","182","644105","0.0-144.0-0.0","95984210","wem/bandit_party_2","A2ZPH76PDI9XIQ","either","8","303","","","","","","","1","0","0","0.8452780714","","0.2","0.6","0.8","0.4","","","","","0.3181696353","0.8452780714","0.3011307106","0.7026134783","","","","","","","","","","74","J","1","","","103","main_expt",""
"","bandit","183","646049","0.0-145.0-0.0","95984210","wem/bandit_party_2","A2ZPH76PDI9XIQ","either","8","439","","","","","","","0","1","0","","0.7236924273","0.2","0.6","0.8","0.4","0.3383579412","0.7236924273","0.3659291838","0.8073666152","","","","","","","","","","","","","","74","J","1","","","104","main_expt",""
"","bandit","184","647858","0.0-146.0-0.0","95984210","wem/bandit_party_2","A2ZPH76PDI9XIQ","either","8","304","","","","","","","1","0","0","0.743719778","","0.2","0.6","0.8","0.4","","","","","0.2354673658","0.743719778","0.3499435223","0.824483439","","","","","","","","","","74","J","1","","","105","main_expt",""
"","bandit","185","649690","0.0-147.0-0.0","95984210","wem/bandit_party_2","A2ZPH76PDI9XIQ","either","8","328","","","","","","","0","1","0","","0.7985687284","0.2","0.6","0.8","0.4","0.159398249","0.7985687284","0.3602262465","0.9208810438","","","","","","","","","","","","","","74","J","1","","","106","main_expt",""
"","bandit","186","651513","0.0-148.0-0.0","95984210","wem/bandit_party_2","A2ZPH76PDI9XIQ","either","8","318","","","","","","","1","0","0","0.799345197","","0.2","0.6","0.8","0.4","","","","","0.1295169146","0.799345197","0.3252215163","0.8911910097","","","","","","","","","","74","J","1","","","107","main_expt",""
"","bandit","187","659785","0.0-149.0-0.0","95984210","wem/bandit_party_2","A2ZPH76PDI9XIQ","either","8","6768","","","","","","","0","0","1","0.8681690713","","0.2","0.6","0.8","0.4","","","","","0.07754053308","0.8681690713","0.2812406992","0.8450149587","","","","","","","","","","74","J","1","","","108","main_expt",""
"","bandit","188","661579","0.0-150.0-0.0","95984210","wem/bandit_party_2","A2ZPH76PDI9XIQ","either","8","287","","","","","","","0","1","0","","0.8556732204","0.2","0.6","0.8","0.4","0.06591215473","0.8556732204","0.2559497519","0.868327257","","","","","","","","","","","","","","74","J","1","","","109","main_expt",""
"","bandit","189","663459","0.0-151.0-0.0","95984210","wem/bandit_party_2","A2ZPH76PDI9XIQ","either","8","374","","","","","","","0","0","1","0.8669893864","","0.2","0.6","0.8","0.4","","","","","0.1189546392","0.8669893864","0.2817400418","0.8868335222","","","","","","","","","","74","J","1","","","110","main_expt",""
"","bandit","190","665329","0.0-152.0-0.0","95984210","wem/bandit_party_2","A2ZPH76PDI9XIQ","either","8","366","","","","","","","0","0","1","","0.09523351692","0.2","0.6","0.8","0.4","0.09523351692","0.799383849","0.2773620367","0.8770728171","","","","","","","","","","","","","","72","H","0","img/none_selected.jpg","","111","main_expt",""
"","bandit","191","667137","0.0-153.0-0.0","95984210","wem/bandit_party_2","A2ZPH76PDI9XIQ","either","8","304","","","","","","","0","0","1","0.2833316415","","0.2","0.6","0.8","0.4","","","","","0.107489667","0.859799476","0.2833316415","0.8481710002","","","","","","","","","","75","K","2","","","112","main_expt",""
"","bandit","192","668961","0.0-154.0-0.0","95984210","wem/bandit_party_2","A2ZPH76PDI9XIQ","either","8","319","","","","","","","0","1","0","","0.8573528835","0.2","0.6","0.8","0.4","0.1026187258","0.7932436089","0.3433702059","0.8573528835","","","","","","","","","","","","","","76","L","3","","","113","main_expt",""
"","bandit","193","670769","0.0-155.0-0.0","95984210","wem/bandit_party_2","A2ZPH76PDI9XIQ","either","8","302","","","","","","","0","0","1","","0.8291807482","0.2","0.6","0.8","0.4","0.1044839951","0.849407262","0.4828882278","0.8291807482","","","","","","","","","","","","","","76","L","3","","","114","main_expt",""
"","bandit","194","672578","0.0-156.0-0.0","95984210","wem/bandit_party_2","A2ZPH76PDI9XIQ","either","8","303","","","","","","","0","0","1","","0.761972944","0.2","0.6","0.8","0.4","0.1213931844","0.8882716547","0.54932579","0.761972944","","","","","","","","","","","","","","76","L","3","","","115","main_expt",""
"","bandit","195","674354","0.0-157.0-0.0","95984210","wem/bandit_party_2","A2ZPH76PDI9XIQ","either","8","271","","","","","","","0","1","0","","0.786197192","0.2","0.6","0.8","0.4","0.1184144227","0.8741354715","0.6971345968","0.786197192","","","","","","","","","","","","","","76","L","3","","","116","main_expt",""
"","bandit","196","676171","0.0-158.0-0.0","95984210","wem/bandit_party_2","A2ZPH76PDI9XIQ","either","8","313","","","","","","","0","0","1","0.5396272374","","0.2","0.6","0.8","0.4","","","","","0.1983931569","0.8083823922","0.5396272374","0.7834453561","","","","","","","","","","75","K","2","","","117","main_expt",""
"","bandit","197","677985","0.0-159.0-0.0","95984210","wem/bandit_party_2","A2ZPH76PDI9XIQ","either","8","309","","","","","","","0","1","0","","0.2840039584","0.2","0.6","0.8","0.4","0.2840039584","0.868525306","0.5544567993","0.6742380839","","","","","","","","","","","","","","72","H","0","img/none_selected.jpg","","118","main_expt",""
"","bandit","198","679794","0.0-160.0-0.0","95984210","wem/bandit_party_2","A2ZPH76PDI9XIQ","either","8","305","","","","","","","0","1","0","","0.3563325119","0.2","0.6","0.8","0.4","0.3563325119","0.8386471998","0.5504896642","0.7350700153","","","","","","","","","","","","","","72","H","0","img/none_selected.jpg","","119","main_expt",""
"","bandit","199","681618","0.0-161.0-0.0","95984210","wem/bandit_party_2","A2ZPH76PDI9XIQ","either","8","317","","","","","","","0","1","0","","0.5682387565","0.2","0.6","0.8","0.4","0.5682387565","0.8103559508","0.5812137135","0.70601835","","","","","","","","","","","","","","72","H","0","img/none_selected.jpg","","120","main_expt",""
"","bandit","200","683425","0.0-162.0-0.0","95984210","wem/bandit_party_2","A2ZPH76PDI9XIQ","either","8","302","","","","","","","1","0","0","0.5189107771","","0.2","0.6","0.8","0.4","","","","","0.5189107771","0.8193015173","0.6033058466","0.7347719752","","","","","","","","","","72","H","0","img/none_selected.jpg","","121","main_expt",""
"","bandit","201","685219","0.0-163.0-0.0","95984210","wem/bandit_party_2","A2ZPH76PDI9XIQ","either","8","289","","","","","","","0","0","1","","0.4428493372","0.2","0.6","0.8","0.4","0.4428493372","0.8025146027","0.6102220397","0.8270923978","","","","","","","","","","","","","","72","H","0","img/none_selected.jpg","","122","main_expt",""
"","bandit","202","687035","0.0-164.0-0.0","95984210","wem/bandit_party_2","A2ZPH76PDI9XIQ","either","8","312","","","","","","","0","0","1","","0.472724465","0.2","0.6","0.8","0.4","0.472724465","0.8121847492","0.6108151959","0.7980631313","","","","","","","","","","","","","","72","H","0","img/none_selected.jpg","","123","main_expt",""
"","bandit","203","688793","0.0-165.0-0.0","95984210","wem/bandit_party_2","A2ZPH76PDI9XIQ","either","8","253","","","","","","","0","1","0","","0.4799585558","0.2","0.6","0.8","0.4","0.4799585558","0.8299418439","0.7117385939","0.7369852887","","","","","","","","","","","","","","72","H","0","img/none_selected.jpg","","124","main_expt",""
"","bandit","204","690577","0.0-166.0-0.0","95984210","wem/bandit_party_2","A2ZPH76PDI9XIQ","either","8","279","","","","","","","1","0","0","0.5080184993","","0.2","0.6","0.8","0.4","","","","","0.5080184993","0.825688343","0.7554186078","0.7465944313","","","","","","","","","","72","H","0","img/none_selected.jpg","","125","main_expt",""
"","bandit","205","692233","0.0-167.0-0.0","95984210","wem/bandit_party_2","A2ZPH76PDI9XIQ","either","8","151","","","","","","","0","0","1","","0.4555098289","0.2","0.6","0.8","0.4","0.4555098289","0.8372054396","0.8855751833","0.7596834852","","","","","","","","","","","","","","72","H","0","img/none_selected.jpg","","126","main_expt",""
"","bandit","206","694131","0.0-168.0-0.0","95984210","wem/bandit_party_2","A2ZPH76PDI9XIQ","either","8","386","","","","","","","0","0","1","","0.5475411796","0.2","0.6","0.8","0.4","0.5475411796","0.7906689898","0.8003015049","0.7398299979","","","","","","","","","","","","","","72","H","0","img/none_selected.jpg","","127","main_expt",""
"","bandit","207","696456","0.0-169.0-0.0","95984210","wem/bandit_party_2","A2ZPH76PDI9XIQ","either","8","820","","","","","","","0","1","0","","0.612647382","0.2","0.6","0.8","0.4","0.612647382","0.8008571507","0.8403113951","0.7764866849","","","","","","","","","","","","","","72","H","0","img/none_selected.jpg","","128","main_expt",""
"","bandit","208","698271","0.0-170.0-0.0","95984210","wem/bandit_party_2","A2ZPH76PDI9XIQ","either","8","310","","","","","","","1","0","0","0.7128970287","","0.2","0.6","0.8","0.4","","","","","0.7128970287","0.7829297973","0.8826872071","0.6435675963","","","","","","","","","","72","H","0","img/none_selected.jpg","","129","main_expt",""
"","bandit","209","700207","0.0-171.0-0.0","95984210","wem/bandit_party_2","A2ZPH76PDI9XIQ","either","8","431","","","","","","","0","0","1","","0.7309911721","0.2","0.6","0.8","0.4","0.7309911721","0.6898445721","0.8641000085","0.7030252038","","","","","","","","","","","","","","72","H","0","img/none_selected.jpg","","130","main_expt",""
"","bandit","210","702011","0.0-172.0-0.0","95984210","wem/bandit_party_2","A2ZPH76PDI9XIQ","either","8","298","","","","","","","0","1","0","","0.73180147","0.2","0.6","0.8","0.4","0.73180147","0.5864867529","0.8752037592","0.6829232191","","","","","","","","","","","","","","72","H","0","img/none_selected.jpg","","131","main_expt",""
"","bandit","211","703927","0.0-173.0-0.0","95984210","wem/bandit_party_2","A2ZPH76PDI9XIQ","either","8","411","","","","","","","0","1","0","","0.8467134838","0.2","0.6","0.8","0.4","0.8467134838","0.560122833","0.8279556795","0.7406452387","","","","","","","","","","","","","","72","H","0","img/none_selected.jpg","","132","main_expt",""
"","bandit","212","705751","0.0-174.0-0.0","95984210","wem/bandit_party_2","A2ZPH76PDI9XIQ","either","8","320","","","","","","","1","0","0","0.8481264083","","0.2","0.6","0.8","0.4","","","","","0.8481264083","0.48439517","0.8194722428","0.6666234363","","","","","","","","","","72","H","0","img/none_selected.jpg","","133","main_expt",""
"","bandit","213","707544","0.0-175.0-0.0","95984210","wem/bandit_party_2","A2ZPH76PDI9XIQ","either","8","287","","","","","","","1","0","0","0.8771050955","","0.2","0.6","0.8","0.4","","","","","0.8771050955","0.3919863126","0.8037084922","0.680542061","","","","","","","","","","72","H","0","img/none_selected.jpg","","134","main_expt",""
"","bandit","214","709401","0.0-176.0-0.0","95984210","wem/bandit_party_2","A2ZPH76PDI9XIQ","either","8","351","","","","","","","0","1","0","","0.9103241533","0.2","0.6","0.8","0.4","0.9103241533","0.5174750093","0.8155916457","0.7006187635","","","","","","","","","","","","","","72","H","0","img/none_selected.jpg","","135","main_expt",""
"","bandit","215","711223","0.0-177.0-0.0","95984210","wem/bandit_party_2","A2ZPH76PDI9XIQ","either","8","316","","","","","","","0","1","0","","0.9126032517","0.2","0.6","0.8","0.4","0.9126032517","0.4264762493","0.8281957705","0.6936815578","","","","","","","","","","","","","","72","H","0","img/none_selected.jpg","","136","main_expt",""
"","bandit","216","712983","0.0-178.0-0.0","95984210","wem/bandit_party_2","A2ZPH76PDI9XIQ","either","8","255","","","","","","","0","1","0","","0.8983360858","0.2","0.6","0.8","0.4","0.8983360858","0.5351999402","0.7055403129","0.6531428085","","","","","","","","","","","","","","72","H","0","img/none_selected.jpg","","137","main_expt",""
"","bandit","217","714823","0.0-179.0-0.0","95984210","wem/bandit_party_2","A2ZPH76PDI9XIQ","either","8","335","","","","","","","0","1","0","","0.8851370462","0.2","0.6","0.8","0.4","0.8851370462","0.4758748922","0.6884351598","0.6769758131","","","","","","","","","","","","","","72","H","0","img/none_selected.jpg","","138","main_expt",""
"","bandit","218","716623","0.0-180.0-0.0","95984210","wem/bandit_party_2","A2ZPH76PDI9XIQ","either","8","295","","","","","","","0","1","0","","0.8662270416","0.2","0.6","0.8","0.4","0.8662270416","0.4039793023","0.6090423031","0.7649589049","","","","","","","","","","","","","","72","H","0","img/none_selected.jpg","","139","main_expt",""
"","bandit","219","718385","0.0-181.0-0.0","95984210","wem/bandit_party_2","A2ZPH76PDI9XIQ","either","8","256","","","","","","","0","1","0","","0.8345767194","0.2","0.6","0.8","0.4","0.8345767194","0.384774136","0.7000077187","0.7674202191","","","","","","","","","","","","","","72","H","0","img/none_selected.jpg","","140","main_expt",""
"","bandit","220","720191","0.0-182.0-0.0","95984210","wem/bandit_party_2","A2ZPH76PDI9XIQ","either","8","301","","","","","","","1","0","0","0.8783670964","","0.2","0.6","0.8","0.4","","","","","0.8783670964","0.327254859","0.6643185619","0.8575114448","","","","","","","","","","72","H","0","img/none_selected.jpg","","141","main_expt",""
"","bandit","221","721943","0.0-183.0-0.0","95984210","wem/bandit_party_2","A2ZPH76PDI9XIQ","either","8","247","","","","","","","0","1","0","","0.8895828315","0.2","0.6","0.8","0.4","0.8895828315","0.4536641492","0.7079845674","0.8134430427","","","","","","","","","","","","","","72","H","0","img/none_selected.jpg","","142","main_expt",""
"","bandit","222","723719","0.0-184.0-0.0","95984210","wem/bandit_party_2","A2ZPH76PDI9XIQ","either","8","271","","","","","","","0","1","0","","0.9053928798","0.2","0.6","0.8","0.4","0.9053928798","0.4348486293","0.6624187643","0.8345505038","","","","","","","","","","","","","","72","H","0","img/none_selected.jpg","","143","main_expt",""
"","bandit","223","725440","0.0-185.0-0.0","95984210","wem/bandit_party_2","A2ZPH76PDI9XIQ","either","8","215","","","","","","","1","0","0","0.9033088386","","0.2","0.6","0.8","0.4","","","","","0.9033088386","0.4086594597","0.6779247185","0.7482817554","","","","","","","","","","72","H","0","img/none_selected.jpg","","144","main_expt",""
"","bandit","224","727408","0.0-186.0-0.0","95984210","wem/bandit_party_2","A2ZPH76PDI9XIQ","either","8","463","","","","","","","0","1","0","","0.8572864227","0.2","0.6","0.8","0.4","0.8572864227","0.4420772456","0.7216102374","0.7400387939","","","","","","","","","","","","","","72","H","0","img/none_selected.jpg","","145","main_expt",""
"","bandit","225","729232","0.0-187.0-0.0","95984210","wem/bandit_party_2","A2ZPH76PDI9XIQ","either","8","319","","","","","","","0","0","1","","0.8687508917","0.2","0.6","0.8","0.4","0.8687508917","0.508741462","0.7837267619","0.795971973","","","","","","","","","","","","","","72","H","0","img/none_selected.jpg","","146","main_expt",""
"","bandit","226","731023","0.0-188.0-0.0","95984210","wem/bandit_party_2","A2ZPH76PDI9XIQ","either","8","287","","","","","","","0","0","1","","0.8657621525","0.2","0.6","0.8","0.4","0.8657621525","0.4624398998","0.7652264833","0.7503502301","","","","","","","","","","","","","","72","H","0","img/none_selected.jpg","","147","main_expt",""
"","bandit","227","734080","0.0-189.0-0.0","95984210","wem/bandit_party_2","A2ZPH76PDI9XIQ","either","8","1551","","","","","","","0","0","1","","0.8362891365","0.2","0.6","0.8","0.4","0.8362891365","0.4062589849","0.7358716413","0.8200474043","","","","","","","","","","","","","","72","H","0","img/none_selected.jpg","","148","main_expt",""
"","bandit","228","735911","0.0-190.0-0.0","95984210","wem/bandit_party_2","A2ZPH76PDI9XIQ","either","8","327","","","","","","","0","1","0","","0.8144386017","0.2","0.6","0.8","0.4","0.8144386017","0.4895331913","0.7129200786","0.8509010271","","","","","","","","","","","","","","72","H","0","img/none_selected.jpg","","149","main_expt",""
"","bandit","229","737898","0.0-191.0-0.0","95984210","wem/bandit_party_2","A2ZPH76PDI9XIQ","either","8","481","","","","","","","0","0","1","","0.6948055455","0.2","0.6","0.8","0.4","0.6948055455","0.4704746919","0.705531668","0.8298908313","","","","","","","","","","","","","","72","H","0","img/none_selected.jpg","","150","main_expt",""
"","bandit","230","740120","0.0-192.0-0.0","95984210","wem/bandit_party_2","A2ZPH76PDI9XIQ","either","8","717","","","","","","","0","1","0","","0.6231991314","0.2","0.6","0.8","0.4","0.6231991314","0.4725745774","0.5744604188","0.7362749002","","","","","","","","","","","","","","72","H","0","img/none_selected.jpg","","151","main_expt",""
"","bandit","231","741983","0.0-193.0-0.0","95984210","wem/bandit_party_2","A2ZPH76PDI9XIQ","either","8","358","","","","","","","0","0","1","","0.7045057733","0.2","0.6","0.8","0.4","0.7045057733","0.4943906398","0.5372669321","0.7601791643","","","","","","","","","","","","","","72","H","0","img/none_selected.jpg","","152","main_expt",""
"","bandit","232","743792","0.0-194.0-0.0","95984210","wem/bandit_party_2","A2ZPH76PDI9XIQ","either","8","302","","","","","","","0","0","1","","0.5331338622","0.2","0.6","0.8","0.4","0.5331338622","0.4639524782","0.5447545218","0.7590648118","","","","","","","","","","","","","","72","H","0","img/none_selected.jpg","","153","main_expt",""
"","bandit","233","745599","0.0-195.0-0.0","95984210","wem/bandit_party_2","A2ZPH76PDI9XIQ","either","8","302","","","","","","","0","0","1","0.5096720896","","0.2","0.6","0.8","0.4","","","","","0.5096720896","0.3935792086","0.4191749193","0.7805387907","","","","","","","","","","72","H","0","img/none_selected.jpg","","154","main_expt",""
"","bandit","234","747345","0.0-196.0-0.0","95984210","wem/bandit_party_2","A2ZPH76PDI9XIQ","either","8","240","","","","","","","0","1","0","","0.4719011365","0.2","0.6","0.8","0.4","0.4719011365","0.4127348605","0.4269770229","0.8450805748","","","","","","","","","","","","","","72","H","0","img/none_selected.jpg","","155","main_expt",""
"","bandit","235","749135","0.0-197.0-0.0","95984210","wem/bandit_party_2","A2ZPH76PDI9XIQ","either","8","286","","","","","","","0","0","1","","0.5818713095","0.2","0.6","0.8","0.4","0.5818713095","0.3697675558","0.4589862704","0.8513110265","","","","","","","","","","","","","","72","H","0","img/none_selected.jpg","","156","main_expt",""
"","bandit","236","750880","0.0-198.0-0.0","95984210","wem/bandit_party_2","A2ZPH76PDI9XIQ","either","8","240","","","","","","","0","0","1","0.3604398023","","0.2","0.6","0.8","0.4","","","","","0.5804022203","0.3604398023","0.5370818316","0.8226236001","","","","","","","","","","74","J","1","","","157","main_expt",""
"","bandit","237","752671","0.0-199.0-0.0","95984210","wem/bandit_party_2","A2ZPH76PDI9XIQ","either","8","286","","","","","","","0","0","1","","0.4757376888","0.2","0.6","0.8","0.4","0.4773166223","0.4061750625","0.4757376888","0.8843141367","","","","","","","","","","","","","","75","K","2","","","158","main_expt",""
"","bandit","238","754509","0.0-200.0-0.0","95984210","wem/bandit_party_2","A2ZPH76PDI9XIQ","either","8","327","","","","","","","1","0","0","0.8078798749","","0.2","0.6","0.8","0.4","","","","","0.419048585","0.4696417586","0.4887287223","0.8078798749","","","","","","","","","","76","L","3","","","159","main_expt",""
"","bandit","239","756301","0.0-201.0-0.0","95984210","wem/bandit_party_2","A2ZPH76PDI9XIQ","either","8","287","","","","","","","1","0","0","0.7689164465","","0.2","0.6","0.8","0.4","","","","","0.4672574386","0.4659569923","0.4588489809","0.7689164465","","","","","","","","","","76","L","3","","","160","main_expt",""
"","bandit","240","758093","0.0-202.0-0.0","95984210","wem/bandit_party_2","A2ZPH76PDI9XIQ","either","8","287","","","","","","","0","0","1","0.4920004413","","0.2","0.6","0.8","0.4","","","","","0.5612985374","0.3947207546","0.4920004413","0.7863156869","","","","","","","","","","75","K","2","","","161","main_expt",""
"","bandit","241","759893","0.0-203.0-0.0","95984210","wem/bandit_party_2","A2ZPH76PDI9XIQ","either","8","295","","","","","","","0","1","0","","0.8098475403","0.2","0.6","0.8","0.4","0.5288680036","0.2460097942","0.5389881207","0.8098475403","","","","","","","","","","","","","","76","L","3","","","162","main_expt",""
"","bandit","242","761751","0.0-204.0-0.0","95984210","wem/bandit_party_2","A2ZPH76PDI9XIQ","either","8","353","","","","","","","0","0","1","0.8222712862","","0.2","0.6","0.8","0.4","","","","","0.6096883849","0.3603606056","0.6040136001","0.8222712862","","","","","","","","","","76","L","3","","","163","main_expt",""
"","bandit","243","763622","0.0-205.0-0.0","95984210","wem/bandit_party_2","A2ZPH76PDI9XIQ","either","8","365","","","","","","","1","0","0","0.7876031225","","0.2","0.6","0.8","0.4","","","","","0.4868922288","0.2507209727","0.623756827","0.7876031225","","","","","","","","","","76","L","3","","","164","main_expt",""
"","bandit","244","765429","0.0-206.0-0.0","95984210","wem/bandit_party_2","A2ZPH76PDI9XIQ","either","8","302","","","","","","","1","0","0","0.7435052823","","0.2","0.6","0.8","0.4","","","","","0.4055552053","0.2162043423","0.6164515281","0.7435052823","","","","","","","","","","76","L","3","","","165","main_expt",""
"","bandit","245","767285","0.0-207.0-0.0","95984210","wem/bandit_party_2","A2ZPH76PDI9XIQ","either","8","349","","","","","","","0","1","0","","0.6545739251","0.2","0.6","0.8","0.4","0.4748236382","0.2573409732","0.4660222187","0.6545739251","","","","","","","","","","","","","","76","L","3","","","166","main_expt",""
"","bandit","246","769310","0.0-208.0-0.0","95984210","wem/bandit_party_2","A2ZPH76PDI9XIQ","either","8","520","","","","","","","0","1","0","","0.6645907447","0.2","0.6","0.8","0.4","0.4725242185","0.4016088623","0.3336058786","0.6645907447","","","","","","","","","","","","","","76","L","3","","","167","main_expt",""
"","bandit","247","771349","0.0-209.0-0.0","95984210","wem/bandit_party_2","A2ZPH76PDI9XIQ","either","8","533","","","","","","","0","1","0","","0.7243751722","0.2","0.6","0.8","0.4","0.4775208721","0.5522858252","0.2887723434","0.7243751722","","","","","","","","","","","","","","76","L","3","","","168","main_expt",""
"","bandit","248","773182","0.0-210.0-0.0","95984210","wem/bandit_party_2","A2ZPH76PDI9XIQ","either","8","328","","","","","","","0","1","0","","0.6453105543","0.2","0.6","0.8","0.4","0.4682732781","0.5461138513","0.3357056981","0.6453105543","","","","","","","","","","","","","","76","L","3","","","169","main_expt",""
"","bandit","249","774949","0.0-211.0-0.0","95984210","wem/bandit_party_2","A2ZPH76PDI9XIQ","either","8","262","","","","","","","0","1","0","","0.5334010147","0.2","0.6","0.8","0.4","0.4246621539","0.4402798015","0.4179693295","0.5334010147","","","","","","","","","","","","","","76","L","3","","","170","main_expt",""
"","bandit","250","776725","0.0-212.0-0.0","95984210","wem/bandit_party_2","A2ZPH76PDI9XIQ","either","8","271","","","","","","","1","0","0","0.498122785","","0.2","0.6","0.8","0.4","","","","","0.2843380906","0.450294849","0.3050406521","0.498122785","","","","","","","","","","76","L","3","","","171","main_expt",""
"","bandit","251","778590","0.0-213.0-0.0","95984210","wem/bandit_party_2","A2ZPH76PDI9XIQ","either","8","360","","","","","","","0","1","0","","0.4356988635","0.2","0.6","0.8","0.4","0.2668952485","0.6475755847","0.3364500029","0.4356988635","","","","","","","","","","","","","","76","L","3","","","172","main_expt",""
"","bandit","252","780333","0.0-214.0-0.0","95984210","wem/bandit_party_2","A2ZPH76PDI9XIQ","either","8","237","","","","","","","0","1","0","","0.3964199688","0.2","0.6","0.8","0.4","0.3802819164","0.6095255177","0.421339117","0.3964199688","","","","","","","","","","","","","","76","L","3","","","173","main_expt",""
"","bandit","253","782079","0.0-215.0-0.0","95984210","wem/bandit_party_2","A2ZPH76PDI9XIQ","either","8","240","","","","","","","0","0","1","0.3194345802","","0.2","0.6","0.8","0.4","","","","","0.4042455133","0.5003628493","0.4913704717","0.3194345802","","","","","","","","","","76","L","3","","","174","main_expt",""
"","bandit","254","783894","0.0-216.0-0.0","95984210","wem/bandit_party_2","A2ZPH76PDI9XIQ","either","8","310","","","","","","","0","0","1","","0.2865230234","0.2","0.6","0.8","0.4","0.4393989914","0.5576212716","0.5882611891","0.2865230234","","","","","","","","","","","","","","76","L","3","","","175","main_expt",""
"","bandit","255","785669","0.0-217.0-0.0","95984210","wem/bandit_party_2","A2ZPH76PDI9XIQ","either","8","270","","","","","","","0","0","1","0.3352692614","","0.2","0.6","0.8","0.4","","","","","0.4705173801","0.6230679906","0.6313830356","0.3352692614","","","","","","","","","","76","L","3","","","176","main_expt",""
"","bandit","256","787606","0.0-218.0-0.0","95984210","wem/bandit_party_2","A2ZPH76PDI9XIQ","either","8","431","","","","","","","1","0","0","0.5531265137","","0.2","0.6","0.8","0.4","","","","","0.4698597734","0.6501784685","0.5531265137","0.3389264817","","","","","","","","","","75","K","2","","","177","main_expt",""
"","bandit","257","789382","0.0-219.0-0.0","95984210","wem/bandit_party_2","A2ZPH76PDI9XIQ","either","8","270","","","","","","","1","0","0","0.4621004187","","0.2","0.6","0.8","0.4","","","","","0.3570804947","0.6334155083","0.4621004187","0.3709673039","","","","","","","","","","75","K","2","","","178","main_expt",""
"","bandit","258","791166","0.0-220.0-0.0","95984210","wem/bandit_party_2","A2ZPH76PDI9XIQ","either","8","278","","","","","","","0","0","1","0.512884041","","0.2","0.6","0.8","0.4","","","","","0.3441184995","0.7548338289","0.512884041","0.2940579202","","","","","","","","","","75","K","2","","","179","main_expt",""
"","bandit","259","792925","0.0-221.0-0.0","95984210","wem/bandit_party_2","A2ZPH76PDI9XIQ","either","8","253","","","","","","","0","0","1","","0.506744284","0.2","0.6","0.8","0.4","0.3646136501","0.8074073351","0.506744284","0.3218724025","","","","","","","","","","","","","","75","K","2","","","180","main_expt",""
"","bandit","260","794679","0.0-222.0-0.0","95984210","wem/bandit_party_2","A2ZPH76PDI9XIQ","either","8","248","","","","","","","0","0","1","","0.4556494723","0.2","0.6","0.8","0.4","0.3777688814","0.780721516","0.4556494723","0.3633286182","","","","","","","","","","","","","","75","K","2","","","181","main_expt",""
"","bandit","261","796509","0.0-223.0-0.0","95984210","wem/bandit_party_2","A2ZPH76PDI9XIQ","either","8","325","","","","","","","0","1","0","","0.7647415088","0.2","0.6","0.8","0.4","0.4578236703","0.7647415088","0.4494525508","0.3324048704","","","","","","","","","","","","","","74","J","1","","","182","main_expt",""
"","bandit","262","798310","0.0-224.0-0.0","95984210","wem/bandit_party_2","A2ZPH76PDI9XIQ","either","8","295","","","","","","","0","0","1","0.7349307529","","0.2","0.6","0.8","0.4","","","","","0.4244895098","0.7349307529","0.5189143621","0.3092830871","","","","","","","","","","74","J","1","","","183","main_expt",""
"","bandit","263","800078","0.0-225.0-0.0","95984210","wem/bandit_party_2","A2ZPH76PDI9XIQ","either","8","261","","","","","","","0","1","0","","0.8298088288","0.2","0.6","0.8","0.4","0.3566779322","0.8298088288","0.5167606333","0.3905692936","","","","","","","","","","","","","","74","J","1","","","184","main_expt",""
"","bandit","264","801933","0.0-226.0-0.0","95984210","wem/bandit_party_2","A2ZPH76PDI9XIQ","either","8","349","","","","","","","1","0","0","0.7894193193","","0.2","0.6","0.8","0.4","","","","","0.3737416658","0.7894193193","0.5270237034","0.4626192444","","","","","","","","","","74","J","1","","","185","main_expt",""
"","bandit","265","803725","0.0-227.0-0.0","95984210","wem/bandit_party_2","A2ZPH76PDI9XIQ","either","8","286","","","","","","","1","0","0","0.7665022487","","0.2","0.6","0.8","0.4","","","","","0.3120176694","0.7665022487","0.5556036571","0.6061762586","","","","","","","","","","74","J","1","","","186","main_expt",""
"","bandit","266","805566","0.0-228.0-0.0","95984210","wem/bandit_party_2","A2ZPH76PDI9XIQ","either","8","334","","","","","","","1","0","0","0.7394266891","","0.2","0.6","0.8","0.4","","","","","0.4134691065","0.7394266891","0.5865134094","0.530958695","","","","","","","","","","74","J","1","","","187","main_expt",""
"","bandit","267","807391","0.0-229.0-0.0","95984210","wem/bandit_party_2","A2ZPH76PDI9XIQ","either","8","320","","","","","","","0","0","1","0.6567361442","","0.2","0.6","0.8","0.4","","","","","0.4637770407","0.6567361442","0.5034866795","0.380024655","","","","","","","","","","74","J","1","","","188","main_expt",""
"","bandit","268","809197","0.0-230.0-0.0","95984210","wem/bandit_party_2","A2ZPH76PDI9XIQ","either","8","299","","","","","","","1","0","0","0.6572443956","","0.2","0.6","0.8","0.4","","","","","0.5739034088","0.6572443956","0.5761715841","0.4563575644","","","","","","","","","","74","J","1","","","189","main_expt",""
"","bandit","269","810989","0.0-231.0-0.0","95984210","wem/bandit_party_2","A2ZPH76PDI9XIQ","either","8","286","","","","","","","0","1","0","","0.6735764162","0.2","0.6","0.8","0.4","0.5859504021","0.6735764162","0.5325489933","0.4540853102","","","","","","","","","","","","","","74","J","1","","","190","main_expt",""
"","bandit","270","813374","0.0-232.0-0.0","95984210","wem/bandit_party_2","A2ZPH76PDI9XIQ","either","8","879","","","","","","","0","1","0","","0.5997518312","0.2","0.6","0.8","0.4","0.5325822721","0.5997518312","0.5614919892","0.4328006462","","","","","","","","","","","","","","74","J","1","","","191","main_expt",""
"","bandit","271","815228","0.0-233.0-0.0","95984210","wem/bandit_party_2","A2ZPH76PDI9XIQ","either","8","340","","","","","","","0","0","1","","0.6582178794","0.2","0.6","0.8","0.4","0.4622441745","0.6582178794","0.5972832049","0.4979354652","","","","","","","","","","","","","","74","J","1","","","192","main_expt",""
"","bandit","272","817054","0.0-234.0-0.0","95984210","wem/bandit_party_2","A2ZPH76PDI9XIQ","either","8","319","","","","","","","0","1","0","","0.7246172867","0.2","0.6","0.8","0.4","0.4765036663","0.7246172867","0.6997951875","0.4887187701","","","","","","","","","","","","","","74","J","1","","","193","main_expt",""
"","bandit","273","818813","0.0-235.0-0.0","95984210","wem/bandit_party_2","A2ZPH76PDI9XIQ","either","8","253","","","","","","","1","0","0","0.7721250451","","0.2","0.6","0.8","0.4","","","","","0.4504155567","0.7721250451","0.7511051992","0.4993882896","","","","","","","","","","74","J","1","","","194","main_expt",""
"","bandit","274","820580","0.0-236.0-0.0","95984210","wem/bandit_party_2","A2ZPH76PDI9XIQ","either","8","262","","","","","","","0","0","1","","0.8366496483","0.2","0.6","0.8","0.4","0.4354252764","0.8366496483","0.8281457055","0.5011331455","","","","","","","","","","","","","","74","J","1","","","195","main_expt",""
"","bandit","275","822404","0.0-237.0-0.0","95984210","wem/bandit_party_2","A2ZPH76PDI9XIQ","either","8","317","","","","","","","0","1","0","","0.8484646997","0.2","0.6","0.8","0.4","0.4170899215","0.8484646997","0.8248544968","0.4487960683","","","","","","","","","","","","","","74","J","1","","","196","main_expt",""
"","bandit","276","824197","0.0-238.0-0.0","95984210","wem/bandit_party_2","A2ZPH76PDI9XIQ","either","8","286","","","","","","","1","0","0","0.8734060335","","0.2","0.6","0.8","0.4","","","","","0.4149059055","0.8734060335","0.8532714289","0.3975590019","","","","","","","","","","74","J","1","","","197","main_expt",""
"","bandit","277","825901","0.0-239.0-0.0","95984210","wem/bandit_party_2","A2ZPH76PDI9XIQ","either","8","198","","","","","","","1","0","0","0.8515360685","","0.2","0.6","0.8","0.4","","","","","0.4737306044","0.8515360685","0.7587337752","0.4161601929","","","","","","","","","","74","J","1","","","198","main_expt",""
"","bandit","278","827692","0.0-240.0-0.0","95984210","wem/bandit_party_2","A2ZPH76PDI9XIQ","either","8","285","","","","","","","1","0","0","0.8805923715","","0.2","0.6","0.8","0.4","","","","","0.4541760911","0.8805923715","0.8124408481","0.4483979408","","","","","","","","","","74","J","1","","","199","main_expt",""
"","bandit","279","829508","0.0-241.0-0.0","95984210","wem/bandit_party_2","A2ZPH76PDI9XIQ","either","8","309","","","","","","","1","0","0","0.9645818821","","0.2","0.6","0.8","0.4","","","","","0.3964714959","0.9645818821","0.7935778268","0.5303380975","","","","","","","","","","74","J","1","","","200","main_expt",""
"","bandit","280","831324","0.0-242.0-0.0","95984210","wem/bandit_party_2","A2ZPH76PDI9XIQ","either","8","310","","","","","","","0","1","0","","0.9689478708","0.2","0.6","0.8","0.4","0.3815447649","0.9689478708","0.736942723","0.4014045657","","","","","","","","","","","","","","74","J","1","","","201","main_expt",""
"","bandit","281","846510","0.0-243.0-0.0","95984210","wem/bandit_party_2","A2ZPH76PDI9XIQ","either","8","13679","","","","","","","1","0","0","0.9678291885","","0.2","0.6","0.8","0.4","","","","","0.3726367513","0.9678291885","0.7001951276","0.5115169607","","","","","","","","","","74","J","1","","","202","main_expt",""
"","bandit","282","848588","0.0-244.0-0.0","95984210","wem/bandit_party_2","A2ZPH76PDI9XIQ","either","8","572","","","","","","","1","0","0","0.9633244117","","0.2","0.6","0.8","0.4","","","","","0.3062653216","0.9633244117","0.7209300446","0.5026191452","","","","","","","","","","74","J","1","","","203","main_expt",""
"","bandit","283","850436","0.0-245.0-0.0","95984210","wem/bandit_party_2","A2ZPH76PDI9XIQ","either","8","342","","","","","","","1","0","0","0.9730812582","","0.2","0.6","0.8","0.4","","","","","0.2848501254","0.9730812582","0.8574132932","0.4736298566","","","","","","","","","","74","J","1","","","204","main_expt",""
"","bandit","284","852941","0.0-246.0-0.0","95984210","wem/bandit_party_2","A2ZPH76PDI9XIQ","either","8","998","","","","","","","1","0","0","0.9521206422","","0.2","0.6","0.8","0.4","","","","","0.3457586416","0.9521206422","0.9038760074","0.6121858428","","","","","","","","","","74","J","1","","","205","main_expt",""
"","bandit","285","855812","0.0-247.0-0.0","95984210","wem/bandit_party_2","A2ZPH76PDI9XIQ","either","8","1365","","","","","","","1","0","0","0.9614764056","","0.2","0.6","0.8","0.4","","","","","0.4609097875","0.9614764056","0.9273356803","0.6377028942","","","","","","","","","","74","J","1","","","206","main_expt",""
"","bandit","286","857644","0.0-248.0-0.0","95984210","wem/bandit_party_2","A2ZPH76PDI9XIQ","either","8","326","","","","","","","0","1","0","","0.9625830716","0.2","0.6","0.8","0.4","0.4980316736","0.9625830716","0.9502037039","0.5700483165","","","","","","","","","","","","","","74","J","1","","","207","main_expt",""
"","bandit","287","859398","0.0-249.0-0.0","95984210","wem/bandit_party_2","A2ZPH76PDI9XIQ","either","8","247","","","","","","","1","0","0","0.9359306517","","0.2","0.6","0.8","0.4","","","","","0.4537691537","0.9359306517","0.944094639","0.624428721","","","","","","","","","","74","J","1","","","208","main_expt",""
"","bandit","288","861157","0.0-250.0-0.0","95984210","wem/bandit_party_2","A2ZPH76PDI9XIQ","either","8","254","","","","","","","1","0","0","0.9632917203","","0.2","0.6","0.8","0.4","","","","","0.4475842875","0.9632917203","0.9070839441","0.4861871301","","","","","","","","","","74","J","1","","","209","main_expt",""
"","bandit","289","862980","0.0-251.0-0.0","95984210","wem/bandit_party_2","A2ZPH76PDI9XIQ","either","8","318","","","","","","","1","0","0","0.9633226214","","0.2","0.6","0.8","0.4","","","","","0.4803454055","0.9633226214","0.8960653589","0.3956361612","","","","","","","","","","74","J","1","","","210","main_expt",""
"","bandit","290","864748","0.0-252.0-0.0","95984210","wem/bandit_party_2","A2ZPH76PDI9XIQ","either","8","262","","","","","","","0","1","0","","0.9719781217","0.2","0.6","0.8","0.4","0.4126443349","0.9719781217","0.9155455821","0.3599204452","","","","","","","","","","","","","","74","J","1","","","211","main_expt",""
"","bandit","291","866526","0.0-253.0-0.0","95984210","wem/bandit_party_2","A2ZPH76PDI9XIQ","either","8","272","","","","","","","1","0","0","0.9700781686","","0.2","0.6","0.8","0.4","","","","","0.3384802849","0.9700781686","0.9087954588","0.3349000901","","","","","","","","","","74","J","1","","","212","main_expt",""
"","bandit","292","868309","0.0-254.0-0.0","95984210","wem/bandit_party_2","A2ZPH76PDI9XIQ","either","8","276","","","","","","","1","0","0","0.971165811","","0.2","0.6","0.8","0.4","","","","","0.3039242722","0.971165811","0.8528540962","0.3183344176","","","","","","","","","","74","J","1","","","213","main_expt",""
"","bandit","293","870084","0.0-255.0-0.0","95984210","wem/bandit_party_2","A2ZPH76PDI9XIQ","either","8","269","","","","","","","0","1","0","","0.9627117","0.2","0.6","0.8","0.4","0.4541530846","0.9627117","0.8506041988","0.2390758011","","","","","","","","","","","","","","74","J","1","","","214","main_expt",""
"","bandit","294","871876","0.0-256.0-0.0","95984210","wem/bandit_party_2","A2ZPH76PDI9XIQ","either","8","286","","","","","","","1","0","0","0.9552130497","","0.2","0.6","0.8","0.4","","","","","0.5101749692","0.9552130497","0.8001829978","0.1997060473","","","","","","","","","","74","J","1","","","215","main_expt",""
"","bandit","295","873684","0.0-257.0-0.0","95984210","wem/bandit_party_2","A2ZPH76PDI9XIQ","either","8","302","","","","","","","1","0","0","0.9220350188","","0.2","0.6","0.8","0.4","","","","","0.5580520347","0.9220350188","0.733614842","0.2326539104","","","","","","","","","","74","J","1","","","216","main_expt",""
"","bandit","296","875522","0.0-258.0-0.0","95984210","wem/bandit_party_2","A2ZPH76PDI9XIQ","either","8","326","","","","","","","0","1","0","","0.8736667029","0.2","0.6","0.8","0.4","0.4368451062","0.8736667029","0.7479737912","0.2319826337","","","","","","","","","","","","","","74","J","1","","","217","main_expt",""
"","bandit","297","877307","0.0-259.0-0.0","95984210","wem/bandit_party_2","A2ZPH76PDI9XIQ","either","8","279","","","","","","","0","0","1","","0.7602784417","0.2","0.6","0.8","0.4","0.3963441813","0.7602784417","0.7713398237","0.3143382807","","","","","","","","","","","","","","74","J","1","","","218","main_expt",""
"","bandit","298","879083","0.0-260.0-0.0","95984210","wem/bandit_party_2","A2ZPH76PDI9XIQ","either","8","269","","","","","","","0","0","1","","0.7643050859","0.2","0.6","0.8","0.4","0.4809426617","0.7643050859","0.8077055691","0.3304972923","","","","","","","","","","","","","","74","J","1","","","219","main_expt",""
"","bandit","299","880858","0.0-261.0-0.0","95984210","wem/bandit_party_2","A2ZPH76PDI9XIQ","either","8","268","","","","","","","0","1","0","","0.397759556","0.2","0.6","0.8","0.4","0.397759556","0.7793587236","0.7778114837","0.2866104843","","","","","","","","","","","","","","72","H","0","img/none_selected.jpg","","220","main_expt",""
"","bandit","300","882626","0.0-262.0-0.0","95984210","wem/bandit_party_2","A2ZPH76PDI9XIQ","either","8","262","","","","","","","0","1","0","","0.4087677593","0.2","0.6","0.8","0.4","0.4087677593","0.82086311","0.7214198583","0.3602561646","","","","","","","","","","","","","","72","H","0","img/none_selected.jpg","","221","main_expt",""
"","bandit","301","884402","0.0-263.0-0.0","95984210","wem/bandit_party_2","A2ZPH76PDI9XIQ","either","8","270","","","","","","","0","1","0","","0.4561280915","0.2","0.6","0.8","0.4","0.4561280915","0.8543662658","0.8091526303","0.3228749062","","","","","","","","","","","","","","72","H","0","img/none_selected.jpg","","222","main_expt",""
"","bandit","302","886114","0.0-264.0-0.0","95984210","wem/bandit_party_2","A2ZPH76PDI9XIQ","either","8","206","","","","","","","0","0","1","0.4419858618","","0.2","0.6","0.8","0.4","","","","","0.4419858618","0.8599459829","0.8240838469","0.2549485676","","","","","","","","","","72","H","0","img/none_selected.jpg","","223","main_expt",""
"","bandit","303","887826","0.0-265.0-0.0","95984210","wem/bandit_party_2","A2ZPH76PDI9XIQ","either","8","205","","","","","","","0","1","0","","0.494409337","0.2","0.6","0.8","0.4","0.494409337","0.8747991669","0.7670685714","0.2389333491","","","","","","","","","","","","","","72","H","0","img/none_selected.jpg","","224","main_expt",""
"","bandit","304","889627","0.0-266.0-0.0","95984210","wem/bandit_party_2","A2ZPH76PDI9XIQ","either","8","294","","","","","","","0","0","1","","0.3713348049","0.2","0.6","0.8","0.4","0.3713348049","0.7910409491","0.8775689376","0.1517307125","","","","","","","","","","","","","","72","H","0","img/none_selected.jpg","","225","main_expt",""
"","bandit","305","891298","0.0-267.0-0.0","95984210","wem/bandit_party_2","A2ZPH76PDI9XIQ","either","8","165","","","","","","","0","0","1","","0.4013452417","0.2","0.6","0.8","0.4","0.4013452417","0.7212928749","0.8846504348","0.1002450003","","","","","","","","","","","","","","72","H","0","img/none_selected.jpg","","226","main_expt",""
"","bandit","306","893020","0.0-268.0-0.0","95984210","wem/bandit_party_2","A2ZPH76PDI9XIQ","either","8","214","","","","","","","0","0","1","","0.393451628","0.2","0.6","0.8","0.4","0.393451628","0.7090989562","0.851087938","0.1049945928","","","","","","","","","","","","","","72","H","0","img/none_selected.jpg","","227","main_expt",""
"","bandit","307","894787","0.0-269.0-0.0","95984210","wem/bandit_party_2","A2ZPH76PDI9XIQ","either","8","261","","","","","","","1","0","0","0.9074720337","","0.2","0.6","0.8","0.4","","","","","0.4175844788","0.6606736223","0.9074720337","0.03915988122","","","","","","","","","","75","K","2","","","228","main_expt",""
"","bandit","308","896498","0.0-270.0-0.0","95984210","wem/bandit_party_2","A2ZPH76PDI9XIQ","either","8","205","","","","","","","1","0","0","0.872332114","","0.2","0.6","0.8","0.4","","","","","0.408368909","0.6893924153","0.872332114","0.03767516843","","","","","","","","","","75","K","2","","","229","main_expt",""
"","bandit","309","898210","0.0-271.0-0.0","95984210","wem/bandit_party_2","A2ZPH76PDI9XIQ","either","8","205","","","","","","","1","0","0","0.7967167456","","0.2","0.6","0.8","0.4","","","","","0.4777699032","0.6067604319","0.7967167456","0.05804790214","","","","","","","","","","75","K","2","","","230","main_expt",""
"","bandit","310","899939","0.0-272.0-0.0","95984210","wem/bandit_party_2","A2ZPH76PDI9XIQ","either","8","222","","","","","","","0","0","1","0.7760618079","","0.2","0.6","0.8","0.4","","","","","0.4935442242","0.5037419277","0.7760618079","0.04963095007","","","","","","","","","","75","K","2","","","231","main_expt",""
"","bandit","311","902674","0.0-273.0-0.0","95984210","wem/bandit_party_2","A2ZPH76PDI9XIQ","either","8","1229","","","","","","","0","0","1","0.7765467853","","0.2","0.6","0.8","0.4","","","","","0.4889590317","0.4339479185","0.7765467853","0.03759782928","","","","","","","","","","75","K","2","","","232","main_expt",""
"","bandit","312","905226","0.0-274.0-0.0","95984210","wem/bandit_party_2","A2ZPH76PDI9XIQ","either","8","1046","","","","","","","1","0","0","0.7895219362","","0.2","0.6","0.8","0.4","","","","","0.5212294662","0.4525546635","0.7895219362","0.03147013274","","","","","","","","","","75","K","2","","","233","main_expt",""
"","bandit","313","906925","0.0-275.0-0.0","95984210","wem/bandit_party_2","A2ZPH76PDI9XIQ","either","8","193","","","","","","","1","0","0","0.7491899586","","0.2","0.6","0.8","0.4","","","","","0.4420617392","0.3680080929","0.7491899586","0.03547440544","","","","","","","","","","75","K","2","","","234","main_expt",""
"","bandit","314","908738","0.0-276.0-0.0","95984210","wem/bandit_party_2","A2ZPH76PDI9XIQ","either","8","307","","","","","","","0","1","0","","0.7397351474","0.2","0.6","0.8","0.4","0.4816955248","0.3416373547","0.7397351474","0.04486782706","","","","","","","","","","","","","","75","K","2","","","235","main_expt",""
"","bandit","315","910587","0.0-277.0-0.0","95984210","wem/bandit_party_2","A2ZPH76PDI9XIQ","either","8","343","","","","","","","1","0","0","0.6587673302","","0.2","0.6","0.8","0.4","","","","","0.3028121716","0.3722877153","0.6587673302","0.03122339122","","","","","","","","","","75","K","2","","","236","main_expt",""
"","bandit","316","912730","0.0-278.0-0.0","95984210","wem/bandit_party_2","A2ZPH76PDI9XIQ","either","8","637","","","","","","","1","0","0","0.7534934878","","0.2","0.6","0.8","0.4","","","","","0.3802502189","0.3081002542","0.7534934878","0.04191117605","","","","","","","","","","75","K","2","","","237","main_expt",""
"","bandit","317","914379","0.0-279.0-0.0","95984210","wem/bandit_party_2","A2ZPH76PDI9XIQ","either","8","143","","","","","","","1","0","0","0.8023031038","","0.2","0.6","0.8","0.4","","","","","0.4160754302","0.2546656634","0.8023031038","0.06367740527","","","","","","","","","","75","K","2","","","238","main_expt",""
