"consent","trial_type","trial_index","time_elapsed","internal_node_id","subjID","study","MID","cond","drift","rt","responses","button_pressed","key_press","like","value","connected","gems","bombs","no_reward","GemPrChosen","BombPrChosen","GainOverPainPr_0","GainOverPainPr_1","GainOverPainPr_2","GainOverPainPr_3","LosePr_0","LosePr_1","LosePr_2","LosePr_3","WinPr_0","WinPr_1","WinPr_2","WinPr_3","Q0","Q1","Q2","gender","age","ethnicity","label","expt_phase","target","respCharCode","respKey","respChoiceNum","respChoice","practice","trial_counter","trial_label","Q0_index"
"GDM/GDM_behavioral_consent_30min_online.html","consent","0","10675","0.0-0.0","96769868","wem/bandit_party_2","A231ZXYHPSNUJQ","either","3","","","","","","","","","","","","","","","","","","","","","","","","","","","","","","","","","","","","","","","","",""
"","survey-text","1","14505","0.0-1.0","96769868","wem/bandit_party_2","A231ZXYHPSNUJQ","either","3","2815","{""Q0"":""A231ZXYHPSNUJQ""}","","","","","","","","","","","","","","","","","","","","","","","","","","","","","","","","","","","","","","",""
"","button-response","2","17345","0.0-2.0","96769868","wem/bandit_party_2","A231ZXYHPSNUJQ","either","3","1831","","1","","","","","","","","","","","","","","","","","","","","","","","","","","","","","","","","","","","","","",""
"","text-replacement","3","25398","0.0-3.0","96769868","wem/bandit_party_2","A231ZXYHPSNUJQ","either","3","7046","","","32","","","","","","","","","","","","","","","","","","","","","","","","","","","","","","","","","","","","",""
"","text-replacement","4","35945","0.0-4.0","96769868","wem/bandit_party_2","A231ZXYHPSNUJQ","either","3","10543","","","32","","","","","","","","","","","","","","","","","","","","","","","","","","","","","","","","","","","","",""
"","identification","5","42853","0.0-6.0-0.0","96769868","wem/bandit_party_2","A231ZXYHPSNUJQ","either","3","6869","","","","5","6","5","","","","","","","","","","","","","","","","","","","","","","","","pre","identification_pre","the Democratic Party","","","","","","","",""
"","identification","6","48289","0.0-6.0-1.0","96769868","wem/bandit_party_2","A231ZXYHPSNUJQ","either","3","4409","","","","0","0","0","","","","","","","","","","","","","","","","","","","","","","","","pre","identification_pre","the Republican Party","","","","","","","",""
"","text-replacement","7","52631","0.0-7.0","96769868","wem/bandit_party_2","A231ZXYHPSNUJQ","either","3","3338","","","32","","","","","","","","","","","","","","","","","","","","","","","","","","","","","","","","","","","","",""
"","text-replacement","8","58475","0.0-8.0","96769868","wem/bandit_party_2","A231ZXYHPSNUJQ","either","3","5842","","","32","","","","","","","","","","","","","","","","","","","","","","","","","","","","","","","","","","","","",""
"","text-replacement","9","66658","0.0-9.0","96769868","wem/bandit_party_2","A231ZXYHPSNUJQ","either","3","8178","","","32","","","","","","","","","","","","","","","","","","","","","","","","","","","","","","","","","","","","",""
"","text-replacement","10","69693","0.0-10.0","96769868","wem/bandit_party_2","A231ZXYHPSNUJQ","either","3","3032","","","32","","","","","","","","","","","","","","","","","","","","","","","","","","","","","","","","","","","","",""
"","text-replacement","11","73450","0.0-11.0","96769868","wem/bandit_party_2","A231ZXYHPSNUJQ","either","3","3753","","","32","","","","","","","","","","","","","","","","","","","","","","","","","","","","","","","","","","","","",""
"","bandit","12","76931","0.0-12.0-0.0","96769868","wem/bandit_party_2","A231ZXYHPSNUJQ","either","3","1965","","","","","","","0","0","1","0","0","","","","","0","","","","0","","","","","","","","","","","","","74","J","0","img/none_selected_demo.jpg","true","0","",""
"","bandit","13","79668","0.0-13.0-0.0","96769868","wem/bandit_party_2","A231ZXYHPSNUJQ","either","3","1226","","","","","","","0","0","1","0","0","","","","","0","","","","0","","","","","","","","","","","","","75","K","0","img/none_selected_demo.jpg","true","0","",""
"","text-replacement","14","84625","0.0-14.0","96769868","wem/bandit_party_2","A231ZXYHPSNUJQ","either","3","4952","","","32","","","","","","","","","","","","","","","","","","","","","","","","","","","","","","","","","","","","",""
"","text-replacement","15","90854","0.0-15.0","96769868","wem/bandit_party_2","A231ZXYHPSNUJQ","either","3","6226","","","32","","","","","","","","","","","","","","","","","","","","","","","","","","","","","","","","","","","","",""
"","text-replacement","16","94207","0.0-16.0","96769868","wem/bandit_party_2","A231ZXYHPSNUJQ","either","3","3348","","","32","","","","","","","","","","","","","","","","","","","","","","","","","","","","","","","","","","","","",""
"","text-replacement","17","97057","0.0-17.0","96769868","wem/bandit_party_2","A231ZXYHPSNUJQ","either","3","2846","","","32","","","","","","","","","","","","","","","","","","","","","","","","","","","","","","","","","","","","",""
"","bandit","18","99565","0.0-18.0-0.0","96769868","wem/bandit_party_2","A231ZXYHPSNUJQ","either","3","995","","","","","","","0","0","1","","0.2","0.5","0.5","","","0.8","0.2","","","","","","","","","","","","","","","","75","K","1","","true","0","80_20_practice",""
"","bandit","19","101973","0.0-18.0-1.0","96769868","wem/bandit_party_2","A231ZXYHPSNUJQ","either","3","891","","","","","","","0","1","0","","0.8","0.5","0.5","","","0.8","0.2","","","","","","","","","","","","","","","","74","J","0","img/none_selected_demo.jpg","true","0","80_20_practice",""
"","bandit","20","104351","0.0-18.0-2.0","96769868","wem/bandit_party_2","A231ZXYHPSNUJQ","either","3","867","","","","","","","0","0","1","0.2","","0.5","0.5","","","","","","","0.8","0.2","","","","","","","","","","","","75","K","1","","true","0","80_20_practice",""
"","bandit","21","106296","0.0-18.0-3.0","96769868","wem/bandit_party_2","A231ZXYHPSNUJQ","either","3","432","","","","","","","1","0","0","0.8","","0.5","0.5","","","","","","","0.8","0.2","","","","","","","","","","","","74","J","0","img/none_selected_demo.jpg","true","0","80_20_practice",""
"","bandit","22","108113","0.0-18.0-4.0","96769868","wem/bandit_party_2","A231ZXYHPSNUJQ","either","3","308","","","","","","","1","0","0","0.8","","0.5","0.5","","","","","","","0.8","0.2","","","","","","","","","","","","74","J","0","img/none_selected_demo.jpg","true","0","80_20_practice",""
"","bandit","23","109965","0.0-18.0-5.0","96769868","wem/bandit_party_2","A231ZXYHPSNUJQ","either","3","339","","","","","","","0","1","0","","0.8","0.5","0.5","","","0.8","0.2","","","","","","","","","","","","","","","","74","J","0","img/none_selected_demo.jpg","true","0","80_20_practice",""
"","bandit","24","112006","0.0-18.0-6.0","96769868","wem/bandit_party_2","A231ZXYHPSNUJQ","either","3","528","","","","","","","0","0","1","","0.8","0.5","0.5","","","0.8","0.2","","","","","","","","","","","","","","","","74","J","0","img/none_selected_demo.jpg","true","0","80_20_practice",""
"","bandit","25","114473","0.0-18.0-7.0","96769868","wem/bandit_party_2","A231ZXYHPSNUJQ","either","3","955","","","","","","","0","0","1","","0.8","0.5","0.5","","","0.8","0.2","","","","","","","","","","","","","","","","74","J","0","img/none_selected_demo.jpg","true","0","80_20_practice",""
"","bandit","26","116622","0.0-18.0-8.0","96769868","wem/bandit_party_2","A231ZXYHPSNUJQ","either","3","632","","","","","","","0","0","1","","0.2","0.5","0.5","","","0.8","0.2","","","","","","","","","","","","","","","","75","K","1","","true","0","80_20_practice",""
"","bandit","27","118962","0.0-18.0-9.0","96769868","wem/bandit_party_2","A231ZXYHPSNUJQ","either","3","827","","","","","","","0","1","0","","0.8","0.5","0.5","","","0.8","0.2","","","","","","","","","","","","","","","","74","J","0","img/none_selected_demo.jpg","true","0","80_20_practice",""
"","bandit","28","120503","0.0-18.0-10.0","96769868","wem/bandit_party_2","A231ZXYHPSNUJQ","either","3","28","","","","","","","0","1","0","","0.8","0.5","0.5","","","0.8","0.2","","","","","","","","","","","","","","","","74","J","0","img/none_selected_demo.jpg","true","0","80_20_practice",""
"","bandit","29","122332","0.0-18.0-11.0","96769868","wem/bandit_party_2","A231ZXYHPSNUJQ","either","3","318","","","","","","","1","0","0","0.8","","0.5","0.5","","","","","","","0.8","0.2","","","","","","","","","","","","74","J","0","img/none_selected_demo.jpg","true","0","80_20_practice",""
"","bandit","30","124132","0.0-18.0-12.0","96769868","wem/bandit_party_2","A231ZXYHPSNUJQ","either","3","283","","","","","","","1","0","0","0.8","","0.5","0.5","","","","","","","0.8","0.2","","","","","","","","","","","","74","J","0","img/none_selected_demo.jpg","true","0","80_20_practice",""
"","bandit","31","125931","0.0-18.0-13.0","96769868","wem/bandit_party_2","A231ZXYHPSNUJQ","either","3","286","","","","","","","0","1","0","","0.8","0.5","0.5","","","0.8","0.2","","","","","","","","","","","","","","","","74","J","0","img/none_selected_demo.jpg","true","0","80_20_practice",""
"","bandit","32","127716","0.0-18.0-14.0","96769868","wem/bandit_party_2","A231ZXYHPSNUJQ","either","3","276","","","","","","","1","0","0","0.8","","0.5","0.5","","","","","","","0.8","0.2","","","","","","","","","","","","74","J","0","img/none_selected_demo.jpg","true","0","80_20_practice",""
"","bandit","33","129316","0.0-18.0-15.0","96769868","wem/bandit_party_2","A231ZXYHPSNUJQ","either","3","84","","","","","","","0","1","0","","0.8","0.5","0.5","","","0.8","0.2","","","","","","","","","","","","","","","","74","J","0","img/none_selected_demo.jpg","true","0","80_20_practice",""
"","bandit","34","130846","0.0-18.0-16.0","96769868","wem/bandit_party_2","A231ZXYHPSNUJQ","either","3","18","","","","","","","1","0","0","0.8","","0.5","0.5","","","","","","","0.8","0.2","","","","","","","","","","","","74","J","0","img/none_selected_demo.jpg","true","0","80_20_practice",""
"","bandit","35","132794","0.0-18.0-17.0","96769868","wem/bandit_party_2","A231ZXYHPSNUJQ","either","3","436","","","","","","","0","1","0","","0.8","0.5","0.5","","","0.8","0.2","","","","","","","","","","","","","","","","74","J","0","img/none_selected_demo.jpg","true","0","80_20_practice",""
"","bandit","36","134363","0.0-18.0-18.0","96769868","wem/bandit_party_2","A231ZXYHPSNUJQ","either","3","59","","","","","","","0","1","0","","0.8","0.5","0.5","","","0.8","0.2","","","","","","","","","","","","","","","","74","J","0","img/none_selected_demo.jpg","true","0","80_20_practice",""
"","bandit","37","136158","0.0-18.0-19.0","96769868","wem/bandit_party_2","A231ZXYHPSNUJQ","either","3","280","","","","","","","1","0","0","0.8","","0.5","0.5","","","","","","","0.8","0.2","","","","","","","","","","","","74","J","0","img/none_selected_demo.jpg","true","0","80_20_practice",""
"","text-replacement","38","142501","0.0-19.0","96769868","wem/bandit_party_2","A231ZXYHPSNUJQ","either","3","6338","","","32","","","","","","","","","","","","","","","","","","","","","","","","","","","","","","","","","","","","",""
"","bandit","39","145688","0.0-20.0-0.0","96769868","wem/bandit_party_2","A231ZXYHPSNUJQ","either","3","1675","","","","","","","1","0","0","1","0","","","","","0","1","","","1","0","","","","","","","","","","","","74","J","0","img/none_selected_demo.jpg","true","0","",""
"","text-replacement","40","145754","0.0-21.0","96769868","wem/bandit_party_2","A231ZXYHPSNUJQ","either","3","60","","","32","","","","","","","","","","","","","","","","","","","","","","","","","","","","","","","","","","","","",""
"","text-replacement","41","147767","0.0-22.0","96769868","wem/bandit_party_2","A231ZXYHPSNUJQ","either","3","2009","","","32","","","","","","","","","","","","","","","","","","","","","","","","","","","","","","","","","","","","",""
"","text-replacement","42","150475","0.0-23.0","96769868","wem/bandit_party_2","A231ZXYHPSNUJQ","either","3","2705","","","32","","","","","","","","","","","","","","","","","","","","","","","","","","","","","","","","","","","","",""
"","text-replacement","43","152576","0.0-24.0","96769868","wem/bandit_party_2","A231ZXYHPSNUJQ","either","3","2096","","","32","","","","","","","","","","","","","","","","","","","","","","","","","","","","","","","","","","","","",""
"","text-replacement","44","155160","0.0-25.0","96769868","wem/bandit_party_2","A231ZXYHPSNUJQ","either","3","2579","","","32","","","","","","","","","","","","","","","","","","","","","","","","","","","","","","","","","","","","",""
"","text-replacement","45","156463","0.0-26.0","96769868","wem/bandit_party_2","A231ZXYHPSNUJQ","either","3","1299","","","32","","","","","","","","","","","","","","","","","","","","","","","","","","","","","","","","","","","","",""
"","text-replacement","46","157389","0.0-27.0","96769868","wem/bandit_party_2","A231ZXYHPSNUJQ","either","3","919","","","32","","","","","","","","","","","","","","","","","","","","","","","","","","","","","","","","","","","","",""
"","text-replacement","47","162435","0.0-28.0","96769868","wem/bandit_party_2","A231ZXYHPSNUJQ","either","3","5040","","","32","","","","","","","","","","","","","","","","","","","","","","","","","","","","","","","","","","","","",""
"","text-replacement","48","164571","0.0-29.0","96769868","wem/bandit_party_2","A231ZXYHPSNUJQ","either","3","2131","","","32","","","","","","","","","","","","","","","","","","","","","","","","","","","","","","","","","","","","",""
"","text-replacement","49","167035","0.0-30.0","96769868","wem/bandit_party_2","A231ZXYHPSNUJQ","either","3","2461","","","32","","","","","","","","","","","","","","","","","","","","","","","","","","","","","","","","","","","","",""
"","text-replacement","50","168930","0.0-31.0","96769868","wem/bandit_party_2","A231ZXYHPSNUJQ","either","3","1891","","","32","","","","","","","","","","","","","","","","","","","","","","","","","","","","","","","","","","","","",""
"","bandit","51","171713","0.0-32.0-0.0","96769868","wem/bandit_party_2","A231ZXYHPSNUJQ","either","3","1269","","","","","","","0","0","1","","0.6","0.5","0.5","0.5","0.5","0.8","0.2","0.6","0.2","","","","","","","","","","","","","","75","K","2","","true","0","full_practice",""
"","bandit","52","173257","0.0-32.0-1.0","96769868","wem/bandit_party_2","A231ZXYHPSNUJQ","either","3","26","","","","","","","0","0","1","0.2","","0.5","0.5","0.5","0.5","","","","","0.8","0.2","0.6","0.2","","","","","","","","","","74","J","1","","true","0","full_practice",""
"","bandit","53","174946","0.0-32.0-2.0","96769868","wem/bandit_party_2","A231ZXYHPSNUJQ","either","3","174","","","","","","","0","0","1","","0.2","0.5","0.5","0.5","0.5","0.8","0.2","0.6","0.2","","","","","","","","","","","","","","76","L","3","","true","0","full_practice",""
"","bandit","54","176721","0.0-32.0-3.0","96769868","wem/bandit_party_2","A231ZXYHPSNUJQ","either","3","263","","","","","","","0","1","0","","0.8","0.5","0.5","0.5","0.5","0.8","0.2","0.6","0.2","","","","","","","","","","","","","","72","H","0","img/none_selected.jpg","true","0","full_practice",""
"","bandit","55","178579","0.0-32.0-4.0","96769868","wem/bandit_party_2","A231ZXYHPSNUJQ","either","3","347","","","","","","","1","0","0","0.8","","0.5","0.5","0.5","0.5","","","","","0.8","0.2","0.6","0.2","","","","","","","","","","72","H","0","img/none_selected.jpg","true","0","full_practice",""
"","bandit","56","180332","0.0-32.0-5.0","96769868","wem/bandit_party_2","A231ZXYHPSNUJQ","either","3","240","","","","","","","1","0","0","0.8","","0.5","0.5","0.5","0.5","","","","","0.8","0.2","0.6","0.2","","","","","","","","","","72","H","0","img/none_selected.jpg","true","0","full_practice",""
"","bandit","57","182273","0.0-32.0-6.0","96769868","wem/bandit_party_2","A231ZXYHPSNUJQ","either","3","427","","","","","","","1","0","0","0.8","","0.5","0.5","0.5","0.5","","","","","0.8","0.2","0.6","0.2","","","","","","","","","","72","H","0","img/none_selected.jpg","true","0","full_practice",""
"","bandit","58","184032","0.0-32.0-7.0","96769868","wem/bandit_party_2","A231ZXYHPSNUJQ","either","3","247","","","","","","","0","1","0","","0.8","0.5","0.5","0.5","0.5","0.8","0.2","0.6","0.2","","","","","","","","","","","","","","72","H","0","img/none_selected.jpg","true","0","full_practice",""
"","bandit","59","185728","0.0-32.0-8.0","96769868","wem/bandit_party_2","A231ZXYHPSNUJQ","either","3","180","","","","","","","0","1","0","","0.8","0.5","0.5","0.5","0.5","0.8","0.2","0.6","0.2","","","","","","","","","","","","","","72","H","0","img/none_selected.jpg","true","0","full_practice",""
"","bandit","60","187271","0.0-32.0-9.0","96769868","wem/bandit_party_2","A231ZXYHPSNUJQ","either","3","30","","","","","","","0","1","0","","0.8","0.5","0.5","0.5","0.5","0.8","0.2","0.6","0.2","","","","","","","","","","","","","","72","H","0","img/none_selected.jpg","true","0","full_practice",""
"","bandit","61","188902","0.0-32.0-10.0","96769868","wem/bandit_party_2","A231ZXYHPSNUJQ","either","3","117","","","","","","","1","0","0","0.8","","0.5","0.5","0.5","0.5","","","","","0.8","0.2","0.6","0.2","","","","","","","","","","72","H","0","img/none_selected.jpg","true","0","full_practice",""
"","bandit","62","190586","0.0-32.0-11.0","96769868","wem/bandit_party_2","A231ZXYHPSNUJQ","either","3","174","","","","","","","0","1","0","","0.8","0.5","0.5","0.5","0.5","0.8","0.2","0.6","0.2","","","","","","","","","","","","","","72","H","0","img/none_selected.jpg","true","0","full_practice",""
"","bandit","63","192141","0.0-32.0-12.0","96769868","wem/bandit_party_2","A231ZXYHPSNUJQ","either","3","43","","","","","","","0","0","1","","0.8","0.5","0.5","0.5","0.5","0.8","0.2","0.6","0.2","","","","","","","","","","","","","","72","H","0","img/none_selected.jpg","true","0","full_practice",""
"","bandit","64","193959","0.0-32.0-13.0","96769868","wem/bandit_party_2","A231ZXYHPSNUJQ","either","3","304","","","","","","","0","1","0","","0.8","0.5","0.5","0.5","0.5","0.8","0.2","0.6","0.2","","","","","","","","","","","","","","72","H","0","img/none_selected.jpg","true","0","full_practice",""
"","bandit","65","195923","0.0-32.0-14.0","96769868","wem/bandit_party_2","A231ZXYHPSNUJQ","either","3","448","","","","","","","0","1","0","","0.8","0.5","0.5","0.5","0.5","0.8","0.2","0.6","0.2","","","","","","","","","","","","","","72","H","0","img/none_selected.jpg","true","0","full_practice",""
"","bandit","66","197896","0.0-32.0-15.0","96769868","wem/bandit_party_2","A231ZXYHPSNUJQ","either","3","462","","","","","","","0","1","0","","0.8","0.5","0.5","0.5","0.5","0.8","0.2","0.6","0.2","","","","","","","","","","","","","","72","H","0","img/none_selected.jpg","true","0","full_practice",""
"","bandit","67","199619","0.0-32.0-16.0","96769868","wem/bandit_party_2","A231ZXYHPSNUJQ","either","3","209","","","","","","","0","1","0","","0.8","0.5","0.5","0.5","0.5","0.8","0.2","0.6","0.2","","","","","","","","","","","","","","72","H","0","img/none_selected.jpg","true","0","full_practice",""
"","bandit","68","201183","0.0-32.0-17.0","96769868","wem/bandit_party_2","A231ZXYHPSNUJQ","either","3","45","","","","","","","1","0","0","0.8","","0.5","0.5","0.5","0.5","","","","","0.8","0.2","0.6","0.2","","","","","","","","","","72","H","0","img/none_selected.jpg","true","0","full_practice",""
"","bandit","69","202717","0.0-32.0-18.0","96769868","wem/bandit_party_2","A231ZXYHPSNUJQ","either","3","20","","","","","","","0","1","0","","0.8","0.5","0.5","0.5","0.5","0.8","0.2","0.6","0.2","","","","","","","","","","","","","","72","H","0","img/none_selected.jpg","true","0","full_practice",""
"","bandit","70","204383","0.0-32.0-19.0","96769868","wem/bandit_party_2","A231ZXYHPSNUJQ","either","3","155","","","","","","","1","0","0","0.8","","0.5","0.5","0.5","0.5","","","","","0.8","0.2","0.6","0.2","","","","","","","","","","72","H","0","img/none_selected.jpg","true","0","full_practice",""
"","text","71","206944","0.0-33.0","96769868","wem/bandit_party_2","A231ZXYHPSNUJQ","either","3","2535","","","32","","","","","","","","","","","","","","","","","","","","","","","","","","","","","","","","","","","","",""
"","text-replacement","72","211715","0.0-34.0","96769868","wem/bandit_party_2","A231ZXYHPSNUJQ","either","3","3762","","","32","","","","","","","","","","","","","","","","","","","","","","","","","","","","","","","","","","","","",""
"","text-replacement","73","214017","0.0-35.0","96769868","wem/bandit_party_2","A231ZXYHPSNUJQ","either","3","2296","","","32","","","","","","","","","","","","","","","","","","","","","","","","","","","","","","","","","","","","",""
"","text-replacement","74","216060","0.0-36.0","96769868","wem/bandit_party_2","A231ZXYHPSNUJQ","either","3","2036","","","32","","","","","","","","","","","","","","","","","","","","","","","","","","","","","","","","","","","","",""
"","text-replacement","75","221622","0.0-37.0","96769868","wem/bandit_party_2","A231ZXYHPSNUJQ","either","3","5554","","","32","","","","","","","","","","","","","","","","","","","","","","","","","","","","","","","","","","","","",""
"","text-replacement","76","223507","0.0-38.0","96769868","wem/bandit_party_2","A231ZXYHPSNUJQ","either","3","1880","","","32","","","","","","","","","","","","","","","","","","","","","","","","","","","","","","","","","","","","",""
"","survey-multi-choice-replacement","77","229357","0.0-39.0-0.0","96769868","wem/bandit_party_2","A231ZXYHPSNUJQ","either","3","5838","","","","","","","","","","","","","","","","","","","","","","","","Money will be added to the pool for <span style='color:blue;'>DEMOCRATS</span>","","","","","","","attn_check","","","","","","","","","0"
"","survey-multi-choice-replacement","78","234481","0.0-40.0-0.0","96769868","wem/bandit_party_2","A231ZXYHPSNUJQ","either","3","4103","","","","","","","","","","","","","","","","","","","","","","","","Equal amounts of money will be added to the pool for <span style='color:blue;'>DEMOCRATS</span> and subtracted from the pool for <span style='color:red;'>REPUBLICANS</span>","","","","","","","attn_check","","","","","","","","","2"
"","survey-multi-choice-replacement","79","239213","0.0-41.0-0.0","96769868","wem/bandit_party_2","A231ZXYHPSNUJQ","either","3","3718","","","","","","","","","","","","","","","","","","","","","","","","No money will be added to either pool","","","","","","","attn_check","","","","","","","","","3"
"","bandit","80","243532","0.0-42.0-0.0","96769868","wem/bandit_party_2","A231ZXYHPSNUJQ","either","3","1802","","","","","","","0","0","1","","0.1387034319","0.2","0.4","0.8","0.6","0.1387034319","0.6494041588","0.6473934842","0.4261870849","","","","","","","","","","","","","","72","H","0","img/none_selected.jpg","","1","main_expt",""
"","bandit","81","245585","0.0-43.0-0.0","96769868","wem/bandit_party_2","A231ZXYHPSNUJQ","either","3","543","","","","","","","0","1","0","","0.7608835745","0.2","0.4","0.8","0.6","0.2166337036","0.7608835745","0.5221866694","0.3223101542","","","","","","","","","","","","","","74","J","1","","","2","main_expt",""
"","bandit","82","247588","0.0-44.0-0.0","96769868","wem/bandit_party_2","A231ZXYHPSNUJQ","either","3","490","","","","","","","0","1","0","","0.7745567172","0.2","0.4","0.8","0.6","0.3253899216","0.7745567172","0.5356292978","0.2541217019","","","","","","","","","","","","","","74","J","1","","","3","main_expt",""
"","bandit","83","249256","0.0-45.0-0.0","96769868","wem/bandit_party_2","A231ZXYHPSNUJQ","either","3","155","","","","","","","0","1","0","","0.8315703218","0.2","0.4","0.8","0.6","0.3003293127","0.8315703218","0.5154592071","0.2272043942","","","","","","","","","","","","","","74","J","1","","","4","main_expt",""
"","bandit","84","251155","0.0-46.0-0.0","96769868","wem/bandit_party_2","A231ZXYHPSNUJQ","either","3","383","","","","","","","0","0","1","0.8380789219","","0.2","0.4","0.8","0.6","","","","","0.3839660868","0.8380789219","0.4578896037","0.2967729676","","","","","","","","","","74","J","1","","","5","main_expt",""
"","bandit","85","253276","0.0-47.0-0.0","96769868","wem/bandit_party_2","A231ZXYHPSNUJQ","either","3","604","","","","","","","1","0","0","0.4825789634","","0.2","0.4","0.8","0.6","","","","","0.3833463511","0.8233568153","0.4825789634","0.3211998527","","","","","","","","","","75","K","2","","","6","main_expt",""
"","bandit","86","255181","0.0-48.0-0.0","96769868","wem/bandit_party_2","A231ZXYHPSNUJQ","either","3","392","","","","","","","0","0","1","","0.4013658759","0.2","0.4","0.8","0.6","0.3173395401","0.8672840292","0.4013658759","0.4190649117","","","","","","","","","","","","","","75","K","2","","","7","main_expt",""
"","bandit","87","256765","0.0-49.0-0.0","96769868","wem/bandit_party_2","A231ZXYHPSNUJQ","either","3","65","","","","","","","1","0","0","0.7921451217","","0.2","0.4","0.8","0.6","","","","","0.3265190876","0.7921451217","0.3721769634","0.5253498774","","","","","","","","","","74","J","1","","","8","main_expt",""
"","bandit","88","258525","0.0-50.0-0.0","96769868","wem/bandit_party_2","A231ZXYHPSNUJQ","either","3","248","","","","","","","0","0","1","","0.7826569337","0.2","0.4","0.8","0.6","0.4229840653","0.7826569337","0.3934089605","0.5552176016","","","","","","","","","","","","","","74","J","1","","","9","main_expt",""
"","bandit","89","261116","0.0-51.0-0.0","96769868","wem/bandit_party_2","A231ZXYHPSNUJQ","either","3","1067","","","","","","","1","0","0","0.3360942297","","0.2","0.4","0.8","0.6","","","","","0.5107168356","0.7150392401","0.3360942297","0.654745146","","","","","","","","","","75","K","2","","","10","main_expt",""
"","bandit","90","263442","0.0-52.0-0.0","96769868","wem/bandit_party_2","A231ZXYHPSNUJQ","either","3","816","","","","","","","1","0","0","0.4969537907","","0.2","0.4","0.8","0.6","","","","","0.4383577931","0.6906605055","0.4969537907","0.6089063278","","","","","","","","","","75","K","2","","","11","main_expt",""
"","bandit","91","266041","0.0-53.0-0.0","96769868","wem/bandit_party_2","A231ZXYHPSNUJQ","either","3","1081","","","","","","","0","1","0","","0.6725575113","0.2","0.4","0.8","0.6","0.5487148549","0.6725575113","0.4760264401","0.559155858","","","","","","","","","","","","","","74","J","1","","","12","main_expt",""
"","bandit","92","267677","0.0-54.0-0.0","96769868","wem/bandit_party_2","A231ZXYHPSNUJQ","either","3","121","","","","","","","0","0","1","","0.7404599176","0.2","0.4","0.8","0.6","0.7407599438","0.7404599176","0.4008761295","0.6464491645","","","","","","","","","","","","","","74","J","1","","","13","main_expt",""
"","bandit","93","269665","0.0-55.0-0.0","96769868","wem/bandit_party_2","A231ZXYHPSNUJQ","either","3","473","","","","","","","0","0","1","0.6751607758","","0.2","0.4","0.8","0.6","","","","","0.8307131687","0.6751607758","0.358486362","0.6936958995","","","","","","","","","","74","J","1","","","14","main_expt",""
"","bandit","94","271909","0.0-56.0-0.0","96769868","wem/bandit_party_2","A231ZXYHPSNUJQ","either","3","732","","","","","","","0","0","1","0.6115440925","","0.2","0.4","0.8","0.6","","","","","0.8114394421","0.6115440925","0.395258373","0.731471075","","","","","","","","","","74","J","1","","","15","main_expt",""
"","bandit","95","273760","0.0-57.0-0.0","96769868","wem/bandit_party_2","A231ZXYHPSNUJQ","either","3","341","","","","","","","0","0","1","0.4197334966","","0.2","0.4","0.8","0.6","","","","","0.8242397169","0.7019001419","0.4197334966","0.6487541525","","","","","","","","","","75","K","2","","","16","main_expt",""
"","bandit","96","275298","0.0-58.0-0.0","96769868","wem/bandit_party_2","A231ZXYHPSNUJQ","either","3","26","","","","","","","0","0","1","0.2160816064","","0.2","0.4","0.8","0.6","","","","","0.8317633157","0.7017998","0.2160816064","0.7654634758","","","","","","","","","","75","K","2","","","17","main_expt",""
"","bandit","97","277164","0.0-59.0-0.0","96769868","wem/bandit_party_2","A231ZXYHPSNUJQ","either","3","352","","","","","","","0","1","0","","0.7672473748","0.2","0.4","0.8","0.6","0.8158638682","0.7672473748","0.2058632209","0.7160830043","","","","","","","","","","","","","","74","J","1","","","18","main_expt",""
"","bandit","98","278867","0.0-60.0-0.0","96769868","wem/bandit_party_2","A231ZXYHPSNUJQ","either","3","189","","","","","","","0","1","0","","0.7950219121","0.2","0.4","0.8","0.6","0.8291878069","0.7950219121","0.2314559036","0.6856656502","","","","","","","","","","","","","","74","J","1","","","19","main_expt",""
"","bandit","99","280524","0.0-61.0-0.0","96769868","wem/bandit_party_2","A231ZXYHPSNUJQ","either","3","143","","","","","","","1","0","0","0.8460513568","","0.2","0.4","0.8","0.6","","","","","0.8665153398","0.8460513568","0.1762066147","0.6829400921","","","","","","","","","","74","J","1","","","20","main_expt",""
"","bandit","100","282304","0.0-62.0-0.0","96769868","wem/bandit_party_2","A231ZXYHPSNUJQ","either","3","267","","","","","","","1","0","0","0.8571228725","","0.2","0.4","0.8","0.6","","","","","0.8181415858","0.8571228725","0.150477598","0.6849203215","","","","","","","","","","74","J","1","","","21","main_expt",""
"","bandit","101","283995","0.0-63.0-0.0","96769868","wem/bandit_party_2","A231ZXYHPSNUJQ","either","3","174","","","","","","","0","0","1","","0.8498483749","0.2","0.4","0.8","0.6","0.7731960963","0.8498483749","0.1957635407","0.6832197831","","","","","","","","","","","","","","74","J","1","","","22","main_expt",""
"","bandit","102","288367","0.0-64.0-0.0","96769868","wem/bandit_party_2","A231ZXYHPSNUJQ","either","3","2860","","","","","","","0","1","0","","0.8004626553","0.2","0.4","0.8","0.6","0.8004626553","0.887495535","0.2193187944","0.6103957523","","","","","","","","","","","","","","72","H","0","img/none_selected.jpg","","23","main_expt",""
"","bandit","103","291700","0.0-65.0-0.0","96769868","wem/bandit_party_2","A231ZXYHPSNUJQ","either","3","1822","","","","","","","1","0","0","0.7941911222","","0.2","0.4","0.8","0.6","","","","","0.7941911222","0.918231735","0.1836328706","0.5485819736","","","","","","","","","","72","H","0","img/none_selected.jpg","","24","main_expt",""
"","bandit","104","293319","0.0-66.0-0.0","96769868","wem/bandit_party_2","A231ZXYHPSNUJQ","either","3","102","","","","","","","0","0","1","","0.7100633829","0.2","0.4","0.8","0.6","0.7100633829","0.9111146318","0.1410441375","0.5852935809","","","","","","","","","","","","","","72","H","0","img/none_selected.jpg","","25","main_expt",""
"","bandit","105","295256","0.0-67.0-0.0","96769868","wem/bandit_party_2","A231ZXYHPSNUJQ","either","3","421","","","","","","","0","1","0","","0.9190640316","0.2","0.4","0.8","0.6","0.6872129375","0.9190640316","0.1082593399","0.6097892937","","","","","","","","","","","","","","74","J","1","","","26","main_expt",""
"","bandit","106","297798","0.0-68.0-0.0","96769868","wem/bandit_party_2","A231ZXYHPSNUJQ","either","3","1027","","","","","","","0","1","0","","0.9372614837","0.2","0.4","0.8","0.6","0.6798864795","0.9372614837","0.1042047793","0.6653335402","","","","","","","","","","","","","","74","J","1","","","27","main_expt",""
"","bandit","107","299566","0.0-69.0-0.0","96769868","wem/bandit_party_2","A231ZXYHPSNUJQ","either","3","253","","","","","","","0","1","0","","0.9269484959","0.2","0.4","0.8","0.6","0.6812343762","0.9269484959","0.1153509117","0.6850825106","","","","","","","","","","","","","","74","J","1","","","28","main_expt",""
"","bandit","108","301206","0.0-70.0-0.0","96769868","wem/bandit_party_2","A231ZXYHPSNUJQ","either","3","123","","","","","","","1","0","0","0.9376772981","","0.2","0.4","0.8","0.6","","","","","0.5305157647","0.9376772981","0.1601566248","0.7309016742","","","","","","","","","","74","J","1","","","29","main_expt",""
"","bandit","109","303202","0.0-71.0-0.0","96769868","wem/bandit_party_2","A231ZXYHPSNUJQ","either","3","478","","","","","","","1","0","0","0.8795505253","","0.2","0.4","0.8","0.6","","","","","0.4713174284","0.8795505253","0.09548927903","0.8141980113","","","","","","","","","","74","J","1","","","30","main_expt",""
"","bandit","110","305197","0.0-72.0-0.0","96769868","wem/bandit_party_2","A231ZXYHPSNUJQ","either","3","479","","","","","","","0","1","0","","0.8605863748","0.2","0.4","0.8","0.6","0.2938490869","0.8605863748","0.09272353297","0.8926711601","","","","","","","","","","","","","","74","J","1","","","31","main_expt",""
"","bandit","111","307117","0.0-73.0-0.0","96769868","wem/bandit_party_2","A231ZXYHPSNUJQ","either","3","405","","","","","","","0","1","0","","0.757600507","0.2","0.4","0.8","0.6","0.3005160425","0.757600507","0.09547929832","0.8397563013","","","","","","","","","","","","","","74","J","1","","","32","main_expt",""
"","bandit","112","309054","0.0-74.0-0.0","96769868","wem/bandit_party_2","A231ZXYHPSNUJQ","either","3","420","","","","","","","0","0","1","0.7257103923","","0.2","0.4","0.8","0.6","","","","","0.3661211491","0.7257103923","0.08683876107","0.8251988787","","","","","","","","","","74","J","1","","","33","main_expt",""
"","bandit","113","310706","0.0-75.0-0.0","96769868","wem/bandit_party_2","A231ZXYHPSNUJQ","either","3","137","","","","","","","0","0","1","","0.5786815464","0.2","0.4","0.8","0.6","0.4614725573","0.5786815464","0.08117088791","0.7303528712","","","","","","","","","","","","","","74","J","1","","","34","main_expt",""
"","bandit","114","312482","0.0-76.0-0.0","96769868","wem/bandit_party_2","A231ZXYHPSNUJQ","either","3","254","","","","","","","0","0","1","0.09593582107","","0.2","0.4","0.8","0.6","","","","","0.4597324626","0.4812266686","0.09593582107","0.8093673003","","","","","","","","","","75","K","2","","","35","main_expt",""
"","bandit","115","314198","0.0-77.0-0.0","96769868","wem/bandit_party_2","A231ZXYHPSNUJQ","either","3","205","","","","","","","1","0","0","0.79718131","","0.2","0.4","0.8","0.6","","","","","0.4294742096","0.4459447539","0.1392988708","0.79718131","","","","","","","","","","76","L","3","","","36","main_expt",""
"","bandit","116","316450","0.0-78.0-0.0","96769868","wem/bandit_party_2","A231ZXYHPSNUJQ","either","3","728","","","","","","","0","1","0","","0.8157762275","0.2","0.4","0.8","0.6","0.5301274199","0.5737218407","0.07673209605","0.8157762275","","","","","","","","","","","","","","76","L","3","","","37","main_expt",""
"","bandit","117","318146","0.0-79.0-0.0","96769868","wem/bandit_party_2","A231ZXYHPSNUJQ","either","3","183","","","","","","","1","0","0","0.7941499978","","0.2","0.4","0.8","0.6","","","","","0.5746889943","0.6008421093","0.1078843958","0.7941499978","","","","","","","","","","76","L","3","","","38","main_expt",""
"","bandit","118","319689","0.0-80.0-0.0","96769868","wem/bandit_party_2","A231ZXYHPSNUJQ","either","3","26","","","","","","","1","0","0","0.7352357368","","0.2","0.4","0.8","0.6","","","","","0.6621100331","0.6076920036","0.09731722171","0.7352357368","","","","","","","","","","76","L","3","","","39","main_expt",""
"","bandit","119","321578","0.0-81.0-0.0","96769868","wem/bandit_party_2","A231ZXYHPSNUJQ","either","3","372","","","","","","","1","0","0","0.7920886563","","0.2","0.4","0.8","0.6","","","","","0.6794361822","0.6616622706","0.2123509389","0.7920886563","","","","","","","","","","76","L","3","","","40","main_expt",""
"","bandit","120","323356","0.0-82.0-0.0","96769868","wem/bandit_party_2","A231ZXYHPSNUJQ","either","3","262","","","","","","","0","1","0","","0.8780543775","0.2","0.4","0.8","0.6","0.7140523024","0.6945341382","0.1265365425","0.8780543775","","","","","","","","","","","","","","76","L","3","","","41","main_expt",""
"","bandit","121","325369","0.0-83.0-0.0","96769868","wem/bandit_party_2","A231ZXYHPSNUJQ","either","3","494","","","","","","","0","0","1","","0.9167256642","0.2","0.4","0.8","0.6","0.6669732994","0.6833149102","0.166138795","0.9167256642","","","","","","","","","","","","","","76","L","3","","","42","main_expt",""
"","bandit","122","327395","0.0-84.0-0.0","96769868","wem/bandit_party_2","A231ZXYHPSNUJQ","either","3","508","","","","","","","1","0","0","0.9407985187","","0.2","0.4","0.8","0.6","","","","","0.5435093165","0.7094953576","0.1782339186","0.9407985187","","","","","","","","","","76","L","3","","","43","main_expt",""
"","bandit","123","328968","0.0-85.0-0.0","96769868","wem/bandit_party_2","A231ZXYHPSNUJQ","either","3","53","","","","","","","0","1","0","","0.9000978766","0.2","0.4","0.8","0.6","0.6002661395","0.7519468023","0.1342945815","0.9000978766","","","","","","","","","","","","","","76","L","3","","","44","main_expt",""
"","bandit","124","330813","0.0-86.0-0.0","96769868","wem/bandit_party_2","A231ZXYHPSNUJQ","either","3","331","","","","","","","0","1","0","","0.9190036262","0.2","0.4","0.8","0.6","0.5948203474","0.7673203249","0.09086288848","0.9190036262","","","","","","","","","","","","","","76","L","3","","","45","main_expt",""
"","bandit","125","332429","0.0-87.0-0.0","96769868","wem/bandit_party_2","A231ZXYHPSNUJQ","either","3","103","","","","","","","0","1","0","","0.8865788656","0.2","0.4","0.8","0.6","0.6230250108","0.722836051","0.06420934006","0.8865788656","","","","","","","","","","","","","","76","L","3","","","46","main_expt",""
"","bandit","126","334298","0.0-88.0-0.0","96769868","wem/bandit_party_2","A231ZXYHPSNUJQ","either","3","352","","","","","","","1","0","0","0.8207935484","","0.2","0.4","0.8","0.6","","","","","0.7239235909","0.7392487755","0.02332738683","0.8207935484","","","","","","","","","","76","L","3","","","47","main_expt",""
"","bandit","127","336010","0.0-89.0-0.0","96769868","wem/bandit_party_2","A231ZXYHPSNUJQ","either","3","197","","","","","","","0","0","1","0.8170742187","","0.2","0.4","0.8","0.6","","","","","0.7715310514","0.7551111279","0.03517565614","0.8170742187","","","","","","","","","","76","L","3","","","48","main_expt",""
"","bandit","128","337551","0.0-90.0-0.0","96769868","wem/bandit_party_2","A231ZXYHPSNUJQ","either","3","27","","","","","","","1","0","0","0.7874830355","","0.2","0.4","0.8","0.6","","","","","0.822179592","0.6917772817","0.04466115719","0.7874830355","","","","","","","","","","76","L","3","","","49","main_expt",""
"","bandit","129","339415","0.0-91.0-0.0","96769868","wem/bandit_party_2","A231ZXYHPSNUJQ","either","3","345","","","","","","","1","0","0","0.8279472521","","0.2","0.4","0.8","0.6","","","","","0.8108951243","0.6689959301","0.05053383529","0.8279472521","","","","","","","","","","76","L","3","","","50","main_expt",""
"","bandit","130","341127","0.0-92.0-0.0","96769868","wem/bandit_party_2","A231ZXYHPSNUJQ","either","3","193","","","","","","","0","1","0","","0.8426817256","0.2","0.4","0.8","0.6","0.7649170446","0.6020608281","0.04681033125","0.8426817256","","","","","","","","","","","","","","76","L","3","","","51","main_expt",""
"","bandit","131","342960","0.0-93.0-0.0","96769868","wem/bandit_party_2","A231ZXYHPSNUJQ","either","3","317","","","","","","","1","0","0","0.8377647656","","0.2","0.4","0.8","0.6","","","","","0.8169848275","0.6583182673","0.09308222201","0.8377647656","","","","","","","","","","76","L","3","","","52","main_expt",""
"","bandit","132","344621","0.0-94.0-0.0","96769868","wem/bandit_party_2","A231ZXYHPSNUJQ","either","3","143","","","","","","","1","0","0","0.8843577791","","0.2","0.4","0.8","0.6","","","","","0.8843577791","0.5419436754","0.1397702629","0.8241398149","","","","","","","","","","72","H","0","img/none_selected.jpg","","53","main_expt",""
"","bandit","133","346269","0.0-95.0-0.0","96769868","wem/bandit_party_2","A231ZXYHPSNUJQ","either","3","128","","","","","","","0","0","1","0.8854515068","","0.2","0.4","0.8","0.6","","","","","0.8854515068","0.5717614462","0.110287685","0.7289352116","","","","","","","","","","72","H","0","img/none_selected.jpg","","54","main_expt",""
"","bandit","134","348024","0.0-96.0-0.0","96769868","wem/bandit_party_2","A231ZXYHPSNUJQ","either","3","238","","","","","","","0","1","0","","0.5895019519","0.2","0.4","0.8","0.6","0.8884574585","0.5497935615","0.1843384007","0.5895019519","","","","","","","","","","","","","","76","L","3","","","55","main_expt",""
"","bandit","135","349870","0.0-97.0-0.0","96769868","wem/bandit_party_2","A231ZXYHPSNUJQ","either","3","331","","","","","","","0","0","1","","0.4622464331","0.2","0.4","0.8","0.6","0.8840911236","0.4902645195","0.2056752237","0.4622464331","","","","","","","","","","","","","","76","L","3","","","56","main_expt",""
"","bandit","136","351562","0.0-98.0-0.0","96769868","wem/bandit_party_2","A231ZXYHPSNUJQ","either","3","175","","","","","","","0","0","1","0.490024734","","0.2","0.4","0.8","0.6","","","","","0.864283103","0.5258365243","0.3410726922","0.490024734","","","","","","","","","","76","L","3","","","57","main_expt",""
"","bandit","137","353701","0.0-99.0-0.0","96769868","wem/bandit_party_2","A231ZXYHPSNUJQ","either","3","618","","","","","","","0","0","1","","0.7377821737","0.2","0.4","0.8","0.6","0.7377821737","0.6097664349","0.3873695161","0.6182628796","","","","","","","","","","","","","","72","H","0","img/none_selected.jpg","","58","main_expt",""
"","bandit","138","355649","0.0-100.0-0.0","96769868","wem/bandit_party_2","A231ZXYHPSNUJQ","either","3","434","","","","","","","0","0","1","","0.6016711108","0.2","0.4","0.8","0.6","0.7469541206","0.6016711108","0.3281321534","0.6976829826","","","","","","","","","","","","","","74","J","1","","","59","main_expt",""
"","bandit","139","357702","0.0-101.0-0.0","96769868","wem/bandit_party_2","A231ZXYHPSNUJQ","either","3","534","","","","","","","1","0","0","0.5544917648","","0.2","0.4","0.8","0.6","","","","","0.8019510571","0.5544917648","0.2380439254","0.675433977","","","","","","","","","","74","J","1","","","60","main_expt",""
"","bandit","140","359579","0.0-102.0-0.0","96769868","wem/bandit_party_2","A231ZXYHPSNUJQ","either","3","364","","","","","","","0","0","1","0.6842720067","","0.2","0.4","0.8","0.6","","","","","0.8943887388","0.6842720067","0.2228222105","0.7206550838","","","","","","","","","","74","J","1","","","61","main_expt",""
"","bandit","141","361582","0.0-103.0-0.0","96769868","wem/bandit_party_2","A231ZXYHPSNUJQ","either","3","481","","","","","","","1","0","0","0.7184677658","","0.2","0.4","0.8","0.6","","","","","0.8942973556","0.6824345281","0.2489253665","0.7184677658","","","","","","","","","","76","L","3","","","62","main_expt",""
"","bandit","142","363331","0.0-104.0-0.0","96769868","wem/bandit_party_2","A231ZXYHPSNUJQ","either","3","231","","","","","","","0","0","1","0.6785259816","","0.2","0.4","0.8","0.6","","","","","0.8829609874","0.7321168219","0.2298237489","0.6785259816","","","","","","","","","","76","L","3","","","63","main_expt",""
"","bandit","143","364878","0.0-105.0-0.0","96769868","wem/bandit_party_2","A231ZXYHPSNUJQ","either","3","31","","","","","","","0","0","1","","0.6349383059","0.2","0.4","0.8","0.6","0.8175344892","0.8123013145","0.1849055857","0.6349383059","","","","","","","","","","","","","","76","L","3","","","64","main_expt",""
"","bandit","144","367036","0.0-106.0-0.0","96769868","wem/bandit_party_2","A231ZXYHPSNUJQ","either","3","643","","","","","","","0","1","0","","0.7812905168","0.2","0.4","0.8","0.6","0.7812905168","0.8236121316","0.2285715909","0.629769122","","","","","","","","","","","","","","72","H","0","img/none_selected.jpg","","65","main_expt",""
"","bandit","145","368663","0.0-107.0-0.0","96769868","wem/bandit_party_2","A231ZXYHPSNUJQ","either","3","107","","","","","","","1","0","0","0.7848445355","","0.2","0.4","0.8","0.6","","","","","0.7848445355","0.8270077233","0.2477643906","0.7158950816","","","","","","","","","","72","H","0","img/none_selected.jpg","","66","main_expt",""
"","bandit","146","370459","0.0-108.0-0.0","96769868","wem/bandit_party_2","A231ZXYHPSNUJQ","either","3","279","","","","","","","0","0","1","","0.763143195","0.2","0.4","0.8","0.6","0.763143195","0.7601471472","0.1801078726","0.6309271871","","","","","","","","","","","","","","72","H","0","img/none_selected.jpg","","67","main_expt",""
"","bandit","147","372287","0.0-109.0-0.0","96769868","wem/bandit_party_2","A231ZXYHPSNUJQ","either","3","307","","","","","","","0","1","0","","0.7966751536","0.2","0.4","0.8","0.6","0.7966751536","0.7567750057","0.08479184886","0.617221228","","","","","","","","","","","","","","72","H","0","img/none_selected.jpg","","68","main_expt",""
"","bandit","148","374194","0.0-110.0-0.0","96769868","wem/bandit_party_2","A231ZXYHPSNUJQ","either","3","392","","","","","","","0","1","0","","0.8534335227","0.2","0.4","0.8","0.6","0.8534335227","0.6871277649","0.06982522498","0.6235929763","","","","","","","","","","","","","","72","H","0","img/none_selected.jpg","","69","main_expt",""
"","bandit","149","376085","0.0-111.0-0.0","96769868","wem/bandit_party_2","A231ZXYHPSNUJQ","either","3","372","","","","","","","0","1","0","","0.8915498471","0.2","0.4","0.8","0.6","0.8915498471","0.773099018","0.05029268469","0.5543620559","","","","","","","","","","","","","","72","H","0","img/none_selected.jpg","","70","main_expt",""
"","bandit","150","378010","0.0-112.0-0.0","96769868","wem/bandit_party_2","A231ZXYHPSNUJQ","either","3","407","","","","","","","1","0","0","0.8736989015","","0.2","0.4","0.8","0.6","","","","","0.8736989015","0.7412476729","0.06413839938","0.5333999135","","","","","","","","","","72","H","0","img/none_selected.jpg","","71","main_expt",""
"","bandit","151","379655","0.0-113.0-0.0","96769868","wem/bandit_party_2","A231ZXYHPSNUJQ","either","3","128","","","","","","","1","0","0","0.8837551658","","0.2","0.4","0.8","0.6","","","","","0.8837551658","0.8080704968","0.05155778705","0.5905126671","","","","","","","","","","72","H","0","img/none_selected.jpg","","72","main_expt",""
"","bandit","152","381432","0.0-114.0-0.0","96769868","wem/bandit_party_2","A231ZXYHPSNUJQ","either","3","265","","","","","","","0","1","0","","0.8495494246","0.2","0.4","0.8","0.6","0.8495494246","0.8270016227","0.0232747386","0.6925119087","","","","","","","","","","","","","","72","H","0","img/none_selected.jpg","","73","main_expt",""
"","bandit","153","382963","0.0-115.0-0.0","96769868","wem/bandit_party_2","A231ZXYHPSNUJQ","either","3","14","","","","","","","0","1","0","","0.9127472651","0.2","0.4","0.8","0.6","0.9127472651","0.7872017979","0.04751547773","0.7134745341","","","","","","","","","","","","","","72","H","0","img/none_selected.jpg","","74","main_expt",""
"","bandit","154","384878","0.0-116.0-0.0","96769868","wem/bandit_party_2","A231ZXYHPSNUJQ","either","3","398","","","","","","","1","0","0","0.9199060817","","0.2","0.4","0.8","0.6","","","","","0.9199060817","0.6167225576","0.05282531612","0.8065440948","","","","","","","","","","72","H","0","img/none_selected.jpg","","75","main_expt",""
"","bandit","155","386779","0.0-117.0-0.0","96769868","wem/bandit_party_2","A231ZXYHPSNUJQ","either","3","383","","","","","","","1","0","0","0.8691294168","","0.2","0.4","0.8","0.6","","","","","0.8691294168","0.637182095","0.08738729654","0.7849172319","","","","","","","","","","72","H","0","img/none_selected.jpg","","76","main_expt",""
"","bandit","156","388911","0.0-118.0-0.0","96769868","wem/bandit_party_2","A231ZXYHPSNUJQ","either","3","610","","","","","","","0","1","0","","0.9111329321","0.2","0.4","0.8","0.6","0.9111329321","0.7169911294","0.08851312664","0.7818962729","","","","","","","","","","","","","","72","H","0","img/none_selected.jpg","","77","main_expt",""
"","bandit","157","390611","0.0-119.0-0.0","96769868","wem/bandit_party_2","A231ZXYHPSNUJQ","either","3","182","","","","","","","1","0","0","0.9286966754","","0.2","0.4","0.8","0.6","","","","","0.9286966754","0.7446448061","0.145228539","0.7002933386","","","","","","","","","","72","H","0","img/none_selected.jpg","","78","main_expt",""
"","bandit","158","392818","0.0-120.0-0.0","96769868","wem/bandit_party_2","A231ZXYHPSNUJQ","either","3","691","","","","","","","0","1","0","","0.9616021792","0.2","0.4","0.8","0.6","0.9616021792","0.8152221547","0.1669860915","0.6510109529","","","","","","","","","","","","","","72","H","0","img/none_selected.jpg","","79","main_expt",""
"","bandit","159","394394","0.0-121.0-0.0","96769868","wem/bandit_party_2","A231ZXYHPSNUJQ","either","3","68","","","","","","","0","1","0","","0.950571795","0.2","0.4","0.8","0.6","0.950571795","0.810351938","0.1922913003","0.6765614865","","","","","","","","","","","","","","72","H","0","img/none_selected.jpg","","80","main_expt",""
"","bandit","160","396047","0.0-122.0-0.0","96769868","wem/bandit_party_2","A231ZXYHPSNUJQ","either","3","138","","","","","","","0","1","0","","0.9331160128","0.2","0.4","0.8","0.6","0.9331160128","0.8895110989","0.2407870914","0.5908869344","","","","","","","","","","","","","","72","H","0","img/none_selected.jpg","","81","main_expt",""
"","bandit","161","397959","0.0-123.0-0.0","96769868","wem/bandit_party_2","A231ZXYHPSNUJQ","either","3","394","","","","","","","0","1","0","","0.9465986336","0.2","0.4","0.8","0.6","0.9465986336","0.9046816681","0.3077898034","0.5267531711","","","","","","","","","","","","","","72","H","0","img/none_selected.jpg","","82","main_expt",""
"","bandit","162","399651","0.0-124.0-0.0","96769868","wem/bandit_party_2","A231ZXYHPSNUJQ","either","3","173","","","","","","","0","0","1","","0.9371159138","0.2","0.4","0.8","0.6","0.9371159138","0.8465278631","0.2337579628","0.6168373964","","","","","","","","","","","","","","72","H","0","img/none_selected.jpg","","83","main_expt",""
"","bandit","163","401533","0.0-125.0-0.0","96769868","wem/bandit_party_2","A231ZXYHPSNUJQ","either","3","366","","","","","","","0","1","0","","0.8998840018","0.2","0.4","0.8","0.6","0.8998840018","0.7584930438","0.2781329454","0.5733990252","","","","","","","","","","","","","","72","H","0","img/none_selected.jpg","","84","main_expt",""
"","bandit","164","403408","0.0-126.0-0.0","96769868","wem/bandit_party_2","A231ZXYHPSNUJQ","either","3","359","","","","","","","0","1","0","","0.9102188985","0.2","0.4","0.8","0.6","0.9102188985","0.7727946294","0.3013149798","0.4719695616","","","","","","","","","","","","","","72","H","0","img/none_selected.jpg","","85","main_expt",""
"","bandit","165","404969","0.0-127.0-0.0","96769868","wem/bandit_party_2","A231ZXYHPSNUJQ","either","3","39","","","","","","","0","0","1","","0.9000055418","0.2","0.4","0.8","0.6","0.9000055418","0.8216594778","0.3231836659","0.6941651786","","","","","","","","","","","","","","72","H","0","img/none_selected.jpg","","86","main_expt",""
"","bandit","166","406861","0.0-128.0-0.0","96769868","wem/bandit_party_2","A231ZXYHPSNUJQ","either","3","376","","","","","","","0","1","0","","0.8563468124","0.2","0.4","0.8","0.6","0.8563468124","0.7833884788","0.3986379136","0.5408952125","","","","","","","","","","","","","","72","H","0","img/none_selected.jpg","","87","main_expt",""
"","bandit","167","408590","0.0-129.0-0.0","96769868","wem/bandit_party_2","A231ZXYHPSNUJQ","either","3","209","","","","","","","0","1","0","","0.7349543302","0.2","0.4","0.8","0.6","0.7349543302","0.7804426693","0.4230151841","0.5438891422","","","","","","","","","","","","","","72","H","0","img/none_selected.jpg","","88","main_expt",""
"","bandit","168","410466","0.0-130.0-0.0","96769868","wem/bandit_party_2","A231ZXYHPSNUJQ","either","3","355","","","","","","","0","1","0","","0.7907967515","0.2","0.4","0.8","0.6","0.7907967515","0.7930928848","0.3761858397","0.4294971294","","","","","","","","","","","","","","72","H","0","img/none_selected.jpg","","89","main_expt",""
"","bandit","169","412270","0.0-131.0-0.0","96769868","wem/bandit_party_2","A231ZXYHPSNUJQ","either","3","284","","","","","","","1","0","0","0.7883246469","","0.2","0.4","0.8","0.6","","","","","0.7883246469","0.7683039237","0.4799086841","0.4928337868","","","","","","","","","","72","H","0","img/none_selected.jpg","","90","main_expt",""
"","bandit","170","414076","0.0-132.0-0.0","96769868","wem/bandit_party_2","A231ZXYHPSNUJQ","either","3","287","","","","","","","0","1","0","","0.8389096604","0.2","0.4","0.8","0.6","0.8389096604","0.8072091422","0.4558425901","0.5655090935","","","","","","","","","","","","","","72","H","0","img/none_selected.jpg","","91","main_expt",""
"","bandit","171","415939","0.0-133.0-0.0","96769868","wem/bandit_party_2","A231ZXYHPSNUJQ","either","3","331","","","","","","","0","1","0","","0.8064187158","0.2","0.4","0.8","0.6","0.8064187158","0.7791444337","0.3781515597","0.6154818033","","","","","","","","","","","","","","72","H","0","img/none_selected.jpg","","92","main_expt",""
"","bandit","172","418430","0.0-134.0-0.0","96769868","wem/bandit_party_2","A231ZXYHPSNUJQ","either","3","975","","","","","","","0","0","1","0.7381217307","","0.2","0.4","0.8","0.6","","","","","0.7542368763","0.8498372391","0.2858753042","0.7381217307","","","","","","","","","","76","L","3","","","93","main_expt",""
"","bandit","173","420935","0.0-135.0-0.0","96769868","wem/bandit_party_2","A231ZXYHPSNUJQ","either","3","983","","","","","","","0","0","1","0.6932487021","","0.2","0.4","0.8","0.6","","","","","0.6932487021","0.8440610374","0.3914428564","0.7776388333","","","","","","","","","","72","H","0","img/none_selected.jpg","","94","main_expt",""
"","bandit","174","423454","0.0-136.0-0.0","96769868","wem/bandit_party_2","A231ZXYHPSNUJQ","either","3","1007","","","","","","","0","1","0","","0.8092418145","0.2","0.4","0.8","0.6","0.6706070003","0.8092418145","0.3800018616","0.8299152283","","","","","","","","","","","","","","74","J","1","","","95","main_expt",""
"","bandit","175","425265","0.0-137.0-0.0","96769868","wem/bandit_party_2","A231ZXYHPSNUJQ","either","3","295","","","","","","","1","0","0","0.8655172998","","0.2","0.4","0.8","0.6","","","","","0.6670251336","0.8655172998","0.3078584031","0.7697811485","","","","","","","","","","74","J","1","","","96","main_expt",""
"","bandit","176","427046","0.0-138.0-0.0","96769868","wem/bandit_party_2","A231ZXYHPSNUJQ","either","3","264","","","","","","","1","0","0","0.8735151232","","0.2","0.4","0.8","0.6","","","","","0.7023758817","0.8735151232","0.218486712","0.7487724405","","","","","","","","","","74","J","1","","","97","main_expt",""
"","bandit","177","428774","0.0-139.0-0.0","96769868","wem/bandit_party_2","A231ZXYHPSNUJQ","either","3","209","","","","","","","1","0","0","0.84409386","","0.2","0.4","0.8","0.6","","","","","0.7036518389","0.84409386","0.2037628256","0.7450583294","","","","","","","","","","74","J","1","","","98","main_expt",""
"","bandit","178","430557","0.0-140.0-0.0","96769868","wem/bandit_party_2","A231ZXYHPSNUJQ","either","3","264","","","","","","","0","0","1","","0.8089648913","0.2","0.4","0.8","0.6","0.8401346726","0.8089648913","0.2400196326","0.7227120129","","","","","","","","","","","","","","74","J","1","","","99","main_expt",""
"","bandit","179","432242","0.0-141.0-0.0","96769868","wem/bandit_party_2","A231ZXYHPSNUJQ","either","3","163","","","","","","","0","0","1","0.7259557377","","0.2","0.4","0.8","0.6","","","","","0.8640782416","0.7259557377","0.3298222115","0.5872141049","","","","","","","","","","74","J","1","","","100","main_expt",""
"","bandit","180","433849","0.0-142.0-0.0","96769868","wem/bandit_party_2","A231ZXYHPSNUJQ","either","3","89","","","","","","","0","0","1","","0.6432213136","0.2","0.4","0.8","0.6","0.8232172207","0.6332869741","0.3108047587","0.6432213136","","","","","","","","","","","","","","76","L","3","","","101","main_expt",""
"","bandit","181","435542","0.0-143.0-0.0","96769868","wem/bandit_party_2","A231ZXYHPSNUJQ","either","3","170","","","","","","","0","0","1","0.8451901448","","0.2","0.4","0.8","0.6","","","","","0.8451901448","0.659443461","0.2869381514","0.6009476408","","","","","","","","","","72","H","0","img/none_selected.jpg","","102","main_expt",""
"","bandit","182","437432","0.0-144.0-0.0","96769868","wem/bandit_party_2","A231ZXYHPSNUJQ","either","3","366","","","","","","","0","0","1","","0.5959971703","0.2","0.4","0.8","0.6","0.8792283932","0.5959971703","0.246485708","0.6120105745","","","","","","","","","","","","","","74","J","1","","","103","main_expt",""
"","bandit","183","439045","0.0-145.0-0.0","96769868","wem/bandit_party_2","A231ZXYHPSNUJQ","either","3","96","","","","","","","1","0","0","0.6821098495","","0.2","0.4","0.8","0.6","","","","","0.8887181638","0.5643630141","0.2175667678","0.6821098495","","","","","","","","","","76","L","3","","","104","main_expt",""
"","bandit","184","441062","0.0-146.0-0.0","96769868","wem/bandit_party_2","A231ZXYHPSNUJQ","either","3","492","","","","","","","1","0","0","0.7228510016","","0.2","0.4","0.8","0.6","","","","","0.8013578166","0.5489079514","0.2645808036","0.7228510016","","","","","","","","","","76","L","3","","","105","main_expt",""
"","bandit","185","442716","0.0-147.0-0.0","96769868","wem/bandit_party_2","A231ZXYHPSNUJQ","either","3","138","","","","","","","1","0","0","0.6639212405","","0.2","0.4","0.8","0.6","","","","","0.7307006529","0.4336033326","0.2652424516","0.6639212405","","","","","","","","","","76","L","3","","","106","main_expt",""
"","bandit","186","444527","0.0-148.0-0.0","96769868","wem/bandit_party_2","A231ZXYHPSNUJQ","either","3","292","","","","","","","0","1","0","","0.6237034742","0.2","0.4","0.8","0.6","0.7519500851","0.4779201531","0.2481661544","0.6237034742","","","","","","","","","","","","","","76","L","3","","","107","main_expt",""
"","bandit","187","446051","0.0-149.0-0.0","96769868","wem/bandit_party_2","A231ZXYHPSNUJQ","either","3","2","","","","","","","1","0","0","0.5847293191","","0.2","0.4","0.8","0.6","","","","","0.7457577851","0.5075294874","0.2361720859","0.5847293191","","","","","","","","","","76","L","3","","","108","main_expt",""
"","bandit","188","448076","0.0-150.0-0.0","96769868","wem/bandit_party_2","A231ZXYHPSNUJQ","either","3","507","","","","","","","1","0","0","0.6260859175","","0.2","0.4","0.8","0.6","","","","","0.77583868","0.522842385","0.2799679389","0.6260859175","","","","","","","","","","76","L","3","","","109","main_expt",""
"","bandit","189","449621","0.0-151.0-0.0","96769868","wem/bandit_party_2","A231ZXYHPSNUJQ","either","3","27","","","","","","","1","0","0","0.4788227383","","0.2","0.4","0.8","0.6","","","","","0.7520827962","0.419893696","0.3333098602","0.4788227383","","","","","","","","","","76","L","3","","","110","main_expt",""
"","bandit","190","451429","0.0-152.0-0.0","96769868","wem/bandit_party_2","A231ZXYHPSNUJQ","either","3","291","","","","","","","0","1","0","","0.6019778282","0.2","0.4","0.8","0.6","0.6512809768","0.431092028","0.3669732535","0.6019778282","","","","","","","","","","","","","","76","L","3","","","111","main_expt",""
"","bandit","191","453434","0.0-153.0-0.0","96769868","wem/bandit_party_2","A231ZXYHPSNUJQ","either","3","489","","","","","","","0","0","1","","0.546445977","0.2","0.4","0.8","0.6","0.5891937939","0.3590071368","0.389765336","0.546445977","","","","","","","","","","","","","","76","L","3","","","112","main_expt",""
"","bandit","192","455485","0.0-154.0-0.0","96769868","wem/bandit_party_2","A231ZXYHPSNUJQ","either","3","532","","","","","","","0","0","1","0.4498419114","","0.2","0.4","0.8","0.6","","","","","0.6490525038","0.4498419114","0.3191506652","0.6256092846","","","","","","","","","","74","J","1","","","113","main_expt",""
"","bandit","193","457305","0.0-155.0-0.0","96769868","wem/bandit_party_2","A231ZXYHPSNUJQ","either","3","303","","","","","","","0","1","0","","0.4829831469","0.2","0.4","0.8","0.6","0.6283680234","0.4829831469","0.2090321438","0.6577617598","","","","","","","","","","","","","","74","J","1","","","114","main_expt",""
"","bandit","194","459330","0.0-156.0-0.0","96769868","wem/bandit_party_2","A231ZXYHPSNUJQ","either","3","505","","","","","","","0","0","1","","0.4846695964","0.2","0.4","0.8","0.6","0.6064224059","0.4846695964","0.2094439124","0.7140476354","","","","","","","","","","","","","","74","J","1","","","115","main_expt",""
"","bandit","195","461056","0.0-157.0-0.0","96769868","wem/bandit_party_2","A231ZXYHPSNUJQ","either","3","205","","","","","","","0","1","0","","0.5396909338","0.2","0.4","0.8","0.6","0.545813367","0.5396909338","0.2695181069","0.6589976567","","","","","","","","","","","","","","74","J","1","","","116","main_expt",""
"","bandit","196","462792","0.0-158.0-0.0","96769868","wem/bandit_party_2","A231ZXYHPSNUJQ","either","3","218","","","","","","","0","0","1","0.5378282835","","0.2","0.4","0.8","0.6","","","","","0.5179373022","0.5378282835","0.3402036285","0.6937703341","","","","","","","","","","74","J","1","","","117","main_expt",""
"","bandit","197","464623","0.0-159.0-0.0","96769868","wem/bandit_party_2","A231ZXYHPSNUJQ","either","3","309","","","","","","","0","1","0","","0.77114399","0.2","0.4","0.8","0.6","0.4014157923","0.5729988564","0.3101634078","0.77114399","","","","","","","","","","","","","","76","L","3","","","118","main_expt",""
"","bandit","198","466572","0.0-160.0-0.0","96769868","wem/bandit_party_2","A231ZXYHPSNUJQ","either","3","428","","","","","","","0","0","1","","0.710000291","0.2","0.4","0.8","0.6","0.4360264599","0.5630251564","0.3242193616","0.710000291","","","","","","","","","","","","","","76","L","3","","","119","main_expt",""
"","bandit","199","468567","0.0-161.0-0.0","96769868","wem/bandit_party_2","A231ZXYHPSNUJQ","either","3","471","","","","","","","0","0","1","","0.6482115929","0.2","0.4","0.8","0.6","0.3297853269","0.6482115929","0.3334277272","0.6767982245","","","","","","","","","","","","","","74","J","1","","","120","main_expt",""
"","bandit","200","470154","0.0-162.0-0.0","96769868","wem/bandit_party_2","A231ZXYHPSNUJQ","either","3","68","","","","","","","0","1","0","","0.5688505083","0.2","0.4","0.8","0.6","0.3767442019","0.5688505083","0.4066521311","0.7360115258","","","","","","","","","","","","","","74","J","1","","","121","main_expt",""
"","bandit","201","472153","0.0-163.0-0.0","96769868","wem/bandit_party_2","A231ZXYHPSNUJQ","either","3","477","","","","","","","1","0","0","0.5349597204","","0.2","0.4","0.8","0.6","","","","","0.3589515546","0.5349597204","0.5193034213","0.7258716992","","","","","","","","","","74","J","1","","","122","main_expt",""
"","bandit","202","474031","0.0-164.0-0.0","96769868","wem/bandit_party_2","A231ZXYHPSNUJQ","either","3","356","","","","","","","0","0","1","","0.412887176","0.2","0.4","0.8","0.6","0.3461890545","0.412887176","0.5594962391","0.7848203729","","","","","","","","","","","","","","74","J","1","","","123","main_expt",""
"","bandit","203","475640","0.0-165.0-0.0","96769868","wem/bandit_party_2","A231ZXYHPSNUJQ","either","3","88","","","","","","","0","0","1","0.4137060999","","0.2","0.4","0.8","0.6","","","","","0.2287340519","0.4137060999","0.6876014299","0.7673004895","","","","","","","","","","74","J","1","","","124","main_expt",""
"","bandit","204","477284","0.0-166.0-0.0","96769868","wem/bandit_party_2","A231ZXYHPSNUJQ","either","3","122","","","","","","","0","1","0","","0.8020703208","0.2","0.4","0.8","0.6","0.2900718705","0.3226696341","0.7354493796","0.8020703208","","","","","","","","","","","","","","76","L","3","","","125","main_expt",""
"","bandit","205","478875","0.0-167.0-0.0","96769868","wem/bandit_party_2","A231ZXYHPSNUJQ","either","3","73","","","","","","","0","1","0","","0.8196031782","0.2","0.4","0.8","0.6","0.2880997441","0.3904211026","0.76840964","0.8196031782","","","","","","","","","","","","","","76","L","3","","","126","main_expt",""
"","bandit","206","480409","0.0-168.0-0.0","96769868","wem/bandit_party_2","A231ZXYHPSNUJQ","either","3","14","","","","","","","0","1","0","","0.7095492128","0.2","0.4","0.8","0.6","0.3451069126","0.4227014292","0.7310750685","0.7095492128","","","","","","","","","","","","","","76","L","3","","","127","main_expt",""
"","bandit","207","482189","0.0-169.0-0.0","96769868","wem/bandit_party_2","A231ZXYHPSNUJQ","either","3","262","","","","","","","1","0","0","0.711577854","","0.2","0.4","0.8","0.6","","","","","0.3129298861","0.543317668","0.6582635175","0.711577854","","","","","","","","","","76","L","3","","","128","main_expt",""
"","bandit","208","483745","0.0-170.0-0.0","96769868","wem/bandit_party_2","A231ZXYHPSNUJQ","either","3","35","","","","","","","0","1","0","","0.7022761705","0.2","0.4","0.8","0.6","0.3507055597","0.5906282681","0.7529887683","0.7022761705","","","","","","","","","","","","","","76","L","3","","","129","main_expt",""
"","bandit","209","485422","0.0-171.0-0.0","96769868","wem/bandit_party_2","A231ZXYHPSNUJQ","either","3","158","","","","","","","0","0","1","","0.7309419319","0.2","0.4","0.8","0.6","0.3753424236","0.6636268631","0.7929301986","0.7309419319","","","","","","","","","","","","","","76","L","3","","","130","main_expt",""
"","bandit","210","488054","0.0-172.0-0.0","96769868","wem/bandit_party_2","A231ZXYHPSNUJQ","either","3","1114","","","","","","","1","0","0","0.3473486375","","0.2","0.4","0.8","0.6","","","","","0.3473486375","0.5686699027","0.8149544693","0.6904825683","","","","","","","","","","72","H","0","img/none_selected.jpg","","131","main_expt",""
"","bandit","211","490014","0.0-173.0-0.0","96769868","wem/bandit_party_2","A231ZXYHPSNUJQ","either","3","437","","","","","","","0","0","1","0.6564012045","","0.2","0.4","0.8","0.6","","","","","0.303679922","0.6564012045","0.7626544417","0.7153166113","","","","","","","","","","74","J","1","","","132","main_expt",""
"","bandit","212","492089","0.0-174.0-0.0","96769868","wem/bandit_party_2","A231ZXYHPSNUJQ","either","3","550","","","","","","","0","0","1","","0.5876654864","0.2","0.4","0.8","0.6","0.3385565331","0.5876654864","0.7584501248","0.8135501627","","","","","","","","","","","","","","74","J","1","","","133","main_expt",""
"","bandit","213","494185","0.0-175.0-0.0","96769868","wem/bandit_party_2","A231ZXYHPSNUJQ","either","3","568","","","","","","","0","0","1","","0.5299368298","0.2","0.4","0.8","0.6","0.3686406913","0.5299368298","0.7905015291","0.7707892239","","","","","","","","","","","","","","74","J","1","","","134","main_expt",""
"","bandit","214","497010","0.0-176.0-0.0","96769868","wem/bandit_party_2","A231ZXYHPSNUJQ","either","3","1300","","","","","","","1","0","0","0.7689088841","","0.2","0.4","0.8","0.6","","","","","0.3672202126","0.4547966061","0.7515189777","0.7689088841","","","","","","","","","","76","L","3","","","135","main_expt",""
"","bandit","215","498575","0.0-177.0-0.0","96769868","wem/bandit_party_2","A231ZXYHPSNUJQ","either","3","45","","","","","","","0","1","0","","0.6641324257","0.2","0.4","0.8","0.6","0.4064769993","0.5290841583","0.7293518859","0.6641324257","","","","","","","","","","","","","","76","L","3","","","136","main_expt",""
"","bandit","216","500340","0.0-178.0-0.0","96769868","wem/bandit_party_2","A231ZXYHPSNUJQ","either","3","245","","","","","","","1","0","0","0.635388201","","0.2","0.4","0.8","0.6","","","","","0.3492503667","0.419904672","0.7286216209","0.635388201","","","","","","","","","","76","L","3","","","137","main_expt",""
"","bandit","217","501994","0.0-179.0-0.0","96769868","wem/bandit_party_2","A231ZXYHPSNUJQ","either","3","133","","","","","","","1","0","0","0.6889508363","","0.2","0.4","0.8","0.6","","","","","0.3315752647","0.4532768315","0.7425921641","0.6889508363","","","","","","","","","","76","L","3","","","138","main_expt",""
"","bandit","218","503597","0.0-180.0-0.0","96769868","wem/bandit_party_2","A231ZXYHPSNUJQ","either","3","80","","","","","","","0","0","1","0.6481427694","","0.2","0.4","0.8","0.6","","","","","0.3080831972","0.4194835996","0.7356638012","0.6481427694","","","","","","","","","","76","L","3","","","139","main_expt",""
"","bandit","219","506345","0.0-181.0-0.0","96769868","wem/bandit_party_2","A231ZXYHPSNUJQ","either","3","1227","","","","","","","0","1","0","","0.420008375","0.2","0.4","0.8","0.6","0.3254670704","0.420008375","0.7334346803","0.6497449761","","","","","","","","","","","","","","74","J","1","","","140","main_expt",""
"","bandit","220","508088","0.0-182.0-0.0","96769868","wem/bandit_party_2","A231ZXYHPSNUJQ","either","3","219","","","","","","","1","0","0","0.3908595681","","0.2","0.4","0.8","0.6","","","","","0.3452870884","0.3908595681","0.7737071977","0.7328205829","","","","","","","","","","74","J","1","","","141","main_expt",""
"","bandit","221","509634","0.0-183.0-0.0","96769868","wem/bandit_party_2","A231ZXYHPSNUJQ","either","3","21","","","","","","","0","0","1","","0.3994278682","0.2","0.4","0.8","0.6","0.2659846132","0.3994278682","0.7912630164","0.6396752577","","","","","","","","","","","","","","74","J","1","","","142","main_expt",""
"","bandit","222","511453","0.0-184.0-0.0","96769868","wem/bandit_party_2","A231ZXYHPSNUJQ","either","3","295","","","","","","","0","1","0","","0.3137486051","0.2","0.4","0.8","0.6","0.2549781044","0.3137486051","0.7709923268","0.5974809775","","","","","","","","","","","","","","74","J","1","","","143","main_expt",""
"","bandit","223","512979","0.0-185.0-0.0","96769868","wem/bandit_party_2","A231ZXYHPSNUJQ","either","3","1","","","","","","","0","0","1","0.3961992406","","0.2","0.4","0.8","0.6","","","","","0.3603981418","0.3961992406","0.7492848764","0.5953980303","","","","","","","","","","74","J","1","","","144","main_expt",""
"","bandit","224","514973","0.0-186.0-0.0","96769868","wem/bandit_party_2","A231ZXYHPSNUJQ","either","3","473","","","","","","","1","0","0","0.6215671736","","0.2","0.4","0.8","0.6","","","","","0.3682949958","0.3186856111","0.7343485297","0.6215671736","","","","","","","","","","76","L","3","","","145","main_expt",""
"","bandit","225","517225","0.0-187.0-0.0","96769868","wem/bandit_party_2","A231ZXYHPSNUJQ","either","3","730","","","","","","","0","0","1","","0.2724247948","0.2","0.4","0.8","0.6","0.5028772858","0.2724247948","0.7701032705","0.5766937592","","","","","","","","","","","","","","74","J","1","","","146","main_expt",""
"","bandit","226","518953","0.0-188.0-0.0","96769868","wem/bandit_party_2","A231ZXYHPSNUJQ","either","3","201","","","","","","","0","0","1","0.2844288079","","0.2","0.4","0.8","0.6","","","","","0.4186890645","0.2844288079","0.7521601774","0.4600492943","","","","","","","","","","74","J","1","","","147","main_expt",""
"","bandit","227","520777","0.0-189.0-0.0","96769868","wem/bandit_party_2","A231ZXYHPSNUJQ","either","3","300","","","","","","","0","0","1","0.4575448178","","0.2","0.4","0.8","0.6","","","","","0.3928328601","0.3095389551","0.7762143641","0.4575448178","","","","","","","","","","76","L","3","","","148","main_expt",""
"","bandit","228","522694","0.0-190.0-0.0","96769868","wem/bandit_party_2","A231ZXYHPSNUJQ","either","3","395","","","","","","","0","0","1","","0.4220063763","0.2","0.4","0.8","0.6","0.4220063763","0.2464654743","0.716016993","0.3840278576","","","","","","","","","","","","","","72","H","0","img/none_selected.jpg","","149","main_expt",""
"","bandit","229","524381","0.0-191.0-0.0","96769868","wem/bandit_party_2","A231ZXYHPSNUJQ","either","3","164","","","","","","","0","0","1","0.3004406684","","0.2","0.4","0.8","0.6","","","","","0.3206822378","0.2088091358","0.7182774931","0.3004406684","","","","","","","","","","76","L","3","","","150","main_expt",""
"","bandit","230","526474","0.0-192.0-0.0","96769868","wem/bandit_party_2","A231ZXYHPSNUJQ","either","3","570","","","","","","","0","0","1","0.2670014618","","0.2","0.4","0.8","0.6","","","","","0.3380172956","0.2670014618","0.8028216805","0.2769981479","","","","","","","","","","74","J","1","","","151","main_expt",""
"","bandit","231","528027","0.0-193.0-0.0","96769868","wem/bandit_party_2","A231ZXYHPSNUJQ","either","3","31","","","","","","","1","0","0","0.8634692279","","0.2","0.4","0.8","0.6","","","","","0.2461440624","0.3100930243","0.8634692279","0.40565407","","","","","","","","","","75","K","2","","","152","main_expt",""
"","bandit","232","529618","0.0-194.0-0.0","96769868","wem/bandit_party_2","A231ZXYHPSNUJQ","either","3","66","","","","","","","0","0","1","","0.7719190238","0.2","0.4","0.8","0.6","0.1852716423","0.3796096158","0.7719190238","0.3829351634","","","","","","","","","","","","","","75","K","2","","","153","main_expt",""
"","bandit","233","531408","0.0-195.0-0.0","96769868","wem/bandit_party_2","A231ZXYHPSNUJQ","either","3","267","","","","","","","0","0","1","","0.1660439368","0.2","0.4","0.8","0.6","0.1660439368","0.2265028128","0.8343429945","0.4912137185","","","","","","","","","","","","","","72","H","0","img/none_selected.jpg","","154","main_expt",""
"","bandit","234","536476","0.0-196.0-0.0","96769868","wem/bandit_party_2","A231ZXYHPSNUJQ","either","3","3543","","","","","","","0","0","1","","0.2241607793","0.2","0.4","0.8","0.6","0.2241607793","0.2135741777","0.7908731232","0.5312535156","","","","","","","","","","","","","","72","H","0","img/none_selected.jpg","","155","main_expt",""
"","bandit","235","539659","0.0-197.0-0.0","96769868","wem/bandit_party_2","A231ZXYHPSNUJQ","either","3","1661","","","","","","","0","0","1","","0.1338357519","0.2","0.4","0.8","0.6","0.1566338899","0.1338357519","0.7848911391","0.5747898199","","","","","","","","","","","","","","74","J","1","","","156","main_expt",""
"","bandit","236","543048","0.0-198.0-0.0","96769868","wem/bandit_party_2","A231ZXYHPSNUJQ","either","3","1863","","","","","","","1","0","0","0.7467155263","","0.2","0.4","0.8","0.6","","","","","0.1839373886","0.1344370697","0.7467155263","0.5948125822","","","","","","","","","","75","K","2","","","157","main_expt",""
"","bandit","237","544874","0.0-199.0-0.0","96769868","wem/bandit_party_2","A231ZXYHPSNUJQ","either","3","303","","","","","","","0","0","1","0.7413618202","","0.2","0.4","0.8","0.6","","","","","0.155802242","0.1217930933","0.7413618202","0.6533804049","","","","","","","","","","75","K","2","","","158","main_expt",""
"","bandit","238","546411","0.0-200.0-0.0","96769868","wem/bandit_party_2","A231ZXYHPSNUJQ","either","3","22","","","","","","","0","0","1","","0.5777198579","0.2","0.4","0.8","0.6","0.2304237345","0.08524485746","0.6882043704","0.5777198579","","","","","","","","","","","","","","76","L","3","","","159","main_expt",""
"","bandit","239","547999","0.0-201.0-0.0","96769868","wem/bandit_party_2","A231ZXYHPSNUJQ","either","3","63","","","","","","","0","1","0","","0.6777741118","0.2","0.4","0.8","0.6","0.2242026456","0.07332219892","0.7253096401","0.6777741118","","","","","","","","","","","","","","76","L","3","","","160","main_expt",""
"","bandit","240","549682","0.0-202.0-0.0","96769868","wem/bandit_party_2","A231ZXYHPSNUJQ","either","3","159","","","","","","","1","0","0","0.6989182833","","0.2","0.4","0.8","0.6","","","","","0.2708915048","0.1063489691","0.6989182833","0.6249074267","","","","","","","","","","75","K","2","","","161","main_expt",""
"","bandit","241","551716","0.0-203.0-0.0","96769868","wem/bandit_party_2","A231ZXYHPSNUJQ","either","3","518","","","","","","","1","0","0","0.7679575172","","0.2","0.4","0.8","0.6","","","","","0.2921592604","0.09670310095","0.7679575172","0.6755041601","","","","","","","","","","75","K","2","","","162","main_expt",""
"","bandit","242","553386","0.0-204.0-0.0","96769868","wem/bandit_party_2","A231ZXYHPSNUJQ","either","3","137","","","","","","","0","0","1","","0.6877390752","0.2","0.4","0.8","0.6","0.2050535257","0.1266359811","0.6877390752","0.6461818487","","","","","","","","","","","","","","75","K","2","","","163","main_expt",""
"","bandit","243","555608","0.0-205.0-0.0","96769868","wem/bandit_party_2","A231ZXYHPSNUJQ","either","3","696","","","","","","","0","0","1","0.1212611996","","0.2","0.4","0.8","0.6","","","","","0.1998759094","0.1212611996","0.6957575266","0.76368027","","","","","","","","","","74","J","1","","","164","main_expt",""
"","bandit","244","557373","0.0-206.0-0.0","96769868","wem/bandit_party_2","A231ZXYHPSNUJQ","either","3","241","","","","","","","0","0","1","0.6760148625","","0.2","0.4","0.8","0.6","","","","","0.1821974317","0.1917887173","0.6760148625","0.8400099296","","","","","","","","","","75","K","2","","","165","main_expt",""
"","bandit","245","559253","0.0-207.0-0.0","96769868","wem/bandit_party_2","A231ZXYHPSNUJQ","either","3","354","","","","","","","1","0","0","0.8573275969","","0.2","0.4","0.8","0.6","","","","","0.2916844583","0.1560613016","0.6463317238","0.8573275969","","","","","","","","","","76","L","3","","","166","main_expt",""
"","bandit","246","560876","0.0-208.0-0.0","96769868","wem/bandit_party_2","A231ZXYHPSNUJQ","either","3","101","","","","","","","1","0","0","0.7735369509","","0.2","0.4","0.8","0.6","","","","","0.3087465624","0.2214887095","0.5613055562","0.7735369509","","","","","","","","","","76","L","3","","","167","main_expt",""
"","bandit","247","562574","0.0-209.0-0.0","96769868","wem/bandit_party_2","A231ZXYHPSNUJQ","either","3","176","","","","","","","0","0","1","0.8091314607","","0.2","0.4","0.8","0.6","","","","","0.3896626528","0.3463453368","0.5586162784","0.8091314607","","","","","","","","","","76","L","3","","","168","main_expt",""
"","bandit","248","564396","0.0-210.0-0.0","96769868","wem/bandit_party_2","A231ZXYHPSNUJQ","either","3","290","","","","","","","0","0","1","","0.4458805252","0.2","0.4","0.8","0.6","0.4458805252","0.3222551453","0.597448185","0.8364166478","","","","","","","","","","","","","","72","H","0","img/none_selected.jpg","","169","main_expt",""
"","bandit","249","566387","0.0-211.0-0.0","96769868","wem/bandit_party_2","A231ZXYHPSNUJQ","either","3","465","","","","","","","0","0","1","","0.2556410415","0.2","0.4","0.8","0.6","0.4844269655","0.2556410415","0.5351242352","0.7867883415","","","","","","","","","","","","","","74","J","1","","","170","main_expt",""
"","bandit","250","568022","0.0-212.0-0.0","96769868","wem/bandit_party_2","A231ZXYHPSNUJQ","either","3","107","","","","","","","1","0","0","0.4819966971","","0.2","0.4","0.8","0.6","","","","","0.4858642724","0.2248109201","0.4819966971","0.8728822524","","","","","","","","","","75","K","2","","","171","main_expt",""
"","bandit","251","569707","0.0-213.0-0.0","96769868","wem/bandit_party_2","A231ZXYHPSNUJQ","either","3","162","","","","","","","0","0","1","0.4038669266","","0.2","0.4","0.8","0.6","","","","","0.5060245996","0.3468742366","0.4038669266","0.7804912391","","","","","","","","","","75","K","2","","","172","main_expt",""
"","bandit","252","571691","0.0-214.0-0.0","96769868","wem/bandit_party_2","A231ZXYHPSNUJQ","either","3","459","","","","","","","1","0","0","0.7728490534","","0.2","0.4","0.8","0.6","","","","","0.5413528159","0.234408543","0.3102533384","0.7728490534","","","","","","","","","","76","L","3","","","173","main_expt",""
"","bandit","253","573394","0.0-215.0-0.0","96769868","wem/bandit_party_2","A231ZXYHPSNUJQ","either","3","188","","","","","","","0","0","1","0.814185781","","0.2","0.4","0.8","0.6","","","","","0.6505326818","0.1404050277","0.3818943333","0.814185781","","","","","","","","","","76","L","3","","","174","main_expt",""
"","bandit","254","575847","0.0-216.0-0.0","96769868","wem/bandit_party_2","A231ZXYHPSNUJQ","either","3","922","","","","","","","0","0","1","0.2893198216","","0.2","0.4","0.8","0.6","","","","","0.6470977149","0.1081611795","0.2893198216","0.8010682597","","","","","","","","","","75","K","2","","","175","main_expt",""
"","bandit","255","577569","0.0-217.0-0.0","96769868","wem/bandit_party_2","A231ZXYHPSNUJQ","either","3","197","","","","","","","0","0","1","0.0730283124","","0.2","0.4","0.8","0.6","","","","","0.6844229635","0.0730283124","0.226416223","0.7083228223","","","","","","","","","","74","J","1","","","176","main_expt",""
"","bandit","256","579133","0.0-218.0-0.0","96769868","wem/bandit_party_2","A231ZXYHPSNUJQ","either","3","37","","","","","","","0","1","0","","0.6883244284","0.2","0.4","0.8","0.6","0.6883244284","0.07044941978","0.2786676386","0.7408938443","","","","","","","","","","","","","","72","H","0","img/none_selected.jpg","","177","main_expt",""
"","bandit","257","581047","0.0-219.0-0.0","96769868","wem/bandit_party_2","A231ZXYHPSNUJQ","either","3","384","","","","","","","1","0","0","0.6098590842","","0.2","0.4","0.8","0.6","","","","","0.6098590842","0.06886985111","0.2279078815","0.6621187214","","","","","","","","","","72","H","0","img/none_selected.jpg","","178","main_expt",""
"","bandit","258","582711","0.0-220.0-0.0","96769868","wem/bandit_party_2","A231ZXYHPSNUJQ","either","3","142","","","","","","","0","0","1","","0.5924449164","0.2","0.4","0.8","0.6","0.5924449164","0.07254371148","0.1690126781","0.6765487854","","","","","","","","","","","","","","72","H","0","img/none_selected.jpg","","179","main_expt",""
"","bandit","259","584613","0.0-221.0-0.0","96769868","wem/bandit_party_2","A231ZXYHPSNUJQ","either","3","377","","","","","","","0","0","1","0.055057054","","0.2","0.4","0.8","0.6","","","","","0.4915111467","0.055057054","0.1356066944","0.7276027883","","","","","","","","","","74","J","1","","","180","main_expt",""
"","bandit","260","586140","0.0-222.0-0.0","96769868","wem/bandit_party_2","A231ZXYHPSNUJQ","either","3","1","","","","","","","0","0","1","0.1889441784","","0.2","0.4","0.8","0.6","","","","","0.4713933083","0.1187845962","0.1889441784","0.7083410305","","","","","","","","","","75","K","2","","","181","main_expt",""
"","bandit","261","587818","0.0-223.0-0.0","96769868","wem/bandit_party_2","A231ZXYHPSNUJQ","either","3","155","","","","","","","0","0","1","","0.6489729838","0.2","0.4","0.8","0.6","0.500114893","0.1304227184","0.2163976064","0.6489729838","","","","","","","","","","","","","","76","L","3","","","182","main_expt",""
"","bandit","262","589975","0.0-224.0-0.0","96769868","wem/bandit_party_2","A231ZXYHPSNUJQ","either","3","640","","","","","","","0","0","1","0.1902524086","","0.2","0.4","0.8","0.6","","","","","0.4949273894","0.1374638341","0.1902524086","0.6956751073","","","","","","","","","","75","K","2","","","183","main_expt",""
"","bandit","263","591852","0.0-225.0-0.0","96769868","wem/bandit_party_2","A231ZXYHPSNUJQ","either","3","354","","","","","","","0","0","1","0.2265805791","","0.2","0.4","0.8","0.6","","","","","0.4271361476","0.1914365344","0.2265805791","0.6066537109","","","","","","","","","","75","K","2","","","184","main_expt",""
"","bandit","264","594295","0.0-226.0-0.0","96769868","wem/bandit_party_2","A231ZXYHPSNUJQ","either","3","916","","","","","","","0","0","1","","0.1939872458","0.2","0.4","0.8","0.6","0.4558255176","0.1939872458","0.1843452782","0.6337362372","","","","","","","","","","","","","","74","J","1","","","185","main_expt",""
"","bandit","265","596532","0.0-227.0-0.0","96769868","wem/bandit_party_2","A231ZXYHPSNUJQ","either","3","712","","","","","","","0","1","0","","0.4031301461","0.2","0.4","0.8","0.6","0.4031301461","0.2219937035","0.1898387663","0.5908962551","","","","","","","","","","","","","","72","H","0","img/none_selected.jpg","","186","main_expt",""
"","bandit","266","598888","0.0-228.0-0.0","96769868","wem/bandit_party_2","A231ZXYHPSNUJQ","either","3","832","","","","","","","0","1","0","","0.3993697366","0.2","0.4","0.8","0.6","0.3993697366","0.2024523472","0.210498268","0.7651761031","","","","","","","","","","","","","","72","H","0","img/none_selected.jpg","","187","main_expt",""
"","bandit","267","600675","0.0-229.0-0.0","96769868","wem/bandit_party_2","A231ZXYHPSNUJQ","either","3","271","","","","","","","0","0","1","0.4478687375","","0.2","0.4","0.8","0.6","","","","","0.4478687375","0.1930401344","0.2368649008","0.7928336054","","","","","","","","","","72","H","0","img/none_selected.jpg","","188","main_expt",""
"","bandit","268","602631","0.0-230.0-0.0","96769868","wem/bandit_party_2","A231ZXYHPSNUJQ","either","3","426","","","","","","","0","1","0","","0.3255404916","0.2","0.4","0.8","0.6","0.3699601256","0.3255404916","0.291591963","0.8917358491","","","","","","","","","","","","","","74","J","1","","","189","main_expt",""
"","bandit","269","604591","0.0-231.0-0.0","96769868","wem/bandit_party_2","A231ZXYHPSNUJQ","either","3","436","","","","","","","0","0","1","","0.2364063212","0.2","0.4","0.8","0.6","0.3723251068","0.2364063212","0.4411779124","0.898448025","","","","","","","","","","","","","","74","J","1","","","190","main_expt",""
"","bandit","270","607317","0.0-232.0-0.0","96769868","wem/bandit_party_2","A231ZXYHPSNUJQ","either","3","1199","","","","","","","0","0","1","0.3968704403","","0.2","0.4","0.8","0.6","","","","","0.3309849287","0.2662767285","0.3968704403","0.9186708851","","","","","","","","","","75","K","2","","","191","main_expt",""
"","bandit","271","609388","0.0-233.0-0.0","96769868","wem/bandit_party_2","A231ZXYHPSNUJQ","either","3","546","","","","","","","1","0","0","0.9314477517","","0.2","0.4","0.8","0.6","","","","","0.2865625263","0.2815174114","0.4512817608","0.9314477517","","","","","","","","","","76","L","3","","","192","main_expt",""
"","bandit","272","611157","0.0-234.0-0.0","96769868","wem/bandit_party_2","A231ZXYHPSNUJQ","either","3","242","","","","","","","1","0","0","0.9090465067","","0.2","0.4","0.8","0.6","","","","","0.2862811746","0.3461293965","0.4788006455","0.9090465067","","","","","","","","","","76","L","3","","","193","main_expt",""
"","bandit","273","612695","0.0-235.0-0.0","96769868","wem/bandit_party_2","A231ZXYHPSNUJQ","either","3","9","","","","","","","1","0","0","0.8762249788","","0.2","0.4","0.8","0.6","","","","","0.2785288642","0.3303735913","0.4651889587","0.8762249788","","","","","","","","","","76","L","3","","","194","main_expt",""
"","bandit","274","614412","0.0-236.0-0.0","96769868","wem/bandit_party_2","A231ZXYHPSNUJQ","either","3","192","","","","","","","1","0","0","0.8623185747","","0.2","0.4","0.8","0.6","","","","","0.2283941808","0.3194565039","0.4718629942","0.8623185747","","","","","","","","","","76","L","3","","","195","main_expt",""
"","bandit","275","616459","0.0-237.0-0.0","96769868","wem/bandit_party_2","A231ZXYHPSNUJQ","either","3","526","","","","","","","1","0","0","0.7745977574","","0.2","0.4","0.8","0.6","","","","","0.214282227","0.4103944464","0.3825708332","0.7745977574","","","","","","","","","","76","L","3","","","196","main_expt",""
"","bandit","276","618140","0.0-238.0-0.0","96769868","wem/bandit_party_2","A231ZXYHPSNUJQ","either","3","164","","","","","","","0","0","1","","0.7723069829","0.2","0.4","0.8","0.6","0.1422959513","0.4445726534","0.4530864699","0.7723069829","","","","","","","","","","","","","","76","L","3","","","197","main_expt",""
"","bandit","277","620404","0.0-239.0-0.0","96769868","wem/bandit_party_2","A231ZXYHPSNUJQ","either","3","734","","","","","","","0","1","0","","0.7084082875","0.2","0.4","0.8","0.6","0.1126324943","0.4351718099","0.4337652667","0.7084082875","","","","","","","","","","","","","","76","L","3","","","198","main_expt",""
"","bandit","278","622013","0.0-240.0-0.0","96769868","wem/bandit_party_2","A231ZXYHPSNUJQ","either","3","83","","","","","","","0","1","0","","0.7016883558","0.2","0.4","0.8","0.6","0.1144166609","0.4641294157","0.4138332966","0.7016883558","","","","","","","","","","","","","","76","L","3","","","199","main_expt",""
"","bandit","279","623605","0.0-241.0-0.0","96769868","wem/bandit_party_2","A231ZXYHPSNUJQ","either","3","69","","","","","","","1","0","0","0.6504384346","","0.2","0.4","0.8","0.6","","","","","0.1518003708","0.4468687069","0.5005175686","0.6504384346","","","","","","","","","","76","L","3","","","200","main_expt",""
"","bandit","280","625169","0.0-242.0-0.0","96769868","wem/bandit_party_2","A231ZXYHPSNUJQ","either","3","37","","","","","","","1","0","0","0.7904945102","","0.2","0.4","0.8","0.6","","","","","0.1974433607","0.5087435212","0.5122642399","0.7904945102","","","","","","","","","","76","L","3","","","201","main_expt",""
"","bandit","281","626858","0.0-243.0-0.0","96769868","wem/bandit_party_2","A231ZXYHPSNUJQ","either","3","153","","","","","","","0","1","0","","0.7039472437","0.2","0.4","0.8","0.6","0.2000842809","0.4992132835","0.5414597976","0.7039472437","","","","","","","","","","","","","","76","L","3","","","202","main_expt",""
"","bandit","282","628513","0.0-244.0-0.0","96769868","wem/bandit_party_2","A231ZXYHPSNUJQ","either","3","129","","","","","","","0","0","1","","0.7478807213","0.2","0.4","0.8","0.6","0.1715580826","0.4859842053","0.4993649945","0.7478807213","","","","","","","","","","","","","","76","L","3","","","203","main_expt",""
"","bandit","283","630207","0.0-245.0-0.0","96769868","wem/bandit_party_2","A231ZXYHPSNUJQ","either","3","169","","","","","","","1","0","0","0.4056752737","","0.2","0.4","0.8","0.6","","","","","0.3028604286","0.6162755314","0.4056752737","0.7346150791","","","","","","","","","","75","K","2","","","204","main_expt",""
"","bandit","284","631863","0.0-246.0-0.0","96769868","wem/bandit_party_2","A231ZXYHPSNUJQ","either","3","128","","","","","","","1","0","0","0.4174768156","","0.2","0.4","0.8","0.6","","","","","0.3714949669","0.6204906845","0.4174768156","0.7240623961","","","","","","","","","","75","K","2","","","205","main_expt",""
"","bandit","285","633683","0.0-247.0-0.0","96769868","wem/bandit_party_2","A231ZXYHPSNUJQ","either","3","290","","","","","","","0","0","1","0.4364097613","","0.2","0.4","0.8","0.6","","","","","0.3034865557","0.6390595606","0.4364097613","0.733657826","","","","","","","","","","75","K","2","","","206","main_expt",""
"","bandit","286","635336","0.0-248.0-0.0","96769868","wem/bandit_party_2","A231ZXYHPSNUJQ","either","3","128","","","","","","","0","0","1","","0.6022157482","0.2","0.4","0.8","0.6","0.2688105372","0.6022157482","0.4666062126","0.6797091947","","","","","","","","","","","","","","74","J","1","","","207","main_expt",""
"","bandit","287","637298","0.0-249.0-0.0","96769868","wem/bandit_party_2","A231ZXYHPSNUJQ","either","3","438","","","","","","","0","0","1","","0.2240001326","0.2","0.4","0.8","0.6","0.2240001326","0.6598502583","0.4594719295","0.472157919","","","","","","","","","","","","","","72","H","0","img/none_selected.jpg","","208","main_expt",""
"","bandit","288","638999","0.0-250.0-0.0","96769868","wem/bandit_party_2","A231ZXYHPSNUJQ","either","3","176","","","","","","","1","0","0","0.6329069529","","0.2","0.4","0.8","0.6","","","","","0.3284172364","0.6329069529","0.5415101973","0.4993955773","","","","","","","","","","74","J","1","","","209","main_expt",""
"","bandit","289","640775","0.0-251.0-0.0","96769868","wem/bandit_party_2","A231ZXYHPSNUJQ","either","3","252","","","","","","","0","0","1","","0.5418549626","0.2","0.4","0.8","0.6","0.3178667136","0.5418549626","0.5627952802","0.3923888982","","","","","","","","","","","","","","74","J","1","","","210","main_expt",""
"","bandit","290","642452","0.0-252.0-0.0","96769868","wem/bandit_party_2","A231ZXYHPSNUJQ","either","3","152","","","","","","","0","0","1","0.5779033475","","0.2","0.4","0.8","0.6","","","","","0.278360526","0.7265410197","0.5779033475","0.4183885941","","","","","","","","","","75","K","2","","","211","main_expt",""
"","bandit","291","644031","0.0-253.0-0.0","96769868","wem/bandit_party_2","A231ZXYHPSNUJQ","either","3","51","","","","","","","0","0","1","","0.5367383083","0.2","0.4","0.8","0.6","0.2720231684","0.6550819281","0.6169713091","0.5367383083","","","","","","","","","","","","","","76","L","3","","","212","main_expt",""
"","bandit","292","645915","0.0-254.0-0.0","96769868","wem/bandit_party_2","A231ZXYHPSNUJQ","either","3","360","","","","","","","0","0","1","0.5688165975","","0.2","0.4","0.8","0.6","","","","","0.3445332441","0.5812500281","0.5688165975","0.5779451767","","","","","","","","","","75","K","2","","","213","main_expt",""
"","bandit","293","647623","0.0-255.0-0.0","96769868","wem/bandit_party_2","A231ZXYHPSNUJQ","either","3","180","","","","","","","1","0","0","0.6912727382","","0.2","0.4","0.8","0.6","","","","","0.331154659","0.6912727382","0.5354690829","0.5615700258","","","","","","","","","","74","J","1","","","214","main_expt",""
"","bandit","294","649681","0.0-256.0-0.0","96769868","wem/bandit_party_2","A231ZXYHPSNUJQ","either","3","533","","","","","","","1","0","0","0.695573978","","0.2","0.4","0.8","0.6","","","","","0.3168016653","0.695573978","0.4395706401","0.5361399643","","","","","","","","","","74","J","1","","","215","main_expt",""
"","bandit","295","651512","0.0-257.0-0.0","96769868","wem/bandit_party_2","A231ZXYHPSNUJQ","either","3","305","","","","","","","1","0","0","0.6531454011","","0.2","0.4","0.8","0.6","","","","","0.2870858596","0.6531454011","0.4522294324","0.620750855","","","","","","","","","","74","J","1","","","216","main_expt",""
"","bandit","296","653374","0.0-258.0-0.0","96769868","wem/bandit_party_2","A231ZXYHPSNUJQ","either","3","334","","","","","","","0","0","1","","0.6459690495","0.2","0.4","0.8","0.6","0.2877345098","0.6459690495","0.4141575353","0.4812239037","","","","","","","","","","","","","","74","J","1","","","217","main_expt",""
"","bandit","297","654980","0.0-259.0-0.0","96769868","wem/bandit_party_2","A231ZXYHPSNUJQ","either","3","76","","","","","","","0","0","1","0.3009722504","","0.2","0.4","0.8","0.6","","","","","0.3608492067","0.6679944541","0.3009722504","0.4028497994","","","","","","","","","","75","K","2","","","218","main_expt",""
"","bandit","298","657967","0.0-260.0-0.0","96769868","wem/bandit_party_2","A231ZXYHPSNUJQ","either","3","1459","","","","","","","1","0","0","0.4441021312","","0.2","0.4","0.8","0.6","","","","","0.4380407461","0.7159195147","0.2706893249","0.4441021312","","","","","","","","","","76","L","3","","","219","main_expt",""
"","bandit","299","659559","0.0-261.0-0.0","96769868","wem/bandit_party_2","A231ZXYHPSNUJQ","either","3","63","","","","","","","0","1","0","","0.4867825248","0.2","0.4","0.8","0.6","0.4769938592","0.6874484601","0.3821277721","0.4867825248","","","","","","","","","","","","","","76","L","3","","","220","main_expt",""
"","bandit","300","661296","0.0-262.0-0.0","96769868","wem/bandit_party_2","A231ZXYHPSNUJQ","either","3","207","","","","","","","0","1","0","","0.5428062785","0.2","0.4","0.8","0.6","0.4612627877","0.6528128226","0.4534214389","0.5428062785","","","","","","","","","","","","","","76","L","3","","","221","main_expt",""
"","bandit","301","662932","0.0-263.0-0.0","96769868","wem/bandit_party_2","A231ZXYHPSNUJQ","either","3","109","","","","","","","1","0","0","0.5993321864","","0.2","0.4","0.8","0.6","","","","","0.4192901336","0.6836467719","0.6049712458","0.5993321864","","","","","","","","","","76","L","3","","","222","main_expt",""
"","bandit","302","664647","0.0-264.0-0.0","96769868","wem/bandit_party_2","A231ZXYHPSNUJQ","either","3","191","","","","","","","0","1","0","","0.4920604154","0.2","0.4","0.8","0.6","0.5559965486","0.7820879334","0.6389506418","0.4920604154","","","","","","","","","","","","","","76","L","3","","","223","main_expt",""
"","bandit","303","666523","0.0-265.0-0.0","96769868","wem/bandit_party_2","A231ZXYHPSNUJQ","either","3","349","","","","","","","1","0","0","0.5344282052","","0.2","0.4","0.8","0.6","","","","","0.6687933923","0.763226653","0.6677375732","0.5344282052","","","","","","","","","","76","L","3","","","224","main_expt",""
"","bandit","304","668169","0.0-266.0-0.0","96769868","wem/bandit_party_2","A231ZXYHPSNUJQ","either","3","119","","","","","","","0","0","1","0.5583452501","","0.2","0.4","0.8","0.6","","","","","0.5954484576","0.6931961842","0.7706853934","0.5583452501","","","","","","","","","","76","L","3","","","225","main_expt",""
"","bandit","305","670482","0.0-267.0-0.0","96769868","wem/bandit_party_2","A231ZXYHPSNUJQ","either","3","784","","","","","","","1","0","0","0.7624197083","","0.2","0.4","0.8","0.6","","","","","0.6152447968","0.6633974694","0.7624197083","0.5126042404","","","","","","","","","","75","K","2","","","226","main_expt",""
"","bandit","306","672815","0.0-268.0-0.0","96769868","wem/bandit_party_2","A231ZXYHPSNUJQ","either","3","808","","","","","","","1","0","0","0.7287840805","","0.2","0.4","0.8","0.6","","","","","0.6597553912","0.6567175756","0.7287840805","0.5720595628","","","","","","","","","","75","K","2","","","227","main_expt",""
"","bandit","307","674412","0.0-269.0-0.0","96769868","wem/bandit_party_2","A231ZXYHPSNUJQ","either","3","71","","","","","","","0","0","1","0.7993891034","","0.2","0.4","0.8","0.6","","","","","0.594895186","0.6052730858","0.7993891034","0.6134710885","","","","","","","","","","75","K","2","","","228","main_expt",""
"","bandit","308","676178","0.0-270.0-0.0","96769868","wem/bandit_party_2","A231ZXYHPSNUJQ","either","3","241","","","","","","","0","0","1","0.5548990383","","0.2","0.4","0.8","0.6","","","","","0.5722559027","0.5548990383","0.8374027748","0.5669106804","","","","","","","","","","74","J","1","","","229","main_expt",""
"","bandit","309","677943","0.0-271.0-0.0","96769868","wem/bandit_party_2","A231ZXYHPSNUJQ","either","3","237","","","","","","","0","1","0","","0.6017114108","0.2","0.4","0.8","0.6","0.5409090622","0.6017114108","0.8414873787","0.6286782819","","","","","","","","","","","","","","74","J","1","","","230","main_expt",""
"","bandit","310","679510","0.0-272.0-0.0","96769868","wem/bandit_party_2","A231ZXYHPSNUJQ","either","3","40","","","","","","","0","0","1","","0.5525336349","0.2","0.4","0.8","0.6","0.518727512","0.5525336349","0.8531648874","0.5594948871","","","","","","","","","","","","","","74","J","1","","","231","main_expt",""
"","bandit","311","681360","0.0-273.0-0.0","96769868","wem/bandit_party_2","A231ZXYHPSNUJQ","either","3","333","","","","","","","1","0","0","0.8813812612","","0.2","0.4","0.8","0.6","","","","","0.5200298571","0.4493361955","0.8813812612","0.5817998964","","","","","","","","","","75","K","2","","","232","main_expt",""
"","bandit","312","682886","0.0-274.0-0.0","96769868","wem/bandit_party_2","A231ZXYHPSNUJQ","either","3","1","","","","","","","1","0","0","0.8916766345","","0.2","0.4","0.8","0.6","","","","","0.4564343731","0.5280832246","0.8916766345","0.5971875981","","","","","","","","","","75","K","2","","","233","main_expt",""
"","bandit","313","684638","0.0-275.0-0.0","96769868","wem/bandit_party_2","A231ZXYHPSNUJQ","either","3","222","","","","","","","0","1","0","","0.842820862","0.2","0.4","0.8","0.6","0.4168065644","0.6814540918","0.842820862","0.5227237997","","","","","","","","","","","","","","75","K","2","","","234","main_expt",""
"","bandit","314","686274","0.0-276.0-0.0","96769868","wem/bandit_party_2","A231ZXYHPSNUJQ","either","3","108","","","","","","","1","0","0","0.7856269381","","0.2","0.4","0.8","0.6","","","","","0.4340770274","0.5518959403","0.7856269381","0.6231997156","","","","","","","","","","75","K","2","","","235","main_expt",""
"","bandit","315","688050","0.0-277.0-0.0","96769868","wem/bandit_party_2","A231ZXYHPSNUJQ","either","3","250","","","","","","","1","0","0","0.8092971262","","0.2","0.4","0.8","0.6","","","","","0.4489205242","0.4965619817","0.8092971262","0.558272317","","","","","","","","","","75","K","2","","","236","main_expt",""
"","bandit","316","689728","0.0-278.0-0.0","96769868","wem/bandit_party_2","A231ZXYHPSNUJQ","either","3","152","","","","","","","1","0","0","0.8125536838","","0.2","0.4","0.8","0.6","","","","","0.4838648791","0.4762879104","0.8125536838","0.6118965497","","","","","","","","","","75","K","2","","","237","main_expt",""
