"consent","trial_type","trial_index","time_elapsed","internal_node_id","subjID","study","MID","cond","drift","rt","responses","button_pressed","key_press","like","value","connected","gems","bombs","no_reward","GemPrChosen","BombPrChosen","GainOverPainPr_0","GainOverPainPr_1","GainOverPainPr_2","GainOverPainPr_3","LosePr_0","LosePr_1","LosePr_2","LosePr_3","WinPr_0","WinPr_1","WinPr_2","WinPr_3","Q0","Q1","Q2","gender","age","ethnicity","label","expt_phase","target","respCharCode","respKey","respChoiceNum","respChoice","practice","trial_counter","trial_label","Q0_index"
"GDM/GDM_behavioral_consent_30min_online.html","consent","0","39809","0.0-0.0","97259614","wem/bandit_party_2","A3ISDIYTS02E8C","either","4","","","","","","","","","","","","","","","","","","","","","","","","","","","","","","","","","","","","","","","","",""
"","survey-text","1","49453","0.0-1.0","97259614","wem/bandit_party_2","A3ISDIYTS02E8C","either","4","8623","{""Q0"":""A3ISDIYTS02E8C""}","","","","","","","","","","","","","","","","","","","","","","","","","","","","","","","","","","","","","","",""
"","button-response","2","53193","0.0-2.0","97259614","wem/bandit_party_2","A3ISDIYTS02E8C","either","4","2727","","1","","","","","","","","","","","","","","","","","","","","","","","","","","","","","","","","","","","","","",""
"","text-replacement","3","70052","0.0-3.0","97259614","wem/bandit_party_2","A3ISDIYTS02E8C","either","4","15848","","","32","","","","","","","","","","","","","","","","","","","","","","","","","","","","","","","","","","","","",""
"","text-replacement","4","83715","0.0-4.0","97259614","wem/bandit_party_2","A3ISDIYTS02E8C","either","4","13659","","","32","","","","","","","","","","","","","","","","","","","","","","","","","","","","","","","","","","","","",""
"","identification","5","98937","0.0-6.0-0.0","97259614","wem/bandit_party_2","A3ISDIYTS02E8C","either","4","15181","","","","3","3","2","","","","","","","","","","","","","","","","","","","","","","","","pre","identification_pre","the Democratic Party","","","","","","","",""
"","identification","6","114767","0.0-6.0-1.0","97259614","wem/bandit_party_2","A3ISDIYTS02E8C","either","4","14792","","","","2","2","1","","","","","","","","","","","","","","","","","","","","","","","","pre","identification_pre","the Republican Party","","","","","","","",""
"","text-replacement","7","124927","0.0-7.0","97259614","wem/bandit_party_2","A3ISDIYTS02E8C","either","4","9156","","","32","","","","","","","","","","","","","","","","","","","","","","","","","","","","","","","","","","","","",""
"","text-replacement","8","135144","0.0-8.0","97259614","wem/bandit_party_2","A3ISDIYTS02E8C","either","4","10213","","","32","","","","","","","","","","","","","","","","","","","","","","","","","","","","","","","","","","","","",""
"","text-replacement","9","151826","0.0-9.0","97259614","wem/bandit_party_2","A3ISDIYTS02E8C","either","4","16678","","","32","","","","","","","","","","","","","","","","","","","","","","","","","","","","","","","","","","","","",""
"","text-replacement","10","159001","0.0-10.0","97259614","wem/bandit_party_2","A3ISDIYTS02E8C","either","4","7169","","","32","","","","","","","","","","","","","","","","","","","","","","","","","","","","","","","","","","","","",""
"","text-replacement","11","166091","0.0-11.0","97259614","wem/bandit_party_2","A3ISDIYTS02E8C","either","4","7086","","","32","","","","","","","","","","","","","","","","","","","","","","","","","","","","","","","","","","","","",""
"","bandit","12","169644","0.0-12.0-0.0","97259614","wem/bandit_party_2","A3ISDIYTS02E8C","either","4","2039","","","","","","","0","0","1","0","0","","","","","0","","","","0","","","","","","","","","","","","","74","J","0","img/none_selected_demo.jpg","true","0","",""
"","bandit","13","173923","0.0-13.0-0.0","97259614","wem/bandit_party_2","A3ISDIYTS02E8C","either","4","2768","","","","","","","0","0","1","0","0","","","","","0","","","","0","","","","","","","","","","","","","75","K","0","img/none_selected_demo.jpg","true","0","",""
"","text-replacement","14","186595","0.0-14.0","97259614","wem/bandit_party_2","A3ISDIYTS02E8C","either","4","12666","","","32","","","","","","","","","","","","","","","","","","","","","","","","","","","","","","","","","","","","",""
"","text-replacement","15","194079","0.0-15.0","97259614","wem/bandit_party_2","A3ISDIYTS02E8C","either","4","7481","","","32","","","","","","","","","","","","","","","","","","","","","","","","","","","","","","","","","","","","",""
"","text-replacement","16","204578","0.0-16.0","97259614","wem/bandit_party_2","A3ISDIYTS02E8C","either","4","10498","","","32","","","","","","","","","","","","","","","","","","","","","","","","","","","","","","","","","","","","",""
"","text-replacement","17","208296","0.0-17.0","97259614","wem/bandit_party_2","A3ISDIYTS02E8C","either","4","3716","","","32","","","","","","","","","","","","","","","","","","","","","","","","","","","","","","","","","","","","",""
"","bandit","18","211202","0.0-18.0-0.0","97259614","wem/bandit_party_2","A3ISDIYTS02E8C","either","4","1394","","","","","","","1","0","0","0.8","","0.5","0.5","","","","","","","0.8","0.2","","","","","","","","","","","","74","J","0","img/none_selected_demo.jpg","true","0","80_20_practice",""
"","bandit","19","213177","0.0-18.0-1.0","97259614","wem/bandit_party_2","A3ISDIYTS02E8C","either","4","460","","","","","","","0","1","0","","0.8","0.5","0.5","","","0.8","0.2","","","","","","","","","","","","","","","","74","J","0","img/none_selected_demo.jpg","true","0","80_20_practice",""
"","bandit","20","215015","0.0-18.0-2.0","97259614","wem/bandit_party_2","A3ISDIYTS02E8C","either","4","321","","","","","","","0","1","0","","0.8","0.5","0.5","","","0.8","0.2","","","","","","","","","","","","","","","","74","J","0","img/none_selected_demo.jpg","true","0","80_20_practice",""
"","bandit","21","216820","0.0-18.0-3.0","97259614","wem/bandit_party_2","A3ISDIYTS02E8C","either","4","292","","","","","","","0","1","0","","0.8","0.5","0.5","","","0.8","0.2","","","","","","","","","","","","","","","","74","J","0","img/none_selected_demo.jpg","true","0","80_20_practice",""
"","bandit","22","218640","0.0-18.0-4.0","97259614","wem/bandit_party_2","A3ISDIYTS02E8C","either","4","305","","","","","","","0","1","0","","0.8","0.5","0.5","","","0.8","0.2","","","","","","","","","","","","","","","","74","J","0","img/none_selected_demo.jpg","true","0","80_20_practice",""
"","bandit","23","220426","0.0-18.0-5.0","97259614","wem/bandit_party_2","A3ISDIYTS02E8C","either","4","276","","","","","","","0","0","1","0.2","","0.5","0.5","","","","","","","0.8","0.2","","","","","","","","","","","","75","K","1","","true","0","80_20_practice",""
"","bandit","24","222193","0.0-18.0-6.0","97259614","wem/bandit_party_2","A3ISDIYTS02E8C","either","4","251","","","","","","","1","0","0","0.8","","0.5","0.5","","","","","","","0.8","0.2","","","","","","","","","","","","74","J","0","img/none_selected_demo.jpg","true","0","80_20_practice",""
"","bandit","25","224114","0.0-18.0-7.0","97259614","wem/bandit_party_2","A3ISDIYTS02E8C","either","4","402","","","","","","","0","1","0","","0.8","0.5","0.5","","","0.8","0.2","","","","","","","","","","","","","","","","74","J","0","img/none_selected_demo.jpg","true","0","80_20_practice",""
"","bandit","26","225983","0.0-18.0-8.0","97259614","wem/bandit_party_2","A3ISDIYTS02E8C","either","4","357","","","","","","","0","1","0","","0.8","0.5","0.5","","","0.8","0.2","","","","","","","","","","","","","","","","74","J","0","img/none_selected_demo.jpg","true","0","80_20_practice",""
"","bandit","27","227827","0.0-18.0-9.0","97259614","wem/bandit_party_2","A3ISDIYTS02E8C","either","4","329","","","","","","","1","0","0","0.8","","0.5","0.5","","","","","","","0.8","0.2","","","","","","","","","","","","74","J","0","img/none_selected_demo.jpg","true","0","80_20_practice",""
"","bandit","28","229606","0.0-18.0-10.0","97259614","wem/bandit_party_2","A3ISDIYTS02E8C","either","4","252","","","","","","","1","0","0","0.8","","0.5","0.5","","","","","","","0.8","0.2","","","","","","","","","","","","74","J","0","img/none_selected_demo.jpg","true","0","80_20_practice",""
"","bandit","29","231362","0.0-18.0-11.0","97259614","wem/bandit_party_2","A3ISDIYTS02E8C","either","4","242","","","","","","","1","0","0","0.8","","0.5","0.5","","","","","","","0.8","0.2","","","","","","","","","","","","74","J","0","img/none_selected_demo.jpg","true","0","80_20_practice",""
"","bandit","30","233147","0.0-18.0-12.0","97259614","wem/bandit_party_2","A3ISDIYTS02E8C","either","4","269","","","","","","","1","0","0","0.8","","0.5","0.5","","","","","","","0.8","0.2","","","","","","","","","","","","74","J","0","img/none_selected_demo.jpg","true","0","80_20_practice",""
"","bandit","31","234936","0.0-18.0-13.0","97259614","wem/bandit_party_2","A3ISDIYTS02E8C","either","4","275","","","","","","","0","1","0","","0.8","0.5","0.5","","","0.8","0.2","","","","","","","","","","","","","","","","74","J","0","img/none_selected_demo.jpg","true","0","80_20_practice",""
"","bandit","32","236642","0.0-18.0-14.0","97259614","wem/bandit_party_2","A3ISDIYTS02E8C","either","4","190","","","","","","","1","0","0","0.8","","0.5","0.5","","","","","","","0.8","0.2","","","","","","","","","","","","74","J","0","img/none_selected_demo.jpg","true","0","80_20_practice",""
"","bandit","33","238621","0.0-18.0-15.0","97259614","wem/bandit_party_2","A3ISDIYTS02E8C","either","4","467","","","","","","","0","0","1","","0.8","0.5","0.5","","","0.8","0.2","","","","","","","","","","","","","","","","74","J","0","img/none_selected_demo.jpg","true","0","80_20_practice",""
"","bandit","34","240452","0.0-18.0-16.0","97259614","wem/bandit_party_2","A3ISDIYTS02E8C","either","4","315","","","","","","","0","0","1","","0.8","0.5","0.5","","","0.8","0.2","","","","","","","","","","","","","","","","74","J","0","img/none_selected_demo.jpg","true","0","80_20_practice",""
"","bandit","35","242334","0.0-18.0-17.0","97259614","wem/bandit_party_2","A3ISDIYTS02E8C","either","4","367","","","","","","","1","0","0","0.8","","0.5","0.5","","","","","","","0.8","0.2","","","","","","","","","","","","74","J","0","img/none_selected_demo.jpg","true","0","80_20_practice",""
"","bandit","36","244259","0.0-18.0-18.0","97259614","wem/bandit_party_2","A3ISDIYTS02E8C","either","4","411","","","","","","","0","1","0","","0.8","0.5","0.5","","","0.8","0.2","","","","","","","","","","","","","","","","74","J","0","img/none_selected_demo.jpg","true","0","80_20_practice",""
"","bandit","37","246250","0.0-18.0-19.0","97259614","wem/bandit_party_2","A3ISDIYTS02E8C","either","4","477","","","","","","","0","0","1","0.8","","0.5","0.5","","","","","","","0.8","0.2","","","","","","","","","","","","74","J","0","img/none_selected_demo.jpg","true","0","80_20_practice",""
"","text-replacement","38","252267","0.0-19.0","97259614","wem/bandit_party_2","A3ISDIYTS02E8C","either","4","6014","","","32","","","","","","","","","","","","","","","","","","","","","","","","","","","","","","","","","","","","",""
"","bandit","39","254823","0.0-20.0-0.0","97259614","wem/bandit_party_2","A3ISDIYTS02E8C","either","4","1042","","","","","","","1","0","0","1","0","","","","","0","1","","","1","0","","","","","","","","","","","","74","J","0","img/none_selected_demo.jpg","true","0","",""
"","text-replacement","40","301574","0.0-21.0","97259614","wem/bandit_party_2","A3ISDIYTS02E8C","either","4","46744","","","32","","","","","","","","","","","","","","","","","","","","","","","","","","","","","","","","","","","","",""
"","text-replacement","41","307144","0.0-22.0","97259614","wem/bandit_party_2","A3ISDIYTS02E8C","either","4","5565","","","32","","","","","","","","","","","","","","","","","","","","","","","","","","","","","","","","","","","","",""
"","text-replacement","42","311905","0.0-23.0","97259614","wem/bandit_party_2","A3ISDIYTS02E8C","either","4","4757","","","32","","","","","","","","","","","","","","","","","","","","","","","","","","","","","","","","","","","","",""
"","text-replacement","43","317306","0.0-24.0","97259614","wem/bandit_party_2","A3ISDIYTS02E8C","either","4","5396","","","32","","","","","","","","","","","","","","","","","","","","","","","","","","","","","","","","","","","","",""
"","text-replacement","44","322318","0.0-25.0","97259614","wem/bandit_party_2","A3ISDIYTS02E8C","either","4","5007","","","32","","","","","","","","","","","","","","","","","","","","","","","","","","","","","","","","","","","","",""
"","text-replacement","45","325599","0.0-26.0","97259614","wem/bandit_party_2","A3ISDIYTS02E8C","either","4","3275","","","32","","","","","","","","","","","","","","","","","","","","","","","","","","","","","","","","","","","","",""
"","text-replacement","46","327191","0.0-27.0","97259614","wem/bandit_party_2","A3ISDIYTS02E8C","either","4","1588","","","32","","","","","","","","","","","","","","","","","","","","","","","","","","","","","","","","","","","","",""
"","text-replacement","47","333210","0.0-28.0","97259614","wem/bandit_party_2","A3ISDIYTS02E8C","either","4","6014","","","32","","","","","","","","","","","","","","","","","","","","","","","","","","","","","","","","","","","","",""
"","text-replacement","48","336790","0.0-29.0","97259614","wem/bandit_party_2","A3ISDIYTS02E8C","either","4","3576","","","32","","","","","","","","","","","","","","","","","","","","","","","","","","","","","","","","","","","","",""
"","text-replacement","49","338996","0.0-30.0","97259614","wem/bandit_party_2","A3ISDIYTS02E8C","either","4","2204","","","32","","","","","","","","","","","","","","","","","","","","","","","","","","","","","","","","","","","","",""
"","text-replacement","50","346954","0.0-31.0","97259614","wem/bandit_party_2","A3ISDIYTS02E8C","either","4","7952","","","32","","","","","","","","","","","","","","","","","","","","","","","","","","","","","","","","","","","","",""
"","bandit","51","350767","0.0-32.0-0.0","97259614","wem/bandit_party_2","A3ISDIYTS02E8C","either","4","2300","","","","","","","0","0","1","0.8","","0.5","0.5","0.5","0.5","","","","","0.8","0.2","0.6","0.2","","","","","","","","","","72","H","0","img/none_selected.jpg","true","0","full_practice",""
"","bandit","52","352855","0.0-32.0-1.0","97259614","wem/bandit_party_2","A3ISDIYTS02E8C","either","4","575","","","","","","","0","0","1","","0.2","0.5","0.5","0.5","0.5","0.8","0.2","0.6","0.2","","","","","","","","","","","","","","74","J","1","","true","0","full_practice",""
"","bandit","53","355960","0.0-32.0-2.0","97259614","wem/bandit_party_2","A3ISDIYTS02E8C","either","4","1589","","","","","","","0","1","0","","0.6","0.5","0.5","0.5","0.5","0.8","0.2","0.6","0.2","","","","","","","","","","","","","","75","K","2","","true","0","full_practice",""
"","bandit","54","357754","0.0-32.0-3.0","97259614","wem/bandit_party_2","A3ISDIYTS02E8C","either","4","278","","","","","","","0","1","0","","0.6","0.5","0.5","0.5","0.5","0.8","0.2","0.6","0.2","","","","","","","","","","","","","","75","K","2","","true","0","full_practice",""
"","bandit","55","359553","0.0-32.0-4.0","97259614","wem/bandit_party_2","A3ISDIYTS02E8C","either","4","283","","","","","","","0","1","0","","0.6","0.5","0.5","0.5","0.5","0.8","0.2","0.6","0.2","","","","","","","","","","","","","","75","K","2","","true","0","full_practice",""
"","bandit","56","361358","0.0-32.0-5.0","97259614","wem/bandit_party_2","A3ISDIYTS02E8C","either","4","287","","","","","","","1","0","0","0.6","","0.5","0.5","0.5","0.5","","","","","0.8","0.2","0.6","0.2","","","","","","","","","","75","K","2","","true","0","full_practice",""
"","bandit","57","363056","0.0-32.0-6.0","97259614","wem/bandit_party_2","A3ISDIYTS02E8C","either","4","167","","","","","","","0","0","1","0.6","","0.5","0.5","0.5","0.5","","","","","0.8","0.2","0.6","0.2","","","","","","","","","","75","K","2","","true","0","full_practice",""
"","bandit","58","364704","0.0-32.0-7.0","97259614","wem/bandit_party_2","A3ISDIYTS02E8C","either","4","136","","","","","","","0","0","1","0.2","","0.5","0.5","0.5","0.5","","","","","0.8","0.2","0.6","0.2","","","","","","","","","","76","L","3","","true","0","full_practice",""
"","bandit","59","367265","0.0-32.0-8.0","97259614","wem/bandit_party_2","A3ISDIYTS02E8C","either","4","1052","","","","","","","0","1","0","","0.6","0.5","0.5","0.5","0.5","0.8","0.2","0.6","0.2","","","","","","","","","","","","","","75","K","2","","true","0","full_practice",""
"","bandit","60","368927","0.0-32.0-9.0","97259614","wem/bandit_party_2","A3ISDIYTS02E8C","either","4","143","","","","","","","0","1","0","","0.6","0.5","0.5","0.5","0.5","0.8","0.2","0.6","0.2","","","","","","","","","","","","","","75","K","2","","true","0","full_practice",""
"","bandit","61","370668","0.0-32.0-10.0","97259614","wem/bandit_party_2","A3ISDIYTS02E8C","either","4","227","","","","","","","0","0","1","0.6","","0.5","0.5","0.5","0.5","","","","","0.8","0.2","0.6","0.2","","","","","","","","","","75","K","2","","true","0","full_practice",""
"","bandit","62","372356","0.0-32.0-11.0","97259614","wem/bandit_party_2","A3ISDIYTS02E8C","either","4","173","","","","","","","0","0","1","","0.2","0.5","0.5","0.5","0.5","0.8","0.2","0.6","0.2","","","","","","","","","","","","","","76","L","3","","true","0","full_practice",""
"","bandit","63","374018","0.0-32.0-12.0","97259614","wem/bandit_party_2","A3ISDIYTS02E8C","either","4","147","","","","","","","1","0","0","0.6","","0.5","0.5","0.5","0.5","","","","","0.8","0.2","0.6","0.2","","","","","","","","","","75","K","2","","true","0","full_practice",""
"","bandit","64","375775","0.0-32.0-13.0","97259614","wem/bandit_party_2","A3ISDIYTS02E8C","either","4","241","","","","","","","0","0","1","0.6","","0.5","0.5","0.5","0.5","","","","","0.8","0.2","0.6","0.2","","","","","","","","","","75","K","2","","true","0","full_practice",""
"","bandit","65","377562","0.0-32.0-14.0","97259614","wem/bandit_party_2","A3ISDIYTS02E8C","either","4","276","","","","","","","0","0","1","","0.2","0.5","0.5","0.5","0.5","0.8","0.2","0.6","0.2","","","","","","","","","","","","","","74","J","1","","true","0","full_practice",""
"","bandit","66","379192","0.0-32.0-15.0","97259614","wem/bandit_party_2","A3ISDIYTS02E8C","either","4","116","","","","","","","1","0","0","0.6","","0.5","0.5","0.5","0.5","","","","","0.8","0.2","0.6","0.2","","","","","","","","","","75","K","2","","true","0","full_practice",""
"","bandit","67","380958","0.0-32.0-16.0","97259614","wem/bandit_party_2","A3ISDIYTS02E8C","either","4","249","","","","","","","0","0","1","0.6","","0.5","0.5","0.5","0.5","","","","","0.8","0.2","0.6","0.2","","","","","","","","","","75","K","2","","true","0","full_practice",""
"","bandit","68","382716","0.0-32.0-17.0","97259614","wem/bandit_party_2","A3ISDIYTS02E8C","either","4","239","","","","","","","0","1","0","","0.8","0.5","0.5","0.5","0.5","0.8","0.2","0.6","0.2","","","","","","","","","","","","","","72","H","0","img/none_selected.jpg","true","0","full_practice",""
"","bandit","69","384552","0.0-32.0-18.0","97259614","wem/bandit_party_2","A3ISDIYTS02E8C","either","4","322","","","","","","","0","1","0","","0.6","0.5","0.5","0.5","0.5","0.8","0.2","0.6","0.2","","","","","","","","","","","","","","75","K","2","","true","0","full_practice",""
"","bandit","70","386303","0.0-32.0-19.0","97259614","wem/bandit_party_2","A3ISDIYTS02E8C","either","4","235","","","","","","","1","0","0","0.8","","0.5","0.5","0.5","0.5","","","","","0.8","0.2","0.6","0.2","","","","","","","","","","72","H","0","img/none_selected.jpg","true","0","full_practice",""
"","text","71","391677","0.0-33.0","97259614","wem/bandit_party_2","A3ISDIYTS02E8C","either","4","5342","","","32","","","","","","","","","","","","","","","","","","","","","","","","","","","","","","","","","","","","",""
"","text-replacement","72","417572","0.0-34.0","97259614","wem/bandit_party_2","A3ISDIYTS02E8C","either","4","24887","","","32","","","","","","","","","","","","","","","","","","","","","","","","","","","","","","","","","","","","",""
"","text-replacement","73","428427","0.0-35.0","97259614","wem/bandit_party_2","A3ISDIYTS02E8C","either","4","10848","","","32","","","","","","","","","","","","","","","","","","","","","","","","","","","","","","","","","","","","",""
"","text-replacement","74","435084","0.0-36.0","97259614","wem/bandit_party_2","A3ISDIYTS02E8C","either","4","6649","","","32","","","","","","","","","","","","","","","","","","","","","","","","","","","","","","","","","","","","",""
"","text-replacement","75","439779","0.0-37.0","97259614","wem/bandit_party_2","A3ISDIYTS02E8C","either","4","4689","","","32","","","","","","","","","","","","","","","","","","","","","","","","","","","","","","","","","","","","",""
"","text-replacement","76","443914","0.0-38.0","97259614","wem/bandit_party_2","A3ISDIYTS02E8C","either","4","4129","","","32","","","","","","","","","","","","","","","","","","","","","","","","","","","","","","","","","","","","",""
"","survey-multi-choice-replacement","77","451254","0.0-39.0-0.0","97259614","wem/bandit_party_2","A3ISDIYTS02E8C","either","4","7316","","","","","","","","","","","","","","","","","","","","","","","","Money will be added to the pool for <span style='color:blue;'>DEMOCRATS</span>","","","","","","","attn_check","","","","","","","","","0"
"","survey-multi-choice-replacement","78","459105","0.0-40.0-0.0","97259614","wem/bandit_party_2","A3ISDIYTS02E8C","either","4","6824","","","","","","","","","","","","","","","","","","","","","","","","Equal amounts of money will be added to the pool for <span style='color:blue;'>DEMOCRATS</span> and subtracted from the pool for <span style='color:red;'>REPUBLICANS</span>","","","","","","","attn_check","","","","","","","","","2"
"","survey-multi-choice-replacement","79","462635","0.0-41.0-0.0","97259614","wem/bandit_party_2","A3ISDIYTS02E8C","either","4","2508","","","","","","","","","","","","","","","","","","","","","","","","No money will be added to either pool","","","","","","","attn_check","","","","","","","","","3"
"","bandit","80","466998","0.0-42.0-0.0","97259614","wem/bandit_party_2","A3ISDIYTS02E8C","either","4","1850","","","","","","","1","0","0","0.9858900825","","0.6","0.8","0.4","0.2","","","","","0.9858900825","0.7267404998","0.8209843215","0.2887693562","","","","","","","","","","72","H","0","img/none_selected.jpg","","1","main_expt",""
"","bandit","81","468890","0.0-43.0-0.0","97259614","wem/bandit_party_2","A3ISDIYTS02E8C","either","4","374","","","","","","","1","0","0","0.9854924354","","0.6","0.8","0.4","0.2","","","","","0.9854924354","0.7034907646","0.8179122382","0.2986217167","","","","","","","","","","72","H","0","img/none_selected.jpg","","2","main_expt",""
"","bandit","82","470863","0.0-44.0-0.0","97259614","wem/bandit_party_2","A3ISDIYTS02E8C","either","4","458","","","","","","","0","1","0","","0.9789624529","0.6","0.8","0.4","0.2","0.9789624529","0.6574847675","0.8301291561","0.261346942","","","","","","","","","","","","","","72","H","0","img/none_selected.jpg","","3","main_expt",""
"","bandit","83","472638","0.0-45.0-0.0","97259614","wem/bandit_party_2","A3ISDIYTS02E8C","either","4","255","","","","","","","1","0","0","0.9565345184","","0.6","0.8","0.4","0.2","","","","","0.9565345184","0.5092805277","0.8219157537","0.2757740293","","","","","","","","","","72","H","0","img/none_selected.jpg","","4","main_expt",""
"","bandit","84","474426","0.0-46.0-0.0","97259614","wem/bandit_party_2","A3ISDIYTS02E8C","either","4","270","","","","","","","0","0","1","","0.941194936","0.6","0.8","0.4","0.2","0.941194936","0.5952926025","0.7759220463","0.3329857669","","","","","","","","","","","","","","72","H","0","img/none_selected.jpg","","5","main_expt",""
"","bandit","85","476050","0.0-47.0-0.0","97259614","wem/bandit_party_2","A3ISDIYTS02E8C","either","4","105","","","","","","","1","0","0","0.6160758637","","0.6","0.8","0.4","0.2","","","","","0.9305219143","0.6160758637","0.7495930044","0.331878758","","","","","","","","","","74","J","1","","","6","main_expt",""
"","bandit","86","477812","0.0-48.0-0.0","97259614","wem/bandit_party_2","A3ISDIYTS02E8C","either","4","248","","","","","","","1","0","0","0.937738562","","0.6","0.8","0.4","0.2","","","","","0.937738562","0.6381806331","0.7078030286","0.3863389794","","","","","","","","","","72","H","0","img/none_selected.jpg","","7","main_expt",""
"","bandit","87","479591","0.0-49.0-0.0","97259614","wem/bandit_party_2","A3ISDIYTS02E8C","either","4","256","","","","","","","1","0","0","0.8269671957","","0.6","0.8","0.4","0.2","","","","","0.8269671957","0.7047831713","0.689407674","0.4242016385","","","","","","","","","","72","H","0","img/none_selected.jpg","","8","main_expt",""
"","bandit","88","481377","0.0-50.0-0.0","97259614","wem/bandit_party_2","A3ISDIYTS02E8C","either","4","261","","","","","","","1","0","0","0.7696709776","","0.6","0.8","0.4","0.2","","","","","0.7696709776","0.6222923336","0.7848236408","0.379169242","","","","","","","","","","72","H","0","img/none_selected.jpg","","9","main_expt",""
"","bandit","89","483251","0.0-51.0-0.0","97259614","wem/bandit_party_2","A3ISDIYTS02E8C","either","4","351","","","","","","","0","0","1","","0.7313552403","0.6","0.8","0.4","0.2","0.7313552403","0.5629201009","0.791363481","0.40569916","","","","","","","","","","","","","","72","H","0","img/none_selected.jpg","","10","main_expt",""
"","bandit","90","485017","0.0-52.0-0.0","97259614","wem/bandit_party_2","A3ISDIYTS02E8C","either","4","247","","","","","","","0","0","1","","0.644159789","0.6","0.8","0.4","0.2","0.8129169819","0.644159789","0.7800632456","0.4188021694","","","","","","","","","","","","","","74","J","1","","","11","main_expt",""
"","bandit","91","486563","0.0-53.0-0.0","97259614","wem/bandit_party_2","A3ISDIYTS02E8C","either","4","29","","","","","","","1","0","0","0.7611571711","","0.6","0.8","0.4","0.2","","","","","0.7611571711","0.6840372722","0.7559884596","0.3689559917","","","","","","","","","","72","H","0","img/none_selected.jpg","","12","main_expt",""
"","bandit","92","488321","0.0-54.0-0.0","97259614","wem/bandit_party_2","A3ISDIYTS02E8C","either","4","247","","","","","","","0","1","0","","0.7628417147","0.6","0.8","0.4","0.2","0.7628417147","0.6236151953","0.7695577991","0.4584943612","","","","","","","","","","","","","","72","H","0","img/none_selected.jpg","","13","main_expt",""
"","bandit","93","490084","0.0-55.0-0.0","97259614","wem/bandit_party_2","A3ISDIYTS02E8C","either","4","247","","","","","","","0","1","0","","0.7436451733","0.6","0.8","0.4","0.2","0.7436451733","0.5388331182","0.8509931145","0.455083938","","","","","","","","","","","","","","72","H","0","img/none_selected.jpg","","14","main_expt",""
"","bandit","94","491683","0.0-56.0-0.0","97259614","wem/bandit_party_2","A3ISDIYTS02E8C","either","4","81","","","","","","","1","0","0","0.8256008488","","0.6","0.8","0.4","0.2","","","","","0.8256008488","0.4802769188","0.7745856811","0.5360112786","","","","","","","","","","72","H","0","img/none_selected.jpg","","15","main_expt",""
"","bandit","95","493522","0.0-57.0-0.0","97259614","wem/bandit_party_2","A3ISDIYTS02E8C","either","4","321","","","","","","","0","1","0","","0.7683027423","0.6","0.8","0.4","0.2","0.7683027423","0.4688000192","0.7576521113","0.4791571541","","","","","","","","","","","","","","72","H","0","img/none_selected.jpg","","16","main_expt",""
"","bandit","96","495301","0.0-58.0-0.0","97259614","wem/bandit_party_2","A3ISDIYTS02E8C","either","4","261","","","","","","","1","0","0","0.7857675768","","0.6","0.8","0.4","0.2","","","","","0.7857675768","0.6000602573","0.8099558365","0.5263630166","","","","","","","","","","72","H","0","img/none_selected.jpg","","17","main_expt",""
"","bandit","97","497041","0.0-59.0-0.0","97259614","wem/bandit_party_2","A3ISDIYTS02E8C","either","4","221","","","","","","","1","0","0","0.7303419725","","0.6","0.8","0.4","0.2","","","","","0.7303419725","0.6046592687","0.7535280451","0.543945959","","","","","","","","","","72","H","0","img/none_selected.jpg","","18","main_expt",""
"","bandit","98","498825","0.0-60.0-0.0","97259614","wem/bandit_party_2","A3ISDIYTS02E8C","either","4","253","","","","","","","0","0","1","0.7243255268","","0.6","0.8","0.4","0.2","","","","","0.7243255268","0.6177236116","0.7206444799","0.4579801682","","","","","","","","","","72","H","0","img/none_selected.jpg","","19","main_expt",""
"","bandit","99","500641","0.0-61.0-0.0","97259614","wem/bandit_party_2","A3ISDIYTS02E8C","either","4","298","","","","","","","1","0","0","0.7691283854","","0.6","0.8","0.4","0.2","","","","","0.7691283854","0.5484637992","0.6388551968","0.5439896582","","","","","","","","","","72","H","0","img/none_selected.jpg","","20","main_expt",""
"","bandit","100","502426","0.0-62.0-0.0","97259614","wem/bandit_party_2","A3ISDIYTS02E8C","either","4","270","","","","","","","0","0","1","","0.7068464658","0.6","0.8","0.4","0.2","0.7068464658","0.6646151354","0.4956822649","0.5796019833","","","","","","","","","","","","","","72","H","0","img/none_selected.jpg","","21","main_expt",""
"","bandit","101","504191","0.0-63.0-0.0","97259614","wem/bandit_party_2","A3ISDIYTS02E8C","either","4","255","","","","","","","1","0","0","0.7223938077","","0.6","0.8","0.4","0.2","","","","","0.7407239748","0.7223938077","0.4316307404","0.5885929095","","","","","","","","","","74","J","1","","","22","main_expt",""
"","bandit","102","505972","0.0-64.0-0.0","97259614","wem/bandit_party_2","A3ISDIYTS02E8C","either","4","262","","","","","","","1","0","0","0.7548690184","","0.6","0.8","0.4","0.2","","","","","0.7300920021","0.7548690184","0.4158022912","0.4899642796","","","","","","","","","","74","J","1","","","23","main_expt",""
"","bandit","103","507768","0.0-65.0-0.0","97259614","wem/bandit_party_2","A3ISDIYTS02E8C","either","4","281","","","","","","","0","1","0","","0.7794954679","0.6","0.8","0.4","0.2","0.7074307303","0.7794954679","0.4099928258","0.4984159311","","","","","","","","","","","","","","74","J","1","","","24","main_expt",""
"","bandit","104","509550","0.0-66.0-0.0","97259614","wem/bandit_party_2","A3ISDIYTS02E8C","either","4","266","","","","","","","0","0","1","0.8029664172","","0.6","0.8","0.4","0.2","","","","","0.6228099684","0.8029664172","0.4303724308","0.5885503773","","","","","","","","","","74","J","1","","","25","main_expt",""
"","bandit","105","511183","0.0-67.0-0.0","97259614","wem/bandit_party_2","A3ISDIYTS02E8C","either","4","115","","","","","","","0","1","0","","0.5588879168","0.6","0.8","0.4","0.2","0.5588879168","0.6980766755","0.3291624114","0.6978100054","","","","","","","","","","","","","","72","H","0","img/none_selected.jpg","","26","main_expt",""
"","bandit","106","512898","0.0-68.0-0.0","97259614","wem/bandit_party_2","A3ISDIYTS02E8C","either","4","198","","","","","","","0","0","1","","0.5033257713","0.6","0.8","0.4","0.2","0.5033257713","0.7021498626","0.3795789415","0.6442468271","","","","","","","","","","","","","","72","H","0","img/none_selected.jpg","","27","main_expt",""
"","bandit","107","514736","0.0-69.0-0.0","97259614","wem/bandit_party_2","A3ISDIYTS02E8C","either","4","317","","","","","","","1","0","0","0.7802436781","","0.6","0.8","0.4","0.2","","","","","0.4915102133","0.7802436781","0.3208573938","0.7399213538","","","","","","","","","","74","J","1","","","28","main_expt",""
"","bandit","108","516455","0.0-70.0-0.0","97259614","wem/bandit_party_2","A3ISDIYTS02E8C","either","4","202","","","","","","","1","0","0","0.6907923131","","0.6","0.8","0.4","0.2","","","","","0.4291187576","0.6907923131","0.3352919619","0.7520253205","","","","","","","","","","74","J","1","","","29","main_expt",""
"","bandit","109","518227","0.0-71.0-0.0","97259614","wem/bandit_party_2","A3ISDIYTS02E8C","either","4","248","","","","","","","1","0","0","0.6771306444","","0.6","0.8","0.4","0.2","","","","","0.5379907803","0.6771306444","0.3452717309","0.7528469829","","","","","","","","","","74","J","1","","","30","main_expt",""
"","bandit","110","519993","0.0-72.0-0.0","97259614","wem/bandit_party_2","A3ISDIYTS02E8C","either","4","249","","","","","","","1","0","0","0.7130915948","","0.6","0.8","0.4","0.2","","","","","0.646046857","0.7130915948","0.2967094522","0.7571908429","","","","","","","","","","74","J","1","","","31","main_expt",""
"","bandit","111","521713","0.0-73.0-0.0","97259614","wem/bandit_party_2","A3ISDIYTS02E8C","either","4","200","","","","","","","1","0","0","0.6849190202","","0.6","0.8","0.4","0.2","","","","","0.5608885347","0.6849190202","0.255781972","0.7530934884","","","","","","","","","","74","J","1","","","32","main_expt",""
"","bandit","112","523604","0.0-74.0-0.0","97259614","wem/bandit_party_2","A3ISDIYTS02E8C","either","4","374","","","","","","","0","1","0","","0.7392612035","0.6","0.8","0.4","0.2","0.5952322697","0.7392612035","0.2703771925","0.7163673585","","","","","","","","","","","","","","74","J","1","","","33","main_expt",""
"","bandit","113","525413","0.0-75.0-0.0","97259614","wem/bandit_party_2","A3ISDIYTS02E8C","either","4","283","","","","","","","1","0","0","0.7026009082","","0.6","0.8","0.4","0.2","","","","","0.6206609301","0.7026009082","0.3572673824","0.6817248107","","","","","","","","","","74","J","1","","","34","main_expt",""
"","bandit","114","527321","0.0-76.0-0.0","97259614","wem/bandit_party_2","A3ISDIYTS02E8C","either","4","390","","","","","","","1","0","0","0.632003728","","0.6","0.8","0.4","0.2","","","","","0.6223058769","0.632003728","0.3237575066","0.6903641832","","","","","","","","","","74","J","1","","","35","main_expt",""
"","bandit","115","529000","0.0-77.0-0.0","97259614","wem/bandit_party_2","A3ISDIYTS02E8C","either","4","170","","","","","","","1","0","0","0.7266912659","","0.6","0.8","0.4","0.2","","","","","0.7304722347","0.7266912659","0.3724209237","0.6953747248","","","","","","","","","","74","J","1","","","36","main_expt",""
"","bandit","116","530807","0.0-78.0-0.0","97259614","wem/bandit_party_2","A3ISDIYTS02E8C","either","4","287","","","","","","","0","0","1","0.5512211225","","0.6","0.8","0.4","0.2","","","","","0.6789706255","0.5512211225","0.3848591071","0.7552078918","","","","","","","","","","74","J","1","","","37","main_expt",""
"","bandit","117","532533","0.0-79.0-0.0","97259614","wem/bandit_party_2","A3ISDIYTS02E8C","either","4","208","","","","","","","1","0","0","0.6758320082","","0.6","0.8","0.4","0.2","","","","","0.6758320082","0.5888446875","0.4026628424","0.7095976639","","","","","","","","","","72","H","0","img/none_selected.jpg","","38","main_expt",""
"","bandit","118","534274","0.0-80.0-0.0","97259614","wem/bandit_party_2","A3ISDIYTS02E8C","either","4","222","","","","","","","0","1","0","","0.753286291","0.6","0.8","0.4","0.2","0.753286291","0.7349010221","0.460229008","0.7813817897","","","","","","","","","","","","","","72","H","0","img/none_selected.jpg","","39","main_expt",""
"","bandit","119","536045","0.0-81.0-0.0","97259614","wem/bandit_party_2","A3ISDIYTS02E8C","either","4","262","","","","","","","1","0","0","0.7527041006","","0.6","0.8","0.4","0.2","","","","","0.7527041006","0.6715391024","0.3392787789","0.7604460558","","","","","","","","","","72","H","0","img/none_selected.jpg","","40","main_expt",""
"","bandit","120","537714","0.0-82.0-0.0","97259614","wem/bandit_party_2","A3ISDIYTS02E8C","either","4","150","","","","","","","0","0","1","0.7900808451","","0.6","0.8","0.4","0.2","","","","","0.7900808451","0.688235262","0.2983701942","0.7588214983","","","","","","","","","","72","H","0","img/none_selected.jpg","","41","main_expt",""
"","bandit","121","539961","0.0-83.0-0.0","97259614","wem/bandit_party_2","A3ISDIYTS02E8C","either","4","732","","","","","","","1","0","0","0.750516412","","0.6","0.8","0.4","0.2","","","","","0.7261157662","0.750516412","0.2390858253","0.8204813903","","","","","","","","","","74","J","1","","","42","main_expt",""
"","bandit","122","541829","0.0-84.0-0.0","97259614","wem/bandit_party_2","A3ISDIYTS02E8C","either","4","348","","","","","","","1","0","0","0.775378891","","0.6","0.8","0.4","0.2","","","","","0.772887471","0.775378891","0.1877526289","0.8310219988","","","","","","","","","","74","J","1","","","43","main_expt",""
"","bandit","123","543610","0.0-85.0-0.0","97259614","wem/bandit_party_2","A3ISDIYTS02E8C","either","4","269","","","","","","","1","0","0","0.5983035632","","0.6","0.8","0.4","0.2","","","","","0.7359848823","0.5983035632","0.2713877418","0.8165903167","","","","","","","","","","74","J","1","","","44","main_expt",""
"","bandit","124","545395","0.0-86.0-0.0","97259614","wem/bandit_party_2","A3ISDIYTS02E8C","either","4","266","","","","","","","0","0","1","0.6453890447","","0.6","0.8","0.4","0.2","","","","","0.6223954065","0.6453890447","0.2600408605","0.6765015189","","","","","","","","","","74","J","1","","","45","main_expt",""
"","bandit","125","546930","0.0-87.0-0.0","97259614","wem/bandit_party_2","A3ISDIYTS02E8C","either","4","20","","","","","","","0","0","1","0.5963379238","","0.6","0.8","0.4","0.2","","","","","0.5963379238","0.4979639723","0.2435580982","0.6613510417","","","","","","","","","","72","H","0","img/none_selected.jpg","","46","main_expt",""
"","bandit","126","548464","0.0-88.0-0.0","97259614","wem/bandit_party_2","A3ISDIYTS02E8C","either","4","15","","","","","","","0","1","0","","0.3258971046","0.6","0.8","0.4","0.2","0.6161308884","0.4475739324","0.3258971046","0.7373034573","","","","","","","","","","","","","","75","K","2","","","47","main_expt",""
"","bandit","127","550241","0.0-89.0-0.0","97259614","wem/bandit_party_2","A3ISDIYTS02E8C","either","4","256","","","","","","","0","0","1","0.2934977076","","0.6","0.8","0.4","0.2","","","","","0.6354722558","0.570942939","0.2934977076","0.6580913366","","","","","","","","","","75","K","2","","","48","main_expt",""
"","bandit","128","551905","0.0-90.0-0.0","97259614","wem/bandit_party_2","A3ISDIYTS02E8C","either","4","151","","","","","","","1","0","0","0.5943858444","","0.6","0.8","0.4","0.2","","","","","0.5941747261","0.5943858444","0.3381222087","0.6518545324","","","","","","","","","","74","J","1","","","49","main_expt",""
"","bandit","129","553670","0.0-91.0-0.0","97259614","wem/bandit_party_2","A3ISDIYTS02E8C","either","4","250","","","","","","","1","0","0","0.72156704","","0.6","0.8","0.4","0.2","","","","","0.5510631732","0.72156704","0.4149653651","0.6362385309","","","","","","","","","","74","J","1","","","50","main_expt",""
"","bandit","130","555374","0.0-92.0-0.0","97259614","wem/bandit_party_2","A3ISDIYTS02E8C","either","4","192","","","","","","","1","0","0","0.6453884322","","0.6","0.8","0.4","0.2","","","","","0.5580995271","0.6453884322","0.315936401","0.6673370403","","","","","","","","","","74","J","1","","","51","main_expt",""
"","bandit","131","557145","0.0-93.0-0.0","97259614","wem/bandit_party_2","A3ISDIYTS02E8C","either","4","254","","","","","","","0","1","0","","0.635653338","0.6","0.8","0.4","0.2","0.4492126091","0.635653338","0.34776451","0.6614759556","","","","","","","","","","","","","","74","J","1","","","52","main_expt",""
"","bandit","132","558799","0.0-94.0-0.0","97259614","wem/bandit_party_2","A3ISDIYTS02E8C","either","4","133","","","","","","","0","0","1","0.5700640027","","0.6","0.8","0.4","0.2","","","","","0.4600129001","0.5700640027","0.2946288454","0.5099009019","","","","","","","","","","74","J","1","","","53","main_expt",""
"","bandit","133","560420","0.0-95.0-0.0","97259614","wem/bandit_party_2","A3ISDIYTS02E8C","either","4","104","","","","","","","0","0","1","0.3757560715","","0.6","0.8","0.4","0.2","","","","","0.4005354829","0.4535518587","0.3757560715","0.5323874036","","","","","","","","","","75","K","2","","","54","main_expt",""
"","bandit","134","563017","0.0-96.0-0.0","97259614","wem/bandit_party_2","A3ISDIYTS02E8C","either","4","1077","","","","","","","0","0","1","0.3258455482","","0.6","0.8","0.4","0.2","","","","","0.3305694417","0.4271895083","0.3258455482","0.5410243768","","","","","","","","","","75","K","2","","","55","main_expt",""
"","bandit","135","564709","0.0-97.0-0.0","97259614","wem/bandit_party_2","A3ISDIYTS02E8C","either","4","173","","","","","","","1","0","0","0.3506641683","","0.6","0.8","0.4","0.2","","","","","0.3443449075","0.3506641683","0.4350401219","0.5594159285","","","","","","","","","","74","J","1","","","56","main_expt",""
"","bandit","136","566542","0.0-98.0-0.0","97259614","wem/bandit_party_2","A3ISDIYTS02E8C","either","4","274","","","","","","","1","0","0","0.3266461122","","0.6","0.8","0.4","0.2","","","","","0.3719720486","0.3266461122","0.3707313189","0.5057935102","","","","","","","","","","74","J","1","","","57","main_expt",""
"","bandit","137","568267","0.0-99.0-0.0","97259614","wem/bandit_party_2","A3ISDIYTS02E8C","either","4","208","","","","","","","0","0","1","0.3024401834","","0.6","0.8","0.4","0.2","","","","","0.2230753252","0.3024401834","0.5588799977","0.4921421838","","","","","","","","","","74","J","1","","","58","main_expt",""
"","bandit","138","570080","0.0-100.0-0.0","97259614","wem/bandit_party_2","A3ISDIYTS02E8C","either","4","294","","","","","","","0","1","0","","0.6863198467","0.6","0.8","0.4","0.2","0.2255195526","0.4306619987","0.6863198467","0.4740341295","","","","","","","","","","","","","","75","K","2","","","59","main_expt",""
"","bandit","139","571810","0.0-101.0-0.0","97259614","wem/bandit_party_2","A3ISDIYTS02E8C","either","4","207","","","","","","","0","1","0","","0.6998437478","0.6","0.8","0.4","0.2","0.2150487889","0.4710521126","0.6998437478","0.4853159436","","","","","","","","","","","","","","75","K","2","","","60","main_expt",""
"","bandit","140","573573","0.0-102.0-0.0","97259614","wem/bandit_party_2","A3ISDIYTS02E8C","either","4","246","","","","","","","0","1","0","","0.7027468204","0.6","0.8","0.4","0.2","0.2670703017","0.4797168847","0.7027468204","0.4843563089","","","","","","","","","","","","","","75","K","2","","","61","main_expt",""
"","bandit","141","575268","0.0-103.0-0.0","97259614","wem/bandit_party_2","A3ISDIYTS02E8C","either","4","176","","","","","","","1","0","0","0.7461433662","","0.6","0.8","0.4","0.2","","","","","0.1622034337","0.441351191","0.7461433662","0.4970562682","","","","","","","","","","75","K","2","","","62","main_expt",""
"","bandit","142","576995","0.0-104.0-0.0","97259614","wem/bandit_party_2","A3ISDIYTS02E8C","either","4","208","","","","","","","1","0","0","0.7956877632","","0.6","0.8","0.4","0.2","","","","","0.1872430185","0.6405696824","0.7956877632","0.4870743105","","","","","","","","","","75","K","2","","","63","main_expt",""
"","bandit","143","578828","0.0-105.0-0.0","97259614","wem/bandit_party_2","A3ISDIYTS02E8C","either","4","309","","","","","","","1","0","0","0.7533911137","","0.6","0.8","0.4","0.2","","","","","0.1921602407","0.5093225209","0.7533911137","0.5297884171","","","","","","","","","","75","K","2","","","64","main_expt",""
"","bandit","144","581441","0.0-106.0-0.0","97259614","wem/bandit_party_2","A3ISDIYTS02E8C","either","4","1100","","","","","","","0","1","0","","0.8407665504","0.6","0.8","0.4","0.2","0.1747679693","0.5190422554","0.8407665504","0.5510281753","","","","","","","","","","","","","","75","K","2","","","65","main_expt",""
"","bandit","145","583770","0.0-107.0-0.0","97259614","wem/bandit_party_2","A3ISDIYTS02E8C","either","4","809","","","","","","","0","1","0","","0.8392190168","0.6","0.8","0.4","0.2","0.149475979","0.4367989657","0.8392190168","0.6548378986","","","","","","","","","","","","","","75","K","2","","","66","main_expt",""
"","bandit","146","585718","0.0-108.0-0.0","97259614","wem/bandit_party_2","A3ISDIYTS02E8C","either","4","428","","","","","","","1","0","0","0.7998105719","","0.6","0.8","0.4","0.2","","","","","0.1340316754","0.4515976155","0.7998105719","0.7873643744","","","","","","","","","","75","K","2","","","67","main_expt",""
"","bandit","147","587565","0.0-109.0-0.0","97259614","wem/bandit_party_2","A3ISDIYTS02E8C","either","4","336","","","","","","","0","1","0","","0.8055175736","0.6","0.8","0.4","0.2","0.1635100664","0.4605235732","0.8055175736","0.8374830125","","","","","","","","","","","","","","75","K","2","","","68","main_expt",""
"","bandit","148","589480","0.0-110.0-0.0","97259614","wem/bandit_party_2","A3ISDIYTS02E8C","either","4","397","","","","","","","0","1","0","","0.9157616325","0.6","0.8","0.4","0.2","0.1227365859","0.3799115548","0.9157616325","0.7948054761","","","","","","","","","","","","","","75","K","2","","","69","main_expt",""
"","bandit","149","591582","0.0-111.0-0.0","97259614","wem/bandit_party_2","A3ISDIYTS02E8C","either","4","589","","","","","","","0","1","0","","0.9575411193","0.6","0.8","0.4","0.2","0.1248437045","0.4215965018","0.9575411193","0.8257183208","","","","","","","","","","","","","","75","K","2","","","70","main_expt",""
"","bandit","150","593419","0.0-112.0-0.0","97259614","wem/bandit_party_2","A3ISDIYTS02E8C","either","4","318","","","","","","","1","0","0","0.9604429572","","0.6","0.8","0.4","0.2","","","","","0.1153860856","0.4069040491","0.9604429572","0.7378076352","","","","","","","","","","75","K","2","","","71","main_expt",""
"","bandit","151","595520","0.0-113.0-0.0","97259614","wem/bandit_party_2","A3ISDIYTS02E8C","either","4","581","","","","","","","1","0","0","0.9598545795","","0.6","0.8","0.4","0.2","","","","","0.1355011504","0.4396577013","0.9598545795","0.7402058239","","","","","","","","","","75","K","2","","","72","main_expt",""
"","bandit","152","597485","0.0-114.0-0.0","97259614","wem/bandit_party_2","A3ISDIYTS02E8C","either","4","443","","","","","","","1","0","0","0.944667289","","0.6","0.8","0.4","0.2","","","","","0.05996807606","0.6562772762","0.944667289","0.6976791507","","","","","","","","","","75","K","2","","","73","main_expt",""
"","bandit","153","599613","0.0-115.0-0.0","97259614","wem/bandit_party_2","A3ISDIYTS02E8C","either","4","610","","","","","","","0","1","0","","0.9226304804","0.6","0.8","0.4","0.2","0.05405538329","0.6973429816","0.9226304804","0.7918365236","","","","","","","","","","","","","","75","K","2","","","74","main_expt",""
"","bandit","154","601580","0.0-116.0-0.0","97259614","wem/bandit_party_2","A3ISDIYTS02E8C","either","4","447","","","","","","","0","1","0","","0.9398646798","0.6","0.8","0.4","0.2","0.02989929625","0.7736122178","0.9398646798","0.7822783488","","","","","","","","","","","","","","75","K","2","","","75","main_expt",""
"","bandit","155","605468","0.0-117.0-0.0","97259614","wem/bandit_party_2","A3ISDIYTS02E8C","either","4","2367","","","","","","","0","1","0","","0.9344412274","0.6","0.8","0.4","0.2","0.0563551135","0.8130420724","0.9344412274","0.7290889389","","","","","","","","","","","","","","75","K","2","","","76","main_expt",""
"","bandit","156","609026","0.0-118.0-0.0","97259614","wem/bandit_party_2","A3ISDIYTS02E8C","either","4","2048","","","","","","","0","1","0","","0.9512527415","0.6","0.8","0.4","0.2","0.0510075381","0.8182773084","0.9512527415","0.7903383215","","","","","","","","","","","","","","75","K","2","","","77","main_expt",""
"","bandit","157","610886","0.0-119.0-0.0","97259614","wem/bandit_party_2","A3ISDIYTS02E8C","either","4","349","","","","","","","1","0","0","0.945324638","","0.6","0.8","0.4","0.2","","","","","0.07280641377","0.910984946","0.945324638","0.8093770606","","","","","","","","","","75","K","2","","","78","main_expt",""
"","bandit","158","612927","0.0-120.0-0.0","97259614","wem/bandit_party_2","A3ISDIYTS02E8C","either","4","519","","","","","","","0","1","0","","0.9313693401","0.6","0.8","0.4","0.2","0.06591604593","0.9303795674","0.9313693401","0.7310189459","","","","","","","","","","","","","","75","K","2","","","79","main_expt",""
"","bandit","159","614984","0.0-121.0-0.0","97259614","wem/bandit_party_2","A3ISDIYTS02E8C","either","4","537","","","","","","","1","0","0","0.9272018461","","0.6","0.8","0.4","0.2","","","","","0.02790121052","0.9581515868","0.9272018461","0.7915113188","","","","","","","","","","75","K","2","","","80","main_expt",""
"","bandit","160","616744","0.0-122.0-0.0","97259614","wem/bandit_party_2","A3ISDIYTS02E8C","either","4","247","","","","","","","1","0","0","0.9340165544","","0.6","0.8","0.4","0.2","","","","","0.03997429631","0.9107397581","0.9340165544","0.8463201033","","","","","","","","","","75","K","2","","","81","main_expt",""
"","bandit","161","618531","0.0-123.0-0.0","97259614","wem/bandit_party_2","A3ISDIYTS02E8C","either","4","267","","","","","","","1","0","0","0.9778602254","","0.6","0.8","0.4","0.2","","","","","0.03692483048","0.9531247327","0.9778602254","0.9043915002","","","","","","","","","","75","K","2","","","82","main_expt",""
"","bandit","162","620189","0.0-124.0-0.0","97259614","wem/bandit_party_2","A3ISDIYTS02E8C","either","4","138","","","","","","","0","1","0","","0.9593015187","0.6","0.8","0.4","0.2","0.04167024954","0.91574064","0.9593015187","0.922294541","","","","","","","","","","","","","","75","K","2","","","83","main_expt",""
"","bandit","163","622022","0.0-125.0-0.0","97259614","wem/bandit_party_2","A3ISDIYTS02E8C","either","4","311","","","","","","","0","1","0","","0.9398758864","0.6","0.8","0.4","0.2","0.03449326924","0.9287460716","0.9398758864","0.9079954767","","","","","","","","","","","","","","75","K","2","","","84","main_expt",""
"","bandit","164","623646","0.0-126.0-0.0","97259614","wem/bandit_party_2","A3ISDIYTS02E8C","either","4","105","","","","","","","0","1","0","","0.9256746213","0.6","0.8","0.4","0.2","0.07382848834","0.9817994773","0.9256746213","0.92293493","","","","","","","","","","","","","","75","K","2","","","85","main_expt",""
"","bandit","165","625430","0.0-127.0-0.0","97259614","wem/bandit_party_2","A3ISDIYTS02E8C","either","4","272","","","","","","","0","1","0","","0.8910640916","0.6","0.8","0.4","0.2","0.08839198485","0.9651028603","0.8910640916","0.8831043051","","","","","","","","","","","","","","75","K","2","","","86","main_expt",""
"","bandit","166","627123","0.0-128.0-0.0","97259614","wem/bandit_party_2","A3ISDIYTS02E8C","either","4","172","","","","","","","0","1","0","","0.8729480744","0.6","0.8","0.4","0.2","0.08767612821","0.9364705545","0.8729480744","0.876749115","","","","","","","","","","","","","","75","K","2","","","87","main_expt",""
"","bandit","167","629115","0.0-129.0-0.0","97259614","wem/bandit_party_2","A3ISDIYTS02E8C","either","4","480","","","","","","","1","0","0","0.8780151739","","0.6","0.8","0.4","0.2","","","","","0.1606359608","0.9235767634","0.8780151739","0.9189432589","","","","","","","","","","75","K","2","","","88","main_expt",""
"","bandit","168","630872","0.0-130.0-0.0","97259614","wem/bandit_party_2","A3ISDIYTS02E8C","either","4","235","","","","","","","0","1","0","","0.8856980863","0.6","0.8","0.4","0.2","0.2051996915","0.9375107972","0.8856980863","0.8770582065","","","","","","","","","","","","","","75","K","2","","","89","main_expt",""
"","bandit","169","633342","0.0-131.0-0.0","97259614","wem/bandit_party_2","A3ISDIYTS02E8C","either","4","948","","","","","","","0","0","1","","0.8828292745","0.6","0.8","0.4","0.2","0.1757431166","0.9201099193","0.8828292745","0.9303780437","","","","","","","","","","","","","","75","K","2","","","90","main_expt",""
"","bandit","170","635228","0.0-132.0-0.0","97259614","wem/bandit_party_2","A3ISDIYTS02E8C","either","4","364","","","","","","","0","1","0","","0.9016480115","0.6","0.8","0.4","0.2","0.3470073597","0.9416722714","0.9016480115","0.8870296602","","","","","","","","","","","","","","75","K","2","","","91","main_expt",""
"","bandit","171","637485","0.0-133.0-0.0","97259614","wem/bandit_party_2","A3ISDIYTS02E8C","either","4","733","","","","","","","1","0","0","0.9077272713","","0.6","0.8","0.4","0.2","","","","","0.4969118024","0.943817784","0.9077272713","0.8466670433","","","","","","","","","","75","K","2","","","92","main_expt",""
"","bandit","172","639398","0.0-134.0-0.0","97259614","wem/bandit_party_2","A3ISDIYTS02E8C","either","4","393","","","","","","","1","0","0","0.875936713","","0.6","0.8","0.4","0.2","","","","","0.5773598144","0.9078517942","0.875936713","0.850017275","","","","","","","","","","75","K","2","","","93","main_expt",""
"","bandit","173","641379","0.0-135.0-0.0","97259614","wem/bandit_party_2","A3ISDIYTS02E8C","either","4","468","","","","","","","1","0","0","0.8089346838","","0.6","0.8","0.4","0.2","","","","","0.5513550223","0.8983200186","0.8089346838","0.6893652978","","","","","","","","","","75","K","2","","","94","main_expt",""
"","bandit","174","643306","0.0-136.0-0.0","97259614","wem/bandit_party_2","A3ISDIYTS02E8C","either","4","406","","","","","","","0","0","1","0.7472177953","","0.6","0.8","0.4","0.2","","","","","0.5461825447","0.8744309931","0.7472177953","0.6025630118","","","","","","","","","","75","K","2","","","95","main_expt",""
"","bandit","175","645152","0.0-137.0-0.0","97259614","wem/bandit_party_2","A3ISDIYTS02E8C","either","4","336","","","","","","","0","1","0","","0.631257407","0.6","0.8","0.4","0.2","0.5564841108","0.8894212924","0.631257407","0.5565182624","","","","","","","","","","","","","","75","K","2","","","96","main_expt",""
"","bandit","176","647990","0.0-138.0-0.0","97259614","wem/bandit_party_2","A3ISDIYTS02E8C","either","4","1312","","","","","","","0","0","1","","0.7474787878","0.6","0.8","0.4","0.2","0.6513715187","0.891162681","0.7474787878","0.4820287155","","","","","","","","","","","","","","75","K","2","","","97","main_expt",""
"","bandit","177","650389","0.0-139.0-0.0","97259614","wem/bandit_party_2","A3ISDIYTS02E8C","either","4","876","","","","","","","1","0","0","0.8495400438","","0.6","0.8","0.4","0.2","","","","","0.7004254565","0.8495400438","0.7753317291","0.4599621431","","","","","","","","","","74","J","1","","","98","main_expt",""
"","bandit","178","652149","0.0-140.0-0.0","97259614","wem/bandit_party_2","A3ISDIYTS02E8C","either","4","241","","","","","","","1","0","0","0.8671572546","","0.6","0.8","0.4","0.2","","","","","0.6473310623","0.8671572546","0.7088399779","0.4109144258","","","","","","","","","","74","J","1","","","99","main_expt",""
"","bandit","179","653889","0.0-141.0-0.0","97259614","wem/bandit_party_2","A3ISDIYTS02E8C","either","4","218","","","","","","","1","0","0","0.8312294914","","0.6","0.8","0.4","0.2","","","","","0.6160818326","0.8312294914","0.7328055719","0.3466085394","","","","","","","","","","74","J","1","","","100","main_expt",""
"","bandit","180","655631","0.0-142.0-0.0","97259614","wem/bandit_party_2","A3ISDIYTS02E8C","either","4","194","","","","","","","1","0","0","0.8135240708","","0.6","0.8","0.4","0.2","","","","","0.6963675268","0.8135240708","0.8183789849","0.3712289037","","","","","","","","","","74","J","1","","","101","main_expt",""
"","bandit","181","657376","0.0-143.0-0.0","97259614","wem/bandit_party_2","A3ISDIYTS02E8C","either","4","224","","","","","","","1","0","0","0.8556055773","","0.6","0.8","0.4","0.2","","","","","0.6339579424","0.8556055773","0.7854635714","0.3626324234","","","","","","","","","","74","J","1","","","102","main_expt",""
"","bandit","182","659175","0.0-144.0-0.0","97259614","wem/bandit_party_2","A3ISDIYTS02E8C","either","4","278","","","","","","","0","1","0","","0.7632006143","0.6","0.8","0.4","0.2","0.6908430899","0.7632006143","0.8481411385","0.2748825764","","","","","","","","","","","","","","74","J","1","","","103","main_expt",""
"","bandit","183","660881","0.0-145.0-0.0","97259614","wem/bandit_party_2","A3ISDIYTS02E8C","either","4","185","","","","","","","1","0","0","0.8273213265","","0.6","0.8","0.4","0.2","","","","","0.6866318891","0.8273213265","0.8129446485","0.2381725209","","","","","","","","","","74","J","1","","","104","main_expt",""
"","bandit","184","662756","0.0-146.0-0.0","97259614","wem/bandit_party_2","A3ISDIYTS02E8C","either","4","335","","","","","","","0","0","1","","0.7930501456","0.6","0.8","0.4","0.2","0.6749941214","0.7930501456","0.7898688037","0.1939551764","","","","","","","","","","","","","","74","J","1","","","105","main_expt",""
"","bandit","185","664369","0.0-147.0-0.0","97259614","wem/bandit_party_2","A3ISDIYTS02E8C","either","4","101","","","","","","","0","1","0","","0.7810744832","0.6","0.8","0.4","0.2","0.7300347885","0.7186603115","0.7810744832","0.1884153881","","","","","","","","","","","","","","75","K","2","","","106","main_expt",""
"","bandit","186","666285","0.0-148.0-0.0","97259614","wem/bandit_party_2","A3ISDIYTS02E8C","either","4","395","","","","","","","0","1","0","","0.7837395221","0.6","0.8","0.4","0.2","0.8133516847","0.7155595947","0.7837395221","0.1011451677","","","","","","","","","","","","","","75","K","2","","","107","main_expt",""
"","bandit","187","667870","0.0-149.0-0.0","97259614","wem/bandit_party_2","A3ISDIYTS02E8C","either","4","75","","","","","","","1","0","0","0.787971135","","0.6","0.8","0.4","0.2","","","","","0.8009432675","0.7654707556","0.787971135","0.1500242655","","","","","","","","","","75","K","2","","","108","main_expt",""
"","bandit","188","670270","0.0-150.0-0.0","97259614","wem/bandit_party_2","A3ISDIYTS02E8C","either","4","875","","","","","","","0","0","1","","0.6866525704","0.6","0.8","0.4","0.2","0.7379370491","0.6288612937","0.6866525704","0.1285750889","","","","","","","","","","","","","","75","K","2","","","109","main_expt",""
"","bandit","189","672300","0.0-151.0-0.0","97259614","wem/bandit_party_2","A3ISDIYTS02E8C","either","4","507","","","","","","","1","0","0","0.6309058105","","0.6","0.8","0.4","0.2","","","","","0.7379992527","0.6309058105","0.5824748378","0.06279291231","","","","","","","","","","74","J","1","","","110","main_expt",""
"","bandit","190","674444","0.0-152.0-0.0","97259614","wem/bandit_party_2","A3ISDIYTS02E8C","either","4","624","","","","","","","1","0","0","0.6218965746","","0.6","0.8","0.4","0.2","","","","","0.7464430213","0.6218965746","0.659702805","0.07144278273","","","","","","","","","","74","J","1","","","111","main_expt",""
"","bandit","191","676206","0.0-153.0-0.0","97259614","wem/bandit_party_2","A3ISDIYTS02E8C","either","4","251","","","","","","","0","1","0","","0.6741482942","0.6","0.8","0.4","0.2","0.7736339118","0.6741482942","0.5111205641","0.06013221683","","","","","","","","","","","","","","74","J","1","","","112","main_expt",""
"","bandit","192","678816","0.0-154.0-0.0","97259614","wem/bandit_party_2","A3ISDIYTS02E8C","either","4","1089","","","","","","","0","1","0","","0.7405202534","0.6","0.8","0.4","0.2","0.8480767854","0.7405202534","0.4852392648","0.1442356489","","","","","","","","","","","","","","74","J","1","","","113","main_expt",""
"","bandit","193","681043","0.0-155.0-0.0","97259614","wem/bandit_party_2","A3ISDIYTS02E8C","either","4","702","","","","","","","1","0","0","0.743157628","","0.6","0.8","0.4","0.2","","","","","0.8016933152","0.743157628","0.3531287621","0.1733870882","","","","","","","","","","74","J","1","","","114","main_expt",""
"","bandit","194","683120","0.0-156.0-0.0","97259614","wem/bandit_party_2","A3ISDIYTS02E8C","either","4","551","","","","","","","1","0","0","0.7732583829","","0.6","0.8","0.4","0.2","","","","","0.8200260584","0.7732583829","0.4090792957","0.2198725907","","","","","","","","","","74","J","1","","","115","main_expt",""
"","bandit","195","685607","0.0-157.0-0.0","97259614","wem/bandit_party_2","A3ISDIYTS02E8C","either","4","953","","","","","","","0","0","1","0.6224016225","","0.6","0.8","0.4","0.2","","","","","0.7761954976","0.6224016225","0.4927933112","0.2116870815","","","","","","","","","","74","J","1","","","116","main_expt",""
"","bandit","196","687160","0.0-158.0-0.0","97259614","wem/bandit_party_2","A3ISDIYTS02E8C","either","4","34","","","","","","","1","0","0","0.4255499736","","0.6","0.8","0.4","0.2","","","","","0.7722233998","0.6784399158","0.4255499736","0.1293815938","","","","","","","","","","75","K","2","","","117","main_expt",""
"","bandit","197","689925","0.0-159.0-0.0","97259614","wem/bandit_party_2","A3ISDIYTS02E8C","either","4","1251","","","","","","","1","0","0","0.4073726931","","0.6","0.8","0.4","0.2","","","","","0.8049831996","0.7499631032","0.4073726931","0.1442073762","","","","","","","","","","75","K","2","","","118","main_expt",""
"","bandit","198","692948","0.0-160.0-0.0","97259614","wem/bandit_party_2","A3ISDIYTS02E8C","either","4","1499","","","","","","","0","0","1","","0.5447318884","0.6","0.8","0.4","0.2","0.8469405197","0.6258432538","0.5447318884","0.2098334931","","","","","","","","","","","","","","75","K","2","","","119","main_expt",""
"","bandit","199","695589","0.0-161.0-0.0","97259614","wem/bandit_party_2","A3ISDIYTS02E8C","either","4","1102","","","","","","","0","0","1","0.5602994123","","0.6","0.8","0.4","0.2","","","","","0.783925966","0.5602994123","0.5336717705","0.243218138","","","","","","","","","","74","J","1","","","120","main_expt",""
"","bandit","200","697622","0.0-162.0-0.0","97259614","wem/bandit_party_2","A3ISDIYTS02E8C","either","4","504","","","","","","","1","0","0","0.1595445902","","0.6","0.8","0.4","0.2","","","","","0.8031476983","0.5850644561","0.5621279662","0.1595445902","","","","","","","","","","76","L","3","","","121","main_expt",""
"","bandit","201","699566","0.0-163.0-0.0","97259614","wem/bandit_party_2","A3ISDIYTS02E8C","either","4","428","","","","","","","0","0","1","","0.1939767007","0.6","0.8","0.4","0.2","0.776878313","0.6205732407","0.5664238538","0.1939767007","","","","","","","","","","","","","","76","L","3","","","122","main_expt",""
"","bandit","202","701262","0.0-164.0-0.0","97259614","wem/bandit_party_2","A3ISDIYTS02E8C","either","4","176","","","","","","","0","1","0","","0.6501842916","0.6","0.8","0.4","0.2","0.7695343448","0.7954206102","0.6501842916","0.2265728871","","","","","","","","","","","","","","75","K","2","","","123","main_expt",""
"","bandit","203","703243","0.0-165.0-0.0","97259614","wem/bandit_party_2","A3ISDIYTS02E8C","either","4","460","","","","","","","1","0","0","0.5413703051","","0.6","0.8","0.4","0.2","","","","","0.6154230174","0.881213352","0.5413703051","0.2027469411","","","","","","","","","","75","K","2","","","124","main_expt",""
"","bandit","204","705037","0.0-166.0-0.0","97259614","wem/bandit_party_2","A3ISDIYTS02E8C","either","4","273","","","","","","","0","1","0","","0.5191338098","0.6","0.8","0.4","0.2","0.4710930195","0.8598562332","0.5191338098","0.1506135949","","","","","","","","","","","","","","75","K","2","","","125","main_expt",""
"","bandit","205","706747","0.0-167.0-0.0","97259614","wem/bandit_party_2","A3ISDIYTS02E8C","either","4","188","","","","","","","0","1","0","","0.6232591378","0.6","0.8","0.4","0.2","0.5258886302","0.867144728","0.6232591378","0.1875851228","","","","","","","","","","","","","","75","K","2","","","126","main_expt",""
"","bandit","206","709447","0.0-168.0-0.0","97259614","wem/bandit_party_2","A3ISDIYTS02E8C","either","4","1177","","","","","","","0","1","0","","0.601333273","0.6","0.8","0.4","0.2","0.3996486754","0.8677917819","0.601333273","0.2106184636","","","","","","","","","","","","","","75","K","2","","","127","main_expt",""
"","bandit","207","711556","0.0-169.0-0.0","97259614","wem/bandit_party_2","A3ISDIYTS02E8C","either","4","589","","","","","","","1","0","0","0.6312294041","","0.6","0.8","0.4","0.2","","","","","0.3557241191","0.8194058857","0.6312294041","0.1276240755","","","","","","","","","","75","K","2","","","128","main_expt",""
"","bandit","208","713661","0.0-170.0-0.0","97259614","wem/bandit_party_2","A3ISDIYTS02E8C","either","4","580","","","","","","","0","0","1","0.6655034733","","0.6","0.8","0.4","0.2","","","","","0.2432070908","0.813940224","0.6655034733","0.2163335705","","","","","","","","","","75","K","2","","","129","main_expt",""
"","bandit","209","715618","0.0-171.0-0.0","97259614","wem/bandit_party_2","A3ISDIYTS02E8C","either","4","426","","","","","","","0","0","1","","0.2448863899","0.6","0.8","0.4","0.2","0.1722843937","0.7296764962","0.6882303755","0.2448863899","","","","","","","","","","","","","","76","L","3","","","130","main_expt",""
"","bandit","210","717415","0.0-172.0-0.0","97259614","wem/bandit_party_2","A3ISDIYTS02E8C","either","4","281","","","","","","","0","0","1","","0.3447645787","0.6","0.8","0.4","0.2","0.1336027919","0.614258276","0.6772884453","0.3447645787","","","","","","","","","","","","","","76","L","3","","","131","main_expt",""
"","bandit","211","720523","0.0-173.0-0.0","97259614","wem/bandit_party_2","A3ISDIYTS02E8C","either","4","1592","","","","","","","0","1","0","","0.6773684555","0.6","0.8","0.4","0.2","0.1351629047","0.5349540706","0.6773684555","0.3622527956","","","","","","","","","","","","","","75","K","2","","","132","main_expt",""
"","bandit","212","723384","0.0-174.0-0.0","97259614","wem/bandit_party_2","A3ISDIYTS02E8C","either","4","1337","","","","","","","0","1","0","","0.7437755928","0.6","0.8","0.4","0.2","0.2495029","0.5449090787","0.7437755928","0.2961885878","","","","","","","","","","","","","","75","K","2","","","133","main_expt",""
"","bandit","213","725704","0.0-175.0-0.0","97259614","wem/bandit_party_2","A3ISDIYTS02E8C","either","4","798","","","","","","","0","1","0","","0.7423545867","0.6","0.8","0.4","0.2","0.2118512663","0.5037108559","0.7423545867","0.2932126781","","","","","","","","","","","","","","75","K","2","","","134","main_expt",""
"","bandit","214","728485","0.0-176.0-0.0","97259614","wem/bandit_party_2","A3ISDIYTS02E8C","either","4","1255","","","","","","","0","1","0","","0.7462440124","0.6","0.8","0.4","0.2","0.2474577379","0.5131336393","0.7462440124","0.2836439675","","","","","","","","","","","","","","75","K","2","","","135","main_expt",""
"","bandit","215","731673","0.0-177.0-0.0","97259614","wem/bandit_party_2","A3ISDIYTS02E8C","either","4","1664","","","","","","","0","0","1","","0.6372772774","0.6","0.8","0.4","0.2","0.1496333288","0.5847952324","0.6372772774","0.1985775905","","","","","","","","","","","","","","75","K","2","","","136","main_expt",""
"","bandit","216","733496","0.0-178.0-0.0","97259614","wem/bandit_party_2","A3ISDIYTS02E8C","either","4","300","","","","","","","0","0","1","","0.2655975","0.6","0.8","0.4","0.2","0.164835495","0.5191620222","0.6587707878","0.2655975","","","","","","","","","","","","","","76","L","3","","","137","main_expt",""
"","bandit","217","735444","0.0-179.0-0.0","97259614","wem/bandit_party_2","A3ISDIYTS02E8C","either","4","436","","","","","","","0","0","1","0.3830682141","","0.6","0.8","0.4","0.2","","","","","0.1629561883","0.3830682141","0.6545472314","0.4066298912","","","","","","","","","","74","J","1","","","138","main_expt",""
"","bandit","218","737203","0.0-180.0-0.0","97259614","wem/bandit_party_2","A3ISDIYTS02E8C","either","4","236","","","","","","","0","0","1","0.1162724323","","0.6","0.8","0.4","0.2","","","","","0.1162724323","0.3036015776","0.5773899651","0.4537429859","","","","","","","","","","72","H","0","img/none_selected.jpg","","139","main_expt",""
"","bandit","219","739035","0.0-181.0-0.0","97259614","wem/bandit_party_2","A3ISDIYTS02E8C","either","4","318","","","","","","","0","0","1","","0.5786924042","0.6","0.8","0.4","0.2","0.1262651596","0.2541790234","0.5786924042","0.410026376","","","","","","","","","","","","","","75","K","2","","","140","main_expt",""
"","bandit","220","740850","0.0-182.0-0.0","97259614","wem/bandit_party_2","A3ISDIYTS02E8C","either","4","290","","","","","","","0","0","1","","0.3978668086","0.6","0.8","0.4","0.2","0.1258799353","0.1899663758","0.4589731036","0.3978668086","","","","","","","","","","","","","","76","L","3","","","141","main_expt",""
"","bandit","221","742689","0.0-183.0-0.0","97259614","wem/bandit_party_2","A3ISDIYTS02E8C","either","4","316","","","","","","","0","0","1","0.214868544","","0.6","0.8","0.4","0.2","","","","","0.1220135665","0.214868544","0.3667804619","0.4096738096","","","","","","","","","","74","J","1","","","142","main_expt",""
"","bandit","222","744492","0.0-184.0-0.0","97259614","wem/bandit_party_2","A3ISDIYTS02E8C","either","4","280","","","","","","","0","0","1","0.3563831379","","0.6","0.8","0.4","0.2","","","","","0.1600355681","0.1549416237","0.3563831379","0.5422751762","","","","","","","","","","75","K","2","","","143","main_expt",""
"","bandit","223","746313","0.0-185.0-0.0","97259614","wem/bandit_party_2","A3ISDIYTS02E8C","either","4","297","","","","","","","0","1","0","","0.6045197677","0.6","0.8","0.4","0.2","0.103653669","0.2142728447","0.3675361202","0.6045197677","","","","","","","","","","","","","","76","L","3","","","144","main_expt",""
"","bandit","224","748207","0.0-186.0-0.0","97259614","wem/bandit_party_2","A3ISDIYTS02E8C","either","4","371","","","","","","","0","1","0","","0.6140727406","0.6","0.8","0.4","0.2","0.1417267119","0.2166472609","0.3266856562","0.6140727406","","","","","","","","","","","","","","76","L","3","","","145","main_expt",""
"","bandit","225","750358","0.0-187.0-0.0","97259614","wem/bandit_party_2","A3ISDIYTS02E8C","either","4","631","","","","","","","0","1","0","","0.5553742365","0.6","0.8","0.4","0.2","0.1508894681","0.2446047688","0.2815179259","0.5553742365","","","","","","","","","","","","","","76","L","3","","","146","main_expt",""
"","bandit","226","752589","0.0-188.0-0.0","97259614","wem/bandit_party_2","A3ISDIYTS02E8C","either","4","704","","","","","","","0","0","1","","0.52787167","0.6","0.8","0.4","0.2","0.1207147728","0.3011136322","0.3560244833","0.52787167","","","","","","","","","","","","","","76","L","3","","","147","main_expt",""
"","bandit","227","754248","0.0-189.0-0.0","97259614","wem/bandit_party_2","A3ISDIYTS02E8C","either","4","139","","","","","","","0","0","1","","0.5053851794","0.6","0.8","0.4","0.2","0.1362234148","0.2519777133","0.3585854149","0.5053851794","","","","","","","","","","","","","","76","L","3","","","148","main_expt",""
"","bandit","228","756081","0.0-190.0-0.0","97259614","wem/bandit_party_2","A3ISDIYTS02E8C","either","4","312","","","","","","","0","1","0","","0.284478414","0.6","0.8","0.4","0.2","0.1244444975","0.2996109941","0.284478414","0.5431256022","","","","","","","","","","","","","","75","K","2","","","149","main_expt",""
"","bandit","229","758274","0.0-191.0-0.0","97259614","wem/bandit_party_2","A3ISDIYTS02E8C","either","4","670","","","","","","","0","0","1","0.2617238314","","0.6","0.8","0.4","0.2","","","","","0.1109305632","0.2963563975","0.2617238314","0.422574086","","","","","","","","","","75","K","2","","","150","main_expt",""
"","bandit","230","759929","0.0-192.0-0.0","97259614","wem/bandit_party_2","A3ISDIYTS02E8C","either","4","128","","","","","","","0","0","1","","0.3907227364","0.6","0.8","0.4","0.2","0.11412436","0.4327396174","0.2709462114","0.3907227364","","","","","","","","","","","","","","76","L","3","","","151","main_expt",""
"","bandit","231","761737","0.0-193.0-0.0","97259614","wem/bandit_party_2","A3ISDIYTS02E8C","either","4","284","","","","","","","0","1","0","","0.5580814469","0.6","0.8","0.4","0.2","0.1469045903","0.4303068123","0.2993716907","0.5580814469","","","","","","","","","","","","","","76","L","3","","","152","main_expt",""
"","bandit","232","763396","0.0-194.0-0.0","97259614","wem/bandit_party_2","A3ISDIYTS02E8C","either","4","135","","","","","","","0","0","1","","0.2733354782","0.6","0.8","0.4","0.2","0.1633028487","0.455197397","0.2733354782","0.51223936","","","","","","","","","","","","","","75","K","2","","","153","main_expt",""
"","bandit","233","765084","0.0-195.0-0.0","97259614","wem/bandit_party_2","A3ISDIYTS02E8C","either","4","172","","","","","","","0","1","0","","0.4811601507","0.6","0.8","0.4","0.2","0.1340882311","0.6184454144","0.3264007987","0.4811601507","","","","","","","","","","","","","","76","L","3","","","154","main_expt",""
"","bandit","234","767083","0.0-196.0-0.0","97259614","wem/bandit_party_2","A3ISDIYTS02E8C","either","4","476","","","","","","","0","1","0","","0.575425417","0.6","0.8","0.4","0.2","0.1041462846","0.5833601464","0.204433578","0.575425417","","","","","","","","","","","","","","76","L","3","","","155","main_expt",""
"","bandit","235","769033","0.0-197.0-0.0","97259614","wem/bandit_party_2","A3ISDIYTS02E8C","either","4","427","","","","","","","0","0","1","0.6109018817","","0.6","0.8","0.4","0.2","","","","","0.08564190031","0.646897734","0.07451572188","0.6109018817","","","","","","","","","","76","L","3","","","156","main_expt",""
"","bandit","236","771035","0.0-198.0-0.0","97259614","wem/bandit_party_2","A3ISDIYTS02E8C","either","4","477","","","","","","","0","0","1","0.6812883852","","0.6","0.8","0.4","0.2","","","","","0.06977116317","0.6912470103","0.1251686374","0.6812883852","","","","","","","","","","76","L","3","","","157","main_expt",""
"","bandit","237","773234","0.0-199.0-0.0","97259614","wem/bandit_party_2","A3ISDIYTS02E8C","either","4","674","","","","","","","0","0","1","","0.73777041","0.6","0.8","0.4","0.2","0.1504927074","0.7865398282","0.1292052795","0.73777041","","","","","","","","","","","","","","76","L","3","","","158","main_expt",""
"","bandit","238","775037","0.0-200.0-0.0","97259614","wem/bandit_party_2","A3ISDIYTS02E8C","either","4","280","","","","","","","0","0","1","0.1200050714","","0.6","0.8","0.4","0.2","","","","","0.1429264201","0.7220910122","0.1200050714","0.8388849062","","","","","","","","","","75","K","2","","","159","main_expt",""
"","bandit","239","776840","0.0-201.0-0.0","97259614","wem/bandit_party_2","A3ISDIYTS02E8C","either","4","280","","","","","","","0","1","0","","0.1832893837","0.6","0.8","0.4","0.2","0.1832893837","0.710563805","0.1156014834","0.8006667519","","","","","","","","","","","","","","72","H","0","img/none_selected.jpg","","160","main_expt",""
"","bandit","240","778632","0.0-202.0-0.0","97259614","wem/bandit_party_2","A3ISDIYTS02E8C","either","4","268","","","","","","","0","0","1","0.2337310763","","0.6","0.8","0.4","0.2","","","","","0.2337310763","0.6205281072","0.1425751263","0.7406956812","","","","","","","","","","72","H","0","img/none_selected.jpg","","161","main_expt",""
"","bandit","241","780439","0.0-203.0-0.0","97259614","wem/bandit_party_2","A3ISDIYTS02E8C","either","4","295","","","","","","","0","0","1","","0.775259894","0.6","0.8","0.4","0.2","0.2326198937","0.5246840185","0.2108345254","0.775259894","","","","","","","","","","","","","","76","L","3","","","162","main_expt",""
"","bandit","242","782127","0.0-204.0-0.0","97259614","wem/bandit_party_2","A3ISDIYTS02E8C","either","4","166","","","","","","","1","0","0","0.1584290897","","0.6","0.8","0.4","0.2","","","","","0.1584290897","0.569340372","0.1664621688","0.6539471222","","","","","","","","","","72","H","0","img/none_selected.jpg","","163","main_expt",""
"","bandit","243","783906","0.0-205.0-0.0","97259614","wem/bandit_party_2","A3ISDIYTS02E8C","either","4","254","","","","","","","1","0","0","0.1417900361","","0.6","0.8","0.4","0.2","","","","","0.1417900361","0.5688323765","0.1741279052","0.7914062868","","","","","","","","","","72","H","0","img/none_selected.jpg","","164","main_expt",""
"","bandit","244","785706","0.0-206.0-0.0","97259614","wem/bandit_party_2","A3ISDIYTS02E8C","either","4","275","","","","","","","0","0","1","0.08849486786","","0.6","0.8","0.4","0.2","","","","","0.08849486786","0.5195648955","0.1891196979","0.8415061218","","","","","","","","","","72","H","0","img/none_selected.jpg","","165","main_expt",""
"","bandit","245","787576","0.0-207.0-0.0","97259614","wem/bandit_party_2","A3ISDIYTS02E8C","either","4","341","","","","","","","1","0","0","0.536500984","","0.6","0.8","0.4","0.2","","","","","0.1010416226","0.536500984","0.3016440744","0.9084068317","","","","","","","","","","74","J","1","","","166","main_expt",""
"","bandit","246","789338","0.0-208.0-0.0","97259614","wem/bandit_party_2","A3ISDIYTS02E8C","either","4","238","","","","","","","0","0","1","0.4243381616","","0.6","0.8","0.4","0.2","","","","","0.1506776516","0.4243381616","0.3427468607","0.8857506799","","","","","","","","","","74","J","1","","","167","main_expt",""
"","bandit","247","791095","0.0-209.0-0.0","97259614","wem/bandit_party_2","A3ISDIYTS02E8C","either","4","227","","","","","","","0","0","1","","0.2532220847","0.6","0.8","0.4","0.2","0.2532220847","0.4877327119","0.3759001064","0.9247721234","","","","","","","","","","","","","","72","H","0","img/none_selected.jpg","","168","main_expt",""
"","bandit","248","792856","0.0-210.0-0.0","97259614","wem/bandit_party_2","A3ISDIYTS02E8C","either","4","238","","","","","","","0","0","1","0.3824832387","","0.6","0.8","0.4","0.2","","","","","0.2223654062","0.5096331713","0.3824832387","0.8870410368","","","","","","","","","","75","K","2","","","169","main_expt",""
"","bandit","249","794650","0.0-211.0-0.0","97259614","wem/bandit_party_2","A3ISDIYTS02E8C","either","4","270","","","","","","","0","0","1","","0.2161840498","0.6","0.8","0.4","0.2","0.2161840498","0.6111595203","0.3257043992","0.8782412079","","","","","","","","","","","","","","72","H","0","img/none_selected.jpg","","170","main_expt",""
"","bandit","250","796277","0.0-212.0-0.0","97259614","wem/bandit_party_2","A3ISDIYTS02E8C","either","4","112","","","","","","","0","1","0","","0.7978982074","0.6","0.8","0.4","0.2","0.1996440145","0.5888321224","0.2943589708","0.7978982074","","","","","","","","","","","","","","76","L","3","","","171","main_expt",""
"","bandit","251","798452","0.0-213.0-0.0","97259614","wem/bandit_party_2","A3ISDIYTS02E8C","either","4","651","","","","","","","0","1","0","","0.7896885826","0.6","0.8","0.4","0.2","0.275753823","0.6295404033","0.4298537702","0.7896885826","","","","","","","","","","","","","","76","L","3","","","172","main_expt",""
"","bandit","252","800147","0.0-214.0-0.0","97259614","wem/bandit_party_2","A3ISDIYTS02E8C","either","4","167","","","","","","","0","0","1","","0.7771385218","0.6","0.8","0.4","0.2","0.2850946521","0.5976712981","0.4196262671","0.7771385218","","","","","","","","","","","","","","76","L","3","","","173","main_expt",""
"","bandit","253","802021","0.0-215.0-0.0","97259614","wem/bandit_party_2","A3ISDIYTS02E8C","either","4","352","","","","","","","0","1","0","","0.8412209493","0.6","0.8","0.4","0.2","0.2836726952","0.5936331925","0.4056978145","0.8412209493","","","","","","","","","","","","","","76","L","3","","","174","main_expt",""
"","bandit","254","803895","0.0-216.0-0.0","97259614","wem/bandit_party_2","A3ISDIYTS02E8C","either","4","346","","","","","","","0","0","1","0.8433491626","","0.6","0.8","0.4","0.2","","","","","0.27413619","0.544145328","0.3323311207","0.8433491626","","","","","","","","","","76","L","3","","","175","main_expt",""
"","bandit","255","806407","0.0-217.0-0.0","97259614","wem/bandit_party_2","A3ISDIYTS02E8C","either","4","985","","","","","","","1","0","0","0.3087900888","","0.6","0.8","0.4","0.2","","","","","0.2369491767","0.3584947592","0.3087900888","0.778586436","","","","","","","","","","75","K","2","","","176","main_expt",""
"","bandit","256","808727","0.0-218.0-0.0","97259614","wem/bandit_party_2","A3ISDIYTS02E8C","either","4","794","","","","","","","0","0","1","","0.3898613412","0.6","0.8","0.4","0.2","0.3440943848","0.436171931","0.3898613412","0.7488794252","","","","","","","","","","","","","","75","K","2","","","177","main_expt",""
"","bandit","257","810514","0.0-219.0-0.0","97259614","wem/bandit_party_2","A3ISDIYTS02E8C","either","4","259","","","","","","","0","1","0","","0.7738581751","0.6","0.8","0.4","0.2","0.3529135521","0.5193680035","0.5236321052","0.7738581751","","","","","","","","","","","","","","76","L","3","","","178","main_expt",""
"","bandit","258","812414","0.0-220.0-0.0","97259614","wem/bandit_party_2","A3ISDIYTS02E8C","either","4","372","","","","","","","0","1","0","","0.7527820287","0.6","0.8","0.4","0.2","0.3787243664","0.3957798075","0.2955080601","0.7527820287","","","","","","","","","","","","","","76","L","3","","","179","main_expt",""
"","bandit","259","814232","0.0-221.0-0.0","97259614","wem/bandit_party_2","A3ISDIYTS02E8C","either","4","290","","","","","","","0","1","0","","0.8022950929","0.6","0.8","0.4","0.2","0.3092677326","0.4249873197","0.3174151272","0.8022950929","","","","","","","","","","","","","","76","L","3","","","180","main_expt",""
"","bandit","260","816049","0.0-222.0-0.0","97259614","wem/bandit_party_2","A3ISDIYTS02E8C","either","4","292","","","","","","","0","0","1","","0.7505347306","0.6","0.8","0.4","0.2","0.3701559146","0.4260342439","0.3560995969","0.7505347306","","","","","","","","","","","","","","76","L","3","","","181","main_expt",""
"","bandit","261","817663","0.0-223.0-0.0","97259614","wem/bandit_party_2","A3ISDIYTS02E8C","either","4","86","","","","","","","0","1","0","","0.4649908644","0.6","0.8","0.4","0.2","0.2672844749","0.4305619521","0.4649908644","0.603349844","","","","","","","","","","","","","","75","K","2","","","182","main_expt",""
"","bandit","262","819468","0.0-224.0-0.0","97259614","wem/bandit_party_2","A3ISDIYTS02E8C","either","4","274","","","","","","","0","1","0","","0.4588174784","0.6","0.8","0.4","0.2","0.3046315644","0.4638513582","0.4588174784","0.6464544124","","","","","","","","","","","","","","75","K","2","","","183","main_expt",""
"","bandit","263","821421","0.0-225.0-0.0","97259614","wem/bandit_party_2","A3ISDIYTS02E8C","either","4","425","","","","","","","0","1","0","","0.509799977","0.6","0.8","0.4","0.2","0.3507685813","0.5084330557","0.509799977","0.6606024443","","","","","","","","","","","","","","75","K","2","","","184","main_expt",""
"","bandit","264","823233","0.0-226.0-0.0","97259614","wem/bandit_party_2","A3ISDIYTS02E8C","either","4","284","","","","","","","0","1","0","","0.4557178443","0.6","0.8","0.4","0.2","0.3250269766","0.5853778332","0.4557178443","0.7034535028","","","","","","","","","","","","","","75","K","2","","","185","main_expt",""
"","bandit","265","825758","0.0-227.0-0.0","97259614","wem/bandit_party_2","A3ISDIYTS02E8C","either","4","997","","","","","","","1","0","0","0.3250172706","","0.6","0.8","0.4","0.2","","","","","0.3636669497","0.5009207633","0.3250172706","0.7672503758","","","","","","","","","","75","K","2","","","186","main_expt",""
"","bandit","266","827554","0.0-228.0-0.0","97259614","wem/bandit_party_2","A3ISDIYTS02E8C","either","4","281","","","","","","","0","0","1","0.2982192525","","0.6","0.8","0.4","0.2","","","","","0.4095027401","0.4376492532","0.2982192525","0.7505037824","","","","","","","","","","75","K","2","","","187","main_expt",""
"","bandit","267","829139","0.0-229.0-0.0","97259614","wem/bandit_party_2","A3ISDIYTS02E8C","either","4","58","","","","","","","0","1","0","","0.7458261356","0.6","0.8","0.4","0.2","0.3356624093","0.317868257","0.2647713636","0.7458261356","","","","","","","","","","","","","","76","L","3","","","188","main_expt",""
"","bandit","268","830904","0.0-230.0-0.0","97259614","wem/bandit_party_2","A3ISDIYTS02E8C","either","4","238","","","","","","","0","0","1","","0.747965221","0.6","0.8","0.4","0.2","0.3717951419","0.3700786551","0.2798663258","0.747965221","","","","","","","","","","","","","","76","L","3","","","189","main_expt",""
"","bandit","269","832687","0.0-231.0-0.0","97259614","wem/bandit_party_2","A3ISDIYTS02E8C","either","4","266","","","","","","","1","0","0","0.2146362806","","0.6","0.8","0.4","0.2","","","","","0.3266606931","0.3423477616","0.2146362806","0.7459095382","","","","","","","","","","75","K","2","","","190","main_expt",""
"","bandit","270","834478","0.0-232.0-0.0","97259614","wem/bandit_party_2","A3ISDIYTS02E8C","either","4","265","","","","","","","0","0","1","0.3132783624","","0.6","0.8","0.4","0.2","","","","","0.4206899072","0.2488230813","0.3132783624","0.6299055833","","","","","","","","","","75","K","2","","","191","main_expt",""
"","bandit","271","836243","0.0-233.0-0.0","97259614","wem/bandit_party_2","A3ISDIYTS02E8C","either","4","237","","","","","","","0","1","0","","0.688533977","0.6","0.8","0.4","0.2","0.4982817076","0.2193108308","0.2488083766","0.688533977","","","","","","","","","","","","","","76","L","3","","","192","main_expt",""
"","bandit","272","838069","0.0-234.0-0.0","97259614","wem/bandit_party_2","A3ISDIYTS02E8C","either","4","300","","","","","","","1","0","0","0.7176496952","","0.6","0.8","0.4","0.2","","","","","0.4820211017","0.4057276106","0.225611763","0.7176496952","","","","","","","","","","76","L","3","","","193","main_expt",""
"","bandit","273","839846","0.0-235.0-0.0","97259614","wem/bandit_party_2","A3ISDIYTS02E8C","either","4","248","","","","","","","0","1","0","","0.746212457","0.6","0.8","0.4","0.2","0.5373891537","0.3826056333","0.2159393038","0.746212457","","","","","","","","","","","","","","76","L","3","","","194","main_expt",""
"","bandit","274","841635","0.0-236.0-0.0","97259614","wem/bandit_party_2","A3ISDIYTS02E8C","either","4","262","","","","","","","1","0","0","0.6800784202","","0.6","0.8","0.4","0.2","","","","","0.3890275207","0.4922935908","0.3112228701","0.6800784202","","","","","","","","","","76","L","3","","","195","main_expt",""
"","bandit","275","843969","0.0-237.0-0.0","97259614","wem/bandit_party_2","A3ISDIYTS02E8C","either","4","808","","","","","","","0","0","1","","0.3249051539","0.6","0.8","0.4","0.2","0.4329462643","0.5475793877","0.3249051539","0.5986295964","","","","","","","","","","","","","","75","K","2","","","196","main_expt",""
"","bandit","276","845841","0.0-238.0-0.0","97259614","wem/bandit_party_2","A3ISDIYTS02E8C","either","4","346","","","","","","","0","1","0","","0.5323622673","0.6","0.8","0.4","0.2","0.416825946","0.6069385875","0.2985018541","0.5323622673","","","","","","","","","","","","","","76","L","3","","","197","main_expt",""
"","bandit","277","847586","0.0-239.0-0.0","97259614","wem/bandit_party_2","A3ISDIYTS02E8C","either","4","216","","","","","","","0","1","0","","0.5348043844","0.6","0.8","0.4","0.2","0.4063336836","0.4946816555","0.3109366799","0.5348043844","","","","","","","","","","","","","","76","L","3","","","198","main_expt",""
"","bandit","278","849373","0.0-240.0-0.0","97259614","wem/bandit_party_2","A3ISDIYTS02E8C","either","4","256","","","","","","","0","0","1","","0.4534403339","0.6","0.8","0.4","0.2","0.361264989","0.479635203","0.3143364341","0.4534403339","","","","","","","","","","","","","","76","L","3","","","199","main_expt",""
"","bandit","279","851195","0.0-241.0-0.0","97259614","wem/bandit_party_2","A3ISDIYTS02E8C","either","4","294","","","","","","","0","1","0","","0.3176919365","0.6","0.8","0.4","0.2","0.4700223374","0.4969837249","0.3176919365","0.4185876589","","","","","","","","","","","","","","75","K","2","","","200","main_expt",""
"","bandit","280","853041","0.0-242.0-0.0","97259614","wem/bandit_party_2","A3ISDIYTS02E8C","either","4","320","","","","","","","0","1","0","","0.2848283651","0.6","0.8","0.4","0.2","0.4751543938","0.4548125401","0.2848283651","0.3812211227","","","","","","","","","","","","","","75","K","2","","","201","main_expt",""
"","bandit","281","854844","0.0-243.0-0.0","97259614","wem/bandit_party_2","A3ISDIYTS02E8C","either","4","271","","","","","","","0","0","1","","0.2439676923","0.6","0.8","0.4","0.2","0.4044794657","0.5767771981","0.2439676923","0.4414728031","","","","","","","","","","","","","","75","K","2","","","202","main_expt",""
"","bandit","282","856505","0.0-244.0-0.0","97259614","wem/bandit_party_2","A3ISDIYTS02E8C","either","4","128","","","","","","","0","0","1","","0.3698030662","0.6","0.8","0.4","0.2","0.3321077444","0.6118171827","0.2582922662","0.3698030662","","","","","","","","","","","","","","76","L","3","","","203","main_expt",""
"","bandit","283","858475","0.0-245.0-0.0","97259614","wem/bandit_party_2","A3ISDIYTS02E8C","either","4","443","","","","","","","0","1","0","","0.3697340749","0.6","0.8","0.4","0.2","0.3697340749","0.5373194108","0.3799793739","0.4899087748","","","","","","","","","","","","","","72","H","0","img/none_selected.jpg","","204","main_expt",""
"","bandit","284","860154","0.0-246.0-0.0","97259614","wem/bandit_party_2","A3ISDIYTS02E8C","either","4","152","","","","","","","1","0","0","0.3998168993","","0.6","0.8","0.4","0.2","","","","","0.3998168993","0.5501461309","0.4441528059","0.4310108402","","","","","","","","","","72","H","0","img/none_selected.jpg","","205","main_expt",""
"","bandit","285","861803","0.0-247.0-0.0","97259614","wem/bandit_party_2","A3ISDIYTS02E8C","either","4","118","","","","","","","0","0","1","","0.4929909192","0.6","0.8","0.4","0.2","0.4929909192","0.5094027242","0.4468516792","0.3912115078","","","","","","","","","","","","","","72","H","0","img/none_selected.jpg","","206","main_expt",""
"","bandit","286","863546","0.0-248.0-0.0","97259614","wem/bandit_party_2","A3ISDIYTS02E8C","either","4","215","","","","","","","1","0","0","0.6449696869","","0.6","0.8","0.4","0.2","","","","","0.4960693894","0.6449696869","0.399366085","0.3195818707","","","","","","","","","","74","J","1","","","207","main_expt",""
"","bandit","287","865332","0.0-249.0-0.0","97259614","wem/bandit_party_2","A3ISDIYTS02E8C","either","4","257","","","","","","","0","1","0","","0.4206610772","0.6","0.8","0.4","0.2","0.3912862986","0.549996868","0.4206610772","0.2378171997","","","","","","","","","","","","","","75","K","2","","","208","main_expt",""
"","bandit","288","867062","0.0-250.0-0.0","97259614","wem/bandit_party_2","A3ISDIYTS02E8C","either","4","202","","","","","","","0","0","1","","0.5145499259","0.6","0.8","0.4","0.2","0.4218938049","0.5258833792","0.5145499259","0.2339104391","","","","","","","","","","","","","","75","K","2","","","209","main_expt",""
"","bandit","289","869117","0.0-251.0-0.0","97259614","wem/bandit_party_2","A3ISDIYTS02E8C","either","4","527","","","","","","","0","0","1","","0.2506558306","0.6","0.8","0.4","0.2","0.6003160005","0.5453980868","0.3497539355","0.2506558306","","","","","","","","","","","","","","76","L","3","","","210","main_expt",""
"","bandit","290","871080","0.0-252.0-0.0","97259614","wem/bandit_party_2","A3ISDIYTS02E8C","either","4","439","","","","","","","0","1","0","","0.5481562991","0.6","0.8","0.4","0.2","0.5481562991","0.5370950561","0.3335821388","0.3466578502","","","","","","","","","","","","","","72","H","0","img/none_selected.jpg","","211","main_expt",""
"","bandit","291","872840","0.0-253.0-0.0","97259614","wem/bandit_party_2","A3ISDIYTS02E8C","either","4","233","","","","","","","1","0","0","0.5774996514","","0.6","0.8","0.4","0.2","","","","","0.6210595125","0.5774996514","0.2778022227","0.4162959965","","","","","","","","","","74","J","1","","","212","main_expt",""
"","bandit","292","874598","0.0-254.0-0.0","97259614","wem/bandit_party_2","A3ISDIYTS02E8C","either","4","241","","","","","","","0","0","1","","0.2949104287","0.6","0.8","0.4","0.2","0.7732161257","0.4826056363","0.2949104287","0.545788555","","","","","","","","","","","","","","75","K","2","","","213","main_expt",""
"","bandit","293","876425","0.0-255.0-0.0","97259614","wem/bandit_party_2","A3ISDIYTS02E8C","either","4","302","","","","","","","0","0","1","","0.2443343027","0.6","0.8","0.4","0.2","0.7689771773","0.4913277851","0.2443343027","0.6077749924","","","","","","","","","","","","","","75","K","2","","","214","main_expt",""
"","bandit","294","878222","0.0-256.0-0.0","97259614","wem/bandit_party_2","A3ISDIYTS02E8C","either","4","271","","","","","","","0","0","1","","0.4883429648","0.6","0.8","0.4","0.2","0.6841712945","0.5415006571","0.2232989174","0.4883429648","","","","","","","","","","","","","","76","L","3","","","215","main_expt",""
"","bandit","295","880133","0.0-257.0-0.0","97259614","wem/bandit_party_2","A3ISDIYTS02E8C","either","4","383","","","","","","","1","0","0","0.5198015267","","0.6","0.8","0.4","0.2","","","","","0.7019934296","0.5198015267","0.2918619336","0.3309854328","","","","","","","","","","74","J","1","","","216","main_expt",""
"","bandit","296","881959","0.0-258.0-0.0","97259614","wem/bandit_party_2","A3ISDIYTS02E8C","either","4","298","","","","","","","0","0","1","0.545097872","","0.6","0.8","0.4","0.2","","","","","0.7537099884","0.545097872","0.3571058798","0.3310528633","","","","","","","","","","74","J","1","","","217","main_expt",""
"","bandit","297","883782","0.0-259.0-0.0","97259614","wem/bandit_party_2","A3ISDIYTS02E8C","either","4","297","","","","","","","0","0","1","","0.4147218791","0.6","0.8","0.4","0.2","0.8428980993","0.5776025334","0.3738303097","0.4147218791","","","","","","","","","","","","","","76","L","3","","","218","main_expt",""
"","bandit","298","885535","0.0-260.0-0.0","97259614","wem/bandit_party_2","A3ISDIYTS02E8C","either","4","224","","","","","","","0","0","1","","0.4832874948","0.6","0.8","0.4","0.2","0.8007326434","0.5616346574","0.4832874948","0.3402104323","","","","","","","","","","","","","","75","K","2","","","219","main_expt",""
"","bandit","299","887337","0.0-261.0-0.0","97259614","wem/bandit_party_2","A3ISDIYTS02E8C","either","4","270","","","","","","","1","0","0","0.8518850648","","0.6","0.8","0.4","0.2","","","","","0.8518850648","0.6261942659","0.475455537","0.3448871422","","","","","","","","","","72","H","0","img/none_selected.jpg","","220","main_expt",""
"","bandit","300","889176","0.0-262.0-0.0","97259614","wem/bandit_party_2","A3ISDIYTS02E8C","either","4","312","","","","","","","1","0","0","0.8488451861","","0.6","0.8","0.4","0.2","","","","","0.8488451861","0.6533416475","0.3849790123","0.4438284365","","","","","","","","","","72","H","0","img/none_selected.jpg","","221","main_expt",""
"","bandit","301","890889","0.0-263.0-0.0","97259614","wem/bandit_party_2","A3ISDIYTS02E8C","either","4","183","","","","","","","1","0","0","0.8202185963","","0.6","0.8","0.4","0.2","","","","","0.8202185963","0.6780524799","0.2708628555","0.3768672835","","","","","","","","","","72","H","0","img/none_selected.jpg","","222","main_expt",""
"","bandit","302","892510","0.0-264.0-0.0","97259614","wem/bandit_party_2","A3ISDIYTS02E8C","either","4","92","","","","","","","0","1","0","","0.839196386","0.6","0.8","0.4","0.2","0.839196386","0.638470603","0.3886191555","0.4599748191","","","","","","","","","","","","","","72","H","0","img/none_selected.jpg","","223","main_expt",""
"","bandit","303","894291","0.0-265.0-0.0","97259614","wem/bandit_party_2","A3ISDIYTS02E8C","either","4","249","","","","","","","0","0","1","0.8340435664","","0.6","0.8","0.4","0.2","","","","","0.8340435664","0.560582988","0.3352763987","0.5868274652","","","","","","","","","","72","H","0","img/none_selected.jpg","","224","main_expt",""
"","bandit","304","895919","0.0-266.0-0.0","97259614","wem/bandit_party_2","A3ISDIYTS02E8C","either","4","99","","","","","","","0","1","0","","0.5004803289","0.6","0.8","0.4","0.2","0.8229669419","0.5004803289","0.3948846532","0.510759767","","","","","","","","","","","","","","74","J","1","","","225","main_expt",""
"","bandit","305","897671","0.0-267.0-0.0","97259614","wem/bandit_party_2","A3ISDIYTS02E8C","either","4","224","","","","","","","0","1","0","","0.5109709899","0.6","0.8","0.4","0.2","0.8326575293","0.5109709899","0.385279681","0.6026028704","","","","","","","","","","","","","","74","J","1","","","226","main_expt",""
"","bandit","306","899504","0.0-268.0-0.0","97259614","wem/bandit_party_2","A3ISDIYTS02E8C","either","4","304","","","","","","","0","0","1","0.4271661703","","0.6","0.8","0.4","0.2","","","","","0.8904476858","0.4271661703","0.3296530349","0.588132951","","","","","","","","","","74","J","1","","","227","main_expt",""
"","bandit","307","901038","0.0-269.0-0.0","97259614","wem/bandit_party_2","A3ISDIYTS02E8C","either","4","1","","","","","","","0","1","0","","0.4227788413","0.6","0.8","0.4","0.2","0.8877596604","0.374673526","0.4227788413","0.5754590721","","","","","","","","","","","","","","75","K","2","","","228","main_expt",""
"","bandit","308","902805","0.0-270.0-0.0","97259614","wem/bandit_party_2","A3ISDIYTS02E8C","either","4","240","","","","","","","0","0","1","0.4470353227","","0.6","0.8","0.4","0.2","","","","","0.8647697669","0.393435759","0.4470353227","0.6311951266","","","","","","","","","","75","K","2","","","229","main_expt",""
"","bandit","309","904339","0.0-271.0-0.0","97259614","wem/bandit_party_2","A3ISDIYTS02E8C","either","4","2","","","","","","","0","1","0","","0.6164228117","0.6","0.8","0.4","0.2","0.8704214291","0.3299431778","0.2986819632","0.6164228117","","","","","","","","","","","","","","76","L","3","","","230","main_expt",""
"","bandit","310","905952","0.0-272.0-0.0","97259614","wem/bandit_party_2","A3ISDIYTS02E8C","either","4","85","","","","","","","0","0","1","","0.5943568022","0.6","0.8","0.4","0.2","0.8598686354","0.3477061432","0.4508866759","0.5943568022","","","","","","","","","","","","","","76","L","3","","","231","main_expt",""
"","bandit","311","908004","0.0-273.0-0.0","97259614","wem/bandit_party_2","A3ISDIYTS02E8C","either","4","523","","","","","","","0","0","1","0.3430234075","","0.6","0.8","0.4","0.2","","","","","0.7939027672","0.3430234075","0.5125968159","0.6032910051","","","","","","","","","","74","J","1","","","232","main_expt",""
"","bandit","312","909902","0.0-274.0-0.0","97259614","wem/bandit_party_2","A3ISDIYTS02E8C","either","4","367","","","","","","","0","0","1","0.2812772396","","0.6","0.8","0.4","0.2","","","","","0.7930400566","0.2812772396","0.6020802482","0.7225660168","","","","","","","","","","74","J","1","","","233","main_expt",""
"","bandit","313","912431","0.0-275.0-0.0","97259614","wem/bandit_party_2","A3ISDIYTS02E8C","either","4","1001","","","","","","","0","1","0","","0.7549101179","0.6","0.8","0.4","0.2","0.7549101179","0.2049555934","0.5927943616","0.6718439238","","","","","","","","","","","","","","72","H","0","img/none_selected.jpg","","234","main_expt",""
"","bandit","314","914337","0.0-276.0-0.0","97259614","wem/bandit_party_2","A3ISDIYTS02E8C","either","4","345","","","","","","","1","0","0","0.7654291135","","0.6","0.8","0.4","0.2","","","","","0.7654291135","0.144612338","0.5814417759","0.6025803433","","","","","","","","","","72","H","0","img/none_selected.jpg","","235","main_expt",""
"","bandit","315","916174","0.0-277.0-0.0","97259614","wem/bandit_party_2","A3ISDIYTS02E8C","either","4","321","","","","","","","1","0","0","0.6965918162","","0.6","0.8","0.4","0.2","","","","","0.6965918162","0.1509581517","0.6530024001","0.6170166349","","","","","","","","","","72","H","0","img/none_selected.jpg","","236","main_expt",""
"","bandit","316","917965","0.0-278.0-0.0","97259614","wem/bandit_party_2","A3ISDIYTS02E8C","either","4","264","","","","","","","1","0","0","0.8151927982","","0.6","0.8","0.4","0.2","","","","","0.8151927982","0.2267465707","0.5861490443","0.6426153702","","","","","","","","","","72","H","0","img/none_selected.jpg","","237","main_expt",""
"","bandit","317","920227","0.0-279.0-0.0","97259614","wem/bandit_party_2","A3ISDIYTS02E8C","either","4","733","","","","","","","0","1","0","","0.7696745118","0.6","0.8","0.4","0.2","0.7696745118","0.1651127221","0.6086881899","0.5421138037","","","","","","","","","","","","","","72","H","0","img/none_selected.jpg","","238","main_expt",""
