"consent","trial_type","trial_index","time_elapsed","internal_node_id","subjID","study","MID","cond","drift","rt","responses","button_pressed","key_press","like","value","connected","gems","bombs","no_reward","GemPrChosen","BombPrChosen","GainOverPainPr_0","GainOverPainPr_1","GainOverPainPr_2","GainOverPainPr_3","LosePr_0","LosePr_1","LosePr_2","LosePr_3","WinPr_0","WinPr_1","WinPr_2","WinPr_3","Q0","Q1","Q2","gender","age","ethnicity","label","expt_phase","target","respCharCode","respKey","respChoiceNum","respChoice","practice","trial_counter","trial_label","Q0_index","view_history"
"GDM/GDM_behavioral_consent_30min_online.html","consent","0","51504","0.0-0.0","97929223","wem/bandit_party_2","A3PEJ2UC43Y4ZN","either","3","","","","","","","","","","","","","","","","","","","","","","","","","","","","","","","","","","","","","","","","","",""
"","survey-text","1","61416","0.0-1.0","97929223","wem/bandit_party_2","A3PEJ2UC43Y4ZN","either","3","8905","{""Q0"":""A3PEJ2UC43Y4ZN""}","","","","","","","","","","","","","","","","","","","","","","","","","","","","","","","","","","","","","","","",""
"","button-response","2","64477","0.0-2.0","97929223","wem/bandit_party_2","A3PEJ2UC43Y4ZN","either","3","2056","","2","","","","","","","","","","","","","","","","","","","","","","","","","","","","","","","","","","","","","","",""
"","text-replacement","3","82899","0.0-3.0","97929223","wem/bandit_party_2","A3PEJ2UC43Y4ZN","either","3","17417","","","32","","","","","","","","","","","","","","","","","","","","","","","","","","","","","","","","","","","","","",""
"","text-replacement","4","93874","0.0-4.0","97929223","wem/bandit_party_2","A3PEJ2UC43Y4ZN","either","3","10973","","","32","","","","","","","","","","","","","","","","","","","","","","","","","","","","","","","","","","","","","",""
"","text-replacement","5","105979","0.0-5.0-0.0","97929223","wem/bandit_party_2","A3PEJ2UC43Y4ZN","either","3","12102","","","32","","","","","","","","","","","","","","","","","","","","","","","","","","","","","","","","","","","","","",""
"","identification","6","121767","0.0-6.0-0.0","97929223","wem/bandit_party_2","A3PEJ2UC43Y4ZN","either","3","15772","","","","2","0","2","","","","","","","","","","","","","","","","","","","","","","","","pre","identification_pre","the Democratic Party","","","","","","","","",""
"","identification","7","128583","0.0-6.0-1.0","97929223","wem/bandit_party_2","A3PEJ2UC43Y4ZN","either","3","5801","","","","0","0","0","","","","","","","","","","","","","","","","","","","","","","","","pre","identification_pre","the Republican Party","","","","","","","","",""
"","text-replacement","8","143738","0.0-7.0","97929223","wem/bandit_party_2","A3PEJ2UC43Y4ZN","either","3","14152","","","32","","","","","","","","","","","","","","","","","","","","","","","","","","","","","","","","","","","","","",""
"","text-replacement","9","150401","0.0-8.0","97929223","wem/bandit_party_2","A3PEJ2UC43Y4ZN","either","3","6660","","","32","","","","","","","","","","","","","","","","","","","","","","","","","","","","","","","","","","","","","",""
"","text-replacement","10","157338","0.0-9.0","97929223","wem/bandit_party_2","A3PEJ2UC43Y4ZN","either","3","6935","","","32","","","","","","","","","","","","","","","","","","","","","","","","","","","","","","","","","","","","","",""
"","text-replacement","11","160865","0.0-10.0","97929223","wem/bandit_party_2","A3PEJ2UC43Y4ZN","either","3","3525","","","32","","","","","","","","","","","","","","","","","","","","","","","","","","","","","","","","","","","","","",""
"","text-replacement","12","164937","0.0-11.0","97929223","wem/bandit_party_2","A3PEJ2UC43Y4ZN","either","3","4070","","","32","","","","","","","","","","","","","","","","","","","","","","","","","","","","","","","","","","","","","",""
"","bandit","13","169361","0.0-12.0-0.0","97929223","wem/bandit_party_2","A3PEJ2UC43Y4ZN","either","3","2917","","","","","","","0","0","1","0","0","","","","","0","","","","0","","","","","","","","","","","","","74","J","0","img/none_selected_demo.jpg","true","0","","",""
"","bandit","14","174518","0.0-13.0-0.0","97929223","wem/bandit_party_2","A3PEJ2UC43Y4ZN","either","3","3653","","","","","","","0","0","1","0","0","","","","","0","","","","0","","","","","","","","","","","","","75","K","0","img/none_selected_demo.jpg","true","0","","",""
"","text-replacement","15","183906","0.0-14.0","97929223","wem/bandit_party_2","A3PEJ2UC43Y4ZN","either","3","9386","","","32","","","","","","","","","","","","","","","","","","","","","","","","","","","","","","","","","","","","","",""
"","text-replacement","16","189521","0.0-15.0","97929223","wem/bandit_party_2","A3PEJ2UC43Y4ZN","either","3","5613","","","32","","","","","","","","","","","","","","","","","","","","","","","","","","","","","","","","","","","","","",""
"","text-replacement","17","196170","0.0-16.0","97929223","wem/bandit_party_2","A3PEJ2UC43Y4ZN","either","3","6646","","","32","","","","","","","","","","","","","","","","","","","","","","","","","","","","","","","","","","","","","",""
"","text-replacement","18","200369","0.0-17.0","97929223","wem/bandit_party_2","A3PEJ2UC43Y4ZN","either","3","4197","","","32","","","","","","","","","","","","","","","","","","","","","","","","","","","","","","","","","","","","","",""
"","bandit","19","208594","0.0-18.0-0.0","97929223","wem/bandit_party_2","A3PEJ2UC43Y4ZN","either","3","6718","","","","","","","1","0","0","0.8","","0.5","0.5","","","","","","","0.8","0.2","","","","","","","","","","","","74","J","0","img/none_selected_demo.jpg","true","0","80_20_practice","",""
"","bandit","20","211424","0.0-18.0-1.0","97929223","wem/bandit_party_2","A3PEJ2UC43Y4ZN","either","3","1323","","","","","","","0","1","0","","0.8","0.5","0.5","","","0.8","0.2","","","","","","","","","","","","","","","","74","J","0","img/none_selected_demo.jpg","true","0","80_20_practice","",""
"","bandit","21","213937","0.0-18.0-2.0","97929223","wem/bandit_party_2","A3PEJ2UC43Y4ZN","either","3","1005","","","","","","","0","1","0","","0.8","0.5","0.5","","","0.8","0.2","","","","","","","","","","","","","","","","74","J","0","img/none_selected_demo.jpg","true","0","80_20_practice","",""
"","bandit","22","216312","0.0-18.0-3.0","97929223","wem/bandit_party_2","A3PEJ2UC43Y4ZN","either","3","868","","","","","","","0","1","0","","0.8","0.5","0.5","","","0.8","0.2","","","","","","","","","","","","","","","","74","J","0","img/none_selected_demo.jpg","true","0","80_20_practice","",""
"","bandit","23","218455","0.0-18.0-4.0","97929223","wem/bandit_party_2","A3PEJ2UC43Y4ZN","either","3","637","","","","","","","0","1","0","","0.8","0.5","0.5","","","0.8","0.2","","","","","","","","","","","","","","","","74","J","0","img/none_selected_demo.jpg","true","0","80_20_practice","",""
"","bandit","24","220475","0.0-18.0-5.0","97929223","wem/bandit_party_2","A3PEJ2UC43Y4ZN","either","3","512","","","","","","","0","1","0","","0.8","0.5","0.5","","","0.8","0.2","","","","","","","","","","","","","","","","74","J","0","img/none_selected_demo.jpg","true","0","80_20_practice","",""
"","bandit","25","222574","0.0-18.0-6.0","97929223","wem/bandit_party_2","A3PEJ2UC43Y4ZN","either","3","593","","","","","","","1","0","0","0.8","","0.5","0.5","","","","","","","0.8","0.2","","","","","","","","","","","","74","J","0","img/none_selected_demo.jpg","true","0","80_20_practice","",""
"","bandit","26","224559","0.0-18.0-7.0","97929223","wem/bandit_party_2","A3PEJ2UC43Y4ZN","either","3","479","","","","","","","0","0","1","0.8","","0.5","0.5","","","","","","","0.8","0.2","","","","","","","","","","","","74","J","0","img/none_selected_demo.jpg","true","0","80_20_practice","",""
"","bandit","27","227183","0.0-18.0-8.0","97929223","wem/bandit_party_2","A3PEJ2UC43Y4ZN","either","3","1118","","","","","","","1","0","0","0.8","","0.5","0.5","","","","","","","0.8","0.2","","","","","","","","","","","","74","J","0","img/none_selected_demo.jpg","true","0","80_20_practice","",""
"","bandit","28","230399","0.0-18.0-9.0","97929223","wem/bandit_party_2","A3PEJ2UC43Y4ZN","either","3","1710","","","","","","","0","1","0","","0.8","0.5","0.5","","","0.8","0.2","","","","","","","","","","","","","","","","74","J","0","img/none_selected_demo.jpg","true","0","80_20_practice","",""
"","bandit","29","232951","0.0-18.0-10.0","97929223","wem/bandit_party_2","A3PEJ2UC43Y4ZN","either","3","1046","","","","","","","1","0","0","0.8","","0.5","0.5","","","","","","","0.8","0.2","","","","","","","","","","","","74","J","0","img/none_selected_demo.jpg","true","0","80_20_practice","",""
"","bandit","30","235584","0.0-18.0-11.0","97929223","wem/bandit_party_2","A3PEJ2UC43Y4ZN","either","3","1126","","","","","","","1","0","0","0.8","","0.5","0.5","","","","","","","0.8","0.2","","","","","","","","","","","","74","J","0","img/none_selected_demo.jpg","true","0","80_20_practice","",""
"","bandit","31","240496","0.0-18.0-12.0","97929223","wem/bandit_party_2","A3PEJ2UC43Y4ZN","either","3","3405","","","","","","","0","0","1","","0.2","0.5","0.5","","","0.8","0.2","","","","","","","","","","","","","","","","75","K","1","","true","0","80_20_practice","",""
"","bandit","32","242616","0.0-18.0-13.0","97929223","wem/bandit_party_2","A3PEJ2UC43Y4ZN","either","3","613","","","","","","","0","0","1","","0.2","0.5","0.5","","","0.8","0.2","","","","","","","","","","","","","","","","75","K","1","","true","0","80_20_practice","",""
"","bandit","33","244655","0.0-18.0-14.0","97929223","wem/bandit_party_2","A3PEJ2UC43Y4ZN","either","3","534","","","","","","","0","1","0","","0.2","0.5","0.5","","","0.8","0.2","","","","","","","","","","","","","","","","75","K","1","","true","0","80_20_practice","",""
"","bandit","34","246775","0.0-18.0-15.0","97929223","wem/bandit_party_2","A3PEJ2UC43Y4ZN","either","3","613","","","","","","","0","0","1","0.2","","0.5","0.5","","","","","","","0.8","0.2","","","","","","","","","","","","75","K","1","","true","0","80_20_practice","",""
"","bandit","35","248766","0.0-18.0-16.0","97929223","wem/bandit_party_2","A3PEJ2UC43Y4ZN","either","3","486","","","","","","","0","1","0","","0.2","0.5","0.5","","","0.8","0.2","","","","","","","","","","","","","","","","75","K","1","","true","0","80_20_practice","",""
"","bandit","36","250768","0.0-18.0-17.0","97929223","wem/bandit_party_2","A3PEJ2UC43Y4ZN","either","3","495","","","","","","","0","0","1","0.2","","0.5","0.5","","","","","","","0.8","0.2","","","","","","","","","","","","75","K","1","","true","0","80_20_practice","",""
"","bandit","37","253615","0.0-18.0-18.0","97929223","wem/bandit_party_2","A3PEJ2UC43Y4ZN","either","3","1341","","","","","","","0","0","1","","0.2","0.5","0.5","","","0.8","0.2","","","","","","","","","","","","","","","","75","K","1","","true","0","80_20_practice","",""
"","bandit","38","256033","0.0-18.0-19.0","97929223","wem/bandit_party_2","A3PEJ2UC43Y4ZN","either","3","910","","","","","","","0","0","1","","0.2","0.5","0.5","","","0.8","0.2","","","","","","","","","","","","","","","","75","K","1","","true","0","80_20_practice","",""
"","text-replacement","39","259545","0.0-19.0","97929223","wem/bandit_party_2","A3PEJ2UC43Y4ZN","either","3","3508","","","32","","","","","","","","","","","","","","","","","","","","","","","","","","","","","","","","","","","","","",""
"","bandit","40","262847","0.0-20.0-0.0","97929223","wem/bandit_party_2","A3PEJ2UC43Y4ZN","either","3","1796","","","","","","","1","0","0","1","0","","","","","0","1","","","1","0","","","","","","","","","","","","74","J","0","img/none_selected_demo.jpg","true","0","","",""
"","text-replacement","41","268978","0.0-21.0","97929223","wem/bandit_party_2","A3PEJ2UC43Y4ZN","either","3","6128","","","32","","","","","","","","","","","","","","","","","","","","","","","","","","","","","","","","","","","","","",""
"","text-replacement","42","275105","0.0-22.0","97929223","wem/bandit_party_2","A3PEJ2UC43Y4ZN","either","3","6124","","","32","","","","","","","","","","","","","","","","","","","","","","","","","","","","","","","","","","","","","",""
"","text-replacement","43","278129","0.0-23.0","97929223","wem/bandit_party_2","A3PEJ2UC43Y4ZN","either","3","3021","","","32","","","","","","","","","","","","","","","","","","","","","","","","","","","","","","","","","","","","","",""
"","text-replacement","44","281098","0.0-24.0","97929223","wem/bandit_party_2","A3PEJ2UC43Y4ZN","either","3","2966","","","32","","","","","","","","","","","","","","","","","","","","","","","","","","","","","","","","","","","","","",""
"","text-replacement","45","287857","0.0-25.0","97929223","wem/bandit_party_2","A3PEJ2UC43Y4ZN","either","3","6757","","","32","","","","","","","","","","","","","","","","","","","","","","","","","","","","","","","","","","","","","",""
"","text-replacement","46","290833","0.0-26.0","97929223","wem/bandit_party_2","A3PEJ2UC43Y4ZN","either","3","2973","","","32","","","","","","","","","","","","","","","","","","","","","","","","","","","","","","","","","","","","","",""
"","text-replacement","47","294370","0.0-27.0","97929223","wem/bandit_party_2","A3PEJ2UC43Y4ZN","either","3","3534","","","32","","","","","","","","","","","","","","","","","","","","","","","","","","","","","","","","","","","","","",""
"","text-replacement","48","297993","0.0-28.0","97929223","wem/bandit_party_2","A3PEJ2UC43Y4ZN","either","3","3620","","","32","","","","","","","","","","","","","","","","","","","","","","","","","","","","","","","","","","","","","",""
"","text-replacement","49","304345","0.0-29.0","97929223","wem/bandit_party_2","A3PEJ2UC43Y4ZN","either","3","6349","","","32","","","","","","","","","","","","","","","","","","","","","","","","","","","","","","","","","","","","","",""
"","text-replacement","50","306354","0.0-30.0","97929223","wem/bandit_party_2","A3PEJ2UC43Y4ZN","either","3","2008","","","32","","","","","","","","","","","","","","","","","","","","","","","","","","","","","","","","","","","","","",""
"","text-replacement","51","311529","0.0-31.0","97929223","wem/bandit_party_2","A3PEJ2UC43Y4ZN","either","3","5172","","","32","","","","","","","","","","","","","","","","","","","","","","","","","","","","","","","","","","","","","",""
"","bandit","52","315537","0.0-32.0-0.0","97929223","wem/bandit_party_2","A3PEJ2UC43Y4ZN","either","3","2500","","","","","","","1","0","0","0.8","","0.5","0.5","0.5","0.5","","","","","0.8","0.2","0.6","0.2","","","","","","","","","","72","H","0","img/none_selected.jpg","true","0","full_practice","",""
"","bandit","53","318592","0.0-32.0-1.0","97929223","wem/bandit_party_2","A3PEJ2UC43Y4ZN","either","3","1548","","","","","","","1","0","0","0.8","","0.5","0.5","0.5","0.5","","","","","0.8","0.2","0.6","0.2","","","","","","","","","","72","H","0","img/none_selected.jpg","true","0","full_practice","",""
"","bandit","54","321527","0.0-32.0-2.0","97929223","wem/bandit_party_2","A3PEJ2UC43Y4ZN","either","3","1428","","","","","","","0","0","1","","0.8","0.5","0.5","0.5","0.5","0.8","0.2","0.6","0.2","","","","","","","","","","","","","","72","H","0","img/none_selected.jpg","true","0","full_practice","",""
"","bandit","55","323601","0.0-32.0-3.0","97929223","wem/bandit_party_2","A3PEJ2UC43Y4ZN","either","3","565","","","","","","","1","0","0","0.8","","0.5","0.5","0.5","0.5","","","","","0.8","0.2","0.6","0.2","","","","","","","","","","72","H","0","img/none_selected.jpg","true","0","full_practice","",""
"","bandit","56","326200","0.0-32.0-4.0","97929223","wem/bandit_party_2","A3PEJ2UC43Y4ZN","either","3","1092","","","","","","","0","0","1","0.8","","0.5","0.5","0.5","0.5","","","","","0.8","0.2","0.6","0.2","","","","","","","","","","72","H","0","img/none_selected.jpg","true","0","full_practice","",""
"","bandit","57","345457","0.0-32.0-5.0","97929223","wem/bandit_party_2","A3PEJ2UC43Y4ZN","either","3","17750","","","","","","","0","1","0","","0.8","0.5","0.5","0.5","0.5","0.8","0.2","0.6","0.2","","","","","","","","","","","","","","72","H","0","img/none_selected.jpg","true","0","full_practice","",""
"","bandit","58","363330","0.0-32.0-6.0","97929223","wem/bandit_party_2","A3PEJ2UC43Y4ZN","either","3","16364","","","","","","","0","1","0","","0.8","0.5","0.5","0.5","0.5","0.8","0.2","0.6","0.2","","","","","","","","","","","","","","72","H","0","img/none_selected.jpg","true","0","full_practice","",""
"","bandit","59","376985","0.0-32.0-7.0","97929223","wem/bandit_party_2","A3PEJ2UC43Y4ZN","either","3","12148","","","","","","","1","0","0","0.8","","0.5","0.5","0.5","0.5","","","","","0.8","0.2","0.6","0.2","","","","","","","","","","72","H","0","img/none_selected.jpg","true","0","full_practice","",""
"","bandit","60","391700","0.0-32.0-8.0","97929223","wem/bandit_party_2","A3PEJ2UC43Y4ZN","either","3","13203","","","","","","","0","0","1","0.2","","0.5","0.5","0.5","0.5","","","","","0.8","0.2","0.6","0.2","","","","","","","","","","74","J","1","","true","0","full_practice","",""
"","bandit","61","395864","0.0-32.0-9.0","97929223","wem/bandit_party_2","A3PEJ2UC43Y4ZN","either","3","2657","","","","","","","0","0","1","0.2","","0.5","0.5","0.5","0.5","","","","","0.8","0.2","0.6","0.2","","","","","","","","","","74","J","1","","true","0","full_practice","",""
"","bandit","62","399648","0.0-32.0-10.0","97929223","wem/bandit_party_2","A3PEJ2UC43Y4ZN","either","3","2277","","","","","","","0","0","1","0.2","","0.5","0.5","0.5","0.5","","","","","0.8","0.2","0.6","0.2","","","","","","","","","","74","J","1","","true","0","full_practice","",""
"","bandit","63","403664","0.0-32.0-11.0","97929223","wem/bandit_party_2","A3PEJ2UC43Y4ZN","either","3","2508","","","","","","","0","0","1","","0.2","0.5","0.5","0.5","0.5","0.8","0.2","0.6","0.2","","","","","","","","","","","","","","74","J","1","","true","0","full_practice","",""
"","bandit","64","407153","0.0-32.0-12.0","97929223","wem/bandit_party_2","A3PEJ2UC43Y4ZN","either","3","1979","","","","","","","0","0","1","0.2","","0.5","0.5","0.5","0.5","","","","","0.8","0.2","0.6","0.2","","","","","","","","","","74","J","1","","true","0","full_practice","",""
"","bandit","65","415027","0.0-32.0-13.0","97929223","wem/bandit_party_2","A3PEJ2UC43Y4ZN","either","3","6365","","","","","","","0","0","1","0.6","","0.5","0.5","0.5","0.5","","","","","0.8","0.2","0.6","0.2","","","","","","","","","","75","K","2","","true","0","full_practice","",""
"","bandit","66","423834","0.0-32.0-14.0","97929223","wem/bandit_party_2","A3PEJ2UC43Y4ZN","either","3","7297","","","","","","","0","0","1","0.6","","0.5","0.5","0.5","0.5","","","","","0.8","0.2","0.6","0.2","","","","","","","","","","75","K","2","","true","0","full_practice","",""
"","bandit","67","428200","0.0-32.0-15.0","97929223","wem/bandit_party_2","A3PEJ2UC43Y4ZN","either","3","2860","","","","","","","0","0","1","0.6","","0.5","0.5","0.5","0.5","","","","","0.8","0.2","0.6","0.2","","","","","","","","","","75","K","2","","true","0","full_practice","",""
"","bandit","68","431762","0.0-32.0-16.0","97929223","wem/bandit_party_2","A3PEJ2UC43Y4ZN","either","3","2052","","","","","","","1","0","0","0.6","","0.5","0.5","0.5","0.5","","","","","0.8","0.2","0.6","0.2","","","","","","","","","","75","K","2","","true","0","full_practice","",""
"","bandit","69","436551","0.0-32.0-17.0","97929223","wem/bandit_party_2","A3PEJ2UC43Y4ZN","either","3","3282","","","","","","","0","0","1","","0.6","0.5","0.5","0.5","0.5","0.8","0.2","0.6","0.2","","","","","","","","","","","","","","75","K","2","","true","0","full_practice","",""
"","bandit","70","440792","0.0-32.0-18.0","97929223","wem/bandit_party_2","A3PEJ2UC43Y4ZN","either","3","2734","","","","","","","0","0","1","0.6","","0.5","0.5","0.5","0.5","","","","","0.8","0.2","0.6","0.2","","","","","","","","","","75","K","2","","true","0","full_practice","",""
"","bandit","71","453913","0.0-32.0-19.0","97929223","wem/bandit_party_2","A3PEJ2UC43Y4ZN","either","3","11610","","","","","","","0","0","1","","0.2","0.5","0.5","0.5","0.5","0.8","0.2","0.6","0.2","","","","","","","","","","","","","","76","L","3","","true","0","full_practice","",""
"","text","72","465410","0.0-33.0","97929223","wem/bandit_party_2","A3PEJ2UC43Y4ZN","either","3","11489","","","32","","","","","","","","","","","","","","","","","","","","","","","","","","","","","","","","","","","","","",""
"","text-replacement","73","479146","0.0-34.0","97929223","wem/bandit_party_2","A3PEJ2UC43Y4ZN","either","3","12731","","","32","","","","","","","","","","","","","","","","","","","","","","","","","","","","","","","","","","","","","",""
"","text-replacement","74","490794","0.0-35.0","97929223","wem/bandit_party_2","A3PEJ2UC43Y4ZN","either","3","11645","","","32","","","","","","","","","","","","","","","","","","","","","","","","","","","","","","","","","","","","","",""
"","text-replacement","75","495201","0.0-36.0","97929223","wem/bandit_party_2","A3PEJ2UC43Y4ZN","either","3","4404","","","32","","","","","","","","","","","","","","","","","","","","","","","","","","","","","","","","","","","","","",""
"","text-replacement","76","500497","0.0-37.0","97929223","wem/bandit_party_2","A3PEJ2UC43Y4ZN","either","3","5292","","","32","","","","","","","","","","","","","","","","","","","","","","","","","","","","","","","","","","","","","",""
"","text-replacement","77","506410","0.0-38.0","97929223","wem/bandit_party_2","A3PEJ2UC43Y4ZN","either","3","5910","","","32","","","","","","","","","","","","","","","","","","","","","","","","","","","","","","","","","","","","","",""
"","survey-multi-choice-replacement","78","517367","0.0-39.0-0.0","97929223","wem/bandit_party_2","A3PEJ2UC43Y4ZN","either","3","10948","","","","","","","","","","","","","","","","","","","","","","","","Money will be added to the pool for <span style='color:red;'>REPUBLICANS</span>","","","","","","","attn_check","","","","","","","","","0",""
"","survey-multi-choice-replacement","79","521711","0.0-40.0-0.0","97929223","wem/bandit_party_2","A3PEJ2UC43Y4ZN","either","3","3331","","","","","","","","","","","","","","","","","","","","","","","","Money will be subtracted from the pool for <span style='color:blue;'>DEMOCRATS</span>","","","","","","","attn_check","","","","","","","","","1",""
"","instructions","80","524525","0.0-40.0-1.0-0.0","97929223","wem/bandit_party_2","A3PEJ2UC43Y4ZN","either","3","1810","","","","","","","","","","","","","","","","","","","","","","","","","","","","","","","","","","","","","","","","","[{""page_index"":0,""viewing_time"":1809}]"
"","survey-multi-choice-replacement","81","533223","0.0-40.1-0.1","97929223","wem/bandit_party_2","A3PEJ2UC43Y4ZN","either","3","7688","","","","","","","","","","","","","","","","","","","","","","","","Equal amounts of money will be added to the pool for <span style='color:red;'>REPUBLICANS</span> and subtracted from the pool for <span style='color:blue;'>DEMOCRATS</span>","","","","","","","attn_check","","","","","","","","","2",""
"","survey-multi-choice-replacement","82","539310","0.0-41.0-0.0","97929223","wem/bandit_party_2","A3PEJ2UC43Y4ZN","either","3","5077","","","","","","","","","","","","","","","","","","","","","","","","No money will be added to either pool","","","","","","","attn_check","","","","","","","","","3",""
"","bandit","83","545147","0.0-42.0-0.0","97929223","wem/bandit_party_2","A3PEJ2UC43Y4ZN","either","3","3321","","","","","","","0","0","1","0.4261870849","","0.6","0.2","0.4","0.8","","","","","0.4261870849","0.1387034319","0.6473934842","0.6494041588","","","","","","","","","","72","H","0","img/none_selected.jpg","","1","main_expt","",""
"","bandit","84","547863","0.0-43.0-0.0","97929223","wem/bandit_party_2","A3PEJ2UC43Y4ZN","either","3","1210","","","","","","","0","0","1","","0.2166337036","0.6","0.2","0.4","0.8","0.3223101542","0.2166337036","0.5221866694","0.7608835745","","","","","","","","","","","","","","74","J","1","","","2","main_expt","",""
"","bandit","85","550343","0.0-44.0-0.0","97929223","wem/bandit_party_2","A3PEJ2UC43Y4ZN","either","3","972","","","","","","","1","0","0","0.5356292978","","0.6","0.2","0.4","0.8","","","","","0.2541217019","0.3253899216","0.5356292978","0.7745567172","","","","","","","","","","75","K","2","","","3","main_expt","",""
"","bandit","86","552713","0.0-45.0-0.0","97929223","wem/bandit_party_2","A3PEJ2UC43Y4ZN","either","3","861","","","","","","","1","0","0","0.8315703218","","0.6","0.2","0.4","0.8","","","","","0.2272043942","0.3003293127","0.5154592071","0.8315703218","","","","","","","","","","76","L","3","","","4","main_expt","",""
"","bandit","87","554824","0.0-46.0-0.0","97929223","wem/bandit_party_2","A3PEJ2UC43Y4ZN","either","3","603","","","","","","","0","0","1","0.4578896037","","0.6","0.2","0.4","0.8","","","","","0.2967729676","0.3839660868","0.4578896037","0.8380789219","","","","","","","","","","75","K","2","","","5","main_expt","",""
"","bandit","88","556776","0.0-47.0-0.0","97929223","wem/bandit_party_2","A3PEJ2UC43Y4ZN","either","3","442","","","","","","","0","0","1","0.8233568153","","0.6","0.2","0.4","0.8","","","","","0.3211998527","0.3833463511","0.4825789634","0.8233568153","","","","","","","","","","76","L","3","","","6","main_expt","",""
"","bandit","89","559349","0.0-48.0-0.0","97929223","wem/bandit_party_2","A3PEJ2UC43Y4ZN","either","3","1068","","","","","","","0","0","1","","0.4013658759","0.6","0.2","0.4","0.8","0.4190649117","0.3173395401","0.4013658759","0.8672840292","","","","","","","","","","","","","","75","K","2","","","7","main_expt","",""
"","bandit","90","561384","0.0-49.0-0.0","97929223","wem/bandit_party_2","A3PEJ2UC43Y4ZN","either","3","526","","","","","","","0","1","0","","0.7921451217","0.6","0.2","0.4","0.8","0.5253498774","0.3265190876","0.3721769634","0.7921451217","","","","","","","","","","","","","","76","L","3","","","8","main_expt","",""
"","bandit","91","563439","0.0-50.0-0.0","97929223","wem/bandit_party_2","A3PEJ2UC43Y4ZN","either","3","547","","","","","","","1","0","0","0.7826569337","","0.6","0.2","0.4","0.8","","","","","0.5552176016","0.4229840653","0.3934089605","0.7826569337","","","","","","","","","","76","L","3","","","9","main_expt","",""
"","bandit","92","565464","0.0-51.0-0.0","97929223","wem/bandit_party_2","A3PEJ2UC43Y4ZN","either","3","517","","","","","","","1","0","0","0.7150392401","","0.6","0.2","0.4","0.8","","","","","0.654745146","0.5107168356","0.3360942297","0.7150392401","","","","","","","","","","76","L","3","","","10","main_expt","",""
"","bandit","93","567449","0.0-52.0-0.0","97929223","wem/bandit_party_2","A3PEJ2UC43Y4ZN","either","3","477","","","","","","","0","1","0","","0.6906605055","0.6","0.2","0.4","0.8","0.6089063278","0.4383577931","0.4969537907","0.6906605055","","","","","","","","","","","","","","76","L","3","","","11","main_expt","",""
"","bandit","94","569399","0.0-53.0-0.0","97929223","wem/bandit_party_2","A3PEJ2UC43Y4ZN","either","3","442","","","","","","","0","0","1","","0.6725575113","0.6","0.2","0.4","0.8","0.559155858","0.5487148549","0.4760264401","0.6725575113","","","","","","","","","","","","","","76","L","3","","","12","main_expt","",""
"","bandit","95","571856","0.0-54.0-0.0","97929223","wem/bandit_party_2","A3PEJ2UC43Y4ZN","either","3","949","","","","","","","0","0","1","0.7404599176","","0.6","0.2","0.4","0.8","","","","","0.6464491645","0.7407599438","0.4008761295","0.7404599176","","","","","","","","","","76","L","3","","","13","main_expt","",""
"","bandit","96","575104","0.0-55.0-0.0","97929223","wem/bandit_party_2","A3PEJ2UC43Y4ZN","either","3","1740","","","","","","","1","0","0","0.6936958995","","0.6","0.2","0.4","0.8","","","","","0.6936958995","0.8307131687","0.358486362","0.6751607758","","","","","","","","","","72","H","0","img/none_selected.jpg","","14","main_expt","",""
"","bandit","97","577245","0.0-56.0-0.0","97929223","wem/bandit_party_2","A3PEJ2UC43Y4ZN","either","3","635","","","","","","","1","0","0","0.731471075","","0.6","0.2","0.4","0.8","","","","","0.731471075","0.8114394421","0.395258373","0.6115440925","","","","","","","","","","72","H","0","img/none_selected.jpg","","15","main_expt","",""
"","bandit","98","579543","0.0-57.0-0.0","97929223","wem/bandit_party_2","A3PEJ2UC43Y4ZN","either","3","787","","","","","","","0","1","0","","0.6487541525","0.6","0.2","0.4","0.8","0.6487541525","0.8242397169","0.4197334966","0.7019001419","","","","","","","","","","","","","","72","H","0","img/none_selected.jpg","","16","main_expt","",""
"","bandit","99","581793","0.0-58.0-0.0","97929223","wem/bandit_party_2","A3PEJ2UC43Y4ZN","either","3","739","","","","","","","0","0","1","","0.7654634758","0.6","0.2","0.4","0.8","0.7654634758","0.8317633157","0.2160816064","0.7017998","","","","","","","","","","","","","","72","H","0","img/none_selected.jpg","","17","main_expt","",""
"","bandit","100","583728","0.0-59.0-0.0","97929223","wem/bandit_party_2","A3PEJ2UC43Y4ZN","either","3","426","","","","","","","0","1","0","","0.7160830043","0.6","0.2","0.4","0.8","0.7160830043","0.8158638682","0.2058632209","0.7672473748","","","","","","","","","","","","","","72","H","0","img/none_selected.jpg","","18","main_expt","",""
"","bandit","101","585736","0.0-60.0-0.0","97929223","wem/bandit_party_2","A3PEJ2UC43Y4ZN","either","3","499","","","","","","","1","0","0","0.6856656502","","0.6","0.2","0.4","0.8","","","","","0.6856656502","0.8291878069","0.2314559036","0.7950219121","","","","","","","","","","72","H","0","img/none_selected.jpg","","19","main_expt","",""
"","bandit","102","587696","0.0-61.0-0.0","97929223","wem/bandit_party_2","A3PEJ2UC43Y4ZN","either","3","450","","","","","","","0","0","1","0.6829400921","","0.6","0.2","0.4","0.8","","","","","0.6829400921","0.8665153398","0.1762066147","0.8460513568","","","","","","","","","","72","H","0","img/none_selected.jpg","","20","main_expt","",""
"","bandit","103","589641","0.0-62.0-0.0","97929223","wem/bandit_party_2","A3PEJ2UC43Y4ZN","either","3","436","","","","","","","1","0","0","0.6849203215","","0.6","0.2","0.4","0.8","","","","","0.6849203215","0.8181415858","0.150477598","0.8571228725","","","","","","","","","","72","H","0","img/none_selected.jpg","","21","main_expt","",""
"","bandit","104","591578","0.0-63.0-0.0","97929223","wem/bandit_party_2","A3PEJ2UC43Y4ZN","either","3","425","","","","","","","1","0","0","0.6832197831","","0.6","0.2","0.4","0.8","","","","","0.6832197831","0.7731960963","0.1957635407","0.8498483749","","","","","","","","","","72","H","0","img/none_selected.jpg","","22","main_expt","",""
"","bandit","105","593624","0.0-64.0-0.0","97929223","wem/bandit_party_2","A3PEJ2UC43Y4ZN","either","3","539","","","","","","","1","0","0","0.6103957523","","0.6","0.2","0.4","0.8","","","","","0.6103957523","0.8004626553","0.2193187944","0.887495535","","","","","","","","","","72","H","0","img/none_selected.jpg","","23","main_expt","",""
"","bandit","106","595625","0.0-65.0-0.0","97929223","wem/bandit_party_2","A3PEJ2UC43Y4ZN","either","3","492","","","","","","","0","0","1","0.5485819736","","0.6","0.2","0.4","0.8","","","","","0.5485819736","0.7941911222","0.1836328706","0.918231735","","","","","","","","","","72","H","0","img/none_selected.jpg","","24","main_expt","",""
"","bandit","107","597552","0.0-66.0-0.0","97929223","wem/bandit_party_2","A3PEJ2UC43Y4ZN","either","3","418","","","","","","","0","1","0","","0.5852935809","0.6","0.2","0.4","0.8","0.5852935809","0.7100633829","0.1410441375","0.9111146318","","","","","","","","","","","","","","72","H","0","img/none_selected.jpg","","25","main_expt","",""
"","bandit","108","599520","0.0-67.0-0.0","97929223","wem/bandit_party_2","A3PEJ2UC43Y4ZN","either","3","459","","","","","","","1","0","0","0.6097892937","","0.6","0.2","0.4","0.8","","","","","0.6097892937","0.6872129375","0.1082593399","0.9190640316","","","","","","","","","","72","H","0","img/none_selected.jpg","","26","main_expt","",""
"","bandit","109","601489","0.0-68.0-0.0","97929223","wem/bandit_party_2","A3PEJ2UC43Y4ZN","either","3","460","","","","","","","1","0","0","0.6653335402","","0.6","0.2","0.4","0.8","","","","","0.6653335402","0.6798864795","0.1042047793","0.9372614837","","","","","","","","","","72","H","0","img/none_selected.jpg","","27","main_expt","",""
"","bandit","110","603496","0.0-69.0-0.0","97929223","wem/bandit_party_2","A3PEJ2UC43Y4ZN","either","3","498","","","","","","","1","0","0","0.6850825106","","0.6","0.2","0.4","0.8","","","","","0.6850825106","0.6812343762","0.1153509117","0.9269484959","","","","","","","","","","72","H","0","img/none_selected.jpg","","28","main_expt","",""
"","bandit","111","605487","0.0-70.0-0.0","97929223","wem/bandit_party_2","A3PEJ2UC43Y4ZN","either","3","482","","","","","","","0","0","1","","0.7309016742","0.6","0.2","0.4","0.8","0.7309016742","0.5305157647","0.1601566248","0.9376772981","","","","","","","","","","","","","","72","H","0","img/none_selected.jpg","","29","main_expt","",""
"","bandit","112","607472","0.0-71.0-0.0","97929223","wem/bandit_party_2","A3PEJ2UC43Y4ZN","either","3","476","","","","","","","0","1","0","","0.8141980113","0.6","0.2","0.4","0.8","0.8141980113","0.4713174284","0.09548927903","0.8795505253","","","","","","","","","","","","","","72","H","0","img/none_selected.jpg","","30","main_expt","",""
"","bandit","113","609431","0.0-72.0-0.0","97929223","wem/bandit_party_2","A3PEJ2UC43Y4ZN","either","3","450","","","","","","","1","0","0","0.8926711601","","0.6","0.2","0.4","0.8","","","","","0.8926711601","0.2938490869","0.09272353297","0.8605863748","","","","","","","","","","72","H","0","img/none_selected.jpg","","31","main_expt","",""
"","bandit","114","611344","0.0-73.0-0.0","97929223","wem/bandit_party_2","A3PEJ2UC43Y4ZN","either","3","404","","","","","","","1","0","0","0.8397563013","","0.6","0.2","0.4","0.8","","","","","0.8397563013","0.3005160425","0.09547929832","0.757600507","","","","","","","","","","72","H","0","img/none_selected.jpg","","32","main_expt","",""
"","bandit","115","613320","0.0-74.0-0.0","97929223","wem/bandit_party_2","A3PEJ2UC43Y4ZN","either","3","467","","","","","","","0","1","0","","0.8251988787","0.6","0.2","0.4","0.8","0.8251988787","0.3661211491","0.08683876107","0.7257103923","","","","","","","","","","","","","","72","H","0","img/none_selected.jpg","","33","main_expt","",""
"","bandit","116","615232","0.0-75.0-0.0","97929223","wem/bandit_party_2","A3PEJ2UC43Y4ZN","either","3","404","","","","","","","0","0","1","0.7303528712","","0.6","0.2","0.4","0.8","","","","","0.7303528712","0.4614725573","0.08117088791","0.5786815464","","","","","","","","","","72","H","0","img/none_selected.jpg","","34","main_expt","",""
"","bandit","117","617320","0.0-76.0-0.0","97929223","wem/bandit_party_2","A3PEJ2UC43Y4ZN","either","3","578","","","","","","","1","0","0","0.8093673003","","0.6","0.2","0.4","0.8","","","","","0.8093673003","0.4597324626","0.09593582107","0.4812266686","","","","","","","","","","72","H","0","img/none_selected.jpg","","35","main_expt","",""
"","bandit","118","619328","0.0-77.0-0.0","97929223","wem/bandit_party_2","A3PEJ2UC43Y4ZN","either","3","499","","","","","","","0","0","1","0.79718131","","0.6","0.2","0.4","0.8","","","","","0.79718131","0.4294742096","0.1392988708","0.4459447539","","","","","","","","","","72","H","0","img/none_selected.jpg","","36","main_expt","",""
"","bandit","119","621263","0.0-78.0-0.0","97929223","wem/bandit_party_2","A3PEJ2UC43Y4ZN","either","3","426","","","","","","","1","0","0","0.8157762275","","0.6","0.2","0.4","0.8","","","","","0.8157762275","0.5301274199","0.07673209605","0.5737218407","","","","","","","","","","72","H","0","img/none_selected.jpg","","37","main_expt","",""
"","bandit","120","623207","0.0-79.0-0.0","97929223","wem/bandit_party_2","A3PEJ2UC43Y4ZN","either","3","436","","","","","","","1","0","0","0.7941499978","","0.6","0.2","0.4","0.8","","","","","0.7941499978","0.5746889943","0.1078843958","0.6008421093","","","","","","","","","","72","H","0","img/none_selected.jpg","","38","main_expt","",""
"","bandit","121","625137","0.0-80.0-0.0","97929223","wem/bandit_party_2","A3PEJ2UC43Y4ZN","either","3","420","","","","","","","1","0","0","0.7352357368","","0.6","0.2","0.4","0.8","","","","","0.7352357368","0.6621100331","0.09731722171","0.6076920036","","","","","","","","","","72","H","0","img/none_selected.jpg","","39","main_expt","",""
"","bandit","122","627073","0.0-81.0-0.0","97929223","wem/bandit_party_2","A3PEJ2UC43Y4ZN","either","3","426","","","","","","","1","0","0","0.7920886563","","0.6","0.2","0.4","0.8","","","","","0.7920886563","0.6794361822","0.2123509389","0.6616622706","","","","","","","","","","72","H","0","img/none_selected.jpg","","40","main_expt","",""
"","bandit","123","628976","0.0-82.0-0.0","97929223","wem/bandit_party_2","A3PEJ2UC43Y4ZN","either","3","394","","","","","","","0","1","0","","0.8780543775","0.6","0.2","0.4","0.8","0.8780543775","0.7140523024","0.1265365425","0.6945341382","","","","","","","","","","","","","","72","H","0","img/none_selected.jpg","","41","main_expt","",""
"","bandit","124","630842","0.0-83.0-0.0","97929223","wem/bandit_party_2","A3PEJ2UC43Y4ZN","either","3","355","","","","","","","0","1","0","","0.9167256642","0.6","0.2","0.4","0.8","0.9167256642","0.6669732994","0.166138795","0.6833149102","","","","","","","","","","","","","","72","H","0","img/none_selected.jpg","","42","main_expt","",""
"","bandit","125","632681","0.0-84.0-0.0","97929223","wem/bandit_party_2","A3PEJ2UC43Y4ZN","either","3","329","","","","","","","1","0","0","0.9407985187","","0.6","0.2","0.4","0.8","","","","","0.9407985187","0.5435093165","0.1782339186","0.7094953576","","","","","","","","","","72","H","0","img/none_selected.jpg","","43","main_expt","",""
"","bandit","126","634551","0.0-85.0-0.0","97929223","wem/bandit_party_2","A3PEJ2UC43Y4ZN","either","3","361","","","","","","","0","0","1","0.9000978766","","0.6","0.2","0.4","0.8","","","","","0.9000978766","0.6002661395","0.1342945815","0.7519468023","","","","","","","","","","72","H","0","img/none_selected.jpg","","44","main_expt","",""
"","bandit","127","636560","0.0-86.0-0.0","97929223","wem/bandit_party_2","A3PEJ2UC43Y4ZN","either","3","500","","","","","","","1","0","0","0.9190036262","","0.6","0.2","0.4","0.8","","","","","0.9190036262","0.5948203474","0.09086288848","0.7673203249","","","","","","","","","","72","H","0","img/none_selected.jpg","","45","main_expt","",""
"","bandit","128","638434","0.0-87.0-0.0","97929223","wem/bandit_party_2","A3PEJ2UC43Y4ZN","either","3","363","","","","","","","0","1","0","","0.8865788656","0.6","0.2","0.4","0.8","0.8865788656","0.6230250108","0.06420934006","0.722836051","","","","","","","","","","","","","","72","H","0","img/none_selected.jpg","","46","main_expt","",""
"","bandit","129","640335","0.0-88.0-0.0","97929223","wem/bandit_party_2","A3PEJ2UC43Y4ZN","either","3","393","","","","","","","0","1","0","","0.8207935484","0.6","0.2","0.4","0.8","0.8207935484","0.7239235909","0.02332738683","0.7392487755","","","","","","","","","","","","","","72","H","0","img/none_selected.jpg","","47","main_expt","",""
"","bandit","130","642359","0.0-89.0-0.0","97929223","wem/bandit_party_2","A3PEJ2UC43Y4ZN","either","3","516","","","","","","","0","1","0","","0.8170742187","0.6","0.2","0.4","0.8","0.8170742187","0.7715310514","0.03517565614","0.7551111279","","","","","","","","","","","","","","72","H","0","img/none_selected.jpg","","48","main_expt","",""
"","bandit","131","644352","0.0-90.0-0.0","97929223","wem/bandit_party_2","A3PEJ2UC43Y4ZN","either","3","482","","","","","","","1","0","0","0.7874830355","","0.6","0.2","0.4","0.8","","","","","0.7874830355","0.822179592","0.04466115719","0.6917772817","","","","","","","","","","72","H","0","img/none_selected.jpg","","49","main_expt","",""
"","bandit","132","646263","0.0-91.0-0.0","97929223","wem/bandit_party_2","A3PEJ2UC43Y4ZN","either","3","402","","","","","","","0","1","0","","0.8279472521","0.6","0.2","0.4","0.8","0.8279472521","0.8108951243","0.05053383529","0.6689959301","","","","","","","","","","","","","","72","H","0","img/none_selected.jpg","","50","main_expt","",""
"","bandit","133","648200","0.0-92.0-0.0","97929223","wem/bandit_party_2","A3PEJ2UC43Y4ZN","either","3","428","","","","","","","1","0","0","0.8426817256","","0.6","0.2","0.4","0.8","","","","","0.8426817256","0.7649170446","0.04681033125","0.6020608281","","","","","","","","","","72","H","0","img/none_selected.jpg","","51","main_expt","",""
"","bandit","134","650087","0.0-93.0-0.0","97929223","wem/bandit_party_2","A3PEJ2UC43Y4ZN","either","3","379","","","","","","","0","1","0","","0.8377647656","0.6","0.2","0.4","0.8","0.8377647656","0.8169848275","0.09308222201","0.6583182673","","","","","","","","","","","","","","72","H","0","img/none_selected.jpg","","52","main_expt","",""
"","bandit","135","652064","0.0-94.0-0.0","97929223","wem/bandit_party_2","A3PEJ2UC43Y4ZN","either","3","468","","","","","","","1","0","0","0.8241398149","","0.6","0.2","0.4","0.8","","","","","0.8241398149","0.8843577791","0.1397702629","0.5419436754","","","","","","","","","","72","H","0","img/none_selected.jpg","","53","main_expt","",""
"","bandit","136","654120","0.0-95.0-0.0","97929223","wem/bandit_party_2","A3PEJ2UC43Y4ZN","either","3","547","","","","","","","1","0","0","0.7289352116","","0.6","0.2","0.4","0.8","","","","","0.7289352116","0.8854515068","0.110287685","0.5717614462","","","","","","","","","","72","H","0","img/none_selected.jpg","","54","main_expt","",""
"","bandit","137","656248","0.0-96.0-0.0","97929223","wem/bandit_party_2","A3PEJ2UC43Y4ZN","either","3","618","","","","","","","1","0","0","0.5895019519","","0.6","0.2","0.4","0.8","","","","","0.5895019519","0.8884574585","0.1843384007","0.5497935615","","","","","","","","","","72","H","0","img/none_selected.jpg","","55","main_expt","",""
"","bandit","138","658257","0.0-97.0-0.0","97929223","wem/bandit_party_2","A3PEJ2UC43Y4ZN","either","3","499","","","","","","","0","0","1","0.4622464331","","0.6","0.2","0.4","0.8","","","","","0.4622464331","0.8840911236","0.2056752237","0.4902645195","","","","","","","","","","72","H","0","img/none_selected.jpg","","56","main_expt","",""
"","bandit","139","660232","0.0-98.0-0.0","97929223","wem/bandit_party_2","A3PEJ2UC43Y4ZN","either","3","466","","","","","","","1","0","0","0.490024734","","0.6","0.2","0.4","0.8","","","","","0.490024734","0.864283103","0.3410726922","0.5258365243","","","","","","","","","","72","H","0","img/none_selected.jpg","","57","main_expt","",""
"","bandit","140","662181","0.0-99.0-0.0","97929223","wem/bandit_party_2","A3PEJ2UC43Y4ZN","either","3","441","","","","","","","0","1","0","","0.6182628796","0.6","0.2","0.4","0.8","0.6182628796","0.7377821737","0.3873695161","0.6097664349","","","","","","","","","","","","","","72","H","0","img/none_selected.jpg","","58","main_expt","",""
"","bandit","141","664202","0.0-100.0-0.0","97929223","wem/bandit_party_2","A3PEJ2UC43Y4ZN","either","3","509","","","","","","","1","0","0","0.6976829826","","0.6","0.2","0.4","0.8","","","","","0.6976829826","0.7469541206","0.3281321534","0.6016711108","","","","","","","","","","72","H","0","img/none_selected.jpg","","59","main_expt","",""
"","bandit","142","666190","0.0-101.0-0.0","97929223","wem/bandit_party_2","A3PEJ2UC43Y4ZN","either","3","481","","","","","","","1","0","0","0.675433977","","0.6","0.2","0.4","0.8","","","","","0.675433977","0.8019510571","0.2380439254","0.5544917648","","","","","","","","","","72","H","0","img/none_selected.jpg","","60","main_expt","",""
"","bandit","143","668136","0.0-102.0-0.0","97929223","wem/bandit_party_2","A3PEJ2UC43Y4ZN","either","3","436","","","","","","","1","0","0","0.7206550838","","0.6","0.2","0.4","0.8","","","","","0.7206550838","0.8943887388","0.2228222105","0.6842720067","","","","","","","","","","72","H","0","img/none_selected.jpg","","61","main_expt","",""
"","bandit","144","670113","0.0-103.0-0.0","97929223","wem/bandit_party_2","A3PEJ2UC43Y4ZN","either","3","466","","","","","","","0","1","0","","0.7184677658","0.6","0.2","0.4","0.8","0.7184677658","0.8942973556","0.2489253665","0.6824345281","","","","","","","","","","","","","","72","H","0","img/none_selected.jpg","","62","main_expt","",""
"","bandit","145","672126","0.0-104.0-0.0","97929223","wem/bandit_party_2","A3PEJ2UC43Y4ZN","either","3","505","","","","","","","1","0","0","0.6785259816","","0.6","0.2","0.4","0.8","","","","","0.6785259816","0.8829609874","0.2298237489","0.7321168219","","","","","","","","","","72","H","0","img/none_selected.jpg","","63","main_expt","",""
"","bandit","146","674089","0.0-105.0-0.0","97929223","wem/bandit_party_2","A3PEJ2UC43Y4ZN","either","3","451","","","","","","","1","0","0","0.6349383059","","0.6","0.2","0.4","0.8","","","","","0.6349383059","0.8175344892","0.1849055857","0.8123013145","","","","","","","","","","72","H","0","img/none_selected.jpg","","64","main_expt","",""
"","bandit","147","676102","0.0-106.0-0.0","97929223","wem/bandit_party_2","A3PEJ2UC43Y4ZN","either","3","504","","","","","","","1","0","0","0.629769122","","0.6","0.2","0.4","0.8","","","","","0.629769122","0.7812905168","0.2285715909","0.8236121316","","","","","","","","","","72","H","0","img/none_selected.jpg","","65","main_expt","",""
"","bandit","148","678008","0.0-107.0-0.0","97929223","wem/bandit_party_2","A3PEJ2UC43Y4ZN","either","3","396","","","","","","","1","0","0","0.7158950816","","0.6","0.2","0.4","0.8","","","","","0.7158950816","0.7848445355","0.2477643906","0.8270077233","","","","","","","","","","72","H","0","img/none_selected.jpg","","66","main_expt","",""
"","bandit","149","679855","0.0-108.0-0.0","97929223","wem/bandit_party_2","A3PEJ2UC43Y4ZN","either","3","337","","","","","","","1","0","0","0.6309271871","","0.6","0.2","0.4","0.8","","","","","0.6309271871","0.763143195","0.1801078726","0.7601471472","","","","","","","","","","72","H","0","img/none_selected.jpg","","67","main_expt","",""
"","bandit","150","681890","0.0-109.0-0.0","97929223","wem/bandit_party_2","A3PEJ2UC43Y4ZN","either","3","524","","","","","","","1","0","0","0.617221228","","0.6","0.2","0.4","0.8","","","","","0.617221228","0.7966751536","0.08479184886","0.7567750057","","","","","","","","","","72","H","0","img/none_selected.jpg","","68","main_expt","",""
"","bandit","151","683913","0.0-110.0-0.0","97929223","wem/bandit_party_2","A3PEJ2UC43Y4ZN","either","3","512","","","","","","","0","0","1","0.6235929763","","0.6","0.2","0.4","0.8","","","","","0.6235929763","0.8534335227","0.06982522498","0.6871277649","","","","","","","","","","72","H","0","img/none_selected.jpg","","69","main_expt","",""
"","bandit","152","685826","0.0-111.0-0.0","97929223","wem/bandit_party_2","A3PEJ2UC43Y4ZN","either","3","402","","","","","","","0","0","1","","0.5543620559","0.6","0.2","0.4","0.8","0.5543620559","0.8915498471","0.05029268469","0.773099018","","","","","","","","","","","","","","72","H","0","img/none_selected.jpg","","70","main_expt","",""
"","bandit","153","688065","0.0-112.0-0.0","97929223","wem/bandit_party_2","A3PEJ2UC43Y4ZN","either","3","729","","","","","","","0","0","1","","0.8736989015","0.6","0.2","0.4","0.8","0.5333999135","0.8736989015","0.06413839938","0.7412476729","","","","","","","","","","","","","","74","J","1","","","71","main_expt","",""
"","bandit","154","689991","0.0-113.0-0.0","97929223","wem/bandit_party_2","A3PEJ2UC43Y4ZN","either","3","418","","","","","","","0","0","1","","0.8837551658","0.6","0.2","0.4","0.8","0.5905126671","0.8837551658","0.05155778705","0.8080704968","","","","","","","","","","","","","","74","J","1","","","72","main_expt","",""
"","bandit","155","691922","0.0-114.0-0.0","97929223","wem/bandit_party_2","A3PEJ2UC43Y4ZN","either","3","420","","","","","","","0","0","1","0.0232747386","","0.6","0.2","0.4","0.8","","","","","0.6925119087","0.8495494246","0.0232747386","0.8270016227","","","","","","","","","","75","K","2","","","73","main_expt","",""
"","bandit","156","693881","0.0-115.0-0.0","97929223","wem/bandit_party_2","A3PEJ2UC43Y4ZN","either","3","449","","","","","","","0","0","1","","0.04751547773","0.6","0.2","0.4","0.8","0.7134745341","0.9127472651","0.04751547773","0.7872017979","","","","","","","","","","","","","","75","K","2","","","74","main_expt","",""
"","bandit","157","695833","0.0-116.0-0.0","97929223","wem/bandit_party_2","A3PEJ2UC43Y4ZN","either","3","441","","","","","","","0","0","1","0.6167225576","","0.6","0.2","0.4","0.8","","","","","0.8065440948","0.9199060817","0.05282531612","0.6167225576","","","","","","","","","","76","L","3","","","75","main_expt","",""
"","bandit","158","697728","0.0-117.0-0.0","97929223","wem/bandit_party_2","A3PEJ2UC43Y4ZN","either","3","386","","","","","","","1","0","0","0.637182095","","0.6","0.2","0.4","0.8","","","","","0.7849172319","0.8691294168","0.08738729654","0.637182095","","","","","","","","","","76","L","3","","","76","main_expt","",""
"","bandit","159","699689","0.0-118.0-0.0","97929223","wem/bandit_party_2","A3PEJ2UC43Y4ZN","either","3","451","","","","","","","1","0","0","0.7169911294","","0.6","0.2","0.4","0.8","","","","","0.7818962729","0.9111329321","0.08851312664","0.7169911294","","","","","","","","","","76","L","3","","","77","main_expt","",""
"","bandit","160","701609","0.0-119.0-0.0","97929223","wem/bandit_party_2","A3PEJ2UC43Y4ZN","either","3","409","","","","","","","0","0","1","0.7446448061","","0.6","0.2","0.4","0.8","","","","","0.7002933386","0.9286966754","0.145228539","0.7446448061","","","","","","","","","","76","L","3","","","78","main_expt","",""
"","bandit","161","703593","0.0-120.0-0.0","97929223","wem/bandit_party_2","A3PEJ2UC43Y4ZN","either","3","475","","","","","","","0","1","0","","0.8152221547","0.6","0.2","0.4","0.8","0.6510109529","0.9616021792","0.1669860915","0.8152221547","","","","","","","","","","","","","","76","L","3","","","79","main_expt","",""
"","bandit","162","705625","0.0-121.0-0.0","97929223","wem/bandit_party_2","A3PEJ2UC43Y4ZN","either","3","520","","","","","","","1","0","0","0.810351938","","0.6","0.2","0.4","0.8","","","","","0.6765614865","0.950571795","0.1922913003","0.810351938","","","","","","","","","","76","L","3","","","80","main_expt","",""
"","bandit","163","707617","0.0-122.0-0.0","97929223","wem/bandit_party_2","A3PEJ2UC43Y4ZN","either","3","481","","","","","","","0","1","0","","0.8895110989","0.6","0.2","0.4","0.8","0.5908869344","0.9331160128","0.2407870914","0.8895110989","","","","","","","","","","","","","","76","L","3","","","81","main_expt","",""
"","bandit","164","709618","0.0-123.0-0.0","97929223","wem/bandit_party_2","A3PEJ2UC43Y4ZN","either","3","489","","","","","","","1","0","0","0.9046816681","","0.6","0.2","0.4","0.8","","","","","0.5267531711","0.9465986336","0.3077898034","0.9046816681","","","","","","","","","","76","L","3","","","82","main_expt","",""
"","bandit","165","711617","0.0-124.0-0.0","97929223","wem/bandit_party_2","A3PEJ2UC43Y4ZN","either","3","489","","","","","","","1","0","0","0.8465278631","","0.6","0.2","0.4","0.8","","","","","0.6168373964","0.9371159138","0.2337579628","0.8465278631","","","","","","","","","","76","L","3","","","83","main_expt","",""
"","bandit","166","713515","0.0-125.0-0.0","97929223","wem/bandit_party_2","A3PEJ2UC43Y4ZN","either","3","384","","","","","","","0","1","0","","0.7584930438","0.6","0.2","0.4","0.8","0.5733990252","0.8998840018","0.2781329454","0.7584930438","","","","","","","","","","","","","","76","L","3","","","84","main_expt","",""
"","bandit","167","715491","0.0-126.0-0.0","97929223","wem/bandit_party_2","A3PEJ2UC43Y4ZN","either","3","466","","","","","","","0","0","1","0.7727946294","","0.6","0.2","0.4","0.8","","","","","0.4719695616","0.9102188985","0.3013149798","0.7727946294","","","","","","","","","","76","L","3","","","85","main_expt","",""
"","bandit","168","717408","0.0-127.0-0.0","97929223","wem/bandit_party_2","A3PEJ2UC43Y4ZN","either","3","406","","","","","","","1","0","0","0.8216594778","","0.6","0.2","0.4","0.8","","","","","0.6941651786","0.9000055418","0.3231836659","0.8216594778","","","","","","","","","","76","L","3","","","86","main_expt","",""
"","bandit","169","719338","0.0-128.0-0.0","97929223","wem/bandit_party_2","A3PEJ2UC43Y4ZN","either","3","417","","","","","","","0","1","0","","0.7833884788","0.6","0.2","0.4","0.8","0.5408952125","0.8563468124","0.3986379136","0.7833884788","","","","","","","","","","","","","","76","L","3","","","87","main_expt","",""
"","bandit","170","721273","0.0-129.0-0.0","97929223","wem/bandit_party_2","A3PEJ2UC43Y4ZN","either","3","426","","","","","","","1","0","0","0.7804426693","","0.6","0.2","0.4","0.8","","","","","0.5438891422","0.7349543302","0.4230151841","0.7804426693","","","","","","","","","","76","L","3","","","88","main_expt","",""
"","bandit","171","723777","0.0-130.0-0.0","97929223","wem/bandit_party_2","A3PEJ2UC43Y4ZN","either","3","994","","","","","","","1","0","0","0.7930928848","","0.6","0.2","0.4","0.8","","","","","0.4294971294","0.7907967515","0.3761858397","0.7930928848","","","","","","","","","","76","L","3","","","89","main_expt","",""
"","bandit","172","725744","0.0-131.0-0.0","97929223","wem/bandit_party_2","A3PEJ2UC43Y4ZN","either","3","457","","","","","","","0","0","1","","0.7683039237","0.6","0.2","0.4","0.8","0.4928337868","0.7883246469","0.4799086841","0.7683039237","","","","","","","","","","","","","","76","L","3","","","90","main_expt","",""
"","bandit","173","727608","0.0-132.0-0.0","97929223","wem/bandit_party_2","A3PEJ2UC43Y4ZN","either","3","350","","","","","","","1","0","0","0.8072091422","","0.6","0.2","0.4","0.8","","","","","0.5655090935","0.8389096604","0.4558425901","0.8072091422","","","","","","","","","","76","L","3","","","91","main_expt","",""
"","bandit","174","729560","0.0-133.0-0.0","97929223","wem/bandit_party_2","A3PEJ2UC43Y4ZN","either","3","441","","","","","","","0","0","1","0.7791444337","","0.6","0.2","0.4","0.8","","","","","0.6154818033","0.8064187158","0.3781515597","0.7791444337","","","","","","","","","","76","L","3","","","92","main_expt","",""
"","bandit","175","731504","0.0-134.0-0.0","97929223","wem/bandit_party_2","A3PEJ2UC43Y4ZN","either","3","435","","","","","","","1","0","0","0.8498372391","","0.6","0.2","0.4","0.8","","","","","0.7381217307","0.7542368763","0.2858753042","0.8498372391","","","","","","","","","","76","L","3","","","93","main_expt","",""
"","bandit","176","733457","0.0-135.0-0.0","97929223","wem/bandit_party_2","A3PEJ2UC43Y4ZN","either","3","442","","","","","","","1","0","0","0.8440610374","","0.6","0.2","0.4","0.8","","","","","0.7776388333","0.6932487021","0.3914428564","0.8440610374","","","","","","","","","","76","L","3","","","94","main_expt","",""
"","bandit","177","735361","0.0-136.0-0.0","97929223","wem/bandit_party_2","A3PEJ2UC43Y4ZN","either","3","393","","","","","","","1","0","0","0.8092418145","","0.6","0.2","0.4","0.8","","","","","0.8299152283","0.6706070003","0.3800018616","0.8092418145","","","","","","","","","","76","L","3","","","95","main_expt","",""
"","bandit","178","737305","0.0-137.0-0.0","97929223","wem/bandit_party_2","A3PEJ2UC43Y4ZN","either","3","435","","","","","","","1","0","0","0.8655172998","","0.6","0.2","0.4","0.8","","","","","0.7697811485","0.6670251336","0.3078584031","0.8655172998","","","","","","","","","","76","L","3","","","96","main_expt","",""
"","bandit","179","739216","0.0-138.0-0.0","97929223","wem/bandit_party_2","A3PEJ2UC43Y4ZN","either","3","401","","","","","","","1","0","0","0.8735151232","","0.6","0.2","0.4","0.8","","","","","0.7487724405","0.7023758817","0.218486712","0.8735151232","","","","","","","","","","76","L","3","","","97","main_expt","",""
"","bandit","180","741129","0.0-139.0-0.0","97929223","wem/bandit_party_2","A3PEJ2UC43Y4ZN","either","3","401","","","","","","","1","0","0","0.84409386","","0.6","0.2","0.4","0.8","","","","","0.7450583294","0.7036518389","0.2037628256","0.84409386","","","","","","","","","","76","L","3","","","98","main_expt","",""
"","bandit","181","743071","0.0-140.0-0.0","97929223","wem/bandit_party_2","A3PEJ2UC43Y4ZN","either","3","433","","","","","","","1","0","0","0.8089648913","","0.6","0.2","0.4","0.8","","","","","0.7227120129","0.8401346726","0.2400196326","0.8089648913","","","","","","","","","","76","L","3","","","99","main_expt","",""
"","bandit","182","744992","0.0-141.0-0.0","97929223","wem/bandit_party_2","A3PEJ2UC43Y4ZN","either","3","411","","","","","","","0","0","1","0.7259557377","","0.6","0.2","0.4","0.8","","","","","0.5872141049","0.8640782416","0.3298222115","0.7259557377","","","","","","","","","","76","L","3","","","100","main_expt","",""
"","bandit","183","746896","0.0-142.0-0.0","97929223","wem/bandit_party_2","A3PEJ2UC43Y4ZN","either","3","393","","","","","","","1","0","0","0.6332869741","","0.6","0.2","0.4","0.8","","","","","0.6432213136","0.8232172207","0.3108047587","0.6332869741","","","","","","","","","","76","L","3","","","101","main_expt","",""
"","bandit","184","748808","0.0-143.0-0.0","97929223","wem/bandit_party_2","A3PEJ2UC43Y4ZN","either","3","403","","","","","","","0","0","1","","0.659443461","0.6","0.2","0.4","0.8","0.6009476408","0.8451901448","0.2869381514","0.659443461","","","","","","","","","","","","","","76","L","3","","","102","main_expt","",""
"","bandit","185","750711","0.0-144.0-0.0","97929223","wem/bandit_party_2","A3PEJ2UC43Y4ZN","either","3","393","","","","","","","1","0","0","0.5959971703","","0.6","0.2","0.4","0.8","","","","","0.6120105745","0.8792283932","0.246485708","0.5959971703","","","","","","","","","","76","L","3","","","103","main_expt","",""
"","bandit","186","752599","0.0-145.0-0.0","97929223","wem/bandit_party_2","A3PEJ2UC43Y4ZN","either","3","378","","","","","","","0","0","1","0.5643630141","","0.6","0.2","0.4","0.8","","","","","0.6821098495","0.8887181638","0.2175667678","0.5643630141","","","","","","","","","","76","L","3","","","104","main_expt","",""
"","bandit","187","754526","0.0-146.0-0.0","97929223","wem/bandit_party_2","A3PEJ2UC43Y4ZN","either","3","418","","","","","","","0","0","1","0.5489079514","","0.6","0.2","0.4","0.8","","","","","0.7228510016","0.8013578166","0.2645808036","0.5489079514","","","","","","","","","","76","L","3","","","105","main_expt","",""
"","bandit","188","756473","0.0-147.0-0.0","97929223","wem/bandit_party_2","A3PEJ2UC43Y4ZN","either","3","431","","","","","","","0","0","1","0.2652424516","","0.6","0.2","0.4","0.8","","","","","0.6639212405","0.7307006529","0.2652424516","0.4336033326","","","","","","","","","","75","K","2","","","106","main_expt","",""
"","bandit","189","758345","0.0-148.0-0.0","97929223","wem/bandit_party_2","A3PEJ2UC43Y4ZN","either","3","360","","","","","","","0","0","1","","0.2481661544","0.6","0.2","0.4","0.8","0.6237034742","0.7519500851","0.2481661544","0.4779201531","","","","","","","","","","","","","","75","K","2","","","107","main_expt","",""
"","bandit","190","760327","0.0-149.0-0.0","97929223","wem/bandit_party_2","A3PEJ2UC43Y4ZN","either","3","474","","","","","","","0","1","0","","0.7457577851","0.6","0.2","0.4","0.8","0.5847293191","0.7457577851","0.2361720859","0.5075294874","","","","","","","","","","","","","","74","J","1","","","108","main_expt","",""
"","bandit","191","762425","0.0-150.0-0.0","97929223","wem/bandit_party_2","A3PEJ2UC43Y4ZN","either","3","585","","","","","","","0","1","0","","0.77583868","0.6","0.2","0.4","0.8","0.6260859175","0.77583868","0.2799679389","0.522842385","","","","","","","","","","","","","","74","J","1","","","109","main_expt","",""
"","bandit","192","764366","0.0-151.0-0.0","97929223","wem/bandit_party_2","A3PEJ2UC43Y4ZN","either","3","432","","","","","","","0","0","1","","0.7520827962","0.6","0.2","0.4","0.8","0.4788227383","0.7520827962","0.3333098602","0.419893696","","","","","","","","","","","","","","74","J","1","","","110","main_expt","",""
"","bandit","193","766304","0.0-152.0-0.0","97929223","wem/bandit_party_2","A3PEJ2UC43Y4ZN","either","3","426","","","","","","","0","0","1","","0.6512809768","0.6","0.2","0.4","0.8","0.6019778282","0.6512809768","0.3669732535","0.431092028","","","","","","","","","","","","","","74","J","1","","","111","main_expt","",""
"","bandit","194","768295","0.0-153.0-0.0","97929223","wem/bandit_party_2","A3PEJ2UC43Y4ZN","either","3","481","","","","","","","0","0","1","0.546445977","","0.6","0.2","0.4","0.8","","","","","0.546445977","0.5891937939","0.389765336","0.3590071368","","","","","","","","","","72","H","0","img/none_selected.jpg","","112","main_expt","",""
"","bandit","195","770249","0.0-154.0-0.0","97929223","wem/bandit_party_2","A3PEJ2UC43Y4ZN","either","3","441","","","","","","","0","1","0","","0.6256092846","0.6","0.2","0.4","0.8","0.6256092846","0.6490525038","0.3191506652","0.4498419114","","","","","","","","","","","","","","72","H","0","img/none_selected.jpg","","113","main_expt","",""
"","bandit","196","772104","0.0-155.0-0.0","97929223","wem/bandit_party_2","A3PEJ2UC43Y4ZN","either","3","345","","","","","","","0","1","0","","0.6577617598","0.6","0.2","0.4","0.8","0.6577617598","0.6283680234","0.2090321438","0.4829831469","","","","","","","","","","","","","","72","H","0","img/none_selected.jpg","","114","main_expt","",""
"","bandit","197","773976","0.0-156.0-0.0","97929223","wem/bandit_party_2","A3PEJ2UC43Y4ZN","either","3","360","","","","","","","1","0","0","0.7140476354","","0.6","0.2","0.4","0.8","","","","","0.7140476354","0.6064224059","0.2094439124","0.4846695964","","","","","","","","","","72","H","0","img/none_selected.jpg","","115","main_expt","",""
"","bandit","198","775863","0.0-157.0-0.0","97929223","wem/bandit_party_2","A3PEJ2UC43Y4ZN","either","3","376","","","","","","","1","0","0","0.6589976567","","0.6","0.2","0.4","0.8","","","","","0.6589976567","0.545813367","0.2695181069","0.5396909338","","","","","","","","","","72","H","0","img/none_selected.jpg","","116","main_expt","",""
"","bandit","199","777792","0.0-158.0-0.0","97929223","wem/bandit_party_2","A3PEJ2UC43Y4ZN","either","3","418","","","","","","","1","0","0","0.6937703341","","0.6","0.2","0.4","0.8","","","","","0.6937703341","0.5179373022","0.3402036285","0.5378282835","","","","","","","","","","72","H","0","img/none_selected.jpg","","117","main_expt","",""
"","bandit","200","779786","0.0-159.0-0.0","97929223","wem/bandit_party_2","A3PEJ2UC43Y4ZN","either","3","480","","","","","","","1","0","0","0.77114399","","0.6","0.2","0.4","0.8","","","","","0.77114399","0.4014157923","0.3101634078","0.5729988564","","","","","","","","","","72","H","0","img/none_selected.jpg","","118","main_expt","",""
"","bandit","201","781746","0.0-160.0-0.0","97929223","wem/bandit_party_2","A3PEJ2UC43Y4ZN","either","3","447","","","","","","","0","0","1","0.710000291","","0.6","0.2","0.4","0.8","","","","","0.710000291","0.4360264599","0.3242193616","0.5630251564","","","","","","","","","","72","H","0","img/none_selected.jpg","","119","main_expt","",""
"","bandit","202","783617","0.0-161.0-0.0","97929223","wem/bandit_party_2","A3PEJ2UC43Y4ZN","either","3","360","","","","","","","1","0","0","0.6767982245","","0.6","0.2","0.4","0.8","","","","","0.6767982245","0.3297853269","0.3334277272","0.6482115929","","","","","","","","","","72","H","0","img/none_selected.jpg","","120","main_expt","",""
"","bandit","203","785592","0.0-162.0-0.0","97929223","wem/bandit_party_2","A3PEJ2UC43Y4ZN","either","3","464","","","","","","","0","1","0","","0.7360115258","0.6","0.2","0.4","0.8","0.7360115258","0.3767442019","0.4066521311","0.5688505083","","","","","","","","","","","","","","72","H","0","img/none_selected.jpg","","121","main_expt","",""
"","bandit","204","787665","0.0-163.0-0.0","97929223","wem/bandit_party_2","A3PEJ2UC43Y4ZN","either","3","560","","","","","","","0","1","0","","0.7258716992","0.6","0.2","0.4","0.8","0.7258716992","0.3589515546","0.5193034213","0.5349597204","","","","","","","","","","","","","","72","H","0","img/none_selected.jpg","","122","main_expt","",""
"","bandit","205","789592","0.0-164.0-0.0","97929223","wem/bandit_party_2","A3PEJ2UC43Y4ZN","either","3","417","","","","","","","0","0","1","","0.7848203729","0.6","0.2","0.4","0.8","0.7848203729","0.3461890545","0.5594962391","0.412887176","","","","","","","","","","","","","","72","H","0","img/none_selected.jpg","","123","main_expt","",""
"","bandit","206","791465","0.0-165.0-0.0","97929223","wem/bandit_party_2","A3PEJ2UC43Y4ZN","either","3","360","","","","","","","1","0","0","0.7673004895","","0.6","0.2","0.4","0.8","","","","","0.7673004895","0.2287340519","0.6876014299","0.4137060999","","","","","","","","","","72","H","0","img/none_selected.jpg","","124","main_expt","",""
"","bandit","207","793399","0.0-166.0-0.0","97929223","wem/bandit_party_2","A3PEJ2UC43Y4ZN","either","3","424","","","","","","","1","0","0","0.8020703208","","0.6","0.2","0.4","0.8","","","","","0.8020703208","0.2900718705","0.7354493796","0.3226696341","","","","","","","","","","72","H","0","img/none_selected.jpg","","125","main_expt","",""
"","bandit","208","795297","0.0-167.0-0.0","97929223","wem/bandit_party_2","A3PEJ2UC43Y4ZN","either","3","386","","","","","","","0","1","0","","0.8196031782","0.6","0.2","0.4","0.8","0.8196031782","0.2880997441","0.76840964","0.3904211026","","","","","","","","","","","","","","72","H","0","img/none_selected.jpg","","126","main_expt","",""
"","bandit","209","797312","0.0-168.0-0.0","97929223","wem/bandit_party_2","A3PEJ2UC43Y4ZN","either","3","503","","","","","","","1","0","0","0.7095492128","","0.6","0.2","0.4","0.8","","","","","0.7095492128","0.3451069126","0.7310750685","0.4227014292","","","","","","","","","","72","H","0","img/none_selected.jpg","","127","main_expt","",""
"","bandit","210","799224","0.0-169.0-0.0","97929223","wem/bandit_party_2","A3PEJ2UC43Y4ZN","either","3","399","","","","","","","0","0","1","0.711577854","","0.6","0.2","0.4","0.8","","","","","0.711577854","0.3129298861","0.6582635175","0.543317668","","","","","","","","","","72","H","0","img/none_selected.jpg","","128","main_expt","",""
"","bandit","211","801073","0.0-170.0-0.0","97929223","wem/bandit_party_2","A3PEJ2UC43Y4ZN","either","3","337","","","","","","","0","1","0","","0.7022761705","0.6","0.2","0.4","0.8","0.7022761705","0.3507055597","0.7529887683","0.5906282681","","","","","","","","","","","","","","72","H","0","img/none_selected.jpg","","129","main_expt","",""
"","bandit","212","802991","0.0-171.0-0.0","97929223","wem/bandit_party_2","A3PEJ2UC43Y4ZN","either","3","407","","","","","","","0","1","0","","0.7309419319","0.6","0.2","0.4","0.8","0.7309419319","0.3753424236","0.7929301986","0.6636268631","","","","","","","","","","","","","","72","H","0","img/none_selected.jpg","","130","main_expt","",""
"","bandit","213","805015","0.0-172.0-0.0","97929223","wem/bandit_party_2","A3PEJ2UC43Y4ZN","either","3","513","","","","","","","1","0","0","0.6904825683","","0.6","0.2","0.4","0.8","","","","","0.6904825683","0.3473486375","0.8149544693","0.5686699027","","","","","","","","","","72","H","0","img/none_selected.jpg","","131","main_expt","",""
"","bandit","214","806951","0.0-173.0-0.0","97929223","wem/bandit_party_2","A3PEJ2UC43Y4ZN","either","3","425","","","","","","","1","0","0","0.7153166113","","0.6","0.2","0.4","0.8","","","","","0.7153166113","0.303679922","0.7626544417","0.6564012045","","","","","","","","","","72","H","0","img/none_selected.jpg","","132","main_expt","",""
"","bandit","215","808993","0.0-174.0-0.0","97929223","wem/bandit_party_2","A3PEJ2UC43Y4ZN","either","3","529","","","","","","","0","1","0","","0.8135501627","0.6","0.2","0.4","0.8","0.8135501627","0.3385565331","0.7584501248","0.5876654864","","","","","","","","","","","","","","72","H","0","img/none_selected.jpg","","133","main_expt","",""
"","bandit","216","811000","0.0-175.0-0.0","97929223","wem/bandit_party_2","A3PEJ2UC43Y4ZN","either","3","495","","","","","","","1","0","0","0.7707892239","","0.6","0.2","0.4","0.8","","","","","0.7707892239","0.3686406913","0.7905015291","0.5299368298","","","","","","","","","","72","H","0","img/none_selected.jpg","","134","main_expt","",""
"","bandit","217","813023","0.0-176.0-0.0","97929223","wem/bandit_party_2","A3PEJ2UC43Y4ZN","either","3","512","","","","","","","0","1","0","","0.7689088841","0.6","0.2","0.4","0.8","0.7689088841","0.3672202126","0.7515189777","0.4547966061","","","","","","","","","","","","","","72","H","0","img/none_selected.jpg","","135","main_expt","",""
"","bandit","218","814921","0.0-177.0-0.0","97929223","wem/bandit_party_2","A3PEJ2UC43Y4ZN","either","3","385","","","","","","","1","0","0","0.6641324257","","0.6","0.2","0.4","0.8","","","","","0.6641324257","0.4064769993","0.7293518859","0.5290841583","","","","","","","","","","72","H","0","img/none_selected.jpg","","136","main_expt","",""
"","bandit","219","817010","0.0-178.0-0.0","97929223","wem/bandit_party_2","A3PEJ2UC43Y4ZN","either","3","577","","","","","","","0","1","0","","0.635388201","0.6","0.2","0.4","0.8","0.635388201","0.3492503667","0.7286216209","0.419904672","","","","","","","","","","","","","","72","H","0","img/none_selected.jpg","","137","main_expt","",""
"","bandit","220","818928","0.0-179.0-0.0","97929223","wem/bandit_party_2","A3PEJ2UC43Y4ZN","either","3","407","","","","","","","1","0","0","0.6889508363","","0.6","0.2","0.4","0.8","","","","","0.6889508363","0.3315752647","0.7425921641","0.4532768315","","","","","","","","","","72","H","0","img/none_selected.jpg","","138","main_expt","",""
"","bandit","221","820760","0.0-180.0-0.0","97929223","wem/bandit_party_2","A3PEJ2UC43Y4ZN","either","3","320","","","","","","","1","0","0","0.6481427694","","0.6","0.2","0.4","0.8","","","","","0.6481427694","0.3080831972","0.7356638012","0.4194835996","","","","","","","","","","72","H","0","img/none_selected.jpg","","139","main_expt","",""
"","bandit","222","822720","0.0-181.0-0.0","97929223","wem/bandit_party_2","A3PEJ2UC43Y4ZN","either","3","447","","","","","","","0","0","1","","0.6497449761","0.6","0.2","0.4","0.8","0.6497449761","0.3254670704","0.7334346803","0.420008375","","","","","","","","","","","","","","72","H","0","img/none_selected.jpg","","140","main_expt","",""
"","bandit","223","824598","0.0-182.0-0.0","97929223","wem/bandit_party_2","A3PEJ2UC43Y4ZN","either","3","368","","","","","","","1","0","0","0.7328205829","","0.6","0.2","0.4","0.8","","","","","0.7328205829","0.3452870884","0.7737071977","0.3908595681","","","","","","","","","","72","H","0","img/none_selected.jpg","","141","main_expt","",""
"","bandit","224","826488","0.0-183.0-0.0","97929223","wem/bandit_party_2","A3PEJ2UC43Y4ZN","either","3","378","","","","","","","0","0","1","0.6396752577","","0.6","0.2","0.4","0.8","","","","","0.6396752577","0.2659846132","0.7912630164","0.3994278682","","","","","","","","","","72","H","0","img/none_selected.jpg","","142","main_expt","",""
"","bandit","225","828371","0.0-184.0-0.0","97929223","wem/bandit_party_2","A3PEJ2UC43Y4ZN","either","3","369","","","","","","","1","0","0","0.5974809775","","0.6","0.2","0.4","0.8","","","","","0.5974809775","0.2549781044","0.7709923268","0.3137486051","","","","","","","","","","72","H","0","img/none_selected.jpg","","143","main_expt","",""
"","bandit","226","830278","0.0-185.0-0.0","97929223","wem/bandit_party_2","A3PEJ2UC43Y4ZN","either","3","397","","","","","","","1","0","0","0.5953980303","","0.6","0.2","0.4","0.8","","","","","0.5953980303","0.3603981418","0.7492848764","0.3961992406","","","","","","","","","","72","H","0","img/none_selected.jpg","","144","main_expt","",""
"","bandit","227","832183","0.0-186.0-0.0","97929223","wem/bandit_party_2","A3PEJ2UC43Y4ZN","either","3","394","","","","","","","0","0","1","0.6215671736","","0.6","0.2","0.4","0.8","","","","","0.6215671736","0.3682949958","0.7343485297","0.3186856111","","","","","","","","","","72","H","0","img/none_selected.jpg","","145","main_expt","",""
"","bandit","228","834065","0.0-187.0-0.0","97929223","wem/bandit_party_2","A3PEJ2UC43Y4ZN","either","3","368","","","","","","","1","0","0","0.5766937592","","0.6","0.2","0.4","0.8","","","","","0.5766937592","0.5028772858","0.7701032705","0.2724247948","","","","","","","","","","72","H","0","img/none_selected.jpg","","146","main_expt","",""
"","bandit","229","835991","0.0-188.0-0.0","97929223","wem/bandit_party_2","A3PEJ2UC43Y4ZN","either","3","415","","","","","","","0","0","1","","0.4600492943","0.6","0.2","0.4","0.8","0.4600492943","0.4186890645","0.7521601774","0.2844288079","","","","","","","","","","","","","","72","H","0","img/none_selected.jpg","","147","main_expt","",""
"","bandit","230","837904","0.0-189.0-0.0","97929223","wem/bandit_party_2","A3PEJ2UC43Y4ZN","either","3","400","","","","","","","0","1","0","","0.4575448178","0.6","0.2","0.4","0.8","0.4575448178","0.3928328601","0.7762143641","0.3095389551","","","","","","","","","","","","","","72","H","0","img/none_selected.jpg","","148","main_expt","",""
"","bandit","231","839816","0.0-190.0-0.0","97929223","wem/bandit_party_2","A3PEJ2UC43Y4ZN","either","3","402","","","","","","","0","0","1","","0.3840278576","0.6","0.2","0.4","0.8","0.3840278576","0.4220063763","0.716016993","0.2464654743","","","","","","","","","","","","","","72","H","0","img/none_selected.jpg","","149","main_expt","",""
"","bandit","232","841721","0.0-191.0-0.0","97929223","wem/bandit_party_2","A3PEJ2UC43Y4ZN","either","3","391","","","","","","","0","0","1","0.3004406684","","0.6","0.2","0.4","0.8","","","","","0.3004406684","0.3206822378","0.7182774931","0.2088091358","","","","","","","","","","72","H","0","img/none_selected.jpg","","150","main_expt","",""
"","bandit","233","843680","0.0-192.0-0.0","97929223","wem/bandit_party_2","A3PEJ2UC43Y4ZN","either","3","448","","","","","","","0","1","0","","0.3380172956","0.6","0.2","0.4","0.8","0.2769981479","0.3380172956","0.8028216805","0.2670014618","","","","","","","","","","","","","","74","J","1","","","151","main_expt","",""
"","bandit","234","845617","0.0-193.0-0.0","97929223","wem/bandit_party_2","A3PEJ2UC43Y4ZN","either","3","423","","","","","","","0","0","1","","0.2461440624","0.6","0.2","0.4","0.8","0.40565407","0.2461440624","0.8634692279","0.3100930243","","","","","","","","","","","","","","74","J","1","","","152","main_expt","",""
"","bandit","235","847624","0.0-194.0-0.0","97929223","wem/bandit_party_2","A3PEJ2UC43Y4ZN","either","3","494","","","","","","","0","0","1","0.1852716423","","0.6","0.2","0.4","0.8","","","","","0.3829351634","0.1852716423","0.7719190238","0.3796096158","","","","","","","","","","74","J","1","","","153","main_expt","",""
"","bandit","236","849640","0.0-195.0-0.0","97929223","wem/bandit_party_2","A3PEJ2UC43Y4ZN","either","3","503","","","","","","","1","0","0","0.8343429945","","0.6","0.2","0.4","0.8","","","","","0.4912137185","0.1660439368","0.8343429945","0.2265028128","","","","","","","","","","75","K","2","","","154","main_expt","",""
"","bandit","237","851617","0.0-196.0-0.0","97929223","wem/bandit_party_2","A3PEJ2UC43Y4ZN","either","3","464","","","","","","","1","0","0","0.7908731232","","0.6","0.2","0.4","0.8","","","","","0.5312535156","0.2241607793","0.7908731232","0.2135741777","","","","","","","","","","75","K","2","","","155","main_expt","",""
"","bandit","238","853584","0.0-197.0-0.0","97929223","wem/bandit_party_2","A3PEJ2UC43Y4ZN","either","3","454","","","","","","","1","0","0","0.7848911391","","0.6","0.2","0.4","0.8","","","","","0.5747898199","0.1566338899","0.7848911391","0.1338357519","","","","","","","","","","75","K","2","","","156","main_expt","",""
"","bandit","239","855489","0.0-198.0-0.0","97929223","wem/bandit_party_2","A3PEJ2UC43Y4ZN","either","3","392","","","","","","","0","0","1","","0.7467155263","0.6","0.2","0.4","0.8","0.5948125822","0.1839373886","0.7467155263","0.1344370697","","","","","","","","","","","","","","75","K","2","","","157","main_expt","",""
"","bandit","240","857335","0.0-199.0-0.0","97929223","wem/bandit_party_2","A3PEJ2UC43Y4ZN","either","3","335","","","","","","","0","1","0","","0.7413618202","0.6","0.2","0.4","0.8","0.6533804049","0.155802242","0.7413618202","0.1217930933","","","","","","","","","","","","","","75","K","2","","","158","main_expt","",""
"","bandit","241","859224","0.0-200.0-0.0","97929223","wem/bandit_party_2","A3PEJ2UC43Y4ZN","either","3","378","","","","","","","0","1","0","","0.6882043704","0.6","0.2","0.4","0.8","0.5777198579","0.2304237345","0.6882043704","0.08524485746","","","","","","","","","","","","","","75","K","2","","","159","main_expt","",""
"","bandit","242","861215","0.0-201.0-0.0","97929223","wem/bandit_party_2","A3PEJ2UC43Y4ZN","either","3","481","","","","","","","1","0","0","0.7253096401","","0.6","0.2","0.4","0.8","","","","","0.6777741118","0.2242026456","0.7253096401","0.07332219892","","","","","","","","","","75","K","2","","","160","main_expt","",""
"","bandit","243","863130","0.0-202.0-0.0","97929223","wem/bandit_party_2","A3PEJ2UC43Y4ZN","either","3","402","","","","","","","0","0","1","","0.6989182833","0.6","0.2","0.4","0.8","0.6249074267","0.2708915048","0.6989182833","0.1063489691","","","","","","","","","","","","","","75","K","2","","","161","main_expt","",""
"","bandit","244","865056","0.0-203.0-0.0","97929223","wem/bandit_party_2","A3PEJ2UC43Y4ZN","either","3","412","","","","","","","1","0","0","0.7679575172","","0.6","0.2","0.4","0.8","","","","","0.6755041601","0.2921592604","0.7679575172","0.09670310095","","","","","","","","","","75","K","2","","","162","main_expt","",""
"","bandit","245","866942","0.0-204.0-0.0","97929223","wem/bandit_party_2","A3PEJ2UC43Y4ZN","either","3","371","","","","","","","0","0","1","","0.6877390752","0.6","0.2","0.4","0.8","0.6461818487","0.2050535257","0.6877390752","0.1266359811","","","","","","","","","","","","","","75","K","2","","","163","main_expt","",""
"","bandit","246","868874","0.0-205.0-0.0","97929223","wem/bandit_party_2","A3PEJ2UC43Y4ZN","either","3","417","","","","","","","0","0","1","","0.6957575266","0.6","0.2","0.4","0.8","0.76368027","0.1998759094","0.6957575266","0.1212611996","","","","","","","","","","","","","","75","K","2","","","164","main_expt","",""
"","bandit","247","870759","0.0-206.0-0.0","97929223","wem/bandit_party_2","A3PEJ2UC43Y4ZN","either","3","374","","","","","","","1","0","0","0.1917887173","","0.6","0.2","0.4","0.8","","","","","0.8400099296","0.1821974317","0.6760148625","0.1917887173","","","","","","","","","","76","L","3","","","165","main_expt","",""
"","bandit","248","872632","0.0-207.0-0.0","97929223","wem/bandit_party_2","A3PEJ2UC43Y4ZN","either","3","361","","","","","","","0","0","1","0.1560613016","","0.6","0.2","0.4","0.8","","","","","0.8573275969","0.2916844583","0.6463317238","0.1560613016","","","","","","","","","","76","L","3","","","166","main_expt","",""
"","bandit","249","874522","0.0-208.0-0.0","97929223","wem/bandit_party_2","A3PEJ2UC43Y4ZN","either","3","376","","","","","","","0","0","1","0.2214887095","","0.6","0.2","0.4","0.8","","","","","0.7735369509","0.3087465624","0.5613055562","0.2214887095","","","","","","","","","","76","L","3","","","167","main_expt","",""
"","bandit","250","877224","0.0-209.0-0.0","97929223","wem/bandit_party_2","A3PEJ2UC43Y4ZN","either","3","1189","","","","","","","0","0","1","0.8091314607","","0.6","0.2","0.4","0.8","","","","","0.8091314607","0.3896626528","0.5586162784","0.3463453368","","","","","","","","","","72","H","0","img/none_selected.jpg","","168","main_expt","",""
"","bandit","251","879104","0.0-210.0-0.0","97929223","wem/bandit_party_2","A3PEJ2UC43Y4ZN","either","3","367","","","","","","","1","0","0","0.8364166478","","0.6","0.2","0.4","0.8","","","","","0.8364166478","0.4458805252","0.597448185","0.3222551453","","","","","","","","","","72","H","0","img/none_selected.jpg","","169","main_expt","",""
"","bandit","252","881031","0.0-211.0-0.0","97929223","wem/bandit_party_2","A3PEJ2UC43Y4ZN","either","3","415","","","","","","","1","0","0","0.7867883415","","0.6","0.2","0.4","0.8","","","","","0.7867883415","0.4844269655","0.5351242352","0.2556410415","","","","","","","","","","72","H","0","img/none_selected.jpg","","170","main_expt","",""
"","bandit","253","882928","0.0-212.0-0.0","97929223","wem/bandit_party_2","A3PEJ2UC43Y4ZN","either","3","383","","","","","","","1","0","0","0.8728822524","","0.6","0.2","0.4","0.8","","","","","0.8728822524","0.4858642724","0.4819966971","0.2248109201","","","","","","","","","","72","H","0","img/none_selected.jpg","","171","main_expt","",""
"","bandit","254","884865","0.0-213.0-0.0","97929223","wem/bandit_party_2","A3PEJ2UC43Y4ZN","either","3","424","","","","","","","1","0","0","0.7804912391","","0.6","0.2","0.4","0.8","","","","","0.7804912391","0.5060245996","0.4038669266","0.3468742366","","","","","","","","","","72","H","0","img/none_selected.jpg","","172","main_expt","",""
"","bandit","255","886848","0.0-214.0-0.0","97929223","wem/bandit_party_2","A3PEJ2UC43Y4ZN","either","3","468","","","","","","","0","1","0","","0.7728490534","0.6","0.2","0.4","0.8","0.7728490534","0.5413528159","0.3102533384","0.234408543","","","","","","","","","","","","","","72","H","0","img/none_selected.jpg","","173","main_expt","",""
"","bandit","256","888744","0.0-215.0-0.0","97929223","wem/bandit_party_2","A3PEJ2UC43Y4ZN","either","3","382","","","","","","","0","0","1","","0.814185781","0.6","0.2","0.4","0.8","0.814185781","0.6505326818","0.3818943333","0.1404050277","","","","","","","","","","","","","","72","H","0","img/none_selected.jpg","","174","main_expt","",""
"","bandit","257","890583","0.0-216.0-0.0","97929223","wem/bandit_party_2","A3PEJ2UC43Y4ZN","either","3","327","","","","","","","1","0","0","0.8010682597","","0.6","0.2","0.4","0.8","","","","","0.8010682597","0.6470977149","0.2893198216","0.1081611795","","","","","","","","","","72","H","0","img/none_selected.jpg","","175","main_expt","",""
"","bandit","258","892409","0.0-217.0-0.0","97929223","wem/bandit_party_2","A3PEJ2UC43Y4ZN","either","3","311","","","","","","","0","0","1","","0.7083228223","0.6","0.2","0.4","0.8","0.7083228223","0.6844229635","0.226416223","0.0730283124","","","","","","","","","","","","","","72","H","0","img/none_selected.jpg","","176","main_expt","",""
"","bandit","259","894312","0.0-218.0-0.0","97929223","wem/bandit_party_2","A3PEJ2UC43Y4ZN","either","3","389","","","","","","","0","0","1","0.7408938443","","0.6","0.2","0.4","0.8","","","","","0.7408938443","0.6883244284","0.2786676386","0.07044941978","","","","","","","","","","72","H","0","img/none_selected.jpg","","177","main_expt","",""
"","bandit","260","896256","0.0-219.0-0.0","97929223","wem/bandit_party_2","A3PEJ2UC43Y4ZN","either","3","431","","","","","","","0","0","1","","0.6098590842","0.6","0.2","0.4","0.8","0.6621187214","0.6098590842","0.2279078815","0.06886985111","","","","","","","","","","","","","","74","J","1","","","178","main_expt","",""
"","bandit","261","898177","0.0-220.0-0.0","97929223","wem/bandit_party_2","A3PEJ2UC43Y4ZN","either","3","406","","","","","","","0","0","1","0.5924449164","","0.6","0.2","0.4","0.8","","","","","0.6765487854","0.5924449164","0.1690126781","0.07254371148","","","","","","","","","","74","J","1","","","179","main_expt","",""
"","bandit","262","900087","0.0-221.0-0.0","97929223","wem/bandit_party_2","A3PEJ2UC43Y4ZN","either","3","397","","","","","","","0","0","1","","0.1356066944","0.6","0.2","0.4","0.8","0.7276027883","0.4915111467","0.1356066944","0.055057054","","","","","","","","","","","","","","75","K","2","","","180","main_expt","",""
"","bandit","263","901992","0.0-222.0-0.0","97929223","wem/bandit_party_2","A3PEJ2UC43Y4ZN","either","3","391","","","","","","","0","0","1","0.1889441784","","0.6","0.2","0.4","0.8","","","","","0.7083410305","0.4713933083","0.1889441784","0.1187845962","","","","","","","","","","75","K","2","","","181","main_expt","",""
"","bandit","264","904017","0.0-223.0-0.0","97929223","wem/bandit_party_2","A3PEJ2UC43Y4ZN","either","3","510","","","","","","","0","0","1","","0.1304227184","0.6","0.2","0.4","0.8","0.6489729838","0.500114893","0.2163976064","0.1304227184","","","","","","","","","","","","","","76","L","3","","","182","main_expt","",""
"","bandit","265","905983","0.0-224.0-0.0","97929223","wem/bandit_party_2","A3PEJ2UC43Y4ZN","either","3","453","","","","","","","1","0","0","0.1374638341","","0.6","0.2","0.4","0.8","","","","","0.6956751073","0.4949273894","0.1902524086","0.1374638341","","","","","","","","","","76","L","3","","","183","main_expt","",""
"","bandit","266","907930","0.0-225.0-0.0","97929223","wem/bandit_party_2","A3PEJ2UC43Y4ZN","either","3","432","","","","","","","0","0","1","0.1914365344","","0.6","0.2","0.4","0.8","","","","","0.6066537109","0.4271361476","0.2265805791","0.1914365344","","","","","","","","","","76","L","3","","","184","main_expt","",""
"","bandit","267","909831","0.0-226.0-0.0","97929223","wem/bandit_party_2","A3PEJ2UC43Y4ZN","either","3","388","","","","","","","0","1","0","","0.1939872458","0.6","0.2","0.4","0.8","0.6337362372","0.4558255176","0.1843452782","0.1939872458","","","","","","","","","","","","","","76","L","3","","","185","main_expt","",""
"","bandit","268","911768","0.0-227.0-0.0","97929223","wem/bandit_party_2","A3PEJ2UC43Y4ZN","either","3","422","","","","","","","1","0","0","0.2219937035","","0.6","0.2","0.4","0.8","","","","","0.5908962551","0.4031301461","0.1898387663","0.2219937035","","","","","","","","","","76","L","3","","","186","main_expt","",""
"","bandit","269","914121","0.0-228.0-0.0","97929223","wem/bandit_party_2","A3PEJ2UC43Y4ZN","either","3","837","","","","","","","0","0","1","0.2024523472","","0.6","0.2","0.4","0.8","","","","","0.7651761031","0.3993697366","0.210498268","0.2024523472","","","","","","","","","","76","L","3","","","187","main_expt","",""
"","bandit","270","916047","0.0-229.0-0.0","97929223","wem/bandit_party_2","A3PEJ2UC43Y4ZN","either","3","412","","","","","","","0","0","1","0.1930401344","","0.6","0.2","0.4","0.8","","","","","0.7928336054","0.4478687375","0.2368649008","0.1930401344","","","","","","","","","","76","L","3","","","188","main_expt","",""
"","bandit","271","918880","0.0-230.0-0.0","97929223","wem/bandit_party_2","A3PEJ2UC43Y4ZN","either","3","1320","","","","","","","1","0","0","0.8917358491","","0.6","0.2","0.4","0.8","","","","","0.8917358491","0.3699601256","0.291591963","0.3255404916","","","","","","","","","","72","H","0","img/none_selected.jpg","","189","main_expt","",""
"","bandit","272","920801","0.0-231.0-0.0","97929223","wem/bandit_party_2","A3PEJ2UC43Y4ZN","either","3","406","","","","","","","0","1","0","","0.898448025","0.6","0.2","0.4","0.8","0.898448025","0.3723251068","0.4411779124","0.2364063212","","","","","","","","","","","","","","72","H","0","img/none_selected.jpg","","190","main_expt","",""
"","bandit","273","922778","0.0-232.0-0.0","97929223","wem/bandit_party_2","A3PEJ2UC43Y4ZN","either","3","460","","","","","","","0","1","0","","0.9186708851","0.6","0.2","0.4","0.8","0.9186708851","0.3309849287","0.3968704403","0.2662767285","","","","","","","","","","","","","","72","H","0","img/none_selected.jpg","","191","main_expt","",""
"","bandit","274","924703","0.0-233.0-0.0","97929223","wem/bandit_party_2","A3PEJ2UC43Y4ZN","either","3","413","","","","","","","0","1","0","","0.9314477517","0.6","0.2","0.4","0.8","0.9314477517","0.2865625263","0.4512817608","0.2815174114","","","","","","","","","","","","","","72","H","0","img/none_selected.jpg","","192","main_expt","",""
"","bandit","275","926672","0.0-234.0-0.0","97929223","wem/bandit_party_2","A3PEJ2UC43Y4ZN","either","3","455","","","","","","","0","0","1","0.9090465067","","0.6","0.2","0.4","0.8","","","","","0.9090465067","0.2862811746","0.4788006455","0.3461293965","","","","","","","","","","72","H","0","img/none_selected.jpg","","193","main_expt","",""
"","bandit","276","928511","0.0-235.0-0.0","97929223","wem/bandit_party_2","A3PEJ2UC43Y4ZN","either","3","327","","","","","","","0","1","0","","0.8762249788","0.6","0.2","0.4","0.8","0.8762249788","0.2785288642","0.4651889587","0.3303735913","","","","","","","","","","","","","","72","H","0","img/none_selected.jpg","","194","main_expt","",""
"","bandit","277","930369","0.0-236.0-0.0","97929223","wem/bandit_party_2","A3PEJ2UC43Y4ZN","either","3","342","","","","","","","0","1","0","","0.8623185747","0.6","0.2","0.4","0.8","0.8623185747","0.2283941808","0.4718629942","0.3194565039","","","","","","","","","","","","","","72","H","0","img/none_selected.jpg","","195","main_expt","",""
"","bandit","278","932272","0.0-237.0-0.0","97929223","wem/bandit_party_2","A3PEJ2UC43Y4ZN","either","3","389","","","","","","","1","0","0","0.7745977574","","0.6","0.2","0.4","0.8","","","","","0.7745977574","0.214282227","0.3825708332","0.4103944464","","","","","","","","","","72","H","0","img/none_selected.jpg","","196","main_expt","",""
"","bandit","279","934183","0.0-238.0-0.0","97929223","wem/bandit_party_2","A3PEJ2UC43Y4ZN","either","3","398","","","","","","","1","0","0","0.7723069829","","0.6","0.2","0.4","0.8","","","","","0.7723069829","0.1422959513","0.4530864699","0.4445726534","","","","","","","","","","72","H","0","img/none_selected.jpg","","197","main_expt","",""
"","bandit","280","936103","0.0-239.0-0.0","97929223","wem/bandit_party_2","A3PEJ2UC43Y4ZN","either","3","406","","","","","","","1","0","0","0.7084082875","","0.6","0.2","0.4","0.8","","","","","0.7084082875","0.1126324943","0.4337652667","0.4351718099","","","","","","","","","","72","H","0","img/none_selected.jpg","","198","main_expt","",""
"","bandit","281","938129","0.0-240.0-0.0","97929223","wem/bandit_party_2","A3PEJ2UC43Y4ZN","either","3","510","","","","","","","1","0","0","0.7016883558","","0.6","0.2","0.4","0.8","","","","","0.7016883558","0.1144166609","0.4138332966","0.4641294157","","","","","","","","","","72","H","0","img/none_selected.jpg","","199","main_expt","",""
"","bandit","282","940170","0.0-241.0-0.0","97929223","wem/bandit_party_2","A3PEJ2UC43Y4ZN","either","3","525","","","","","","","0","0","1","0.6504384346","","0.6","0.2","0.4","0.8","","","","","0.6504384346","0.1518003708","0.5005175686","0.4468687069","","","","","","","","","","72","H","0","img/none_selected.jpg","","200","main_expt","",""
"","bandit","283","942088","0.0-242.0-0.0","97929223","wem/bandit_party_2","A3PEJ2UC43Y4ZN","either","3","402","","","","","","","0","1","0","","0.7904945102","0.6","0.2","0.4","0.8","0.7904945102","0.1974433607","0.5122642399","0.5087435212","","","","","","","","","","","","","","72","H","0","img/none_selected.jpg","","201","main_expt","",""
"","bandit","284","944038","0.0-243.0-0.0","97929223","wem/bandit_party_2","A3PEJ2UC43Y4ZN","either","3","437","","","","","","","1","0","0","0.7039472437","","0.6","0.2","0.4","0.8","","","","","0.7039472437","0.2000842809","0.5414597976","0.4992132835","","","","","","","","","","72","H","0","img/none_selected.jpg","","202","main_expt","",""
"","bandit","285","945978","0.0-244.0-0.0","97929223","wem/bandit_party_2","A3PEJ2UC43Y4ZN","either","3","424","","","","","","","0","0","1","0.7478807213","","0.6","0.2","0.4","0.8","","","","","0.7478807213","0.1715580826","0.4993649945","0.4859842053","","","","","","","","","","72","H","0","img/none_selected.jpg","","203","main_expt","",""
"","bandit","286","947887","0.0-245.0-0.0","97929223","wem/bandit_party_2","A3PEJ2UC43Y4ZN","either","3","396","","","","","","","1","0","0","0.7346150791","","0.6","0.2","0.4","0.8","","","","","0.7346150791","0.3028604286","0.4056752737","0.6162755314","","","","","","","","","","72","H","0","img/none_selected.jpg","","204","main_expt","",""
"","bandit","287","949799","0.0-246.0-0.0","97929223","wem/bandit_party_2","A3PEJ2UC43Y4ZN","either","3","398","","","","","","","0","0","1","0.7240623961","","0.6","0.2","0.4","0.8","","","","","0.7240623961","0.3714949669","0.4174768156","0.6204906845","","","","","","","","","","72","H","0","img/none_selected.jpg","","205","main_expt","",""
"","bandit","288","951680","0.0-247.0-0.0","97929223","wem/bandit_party_2","A3PEJ2UC43Y4ZN","either","3","366","","","","","","","1","0","0","0.733657826","","0.6","0.2","0.4","0.8","","","","","0.733657826","0.3034865557","0.4364097613","0.6390595606","","","","","","","","","","72","H","0","img/none_selected.jpg","","206","main_expt","",""
"","bandit","289","953657","0.0-248.0-0.0","97929223","wem/bandit_party_2","A3PEJ2UC43Y4ZN","either","3","463","","","","","","","0","0","1","","0.6797091947","0.6","0.2","0.4","0.8","0.6797091947","0.2688105372","0.4666062126","0.6022157482","","","","","","","","","","","","","","72","H","0","img/none_selected.jpg","","207","main_expt","",""
"","bandit","290","955544","0.0-249.0-0.0","97929223","wem/bandit_party_2","A3PEJ2UC43Y4ZN","either","3","372","","","","","","","1","0","0","0.472157919","","0.6","0.2","0.4","0.8","","","","","0.472157919","0.2240001326","0.4594719295","0.6598502583","","","","","","","","","","72","H","0","img/none_selected.jpg","","208","main_expt","",""
"","bandit","291","957438","0.0-250.0-0.0","97929223","wem/bandit_party_2","A3PEJ2UC43Y4ZN","either","3","381","","","","","","","0","1","0","","0.4993955773","0.6","0.2","0.4","0.8","0.4993955773","0.3284172364","0.5415101973","0.6329069529","","","","","","","","","","","","","","72","H","0","img/none_selected.jpg","","209","main_expt","",""
"","bandit","292","959321","0.0-251.0-0.0","97929223","wem/bandit_party_2","A3PEJ2UC43Y4ZN","either","3","368","","","","","","","0","0","1","0.3923888982","","0.6","0.2","0.4","0.8","","","","","0.3923888982","0.3178667136","0.5627952802","0.5418549626","","","","","","","","","","72","H","0","img/none_selected.jpg","","210","main_expt","",""
"","bandit","293","961210","0.0-252.0-0.0","97929223","wem/bandit_party_2","A3PEJ2UC43Y4ZN","either","3","373","","","","","","","0","0","1","0.4183885941","","0.6","0.2","0.4","0.8","","","","","0.4183885941","0.278360526","0.5779033475","0.7265410197","","","","","","","","","","72","H","0","img/none_selected.jpg","","211","main_expt","",""
"","bandit","294","963207","0.0-253.0-0.0","97929223","wem/bandit_party_2","A3PEJ2UC43Y4ZN","either","3","446","","","","","","","0","0","1","0.2720231684","","0.6","0.2","0.4","0.8","","","","","0.5367383083","0.2720231684","0.6169713091","0.6550819281","","","","","","","","","","74","J","1","","","212","main_expt","",""
"","bandit","295","965106","0.0-254.0-0.0","97929223","wem/bandit_party_2","A3PEJ2UC43Y4ZN","either","3","385","","","","","","","0","0","1","0.3445332441","","0.6","0.2","0.4","0.8","","","","","0.5779451767","0.3445332441","0.5688165975","0.5812500281","","","","","","","","","","74","J","1","","","213","main_expt","",""
"","bandit","296","967130","0.0-255.0-0.0","97929223","wem/bandit_party_2","A3PEJ2UC43Y4ZN","either","3","491","","","","","","","0","0","1","0.5354690829","","0.6","0.2","0.4","0.8","","","","","0.5615700258","0.331154659","0.5354690829","0.6912727382","","","","","","","","","","75","K","2","","","214","main_expt","",""
"","bandit","297","969018","0.0-256.0-0.0","97929223","wem/bandit_party_2","A3PEJ2UC43Y4ZN","either","3","374","","","","","","","0","0","1","","0.4395706401","0.6","0.2","0.4","0.8","0.5361399643","0.3168016653","0.4395706401","0.695573978","","","","","","","","","","","","","","75","K","2","","","215","main_expt","",""
"","bandit","298","970998","0.0-257.0-0.0","97929223","wem/bandit_party_2","A3PEJ2UC43Y4ZN","either","3","453","","","","","","","1","0","0","0.6531454011","","0.6","0.2","0.4","0.8","","","","","0.620750855","0.2870858596","0.4522294324","0.6531454011","","","","","","","","","","76","L","3","","","216","main_expt","",""
"","bandit","299","972946","0.0-258.0-0.0","97929223","wem/bandit_party_2","A3PEJ2UC43Y4ZN","either","3","428","","","","","","","1","0","0","0.6459690495","","0.6","0.2","0.4","0.8","","","","","0.4812239037","0.2877345098","0.4141575353","0.6459690495","","","","","","","","","","76","L","3","","","217","main_expt","",""
"","bandit","300","975040","0.0-259.0-0.0","97929223","wem/bandit_party_2","A3PEJ2UC43Y4ZN","either","3","550","","","","","","","1","0","0","0.6679944541","","0.6","0.2","0.4","0.8","","","","","0.4028497994","0.3608492067","0.3009722504","0.6679944541","","","","","","","","","","76","L","3","","","218","main_expt","",""
"","bandit","301","977013","0.0-260.0-0.0","97929223","wem/bandit_party_2","A3PEJ2UC43Y4ZN","either","3","449","","","","","","","0","0","1","0.7159195147","","0.6","0.2","0.4","0.8","","","","","0.4441021312","0.4380407461","0.2706893249","0.7159195147","","","","","","","","","","76","L","3","","","219","main_expt","",""
"","bandit","302","978938","0.0-261.0-0.0","97929223","wem/bandit_party_2","A3PEJ2UC43Y4ZN","either","3","410","","","","","","","0","1","0","","0.6874484601","0.6","0.2","0.4","0.8","0.4867825248","0.4769938592","0.3821277721","0.6874484601","","","","","","","","","","","","","","76","L","3","","","220","main_expt","",""
"","bandit","303","980933","0.0-262.0-0.0","97929223","wem/bandit_party_2","A3PEJ2UC43Y4ZN","either","3","461","","","","","","","1","0","0","0.6528128226","","0.6","0.2","0.4","0.8","","","","","0.5428062785","0.4612627877","0.4534214389","0.6528128226","","","","","","","","","","76","L","3","","","221","main_expt","",""
"","bandit","304","982923","0.0-263.0-0.0","97929223","wem/bandit_party_2","A3PEJ2UC43Y4ZN","either","3","467","","","","","","","1","0","0","0.6836467719","","0.6","0.2","0.4","0.8","","","","","0.5993321864","0.4192901336","0.6049712458","0.6836467719","","","","","","","","","","76","L","3","","","222","main_expt","",""
"","bandit","305","984834","0.0-264.0-0.0","97929223","wem/bandit_party_2","A3PEJ2UC43Y4ZN","either","3","395","","","","","","","1","0","0","0.7820879334","","0.6","0.2","0.4","0.8","","","","","0.4920604154","0.5559965486","0.6389506418","0.7820879334","","","","","","","","","","76","L","3","","","223","main_expt","",""
"","bandit","306","986752","0.0-265.0-0.0","97929223","wem/bandit_party_2","A3PEJ2UC43Y4ZN","either","3","405","","","","","","","1","0","0","0.763226653","","0.6","0.2","0.4","0.8","","","","","0.5344282052","0.6687933923","0.6677375732","0.763226653","","","","","","","","","","76","L","3","","","224","main_expt","",""
"","bandit","307","988697","0.0-266.0-0.0","97929223","wem/bandit_party_2","A3PEJ2UC43Y4ZN","either","3","429","","","","","","","1","0","0","0.6931961842","","0.6","0.2","0.4","0.8","","","","","0.5583452501","0.5954484576","0.7706853934","0.6931961842","","","","","","","","","","76","L","3","","","225","main_expt","",""
"","bandit","308","990610","0.0-267.0-0.0","97929223","wem/bandit_party_2","A3PEJ2UC43Y4ZN","either","3","399","","","","","","","0","0","1","0.6633974694","","0.6","0.2","0.4","0.8","","","","","0.5126042404","0.6152447968","0.7624197083","0.6633974694","","","","","","","","","","76","L","3","","","226","main_expt","",""
"","bandit","309","992447","0.0-268.0-0.0","97929223","wem/bandit_party_2","A3PEJ2UC43Y4ZN","either","3","322","","","","","","","1","0","0","0.6567175756","","0.6","0.2","0.4","0.8","","","","","0.5720595628","0.6597553912","0.7287840805","0.6567175756","","","","","","","","","","76","L","3","","","227","main_expt","",""
