"consent","trial_type","trial_index","time_elapsed","internal_node_id","subjID","study","MID","cond","drift","rt","responses","button_pressed","key_press","like","value","connected","gems","bombs","no_reward","GemPrChosen","BombPrChosen","GainOverPainPr_0","GainOverPainPr_1","GainOverPainPr_2","GainOverPainPr_3","LosePr_0","LosePr_1","LosePr_2","LosePr_3","WinPr_0","WinPr_1","WinPr_2","WinPr_3","Q0","Q1","Q2","gender","age","ethnicity","label","expt_phase","target","respCharCode","respKey","respChoiceNum","respChoice","practice","trial_counter","trial_label","Q0_index"
"GDM/GDM_behavioral_consent_30min_online.html","consent","0","19982","0.0-0.0","98053425","wem/bandit_party_2","A2DXDKP02YEP0V","either","1","","","","","","","","","","","","","","","","","","","","","","","","","","","","","","","","","","","","","","","","",""
"","survey-text","1","26804","0.0-1.0","98053425","wem/bandit_party_2","A2DXDKP02YEP0V","either","1","5805","{""Q0"":""A2DXDKP02YEP0V""}","","","","","","","","","","","","","","","","","","","","","","","","","","","","","","","","","","","","","","",""
"","button-response","2","29637","0.0-2.0","98053425","wem/bandit_party_2","A2DXDKP02YEP0V","either","1","1823","","0","","","","","","","","","","","","","","","","","","","","","","","","","","","","","","","","","","","","","",""
"","text-replacement","3","44740","0.0-3.0","98053425","wem/bandit_party_2","A2DXDKP02YEP0V","either","1","14096","","","32","","","","","","","","","","","","","","","","","","","","","","","","","","","","","","","","","","","","",""
"","text-replacement","4","45652","0.0-4.0","98053425","wem/bandit_party_2","A2DXDKP02YEP0V","either","1","909","","","32","","","","","","","","","","","","","","","","","","","","","","","","","","","","","","","","","","","","",""
"","identification","5","49119","0.0-6.0-0.0","98053425","wem/bandit_party_2","A2DXDKP02YEP0V","either","1","3429","","","","3","3","3","","","","","","","","","","","","","","","","","","","","","","","","pre","identification_pre","the Democratic Party","","","","","","","",""
"","identification","6","52946","0.0-6.0-1.0","98053425","wem/bandit_party_2","A2DXDKP02YEP0V","either","1","2791","","","","3","3","3","","","","","","","","","","","","","","","","","","","","","","","","pre","identification_pre","the Republican Party","","","","","","","",""
"","text-replacement","7","59879","0.0-7.0","98053425","wem/bandit_party_2","A2DXDKP02YEP0V","either","1","5927","","","32","","","","","","","","","","","","","","","","","","","","","","","","","","","","","","","","","","","","",""
"","text-replacement","8","65172","0.0-8.0","98053425","wem/bandit_party_2","A2DXDKP02YEP0V","either","1","5289","","","32","","","","","","","","","","","","","","","","","","","","","","","","","","","","","","","","","","","","",""
"","text-replacement","9","67330","0.0-9.0","98053425","wem/bandit_party_2","A2DXDKP02YEP0V","either","1","2155","","","32","","","","","","","","","","","","","","","","","","","","","","","","","","","","","","","","","","","","",""
"","text-replacement","10","71223","0.0-10.0","98053425","wem/bandit_party_2","A2DXDKP02YEP0V","either","1","3888","","","32","","","","","","","","","","","","","","","","","","","","","","","","","","","","","","","","","","","","",""
"","text-replacement","11","74218","0.0-11.0","98053425","wem/bandit_party_2","A2DXDKP02YEP0V","either","1","2991","","","32","","","","","","","","","","","","","","","","","","","","","","","","","","","","","","","","","","","","",""
"","bandit","12","76831","0.0-12.0-0.0","98053425","wem/bandit_party_2","A2DXDKP02YEP0V","either","1","1094","","","","","","","0","0","1","0","0","","","","","0","","","","0","","","","","","","","","","","","","74","J","0","img/none_selected_demo.jpg","true","0","",""
"","bandit","13","79298","0.0-13.0-0.0","98053425","wem/bandit_party_2","A2DXDKP02YEP0V","either","1","955","","","","","","","0","0","1","0","0","","","","","0","","","","0","","","","","","","","","","","","","75","K","0","img/none_selected_demo.jpg","true","0","",""
"","text-replacement","14","85747","0.0-14.0","98053425","wem/bandit_party_2","A2DXDKP02YEP0V","either","1","6446","","","32","","","","","","","","","","","","","","","","","","","","","","","","","","","","","","","","","","","","",""
"","text-replacement","15","92611","0.0-15.0","98053425","wem/bandit_party_2","A2DXDKP02YEP0V","either","1","6859","","","32","","","","","","","","","","","","","","","","","","","","","","","","","","","","","","","","","","","","",""
"","text-replacement","16","93593","0.0-16.0","98053425","wem/bandit_party_2","A2DXDKP02YEP0V","either","1","978","","","32","","","","","","","","","","","","","","","","","","","","","","","","","","","","","","","","","","","","",""
"","text-replacement","17","96514","0.0-17.0","98053425","wem/bandit_party_2","A2DXDKP02YEP0V","either","1","2917","","","32","","","","","","","","","","","","","","","","","","","","","","","","","","","","","","","","","","","","",""
"","bandit","18","98689","0.0-18.0-0.0","98053425","wem/bandit_party_2","A2DXDKP02YEP0V","either","1","666","","","","","","","0","0","1","0.2","","0.5","0.5","","","","","","","0.8","0.2","","","","","","","","","","","","75","K","1","","true","0","80_20_practice",""
"","bandit","19","100733","0.0-18.0-1.0","98053425","wem/bandit_party_2","A2DXDKP02YEP0V","either","1","536","","","","","","","1","0","0","0.8","","0.5","0.5","","","","","","","0.8","0.2","","","","","","","","","","","","74","J","0","img/none_selected_demo.jpg","true","0","80_20_practice",""
"","bandit","20","102992","0.0-18.0-2.0","98053425","wem/bandit_party_2","A2DXDKP02YEP0V","either","1","743","","","","","","","0","0","1","","0.8","0.5","0.5","","","0.8","0.2","","","","","","","","","","","","","","","","74","J","0","img/none_selected_demo.jpg","true","0","80_20_practice",""
"","bandit","21","104773","0.0-18.0-3.0","98053425","wem/bandit_party_2","A2DXDKP02YEP0V","either","1","268","","","","","","","0","0","1","0.2","","0.5","0.5","","","","","","","0.8","0.2","","","","","","","","","","","","75","K","1","","true","0","80_20_practice",""
"","bandit","22","106533","0.0-18.0-4.0","98053425","wem/bandit_party_2","A2DXDKP02YEP0V","either","1","248","","","","","","","1","0","0","0.8","","0.5","0.5","","","","","","","0.8","0.2","","","","","","","","","","","","74","J","0","img/none_selected_demo.jpg","true","0","80_20_practice",""
"","bandit","23","108806","0.0-18.0-5.0","98053425","wem/bandit_party_2","A2DXDKP02YEP0V","either","1","765","","","","","","","1","0","0","0.8","","0.5","0.5","","","","","","","0.8","0.2","","","","","","","","","","","","74","J","0","img/none_selected_demo.jpg","true","0","80_20_practice",""
"","bandit","24","111186","0.0-18.0-6.0","98053425","wem/bandit_party_2","A2DXDKP02YEP0V","either","1","862","","","","","","","1","0","0","0.8","","0.5","0.5","","","","","","","0.8","0.2","","","","","","","","","","","","74","J","0","img/none_selected_demo.jpg","true","0","80_20_practice",""
"","bandit","25","113487","0.0-18.0-7.0","98053425","wem/bandit_party_2","A2DXDKP02YEP0V","either","1","787","","","","","","","0","1","0","","0.8","0.5","0.5","","","0.8","0.2","","","","","","","","","","","","","","","","74","J","0","img/none_selected_demo.jpg","true","0","80_20_practice",""
"","bandit","26","115489","0.0-18.0-8.0","98053425","wem/bandit_party_2","A2DXDKP02YEP0V","either","1","488","","","","","","","1","0","0","0.8","","0.5","0.5","","","","","","","0.8","0.2","","","","","","","","","","","","74","J","0","img/none_selected_demo.jpg","true","0","80_20_practice",""
"","bandit","27","117262","0.0-18.0-9.0","98053425","wem/bandit_party_2","A2DXDKP02YEP0V","either","1","258","","","","","","","1","0","0","0.8","","0.5","0.5","","","","","","","0.8","0.2","","","","","","","","","","","","74","J","0","img/none_selected_demo.jpg","true","0","80_20_practice",""
"","bandit","28","119498","0.0-18.0-10.0","98053425","wem/bandit_party_2","A2DXDKP02YEP0V","either","1","721","","","","","","","0","1","0","","0.8","0.5","0.5","","","0.8","0.2","","","","","","","","","","","","","","","","74","J","0","img/none_selected_demo.jpg","true","0","80_20_practice",""
"","bandit","29","122040","0.0-18.0-11.0","98053425","wem/bandit_party_2","A2DXDKP02YEP0V","either","1","1030","","","","","","","0","1","0","","0.8","0.5","0.5","","","0.8","0.2","","","","","","","","","","","","","","","","74","J","0","img/none_selected_demo.jpg","true","0","80_20_practice",""
"","bandit","30","124761","0.0-18.0-12.0","98053425","wem/bandit_party_2","A2DXDKP02YEP0V","either","1","1206","","","","","","","0","1","0","","0.8","0.5","0.5","","","0.8","0.2","","","","","","","","","","","","","","","","74","J","0","img/none_selected_demo.jpg","true","0","80_20_practice",""
"","bandit","31","128784","0.0-18.0-13.0","98053425","wem/bandit_party_2","A2DXDKP02YEP0V","either","1","2509","","","","","","","0","1","0","","0.8","0.5","0.5","","","0.8","0.2","","","","","","","","","","","","","","","","74","J","0","img/none_selected_demo.jpg","true","0","80_20_practice",""
"","bandit","32","131386","0.0-18.0-14.0","98053425","wem/bandit_party_2","A2DXDKP02YEP0V","either","1","1092","","","","","","","0","0","1","","0.8","0.5","0.5","","","0.8","0.2","","","","","","","","","","","","","","","","74","J","0","img/none_selected_demo.jpg","true","0","80_20_practice",""
"","bandit","33","133228","0.0-18.0-15.0","98053425","wem/bandit_party_2","A2DXDKP02YEP0V","either","1","334","","","","","","","0","1","0","","0.8","0.5","0.5","","","0.8","0.2","","","","","","","","","","","","","","","","74","J","0","img/none_selected_demo.jpg","true","0","80_20_practice",""
"","bandit","34","136236","0.0-18.0-16.0","98053425","wem/bandit_party_2","A2DXDKP02YEP0V","either","1","1492","","","","","","","0","0","1","0.8","","0.5","0.5","","","","","","","0.8","0.2","","","","","","","","","","","","74","J","0","img/none_selected_demo.jpg","true","0","80_20_practice",""
"","bandit","35","138559","0.0-18.0-17.0","98053425","wem/bandit_party_2","A2DXDKP02YEP0V","either","1","809","","","","","","","1","0","0","0.8","","0.5","0.5","","","","","","","0.8","0.2","","","","","","","","","","","","74","J","0","img/none_selected_demo.jpg","true","0","80_20_practice",""
"","bandit","36","140109","0.0-18.0-18.0","98053425","wem/bandit_party_2","A2DXDKP02YEP0V","either","1","35","","","","","","","1","0","0","0.2","","0.5","0.5","","","","","","","0.8","0.2","","","","","","","","","","","","75","K","1","","true","0","80_20_practice",""
"","bandit","37","142451","0.0-18.0-19.0","98053425","wem/bandit_party_2","A2DXDKP02YEP0V","either","1","827","","","","","","","0","0","1","","0.2","0.5","0.5","","","0.8","0.2","","","","","","","","","","","","","","","","75","K","1","","true","0","80_20_practice",""
"","text-replacement","38","147863","0.0-19.0","98053425","wem/bandit_party_2","A2DXDKP02YEP0V","either","1","5407","","","32","","","","","","","","","","","","","","","","","","","","","","","","","","","","","","","","","","","","",""
"","bandit","39","149935","0.0-20.0-0.0","98053425","wem/bandit_party_2","A2DXDKP02YEP0V","either","1","553","","","","","","","1","0","0","1","0","","","","","0","1","","","1","0","","","","","","","","","","","","74","J","0","img/none_selected_demo.jpg","true","0","",""
"","text-replacement","40","153367","0.0-21.0","98053425","wem/bandit_party_2","A2DXDKP02YEP0V","either","1","3426","","","32","","","","","","","","","","","","","","","","","","","","","","","","","","","","","","","","","","","","",""
"","text-replacement","41","157096","0.0-22.0","98053425","wem/bandit_party_2","A2DXDKP02YEP0V","either","1","3725","","","32","","","","","","","","","","","","","","","","","","","","","","","","","","","","","","","","","","","","",""
"","text-replacement","42","159837","0.0-23.0","98053425","wem/bandit_party_2","A2DXDKP02YEP0V","either","1","2739","","","32","","","","","","","","","","","","","","","","","","","","","","","","","","","","","","","","","","","","",""
"","text-replacement","43","165389","0.0-24.0","98053425","wem/bandit_party_2","A2DXDKP02YEP0V","either","1","5547","","","32","","","","","","","","","","","","","","","","","","","","","","","","","","","","","","","","","","","","",""
"","text-replacement","44","166972","0.0-25.0","98053425","wem/bandit_party_2","A2DXDKP02YEP0V","either","1","1578","","","32","","","","","","","","","","","","","","","","","","","","","","","","","","","","","","","","","","","","",""
"","text-replacement","45","167617","0.0-26.0","98053425","wem/bandit_party_2","A2DXDKP02YEP0V","either","1","643","","","32","","","","","","","","","","","","","","","","","","","","","","","","","","","","","","","","","","","","",""
"","text-replacement","46","168187","0.0-27.0","98053425","wem/bandit_party_2","A2DXDKP02YEP0V","either","1","564","","","32","","","","","","","","","","","","","","","","","","","","","","","","","","","","","","","","","","","","",""
"","text-replacement","47","169388","0.0-28.0","98053425","wem/bandit_party_2","A2DXDKP02YEP0V","either","1","1197","","","32","","","","","","","","","","","","","","","","","","","","","","","","","","","","","","","","","","","","",""
"","text-replacement","48","170052","0.0-29.0","98053425","wem/bandit_party_2","A2DXDKP02YEP0V","either","1","660","","","32","","","","","","","","","","","","","","","","","","","","","","","","","","","","","","","","","","","","",""
"","text-replacement","49","171185","0.0-30.0","98053425","wem/bandit_party_2","A2DXDKP02YEP0V","either","1","1130","","","32","","","","","","","","","","","","","","","","","","","","","","","","","","","","","","","","","","","","",""
"","text-replacement","50","172809","0.0-31.0","98053425","wem/bandit_party_2","A2DXDKP02YEP0V","either","1","1620","","","32","","","","","","","","","","","","","","","","","","","","","","","","","","","","","","","","","","","","",""
"","bandit","51","174893","0.0-32.0-0.0","98053425","wem/bandit_party_2","A2DXDKP02YEP0V","either","1","572","","","","","","","0","1","0","","0.2","0.5","0.5","0.5","0.5","0.8","0.2","0.6","0.2","","","","","","","","","","","","","","74","J","1","","true","0","full_practice",""
"","bandit","52","176663","0.0-32.0-1.0","98053425","wem/bandit_party_2","A2DXDKP02YEP0V","either","1","253","","","","","","","0","0","1","0.2","","0.5","0.5","0.5","0.5","","","","","0.8","0.2","0.6","0.2","","","","","","","","","","74","J","1","","true","0","full_practice",""
"","bandit","53","178436","0.0-32.0-2.0","98053425","wem/bandit_party_2","A2DXDKP02YEP0V","either","1","260","","","","","","","0","0","1","0.6","","0.5","0.5","0.5","0.5","","","","","0.8","0.2","0.6","0.2","","","","","","","","","","75","K","2","","true","0","full_practice",""
"","bandit","54","180259","0.0-32.0-3.0","98053425","wem/bandit_party_2","A2DXDKP02YEP0V","either","1","306","","","","","","","0","0","1","","0.2","0.5","0.5","0.5","0.5","0.8","0.2","0.6","0.2","","","","","","","","","","","","","","76","L","3","","true","0","full_practice",""
"","bandit","55","182066","0.0-32.0-4.0","98053425","wem/bandit_party_2","A2DXDKP02YEP0V","either","1","294","","","","","","","1","0","0","0.8","","0.5","0.5","0.5","0.5","","","","","0.8","0.2","0.6","0.2","","","","","","","","","","72","H","0","img/none_selected.jpg","true","0","full_practice",""
"","bandit","56","183872","0.0-32.0-5.0","98053425","wem/bandit_party_2","A2DXDKP02YEP0V","either","1","292","","","","","","","0","1","0","","0.8","0.5","0.5","0.5","0.5","0.8","0.2","0.6","0.2","","","","","","","","","","","","","","72","H","0","img/none_selected.jpg","true","0","full_practice",""
"","bandit","57","185659","0.0-32.0-6.0","98053425","wem/bandit_party_2","A2DXDKP02YEP0V","either","1","274","","","","","","","1","0","0","0.8","","0.5","0.5","0.5","0.5","","","","","0.8","0.2","0.6","0.2","","","","","","","","","","72","H","0","img/none_selected.jpg","true","0","full_practice",""
"","bandit","58","187831","0.0-32.0-7.0","98053425","wem/bandit_party_2","A2DXDKP02YEP0V","either","1","657","","","","","","","1","0","0","0.8","","0.5","0.5","0.5","0.5","","","","","0.8","0.2","0.6","0.2","","","","","","","","","","72","H","0","img/none_selected.jpg","true","0","full_practice",""
"","bandit","59","189648","0.0-32.0-8.0","98053425","wem/bandit_party_2","A2DXDKP02YEP0V","either","1","303","","","","","","","1","0","0","0.8","","0.5","0.5","0.5","0.5","","","","","0.8","0.2","0.6","0.2","","","","","","","","","","72","H","0","img/none_selected.jpg","true","0","full_practice",""
"","bandit","60","191431","0.0-32.0-9.0","98053425","wem/bandit_party_2","A2DXDKP02YEP0V","either","1","265","","","","","","","0","0","1","","0.8","0.5","0.5","0.5","0.5","0.8","0.2","0.6","0.2","","","","","","","","","","","","","","72","H","0","img/none_selected.jpg","true","0","full_practice",""
"","bandit","61","192971","0.0-32.0-10.0","98053425","wem/bandit_party_2","A2DXDKP02YEP0V","either","1","26","","","","","","","0","1","0","","0.8","0.5","0.5","0.5","0.5","0.8","0.2","0.6","0.2","","","","","","","","","","","","","","72","H","0","img/none_selected.jpg","true","0","full_practice",""
"","bandit","62","194788","0.0-32.0-11.0","98053425","wem/bandit_party_2","A2DXDKP02YEP0V","either","1","301","","","","","","","0","1","0","","0.8","0.5","0.5","0.5","0.5","0.8","0.2","0.6","0.2","","","","","","","","","","","","","","72","H","0","img/none_selected.jpg","true","0","full_practice",""
"","bandit","63","196859","0.0-32.0-12.0","98053425","wem/bandit_party_2","A2DXDKP02YEP0V","either","1","557","","","","","","","0","1","0","","0.8","0.5","0.5","0.5","0.5","0.8","0.2","0.6","0.2","","","","","","","","","","","","","","72","H","0","img/none_selected.jpg","true","0","full_practice",""
"","bandit","64","198768","0.0-32.0-13.0","98053425","wem/bandit_party_2","A2DXDKP02YEP0V","either","1","392","","","","","","","1","0","0","0.8","","0.5","0.5","0.5","0.5","","","","","0.8","0.2","0.6","0.2","","","","","","","","","","72","H","0","img/none_selected.jpg","true","0","full_practice",""
"","bandit","65","200548","0.0-32.0-14.0","98053425","wem/bandit_party_2","A2DXDKP02YEP0V","either","1","262","","","","","","","0","1","0","","0.8","0.5","0.5","0.5","0.5","0.8","0.2","0.6","0.2","","","","","","","","","","","","","","72","H","0","img/none_selected.jpg","true","0","full_practice",""
"","bandit","66","203626","0.0-32.0-15.0","98053425","wem/bandit_party_2","A2DXDKP02YEP0V","either","1","1563","","","","","","","0","1","0","","0.8","0.5","0.5","0.5","0.5","0.8","0.2","0.6","0.2","","","","","","","","","","","","","","72","H","0","img/none_selected.jpg","true","0","full_practice",""
"","bandit","67","205247","0.0-32.0-16.0","98053425","wem/bandit_party_2","A2DXDKP02YEP0V","either","1","107","","","","","","","0","0","1","0.8","","0.5","0.5","0.5","0.5","","","","","0.8","0.2","0.6","0.2","","","","","","","","","","72","H","0","img/none_selected.jpg","true","0","full_practice",""
"","bandit","68","207041","0.0-32.0-17.0","98053425","wem/bandit_party_2","A2DXDKP02YEP0V","either","1","277","","","","","","","0","0","1","0.8","","0.5","0.5","0.5","0.5","","","","","0.8","0.2","0.6","0.2","","","","","","","","","","72","H","0","img/none_selected.jpg","true","0","full_practice",""
"","bandit","69","208892","0.0-32.0-18.0","98053425","wem/bandit_party_2","A2DXDKP02YEP0V","either","1","337","","","","","","","0","0","1","0.2","","0.5","0.5","0.5","0.5","","","","","0.8","0.2","0.6","0.2","","","","","","","","","","74","J","1","","true","0","full_practice",""
"","bandit","70","210722","0.0-32.0-19.0","98053425","wem/bandit_party_2","A2DXDKP02YEP0V","either","1","317","","","","","","","0","1","0","","0.8","0.5","0.5","0.5","0.5","0.8","0.2","0.6","0.2","","","","","","","","","","","","","","72","H","0","img/none_selected.jpg","true","0","full_practice",""
"","text","71","213381","0.0-33.0","98053425","wem/bandit_party_2","A2DXDKP02YEP0V","either","1","2644","","","32","","","","","","","","","","","","","","","","","","","","","","","","","","","","","","","","","","","","",""
"","text-replacement","72","226892","0.0-34.0","98053425","wem/bandit_party_2","A2DXDKP02YEP0V","either","1","12503","","","32","","","","","","","","","","","","","","","","","","","","","","","","","","","","","","","","","","","","",""
"","text-replacement","73","229570","0.0-35.0","98053425","wem/bandit_party_2","A2DXDKP02YEP0V","either","1","2669","","","32","","","","","","","","","","","","","","","","","","","","","","","","","","","","","","","","","","","","",""
"","text-replacement","74","233033","0.0-36.0","98053425","wem/bandit_party_2","A2DXDKP02YEP0V","either","1","3456","","","32","","","","","","","","","","","","","","","","","","","","","","","","","","","","","","","","","","","","",""
"","text-replacement","75","238720","0.0-37.0","98053425","wem/bandit_party_2","A2DXDKP02YEP0V","either","1","5681","","","32","","","","","","","","","","","","","","","","","","","","","","","","","","","","","","","","","","","","",""
"","text-replacement","76","240794","0.0-38.0","98053425","wem/bandit_party_2","A2DXDKP02YEP0V","either","1","2066","","","32","","","","","","","","","","","","","","","","","","","","","","","","","","","","","","","","","","","","",""
"","survey-multi-choice-replacement","77","246680","0.0-39.0-0.0","98053425","wem/bandit_party_2","A2DXDKP02YEP0V","either","1","5872","","","","","","","","","","","","","","","","","","","","","","","","Money will be added to the pool for <span style='color:red;'>REPUBLICANS</span>","","","","","","","attn_check","","","","","","","","","0"
"","survey-multi-choice-replacement","78","254507","0.0-40.0-0.0","98053425","wem/bandit_party_2","A2DXDKP02YEP0V","either","1","6803","","","","","","","","","","","","","","","","","","","","","","","","Equal amounts of money will be added to the pool for <span style='color:red;'>REPUBLICANS</span> and subtracted from the pool for <span style='color:blue;'>DEMOCRATS</span>","","","","","","","attn_check","","","","","","","","","2"
"","survey-multi-choice-replacement","79","259068","0.0-41.0-0.0","98053425","wem/bandit_party_2","A2DXDKP02YEP0V","either","1","3540","","","","","","","","","","","","","","","","","","","","","","","","No money will be added to either pool","","","","","","","attn_check","","","","","","","","","3"
"","bandit","80","264060","0.0-42.0-0.0","98053425","wem/bandit_party_2","A2DXDKP02YEP0V","either","1","2471","","","","","","","1","0","0","0.7674833066","","0.6","0.8","0.4","0.2","","","","","0.4995060561","0.7674833066","0.5202783506","0.8101107889","","","","","","","","","","74","J","1","","","1","main_expt",""
"","bandit","81","266158","0.0-43.0-0.0","98053425","wem/bandit_party_2","A2DXDKP02YEP0V","either","1","583","","","","","","","1","0","0","0.7786696111","","0.6","0.8","0.4","0.2","","","","","0.4452888422","0.7786696111","0.4559554218","0.8827976921","","","","","","","","","","74","J","1","","","2","main_expt",""
"","bandit","82","268064","0.0-44.0-0.0","98053425","wem/bandit_party_2","A2DXDKP02YEP0V","either","1","391","","","","","","","0","0","1","","0.3791335739","0.6","0.8","0.4","0.2","0.4956599627","0.7883912796","0.3791335739","0.918633781","","","","","","","","","","","","","","75","K","2","","","3","main_expt",""
"","bandit","83","269853","0.0-45.0-0.0","98053425","wem/bandit_party_2","A2DXDKP02YEP0V","either","1","271","","","","","","","0","1","0","","0.8961075186","0.6","0.8","0.4","0.2","0.3939226057","0.8311681014","0.362446662","0.8961075186","","","","","","","","","","","","","","76","L","3","","","4","main_expt",""
"","bandit","84","272568","0.0-46.0-0.0","98053425","wem/bandit_party_2","A2DXDKP02YEP0V","either","1","1197","","","","","","","1","0","0","0.4337427147","","0.6","0.8","0.4","0.2","","","","","0.4737796053","0.706748425","0.4337427147","0.9065038385","","","","","","","","","","75","K","2","","","5","main_expt",""
"","bandit","85","274466","0.0-47.0-0.0","98053425","wem/bandit_party_2","A2DXDKP02YEP0V","either","1","385","","","","","","","0","0","1","","0.4260566605","0.6","0.8","0.4","0.2","0.5798080576","0.7246132019","0.4260566605","0.9628954729","","","","","","","","","","","","","","75","K","2","","","6","main_expt",""
"","bandit","86","276392","0.0-48.0-0.0","98053425","wem/bandit_party_2","A2DXDKP02YEP0V","either","1","409","","","","","","","0","1","0","","0.6184433593","0.6","0.8","0.4","0.2","0.6184433593","0.822103072","0.5595739282","0.9244273404","","","","","","","","","","","","","","72","H","0","img/none_selected.jpg","","7","main_expt",""
"","bandit","87","278353","0.0-49.0-0.0","98053425","wem/bandit_party_2","A2DXDKP02YEP0V","either","1","447","","","","","","","1","0","0","0.5380809204","","0.6","0.8","0.4","0.2","","","","","0.5380809204","0.8176183596","0.5757792393","0.9214665689","","","","","","","","","","72","H","0","img/none_selected.jpg","","8","main_expt",""
"","bandit","88","280126","0.0-50.0-0.0","98053425","wem/bandit_party_2","A2DXDKP02YEP0V","either","1","263","","","","","","","0","0","1","0.4884558296","","0.6","0.8","0.4","0.2","","","","","0.4884558296","0.7421782695","0.5508288143","0.9604963414","","","","","","","","","","72","H","0","img/none_selected.jpg","","9","main_expt",""
"","bandit","89","281893","0.0-51.0-0.0","98053425","wem/bandit_party_2","A2DXDKP02YEP0V","either","1","243","","","","","","","0","0","1","","0.7112185725","0.6","0.8","0.4","0.2","0.6062827564","0.7112185725","0.4615344473","0.973544224","","","","","","","","","","","","","","74","J","1","","","10","main_expt",""
"","bandit","90","283720","0.0-52.0-0.0","98053425","wem/bandit_party_2","A2DXDKP02YEP0V","either","1","313","","","","","","","0","0","1","","0.4731032433","0.6","0.8","0.4","0.2","0.6618996933","0.6656122322","0.4731032433","0.9756729976","","","","","","","","","","","","","","75","K","2","","","11","main_expt",""
"","bandit","91","285512","0.0-53.0-0.0","98053425","wem/bandit_party_2","A2DXDKP02YEP0V","either","1","276","","","","","","","0","1","0","","0.9824084628","0.6","0.8","0.4","0.2","0.6589688621","0.632951522","0.5028989732","0.9824084628","","","","","","","","","","","","","","76","L","3","","","12","main_expt",""
"","bandit","92","287221","0.0-54.0-0.0","98053425","wem/bandit_party_2","A2DXDKP02YEP0V","either","1","192","","","","","","","1","0","0","0.7483501345","","0.6","0.8","0.4","0.2","","","","","0.7483501345","0.6428643634","0.5252386458","0.9852841122","","","","","","","","","","72","H","0","img/none_selected.jpg","","13","main_expt",""
"","bandit","93","289078","0.0-55.0-0.0","98053425","wem/bandit_party_2","A2DXDKP02YEP0V","either","1","343","","","","","","","0","1","0","","0.9844185579","0.6","0.8","0.4","0.2","0.7642220585","0.5693663763","0.4883642101","0.9844185579","","","","","","","","","","","","","","76","L","3","","","14","main_expt",""
"","bandit","94","290952","0.0-56.0-0.0","98053425","wem/bandit_party_2","A2DXDKP02YEP0V","either","1","359","","","","","","","0","1","0","","0.8255663415","0.6","0.8","0.4","0.2","0.8255663415","0.6354763258","0.5125695872","0.9716790186","","","","","","","","","","","","","","72","H","0","img/none_selected.jpg","","15","main_expt",""
"","bandit","95","292936","0.0-57.0-0.0","98053425","wem/bandit_party_2","A2DXDKP02YEP0V","either","1","467","","","","","","","0","1","0","","0.9724226268","0.6","0.8","0.4","0.2","0.8262734196","0.6074668868","0.483313844","0.9724226268","","","","","","","","","","","","","","76","L","3","","","16","main_expt",""
"","bandit","96","294852","0.0-58.0-0.0","98053425","wem/bandit_party_2","A2DXDKP02YEP0V","either","1","402","","","","","","","1","0","0","0.8957105494","","0.6","0.8","0.4","0.2","","","","","0.8957105494","0.634379517","0.4764119597","0.969397438","","","","","","","","","","72","H","0","img/none_selected.jpg","","17","main_expt",""
"","bandit","97","296744","0.0-59.0-0.0","98053425","wem/bandit_party_2","A2DXDKP02YEP0V","either","1","374","","","","","","","0","1","0","","0.9487821198","0.6","0.8","0.4","0.2","0.8243017832","0.7399013172","0.4742144938","0.9487821198","","","","","","","","","","","","","","76","L","3","","","18","main_expt",""
"","bandit","98","298509","0.0-60.0-0.0","98053425","wem/bandit_party_2","A2DXDKP02YEP0V","either","1","250","","","","","","","0","1","0","","0.8174393347","0.6","0.8","0.4","0.2","0.8174393347","0.6892422428","0.5445729057","0.8822386923","","","","","","","","","","","","","","72","H","0","img/none_selected.jpg","","19","main_expt",""
"","bandit","99","300197","0.0-61.0-0.0","98053425","wem/bandit_party_2","A2DXDKP02YEP0V","either","1","177","","","","","","","1","0","0","0.8658452863","","0.6","0.8","0.4","0.2","","","","","0.8457625901","0.5544472153","0.5114357523","0.8658452863","","","","","","","","","","76","L","3","","","20","main_expt",""
"","bandit","100","303012","0.0-62.0-0.0","98053425","wem/bandit_party_2","A2DXDKP02YEP0V","either","1","1299","","","","","","","0","1","0","","0.8565453533","0.6","0.8","0.4","0.2","0.8565453533","0.4705077418","0.4948626968","0.8597265301","","","","","","","","","","","","","","72","H","0","img/none_selected.jpg","","21","main_expt",""
"","bandit","101","304532","0.0-63.0-0.0","98053425","wem/bandit_party_2","A2DXDKP02YEP0V","either","1","3","","","","","","","0","1","0","","0.929530396","0.6","0.8","0.4","0.2","0.8821281293","0.5364913494","0.3750889156","0.929530396","","","","","","","","","","","","","","76","L","3","","","22","main_expt",""
"","bandit","102","306379","0.0-64.0-0.0","98053425","wem/bandit_party_2","A2DXDKP02YEP0V","either","1","329","","","","","","","0","1","0","","0.8253896901","0.6","0.8","0.4","0.2","0.8253896901","0.5450887529","0.3874093852","0.9149061772","","","","","","","","","","","","","","72","H","0","img/none_selected.jpg","","23","main_expt",""
"","bandit","103","308200","0.0-65.0-0.0","98053425","wem/bandit_party_2","A2DXDKP02YEP0V","either","1","305","","","","","","","0","1","0","","0.9389899916","0.6","0.8","0.4","0.2","0.8682133559","0.6013055931","0.4126546177","0.9389899916","","","","","","","","","","","","","","76","L","3","","","24","main_expt",""
"","bandit","104","309959","0.0-66.0-0.0","98053425","wem/bandit_party_2","A2DXDKP02YEP0V","either","1","241","","","","","","","1","0","0","0.8186134727","","0.6","0.8","0.4","0.2","","","","","0.8186134727","0.7116226269","0.3871809826","0.9583062328","","","","","","","","","","72","H","0","img/none_selected.jpg","","25","main_expt",""
"","bandit","105","311833","0.0-67.0-0.0","98053425","wem/bandit_party_2","A2DXDKP02YEP0V","either","1","357","","","","","","","1","0","0","0.9349434311","","0.6","0.8","0.4","0.2","","","","","0.841170918","0.7284905038","0.4162773602","0.9349434311","","","","","","","","","","76","L","3","","","26","main_expt",""
"","bandit","106","313646","0.0-68.0-0.0","98053425","wem/bandit_party_2","A2DXDKP02YEP0V","either","1","297","","","","","","","1","0","0","0.8332298301","","0.6","0.8","0.4","0.2","","","","","0.8332298301","0.7007901837","0.4153433109","0.9147743466","","","","","","","","","","72","H","0","img/none_selected.jpg","","27","main_expt",""
"","bandit","107","315438","0.0-69.0-0.0","98053425","wem/bandit_party_2","A2DXDKP02YEP0V","either","1","277","","","","","","","0","1","0","","0.8913744663","0.6","0.8","0.4","0.2","0.8340804883","0.7197690037","0.3083156359","0.8913744663","","","","","","","","","","","","","","76","L","3","","","28","main_expt",""
"","bandit","108","317298","0.0-70.0-0.0","98053425","wem/bandit_party_2","A2DXDKP02YEP0V","either","1","342","","","","","","","1","0","0","0.8800986549","","0.6","0.8","0.4","0.2","","","","","0.8800986549","0.7569205749","0.4048150761","0.9004815278","","","","","","","","","","72","H","0","img/none_selected.jpg","","29","main_expt",""
"","bandit","109","318841","0.0-71.0-0.0","98053425","wem/bandit_party_2","A2DXDKP02YEP0V","either","1","26","","","","","","","0","0","1","","0.8335499875","0.6","0.8","0.4","0.2","0.800988266","0.7007062976","0.5604470694","0.8335499875","","","","","","","","","","","","","","76","L","3","","","30","main_expt",""
"","bandit","110","320466","0.0-72.0-0.0","98053425","wem/bandit_party_2","A2DXDKP02YEP0V","either","1","110","","","","","","","1","0","0","0.8092707987","","0.6","0.8","0.4","0.2","","","","","0.8092707987","0.6218809145","0.5114456598","0.7904098286","","","","","","","","","","72","H","0","img/none_selected.jpg","","31","main_expt",""
"","bandit","111","322310","0.0-73.0-0.0","98053425","wem/bandit_party_2","A2DXDKP02YEP0V","either","1","325","","","","","","","0","1","0","","0.8156470634","0.6","0.8","0.4","0.2","0.7600689364","0.5448888872","0.5195843055","0.8156470634","","","","","","","","","","","","","","76","L","3","","","32","main_expt",""
"","bandit","112","324052","0.0-74.0-0.0","98053425","wem/bandit_party_2","A2DXDKP02YEP0V","either","1","226","","","","","","","1","0","0","0.7268405739","","0.6","0.8","0.4","0.2","","","","","0.7268405739","0.4396040002","0.4278216128","0.7458483223","","","","","","","","","","72","H","0","img/none_selected.jpg","","33","main_expt",""
"","bandit","113","325837","0.0-75.0-0.0","98053425","wem/bandit_party_2","A2DXDKP02YEP0V","either","1","267","","","","","","","1","0","0","0.8745519215","","0.6","0.8","0.4","0.2","","","","","0.7867385379","0.3418027302","0.4581725564","0.8745519215","","","","","","","","","","76","L","3","","","34","main_expt",""
"","bandit","114","327640","0.0-76.0-0.0","98053425","wem/bandit_party_2","A2DXDKP02YEP0V","either","1","279","","","","","","","1","0","0","0.7776722478","","0.6","0.8","0.4","0.2","","","","","0.7776722478","0.3770378826","0.5170179058","0.8761773117","","","","","","","","","","72","H","0","img/none_selected.jpg","","35","main_expt",""
"","bandit","115","329443","0.0-77.0-0.0","98053425","wem/bandit_party_2","A2DXDKP02YEP0V","either","1","284","","","","","","","0","0","1","","0.8898579413","0.6","0.8","0.4","0.2","0.8110731924","0.3264650107","0.5761285305","0.8898579413","","","","","","","","","","","","","","76","L","3","","","36","main_expt",""
"","bandit","116","331244","0.0-78.0-0.0","98053425","wem/bandit_party_2","A2DXDKP02YEP0V","either","1","283","","","","","","","0","1","0","","0.8371501114","0.6","0.8","0.4","0.2","0.8371501114","0.1696248696","0.5824592389","0.9189960073","","","","","","","","","","","","","","72","H","0","img/none_selected.jpg","","37","main_expt",""
"","bandit","117","333069","0.0-79.0-0.0","98053425","wem/bandit_party_2","A2DXDKP02YEP0V","either","1","305","","","","","","","1","0","0","0.9429067042","","0.6","0.8","0.4","0.2","","","","","0.801984358","0.3008725236","0.5039158184","0.9429067042","","","","","","","","","","76","L","3","","","38","main_expt",""
"","bandit","118","334880","0.0-80.0-0.0","98053425","wem/bandit_party_2","A2DXDKP02YEP0V","either","1","298","","","","","","","1","0","0","0.836760671","","0.6","0.8","0.4","0.2","","","","","0.836760671","0.3612597963","0.4906961915","0.8860185862","","","","","","","","","","72","H","0","img/none_selected.jpg","","39","main_expt",""
"","bandit","119","336737","0.0-81.0-0.0","98053425","wem/bandit_party_2","A2DXDKP02YEP0V","either","1","341","","","","","","","0","1","0","","0.8958725565","0.6","0.8","0.4","0.2","0.7930168878","0.3316001813","0.5118773476","0.8958725565","","","","","","","","","","","","","","76","L","3","","","40","main_expt",""
"","bandit","120","338580","0.0-82.0-0.0","98053425","wem/bandit_party_2","A2DXDKP02YEP0V","either","1","333","","","","","","","1","0","0","0.6758505439","","0.6","0.8","0.4","0.2","","","","","0.6758505439","0.251761063","0.5207000815","0.8369757826","","","","","","","","","","72","H","0","img/none_selected.jpg","","41","main_expt",""
"","bandit","121","340476","0.0-83.0-0.0","98053425","wem/bandit_party_2","A2DXDKP02YEP0V","either","1","384","","","","","","","1","0","0","0.8724413244","","0.6","0.8","0.4","0.2","","","","","0.669091732","0.3764367217","0.6208632684","0.8724413244","","","","","","","","","","76","L","3","","","42","main_expt",""
"","bandit","122","342277","0.0-84.0-0.0","98053425","wem/bandit_party_2","A2DXDKP02YEP0V","either","1","283","","","","","","","0","0","1","","0.5774386383","0.6","0.8","0.4","0.2","0.5774386383","0.4280411123","0.6736877605","0.8721156492","","","","","","","","","","","","","","72","H","0","img/none_selected.jpg","","43","main_expt",""
"","bandit","123","344107","0.0-85.0-0.0","98053425","wem/bandit_party_2","A2DXDKP02YEP0V","either","1","311","","","","","","","0","1","0","","0.874486911","0.6","0.8","0.4","0.2","0.5402750746","0.4250007774","0.6770598463","0.874486911","","","","","","","","","","","","","","76","L","3","","","44","main_expt",""
"","bandit","124","345866","0.0-86.0-0.0","98053425","wem/bandit_party_2","A2DXDKP02YEP0V","either","1","240","","","","","","","0","1","0","","0.4769525635","0.6","0.8","0.4","0.2","0.4769525635","0.3964774122","0.6811336834","0.7653026016","","","","","","","","","","","","","","72","H","0","img/none_selected.jpg","","45","main_expt",""
"","bandit","125","347475","0.0-87.0-0.0","98053425","wem/bandit_party_2","A2DXDKP02YEP0V","either","1","97","","","","","","","0","0","1","","0.6884850605","0.6","0.8","0.4","0.2","0.460739512","0.3755541509","0.7409040253","0.6884850605","","","","","","","","","","","","","","76","L","3","","","46","main_expt",""
"","bandit","126","348992","0.0-88.0-0.0","98053425","wem/bandit_party_2","A2DXDKP02YEP0V","either","1","8","","","","","","","0","0","1","0.3953603582","","0.6","0.8","0.4","0.2","","","","","0.3953603582","0.3698766084","0.8602274841","0.6869729855","","","","","","","","","","72","H","0","img/none_selected.jpg","","47","main_expt",""
"","bandit","127","351014","0.0-89.0-0.0","98053425","wem/bandit_party_2","A2DXDKP02YEP0V","either","1","510","","","","","","","0","1","0","","0.624749708","0.6","0.8","0.4","0.2","0.5194217752","0.2924141828","0.8947369126","0.624749708","","","","","","","","","","","","","","76","L","3","","","48","main_expt",""
"","bandit","128","353782","0.0-90.0-0.0","98053425","wem/bandit_party_2","A2DXDKP02YEP0V","either","1","1248","","","","","","","1","0","0","0.5015721984","","0.6","0.8","0.4","0.2","","","","","0.5015721984","0.2506794134","0.9071052574","0.6269608649","","","","","","","","","","72","H","0","img/none_selected.jpg","","49","main_expt",""
"","bandit","129","355703","0.0-91.0-0.0","98053425","wem/bandit_party_2","A2DXDKP02YEP0V","either","1","403","","","","","","","0","0","1","0.4427204185","","0.6","0.8","0.4","0.2","","","","","0.4427204185","0.2200095001","0.8569531155","0.5394470416","","","","","","","","","","72","H","0","img/none_selected.jpg","","50","main_expt",""
"","bandit","130","357472","0.0-92.0-0.0","98053425","wem/bandit_party_2","A2DXDKP02YEP0V","either","1","253","","","","","","","0","1","0","","0.4991806479","0.6","0.8","0.4","0.2","0.5194544998","0.2703780474","0.8728609703","0.4991806479","","","","","","","","","","","","","","76","L","3","","","51","main_expt",""
"","bandit","131","359821","0.0-93.0-0.0","98053425","wem/bandit_party_2","A2DXDKP02YEP0V","either","1","840","","","","","","","0","0","1","0.4420680866","","0.6","0.8","0.4","0.2","","","","","0.4420680866","0.3215640211","0.902184381","0.5431464126","","","","","","","","","","72","H","0","img/none_selected.jpg","","52","main_expt",""
"","bandit","132","361673","0.0-94.0-0.0","98053425","wem/bandit_party_2","A2DXDKP02YEP0V","either","1","331","","","","","","","0","0","1","","0.4799783957","0.6","0.8","0.4","0.2","0.5541791803","0.2918797996","0.8975054296","0.4799783957","","","","","","","","","","","","","","76","L","3","","","53","main_expt",""
"","bandit","133","363534","0.0-95.0-0.0","98053425","wem/bandit_party_2","A2DXDKP02YEP0V","either","1","347","","","","","","","0","0","1","","0.6187664305","0.6","0.8","0.4","0.2","0.6187664305","0.2432815539","0.9436546011","0.3946877269","","","","","","","","","","","","","","72","H","0","img/none_selected.jpg","","54","main_expt",""
"","bandit","134","365351","0.0-96.0-0.0","98053425","wem/bandit_party_2","A2DXDKP02YEP0V","either","1","298","","","","","","","0","1","0","","0.3892466866","0.6","0.8","0.4","0.2","0.538030076","0.1993500609","0.9411334538","0.3892466866","","","","","","","","","","","","","","76","L","3","","","55","main_expt",""
"","bandit","135","367190","0.0-97.0-0.0","98053425","wem/bandit_party_2","A2DXDKP02YEP0V","either","1","321","","","","","","","1","0","0","0.5137881872","","0.6","0.8","0.4","0.2","","","","","0.5137881872","0.1832364248","0.862285227","0.347268188","","","","","","","","","","72","H","0","img/none_selected.jpg","","56","main_expt",""
"","bandit","136","368998","0.0-98.0-0.0","98053425","wem/bandit_party_2","A2DXDKP02YEP0V","either","1","288","","","","","","","0","0","1","","0.3462231845","0.6","0.8","0.4","0.2","0.6274604021","0.1703919496","0.9034803314","0.3462231845","","","","","","","","","","","","","","76","L","3","","","57","main_expt",""
"","bandit","137","371629","0.0-99.0-0.0","98053425","wem/bandit_party_2","A2DXDKP02YEP0V","either","1","1111","","","","","","","0","0","1","0.5636132077","","0.6","0.8","0.4","0.2","","","","","0.5636132077","0.2146973212","0.9062052911","0.3707442777","","","","","","","","","","72","H","0","img/none_selected.jpg","","58","main_expt",""
"","bandit","138","373323","0.0-100.0-0.0","98053425","wem/bandit_party_2","A2DXDKP02YEP0V","either","1","175","","","","","","","0","1","0","","0.4530366532","0.6","0.8","0.4","0.2","0.6555757088","0.2118107272","0.9169546289","0.4530366532","","","","","","","","","","","","","","76","L","3","","","59","main_expt",""
"","bandit","139","375140","0.0-101.0-0.0","98053425","wem/bandit_party_2","A2DXDKP02YEP0V","either","1","296","","","","","","","1","0","0","0.6555481193","","0.6","0.8","0.4","0.2","","","","","0.6555481193","0.2096036334","0.9048679239","0.4335409142","","","","","","","","","","72","H","0","img/none_selected.jpg","","60","main_expt",""
"","bandit","140","376954","0.0-102.0-0.0","98053425","wem/bandit_party_2","A2DXDKP02YEP0V","either","1","298","","","","","","","0","0","1","","0.3601573371","0.6","0.8","0.4","0.2","0.6988977931","0.1985607356","0.9346572725","0.3601573371","","","","","","","","","","","","","","76","L","3","","","61","main_expt",""
"","bandit","141","378860","0.0-103.0-0.0","98053425","wem/bandit_party_2","A2DXDKP02YEP0V","either","1","389","","","","","","","0","0","1","","0.6124712875","0.6","0.8","0.4","0.2","0.6124712875","0.2352246004","0.9332729597","0.3187004912","","","","","","","","","","","","","","72","H","0","img/none_selected.jpg","","62","main_expt",""
"","bandit","142","380849","0.0-104.0-0.0","98053425","wem/bandit_party_2","A2DXDKP02YEP0V","either","1","468","","","","","","","0","1","0","","0.331276396","0.6","0.8","0.4","0.2","0.4881994696","0.1989126294","0.9300142507","0.331276396","","","","","","","","","","","","","","76","L","3","","","63","main_expt",""
"","bandit","143","382676","0.0-105.0-0.0","98053425","wem/bandit_party_2","A2DXDKP02YEP0V","either","1","311","","","","","","","0","0","1","0.5007509184","","0.6","0.8","0.4","0.2","","","","","0.5007509184","0.2231035509","0.8992917639","0.3984677","","","","","","","","","","72","H","0","img/none_selected.jpg","","64","main_expt",""
"","bandit","144","384464","0.0-106.0-0.0","98053425","wem/bandit_party_2","A2DXDKP02YEP0V","either","1","271","","","","","","","0","0","1","","0.3012021372","0.6","0.8","0.4","0.2","0.6077525222","0.174077904","0.7939475476","0.3012021372","","","","","","","","","","","","","","76","L","3","","","65","main_expt",""
"","bandit","145","386875","0.0-107.0-0.0","98053425","wem/bandit_party_2","A2DXDKP02YEP0V","either","1","889","","","","","","","0","0","1","","0.4876759876","0.6","0.8","0.4","0.2","0.4876759876","0.1505104035","0.7848839068","0.2848395029","","","","","","","","","","","","","","72","H","0","img/none_selected.jpg","","66","main_expt",""
"","bandit","146","391396","0.0-108.0-0.0","98053425","wem/bandit_party_2","A2DXDKP02YEP0V","either","1","3003","","","","","","","0","0","1","","0.2908363747","0.6","0.8","0.4","0.2","0.4705728971","0.1706094741","0.7712869283","0.2908363747","","","","","","","","","","","","","","76","L","3","","","67","main_expt",""
"","bandit","147","393856","0.0-109.0-0.0","98053425","wem/bandit_party_2","A2DXDKP02YEP0V","either","1","941","","","","","","","0","0","1","","0.5822594153","0.6","0.8","0.4","0.2","0.5822594153","0.193375558","0.7426915226","0.3226378352","","","","","","","","","","","","","","72","H","0","img/none_selected.jpg","","68","main_expt",""
"","bandit","148","395616","0.0-110.0-0.0","98053425","wem/bandit_party_2","A2DXDKP02YEP0V","either","1","237","","","","","","","0","0","1","","0.4490581071","0.6","0.8","0.4","0.2","0.6189715015","0.226811003","0.592712881","0.4490581071","","","","","","","","","","","","","","76","L","3","","","69","main_expt",""
"","bandit","149","397251","0.0-111.0-0.0","98053425","wem/bandit_party_2","A2DXDKP02YEP0V","either","1","116","","","","","","","1","0","0","0.5307799745","","0.6","0.8","0.4","0.2","","","","","0.5307799745","0.191142909","0.6587085967","0.42365523","","","","","","","","","","72","H","0","img/none_selected.jpg","","70","main_expt",""
"","bandit","150","399059","0.0-112.0-0.0","98053425","wem/bandit_party_2","A2DXDKP02YEP0V","either","1","297","","","","","","","0","1","0","","0.427101634","0.6","0.8","0.4","0.2","0.5205551237","0.2371486809","0.7562029562","0.427101634","","","","","","","","","","","","","","76","L","3","","","71","main_expt",""
"","bandit","151","400893","0.0-113.0-0.0","98053425","wem/bandit_party_2","A2DXDKP02YEP0V","either","1","313","","","","","","","0","1","0","","0.5913901284","0.6","0.8","0.4","0.2","0.5913901284","0.2602117984","0.670676276","0.5387899421","","","","","","","","","","","","","","72","H","0","img/none_selected.jpg","","72","main_expt",""
"","bandit","152","402840","0.0-114.0-0.0","98053425","wem/bandit_party_2","A2DXDKP02YEP0V","either","1","429","","","","","","","0","0","1","","0.4931252492","0.6","0.8","0.4","0.2","0.7127465592","0.1837165363","0.6870219419","0.4931252492","","","","","","","","","","","","","","76","L","3","","","73","main_expt",""
"","bandit","153","404712","0.0-115.0-0.0","98053425","wem/bandit_party_2","A2DXDKP02YEP0V","either","1","352","","","","","","","0","1","0","","0.7804212289","0.6","0.8","0.4","0.2","0.7804212289","0.2032334464","0.582898469","0.3888626504","","","","","","","","","","","","","","72","H","0","img/none_selected.jpg","","74","main_expt",""
"","bandit","154","406746","0.0-116.0-0.0","98053425","wem/bandit_party_2","A2DXDKP02YEP0V","either","1","512","","","","","","","0","1","0","","0.3866429177","0.6","0.8","0.4","0.2","0.7966502287","0.2782751631","0.6452442043","0.3866429177","","","","","","","","","","","","","","76","L","3","","","75","main_expt",""
"","bandit","155","408440","0.0-117.0-0.0","98053425","wem/bandit_party_2","A2DXDKP02YEP0V","either","1","176","","","","","","","1","0","0","0.7775959854","","0.6","0.8","0.4","0.2","","","","","0.7775959854","0.3318782676","0.7031137023","0.3948468247","","","","","","","","","","72","H","0","img/none_selected.jpg","","76","main_expt",""
"","bandit","156","410029","0.0-118.0-0.0","98053425","wem/bandit_party_2","A2DXDKP02YEP0V","either","1","70","","","","","","","0","1","0","","0.4853082722","0.6","0.8","0.4","0.2","0.8523583745","0.312607664","0.6096498107","0.4853082722","","","","","","","","","","","","","","76","L","3","","","77","main_expt",""
"","bandit","157","411817","0.0-119.0-0.0","98053425","wem/bandit_party_2","A2DXDKP02YEP0V","either","1","269","","","","","","","0","1","0","","0.7707034136","0.6","0.8","0.4","0.2","0.7707034136","0.3250695504","0.532302087","0.4971609959","","","","","","","","","","","","","","72","H","0","img/none_selected.jpg","","78","main_expt",""
"","bandit","158","413549","0.0-120.0-0.0","98053425","wem/bandit_party_2","A2DXDKP02YEP0V","either","1","213","","","","","","","0","1","0","","0.5349041547","0.6","0.8","0.4","0.2","0.7919080975","0.277144637","0.4448734945","0.5349041547","","","","","","","","","","","","","","76","L","3","","","79","main_expt",""
"","bandit","159","415537","0.0-121.0-0.0","98053425","wem/bandit_party_2","A2DXDKP02YEP0V","either","1","468","","","","","","","0","0","1","0.8107458935","","0.6","0.8","0.4","0.2","","","","","0.8107458935","0.293018971","0.34513516","0.4713204996","","","","","","","","","","72","H","0","img/none_selected.jpg","","80","main_expt",""
"","bandit","160","417354","0.0-122.0-0.0","98053425","wem/bandit_party_2","A2DXDKP02YEP0V","either","1","296","","","","","","","0","1","0","","0.4132476049","0.6","0.8","0.4","0.2","0.7851591746","0.2730851157","0.406584365","0.4132476049","","","","","","","","","","","","","","76","L","3","","","81","main_expt",""
"","bandit","161","419207","0.0-123.0-0.0","98053425","wem/bandit_party_2","A2DXDKP02YEP0V","either","1","333","","","","","","","0","1","0","","0.8067558171","0.6","0.8","0.4","0.2","0.8067558171","0.2436011542","0.5068312928","0.4640808921","","","","","","","","","","","","","","72","H","0","img/none_selected.jpg","","82","main_expt",""
"","bandit","162","420949","0.0-124.0-0.0","98053425","wem/bandit_party_2","A2DXDKP02YEP0V","either","1","225","","","","","","","0","0","1","","0.442115463","0.6","0.8","0.4","0.2","0.7777816444","0.2009218657","0.5209063211","0.442115463","","","","","","","","","","","","","","76","L","3","","","83","main_expt",""
"","bandit","163","422776","0.0-125.0-0.0","98053425","wem/bandit_party_2","A2DXDKP02YEP0V","either","1","316","","","","","","","1","0","0","0.7801041195","","0.6","0.8","0.4","0.2","","","","","0.7801041195","0.1550904625","0.6221591745","0.5117806844","","","","","","","","","","72","H","0","img/none_selected.jpg","","84","main_expt",""
"","bandit","164","424425","0.0-126.0-0.0","98053425","wem/bandit_party_2","A2DXDKP02YEP0V","either","1","127","","","","","","","0","1","0","","0.5309627618","0.6","0.8","0.4","0.2","0.7593249252","0.1193398435","0.6939346182","0.5309627618","","","","","","","","","","","","","","76","L","3","","","85","main_expt",""
"","bandit","165","426417","0.0-127.0-0.0","98053425","wem/bandit_party_2","A2DXDKP02YEP0V","either","1","469","","","","","","","1","0","0","0.7911667705","","0.6","0.8","0.4","0.2","","","","","0.7911667705","0.1398572341","0.7533471596","0.5482659382","","","","","","","","","","72","H","0","img/none_selected.jpg","","86","main_expt",""
"","bandit","166","428857","0.0-128.0-0.0","98053425","wem/bandit_party_2","A2DXDKP02YEP0V","either","1","919","","","","","","","0","0","1","","0.4772076429","0.6","0.8","0.4","0.2","0.8480662183","0.1941505275","0.8040573679","0.4772076429","","","","","","","","","","","","","","76","L","3","","","87","main_expt",""
"","bandit","167","431633","0.0-129.0-0.0","98053425","wem/bandit_party_2","A2DXDKP02YEP0V","either","1","1256","","","","","","","1","0","0","0.8110462569","","0.6","0.8","0.4","0.2","","","","","0.8110462569","0.09645570925","0.7800800897","0.5202977678","","","","","","","","","","72","H","0","img/none_selected.jpg","","88","main_expt",""
"","bandit","168","433822","0.0-130.0-0.0","98053425","wem/bandit_party_2","A2DXDKP02YEP0V","either","1","668","","","","","","","0","1","0","","0.4970482359","0.6","0.8","0.4","0.2","0.7924414871","0.1304326216","0.7329239748","0.4970482359","","","","","","","","","","","","","","76","L","3","","","89","main_expt",""
"","bandit","169","437720","0.0-131.0-0.0","98053425","wem/bandit_party_2","A2DXDKP02YEP0V","either","1","2378","","","","","","","1","0","0","0.8190855249","","0.6","0.8","0.4","0.2","","","","","0.8190855249","0.1410434261","0.7202813078","0.4671205494","","","","","","","","","","72","H","0","img/none_selected.jpg","","90","main_expt",""
"","bandit","170","439760","0.0-132.0-0.0","98053425","wem/bandit_party_2","A2DXDKP02YEP0V","either","1","518","","","","","","","0","0","1","","0.5518401665","0.6","0.8","0.4","0.2","0.858270253","0.1277095213","0.698586111","0.5518401665","","","","","","","","","","","","","","76","L","3","","","91","main_expt",""
"","bandit","171","441749","0.0-133.0-0.0","98053425","wem/bandit_party_2","A2DXDKP02YEP0V","either","1","467","","","","","","","0","1","0","","0.8583259383","0.6","0.8","0.4","0.2","0.8583259383","0.08596821216","0.6054304462","0.620788192","","","","","","","","","","","","","","72","H","0","img/none_selected.jpg","","92","main_expt",""
"","bandit","172","444040","0.0-134.0-0.0","98053425","wem/bandit_party_2","A2DXDKP02YEP0V","either","1","770","","","","","","","0","1","0","","0.679669404","0.6","0.8","0.4","0.2","0.8335107661","0.05652587691","0.6829204303","0.679669404","","","","","","","","","","","","","","76","L","3","","","93","main_expt",""
"","bandit","173","446387","0.0-135.0-0.0","98053425","wem/bandit_party_2","A2DXDKP02YEP0V","either","1","820","","","","","","","1","0","0","0.8849423118","","0.6","0.8","0.4","0.2","","","","","0.8849423118","0.07490457358","0.6084783934","0.6726581754","","","","","","","","","","72","H","0","img/none_selected.jpg","","94","main_expt",""
"","bandit","174","448919","0.0-136.0-0.0","98053425","wem/bandit_party_2","A2DXDKP02YEP0V","either","1","1010","","","","","","","0","1","0","","0.5983950962","0.6","0.8","0.4","0.2","0.9175662658","0.05201682933","0.51962455","0.5983950962","","","","","","","","","","","","","","76","L","3","","","95","main_expt",""
"","bandit","175","450736","0.0-137.0-0.0","98053425","wem/bandit_party_2","A2DXDKP02YEP0V","either","1","290","","","","","","","1","0","0","0.8726153548","","0.6","0.8","0.4","0.2","","","","","0.8726153548","0.0353667714","0.453067158","0.6316158747","","","","","","","","","","72","H","0","img/none_selected.jpg","","96","main_expt",""
"","bandit","176","455062","0.0-138.0-0.0","98053425","wem/bandit_party_2","A2DXDKP02YEP0V","either","1","2805","","","","","","","0","0","1","0.6660601513","","0.6","0.8","0.4","0.2","","","","","0.7260562137","0.04301306848","0.4090095009","0.6660601513","","","","","","","","","","76","L","3","","","97","main_expt",""
"","bandit","177","460393","0.0-139.0-0.0","98053425","wem/bandit_party_2","A2DXDKP02YEP0V","either","1","3809","","","","","","","0","1","0","","0.6506148609","0.6","0.8","0.4","0.2","0.6506148609","0.03950067624","0.360727585","0.6185462561","","","","","","","","","","","","","","72","H","0","img/none_selected.jpg","","98","main_expt",""
"","bandit","178","462119","0.0-140.0-0.0","98053425","wem/bandit_party_2","A2DXDKP02YEP0V","either","1","204","","","","","","","0","1","0","","0.581128502","0.6","0.8","0.4","0.2","0.5816342488","0.03156699585","0.3351327477","0.581128502","","","","","","","","","","","","","","76","L","3","","","99","main_expt",""
"","bandit","179","464148","0.0-141.0-0.0","98053425","wem/bandit_party_2","A2DXDKP02YEP0V","either","1","501","","","","","","","0","1","0","","0.5521464449","0.6","0.8","0.4","0.2","0.5521464449","0.0248161238","0.3491912274","0.479775063","","","","","","","","","","","","","","72","H","0","img/none_selected.jpg","","100","main_expt",""
"","bandit","180","466166","0.0-142.0-0.0","98053425","wem/bandit_party_2","A2DXDKP02YEP0V","either","1","500","","","","","","","0","0","1","0.5114647241","","0.6","0.8","0.4","0.2","","","","","0.6063232436","0.02218075004","0.4105375765","0.5114647241","","","","","","","","","","76","L","3","","","101","main_expt",""
"","bandit","181","468134","0.0-143.0-0.0","98053425","wem/bandit_party_2","A2DXDKP02YEP0V","either","1","449","","","","","","","1","0","0","0.5636213764","","0.6","0.8","0.4","0.2","","","","","0.5636213764","0.01802152149","0.438632671","0.4718740674","","","","","","","","","","72","H","0","img/none_selected.jpg","","102","main_expt",""
"","bandit","182","470216","0.0-144.0-0.0","98053425","wem/bandit_party_2","A2DXDKP02YEP0V","either","1","561","","","","","","","0","0","1","","0.5245129891","0.6","0.8","0.4","0.2","0.5370473259","0.01877214671","0.372838406","0.5245129891","","","","","","","","","","","","","","76","L","3","","","103","main_expt",""
"","bandit","183","472516","0.0-145.0-0.0","98053425","wem/bandit_party_2","A2DXDKP02YEP0V","either","1","774","","","","","","","1","0","0","0.549647281","","0.6","0.8","0.4","0.2","","","","","0.549647281","0.01556743346","0.3057692375","0.5170751474","","","","","","","","","","72","H","0","img/none_selected.jpg","","104","main_expt",""
"","bandit","184","474517","0.0-146.0-0.0","98053425","wem/bandit_party_2","A2DXDKP02YEP0V","either","1","486","","","","","","","0","0","1","","0.472330124","0.6","0.8","0.4","0.2","0.4225976111","0.03717147126","0.37369274","0.472330124","","","","","","","","","","","","","","76","L","3","","","105","main_expt",""
"","bandit","185","476385","0.0-147.0-0.0","98053425","wem/bandit_party_2","A2DXDKP02YEP0V","either","1","346","","","","","","","0","0","1","0.5005163425","","0.6","0.8","0.4","0.2","","","","","0.5005163425","0.07687033395","0.3179799449","0.568133852","","","","","","","","","","72","H","0","img/none_selected.jpg","","106","main_expt",""
"","bandit","186","478308","0.0-148.0-0.0","98053425","wem/bandit_party_2","A2DXDKP02YEP0V","either","1","403","","","","","","","1","0","0","0.536018559","","0.6","0.8","0.4","0.2","","","","","0.3995396385","0.07659049968","0.3053765494","0.536018559","","","","","","","","","","76","L","3","","","107","main_expt",""
"","bandit","187","480204","0.0-149.0-0.0","98053425","wem/bandit_party_2","A2DXDKP02YEP0V","either","1","374","","","","","","","0","0","1","0.3855926336","","0.6","0.8","0.4","0.2","","","","","0.3855926336","0.07827602418","0.2732860947","0.3880888981","","","","","","","","","","72","H","0","img/none_selected.jpg","","108","main_expt",""
"","bandit","188","481992","0.0-150.0-0.0","98053425","wem/bandit_party_2","A2DXDKP02YEP0V","either","1","265","","","","","","","0","0","1","","0.3675045314","0.6","0.8","0.4","0.2","0.3059937163","0.1352418701","0.2624197952","0.3675045314","","","","","","","","","","","","","","76","L","3","","","109","main_expt",""
"","bandit","189","483821","0.0-151.0-0.0","98053425","wem/bandit_party_2","A2DXDKP02YEP0V","either","1","302","","","","","","","0","0","1","0.2752892785","","0.6","0.8","0.4","0.2","","","","","0.2752892785","0.1705666919","0.3303210632","0.4560700489","","","","","","","","","","72","H","0","img/none_selected.jpg","","110","main_expt",""
"","bandit","190","485614","0.0-152.0-0.0","98053425","wem/bandit_party_2","A2DXDKP02YEP0V","either","1","268","","","","","","","0","1","0","","0.5366389876","0.6","0.8","0.4","0.2","0.3038626008","0.2202970635","0.3541452024","0.5366389876","","","","","","","","","","","","","","76","L","3","","","111","main_expt",""
"","bandit","191","487206","0.0-153.0-0.0","98053425","wem/bandit_party_2","A2DXDKP02YEP0V","either","1","71","","","","","","","1","0","0","0.2308866464","","0.6","0.8","0.4","0.2","","","","","0.2308866464","0.2368742277","0.4468573219","0.5742054707","","","","","","","","","","72","H","0","img/none_selected.jpg","","112","main_expt",""
"","bandit","192","488789","0.0-154.0-0.0","98053425","wem/bandit_party_2","A2DXDKP02YEP0V","either","1","71","","","","","","","0","0","1","","0.6014260319","0.6","0.8","0.4","0.2","0.2420052043","0.2487241586","0.5163231944","0.6014260319","","","","","","","","","","","","","","76","L","3","","","113","main_expt",""
"","bandit","193","490314","0.0-155.0-0.0","98053425","wem/bandit_party_2","A2DXDKP02YEP0V","either","1","2","","","","","","","0","0","1","0.3277817495","","0.6","0.8","0.4","0.2","","","","","0.3277817495","0.238824581","0.4064640458","0.5398035654","","","","","","","","","","72","H","0","img/none_selected.jpg","","114","main_expt",""
"","bandit","194","492112","0.0-156.0-0.0","98053425","wem/bandit_party_2","A2DXDKP02YEP0V","either","1","275","","","","","","","0","1","0","","0.5008208772","0.6","0.8","0.4","0.2","0.3280884562","0.1480638281","0.4085425191","0.5008208772","","","","","","","","","","","","","","76","L","3","","","115","main_expt",""
"","bandit","195","493649","0.0-157.0-0.0","98053425","wem/bandit_party_2","A2DXDKP02YEP0V","either","1","10","","","","","","","0","0","1","","0.4137256642","0.6","0.8","0.4","0.2","0.4137256642","0.1246447603","0.4412864427","0.4200837231","","","","","","","","","","","","","","72","H","0","img/none_selected.jpg","","116","main_expt",""
"","bandit","196","495610","0.0-158.0-0.0","98053425","wem/bandit_party_2","A2DXDKP02YEP0V","either","1","438","","","","","","","0","0","1","0.4094987027","","0.6","0.8","0.4","0.2","","","","","0.372751341","0.1308085784","0.5188885271","0.4094987027","","","","","","","","","","76","L","3","","","117","main_expt",""
"","bandit","197","497395","0.0-159.0-0.0","98053425","wem/bandit_party_2","A2DXDKP02YEP0V","either","1","262","","","","","","","0","0","1","0.09076242324","","0.6","0.8","0.4","0.2","","","","","0.4225631273","0.09076242324","0.5728151575","0.3862907493","","","","","","","","","","74","J","1","","","118","main_expt",""
"","bandit","198","499012","0.0-160.0-0.0","98053425","wem/bandit_party_2","A2DXDKP02YEP0V","either","1","103","","","","","","","0","0","1","","0.5065624602","0.6","0.8","0.4","0.2","0.4188482812","0.09057925276","0.5065624602","0.4437318585","","","","","","","","","","","","","","75","K","2","","","119","main_expt",""
"","bandit","199","500926","0.0-161.0-0.0","98053425","wem/bandit_party_2","A2DXDKP02YEP0V","either","1","388","","","","","","","0","0","1","0.3729077829","","0.6","0.8","0.4","0.2","","","","","0.3729077829","0.1288926122","0.4064427813","0.293469011","","","","","","","","","","72","H","0","img/none_selected.jpg","","120","main_expt",""
"","bandit","200","502748","0.0-162.0-0.0","98053425","wem/bandit_party_2","A2DXDKP02YEP0V","either","1","294","","","","","","","0","0","1","0.1479701512","","0.6","0.8","0.4","0.2","","","","","0.3817262037","0.1479701512","0.3948988447","0.2141601759","","","","","","","","","","74","J","1","","","121","main_expt",""
"","bandit","201","504466","0.0-163.0-0.0","98053425","wem/bandit_party_2","A2DXDKP02YEP0V","either","1","196","","","","","","","0","0","1","0.316823658","","0.6","0.8","0.4","0.2","","","","","0.3537210734","0.1663524813","0.316823658","0.2594293103","","","","","","","","","","75","K","2","","","122","main_expt",""
"","bandit","202","507406","0.0-164.0-0.0","98053425","wem/bandit_party_2","A2DXDKP02YEP0V","either","1","1418","","","","","","","0","1","0","","0.3045978244","0.6","0.8","0.4","0.2","0.3633727708","0.1993917655","0.3045978244","0.1519240937","","","","","","","","","","","","","","75","K","2","","","123","main_expt",""
"","bandit","203","509306","0.0-165.0-0.0","98053425","wem/bandit_party_2","A2DXDKP02YEP0V","either","1","376","","","","","","","0","0","1","0.2311656533","","0.6","0.8","0.4","0.2","","","","","0.4139908316","0.2948689786","0.2389028675","0.2311656533","","","","","","","","","","76","L","3","","","124","main_expt",""
"","bandit","204","511244","0.0-166.0-0.0","98053425","wem/bandit_party_2","A2DXDKP02YEP0V","either","1","420","","","","","","","0","0","1","0.4054398129","","0.6","0.8","0.4","0.2","","","","","0.3619800754","0.4054398129","0.2166803268","0.1956748967","","","","","","","","","","74","J","1","","","125","main_expt",""
"","bandit","205","513170","0.0-167.0-0.0","98053425","wem/bandit_party_2","A2DXDKP02YEP0V","either","1","415","","","","","","","0","0","1","","0.1613674106","0.6","0.8","0.4","0.2","0.353362548","0.5337661481","0.1613674106","0.1419383156","","","","","","","","","","","","","","75","K","2","","","126","main_expt",""
"","bandit","206","515018","0.0-168.0-0.0","98053425","wem/bandit_party_2","A2DXDKP02YEP0V","either","1","337","","","","","","","1","0","0","0.2888217425","","0.6","0.8","0.4","0.2","","","","","0.2888217425","0.5510518781","0.1682412955","0.1768105291","","","","","","","","","","72","H","0","img/none_selected.jpg","","127","main_expt",""
"","bandit","207","516834","0.0-169.0-0.0","98053425","wem/bandit_party_2","A2DXDKP02YEP0V","either","1","300","","","","","","","0","0","1","","0.1187699492","0.6","0.8","0.4","0.2","0.3131893798","0.4746642732","0.1655910943","0.1187699492","","","","","","","","","","","","","","76","L","3","","","128","main_expt",""
"","bandit","208","518802","0.0-170.0-0.0","98053425","wem/bandit_party_2","A2DXDKP02YEP0V","either","1","449","","","","","","","0","0","1","","0.1860330609","0.6","0.8","0.4","0.2","0.2826861836","0.5345142674","0.1845506081","0.1860330609","","","","","","","","","","","","","","76","L","3","","","129","main_expt",""
"","bandit","209","520473","0.0-171.0-0.0","98053425","wem/bandit_party_2","A2DXDKP02YEP0V","either","1","160","","","","","","","0","0","1","0.3434973012","","0.6","0.8","0.4","0.2","","","","","0.3434973012","0.6617219445","0.1548240476","0.09722607165","","","","","","","","","","72","H","0","img/none_selected.jpg","","130","main_expt",""
"","bandit","210","521999","0.0-172.0-0.0","98053425","wem/bandit_party_2","A2DXDKP02YEP0V","either","1","2","","","","","","","0","0","1","","0.05626421391","0.6","0.8","0.4","0.2","0.3848082556","0.6183560712","0.1503989","0.05626421391","","","","","","","","","","","","","","76","L","3","","","131","main_expt",""
"","bandit","211","523749","0.0-173.0-0.0","98053425","wem/bandit_party_2","A2DXDKP02YEP0V","either","1","221","","","","","","","0","0","1","0.4140069858","","0.6","0.8","0.4","0.2","","","","","0.4140069858","0.7009512511","0.1199593994","0.1149854728","","","","","","","","","","72","H","0","img/none_selected.jpg","","132","main_expt",""
"","bandit","212","525543","0.0-174.0-0.0","98053425","wem/bandit_party_2","A2DXDKP02YEP0V","either","1","274","","","","","","","0","1","0","","0.1698175541","0.6","0.8","0.4","0.2","0.3745017877","0.5838974895","0.1518383839","0.1698175541","","","","","","","","","","","","","","76","L","3","","","133","main_expt",""
"","bandit","213","527318","0.0-175.0-0.0","98053425","wem/bandit_party_2","A2DXDKP02YEP0V","either","1","253","","","","","","","1","0","0","0.3918835711","","0.6","0.8","0.4","0.2","","","","","0.3918835711","0.6628563986","0.1855528241","0.1925371395","","","","","","","","","","72","H","0","img/none_selected.jpg","","134","main_expt",""
"","bandit","214","529160","0.0-176.0-0.0","98053425","wem/bandit_party_2","A2DXDKP02YEP0V","either","1","325","","","","","","","0","0","1","0.246136332","","0.6","0.8","0.4","0.2","","","","","0.3405764209","0.5610912218","0.2187769305","0.246136332","","","","","","","","","","76","L","3","","","135","main_expt",""
"","bandit","215","530916","0.0-177.0-0.0","98053425","wem/bandit_party_2","A2DXDKP02YEP0V","either","1","232","","","","","","","1","0","0","0.4155430462","","0.6","0.8","0.4","0.2","","","","","0.4155430462","0.4834649218","0.2001534018","0.2277518718","","","","","","","","","","72","H","0","img/none_selected.jpg","","136","main_expt",""
"","bandit","216","532561","0.0-178.0-0.0","98053425","wem/bandit_party_2","A2DXDKP02YEP0V","either","1","117","","","","","","","0","0","1","","0.252962458","0.6","0.8","0.4","0.2","0.3389252929","0.513072369","0.176995917","0.252962458","","","","","","","","","","","","","","76","L","3","","","137","main_expt",""
"","bandit","217","534355","0.0-179.0-0.0","98053425","wem/bandit_party_2","A2DXDKP02YEP0V","either","1","280","","","","","","","0","0","1","0.2698753193","","0.6","0.8","0.4","0.2","","","","","0.2698753193","0.5502636267","0.1460019238","0.3018696236","","","","","","","","","","72","H","0","img/none_selected.jpg","","138","main_expt",""
"","bandit","218","536081","0.0-180.0-0.0","98053425","wem/bandit_party_2","A2DXDKP02YEP0V","either","1","206","","","","","","","0","0","1","","0.347353107","0.6","0.8","0.4","0.2","0.2821570394","0.4564922144","0.06707115951","0.347353107","","","","","","","","","","","","","","76","L","3","","","139","main_expt",""
"","bandit","219","537962","0.0-181.0-0.0","98053425","wem/bandit_party_2","A2DXDKP02YEP0V","either","1","359","","","","","","","0","0","1","","0.3577533322","0.6","0.8","0.4","0.2","0.3577533322","0.4116013625","0.1071331831","0.2477375586","","","","","","","","","","","","","","72","H","0","img/none_selected.jpg","","140","main_expt",""
"","bandit","220","539767","0.0-182.0-0.0","98053425","wem/bandit_party_2","A2DXDKP02YEP0V","either","1","280","","","","","","","0","1","0","","0.2880826197","0.6","0.8","0.4","0.2","0.4250900652","0.4498847811","0.1224459691","0.2880826197","","","","","","","","","","","","","","76","L","3","","","141","main_expt",""
"","bandit","221","541603","0.0-183.0-0.0","98053425","wem/bandit_party_2","A2DXDKP02YEP0V","either","1","312","","","","","","","0","0","1","0.3451055681","","0.6","0.8","0.4","0.2","","","","","0.3451055681","0.4822150968","0.1127900777","0.2287108423","","","","","","","","","","72","H","0","img/none_selected.jpg","","142","main_expt",""
"","bandit","222","543421","0.0-184.0-0.0","98053425","wem/bandit_party_2","A2DXDKP02YEP0V","either","1","297","","","","","","","0","0","1","0.2096850542","","0.6","0.8","0.4","0.2","","","","","0.4661026996","0.513506041","0.1736101882","0.2096850542","","","","","","","","","","76","L","3","","","143","main_expt",""
"","bandit","223","545313","0.0-185.0-0.0","98053425","wem/bandit_party_2","A2DXDKP02YEP0V","either","1","370","","","","","","","0","0","1","0.4683168179","","0.6","0.8","0.4","0.2","","","","","0.4683168179","0.556822441","0.1231714597","0.2214165798","","","","","","","","","","72","H","0","img/none_selected.jpg","","144","main_expt",""
"","bandit","224","547224","0.0-186.0-0.0","98053425","wem/bandit_party_2","A2DXDKP02YEP0V","either","1","387","","","","","","","0","0","1","","0.2412424024","0.6","0.8","0.4","0.2","0.448697065","0.5633269006","0.10514291","0.2412424024","","","","","","","","","","","","","","76","L","3","","","145","main_expt",""
"","bandit","225","549042","0.0-187.0-0.0","98053425","wem/bandit_party_2","A2DXDKP02YEP0V","either","1","296","","","","","","","0","0","1","0.4560677512","","0.6","0.8","0.4","0.2","","","","","0.4560677512","0.6482805244","0.0972381369","0.1841611904","","","","","","","","","","72","H","0","img/none_selected.jpg","","146","main_expt",""
"","bandit","226","551124","0.0-188.0-0.0","98053425","wem/bandit_party_2","A2DXDKP02YEP0V","either","1","556","","","","","","","0","0","1","","0.1577922033","0.6","0.8","0.4","0.2","0.513472809","0.6036290043","0.1897119627","0.1577922033","","","","","","","","","","","","","","76","L","3","","","147","main_expt",""
"","bandit","227","552657","0.0-189.0-0.0","98053425","wem/bandit_party_2","A2DXDKP02YEP0V","either","1","6","","","","","","","1","0","0","0.3820674583","","0.6","0.8","0.4","0.2","","","","","0.3820674583","0.6110248825","0.1759094881","0.1663963597","","","","","","","","","","72","H","0","img/none_selected.jpg","","148","main_expt",""
"","bandit","228","554404","0.0-190.0-0.0","98053425","wem/bandit_party_2","A2DXDKP02YEP0V","either","1","223","","","","","","","0","0","1","","0.319747154","0.6","0.8","0.4","0.2","0.3116557105","0.6453676348","0.2204336569","0.319747154","","","","","","","","","","","","","","76","L","3","","","149","main_expt",""
"","bandit","229","556410","0.0-191.0-0.0","98053425","wem/bandit_party_2","A2DXDKP02YEP0V","either","1","482","","","","","","","0","0","1","0.3039338698","","0.6","0.8","0.4","0.2","","","","","0.3039338698","0.66235511","0.2328853871","0.5410110608","","","","","","","","","","72","H","0","img/none_selected.jpg","","150","main_expt",""
"","bandit","230","558629","0.0-192.0-0.0","98053425","wem/bandit_party_2","A2DXDKP02YEP0V","either","1","697","","","","","","","0","0","1","","0.5584745132","0.6","0.8","0.4","0.2","0.3092958796","0.5547575852","0.2652525627","0.5584745132","","","","","","","","","","","","","","76","L","3","","","151","main_expt",""
"","bandit","231","560541","0.0-193.0-0.0","98053425","wem/bandit_party_2","A2DXDKP02YEP0V","either","1","388","","","","","","","0","0","1","","0.3097370874","0.6","0.8","0.4","0.2","0.3097370874","0.5223098228","0.2654363334","0.5709378499","","","","","","","","","","","","","","72","H","0","img/none_selected.jpg","","152","main_expt",""
"","bandit","232","562169","0.0-194.0-0.0","98053425","wem/bandit_party_2","A2DXDKP02YEP0V","either","1","106","","","","","","","1","0","0","0.6314515046","","0.6","0.8","0.4","0.2","","","","","0.2955649657","0.5137303037","0.3505589273","0.6314515046","","","","","","","","","","76","L","3","","","153","main_expt",""
"","bandit","233","563946","0.0-195.0-0.0","98053425","wem/bandit_party_2","A2DXDKP02YEP0V","either","1","263","","","","","","","0","0","1","0.221553637","","0.6","0.8","0.4","0.2","","","","","0.221553637","0.5193194566","0.39889796","0.6734276465","","","","","","","","","","72","H","0","img/none_selected.jpg","","154","main_expt",""
"","bandit","234","565927","0.0-196.0-0.0","98053425","wem/bandit_party_2","A2DXDKP02YEP0V","either","1","463","","","","","","","0","1","0","","0.7019144477","0.6","0.8","0.4","0.2","0.2231547498","0.4736812385","0.4202606707","0.7019144477","","","","","","","","","","","","","","76","L","3","","","155","main_expt",""
"","bandit","235","567863","0.0-197.0-0.0","98053425","wem/bandit_party_2","A2DXDKP02YEP0V","either","1","412","","","","","","","0","0","1","0.2750957943","","0.6","0.8","0.4","0.2","","","","","0.2750957943","0.4616442501","0.4814159609","0.6695455193","","","","","","","","","","72","H","0","img/none_selected.jpg","","156","main_expt",""
"","bandit","236","570188","0.0-198.0-0.0","98053425","wem/bandit_party_2","A2DXDKP02YEP0V","either","1","802","","","","","","","0","0","1","","0.6179864128","0.6","0.8","0.4","0.2","0.2005793054","0.5025740222","0.5316807058","0.6179864128","","","","","","","","","","","","","","76","L","3","","","157","main_expt",""
"","bandit","237","571991","0.0-199.0-0.0","98053425","wem/bandit_party_2","A2DXDKP02YEP0V","either","1","279","","","","","","","0","1","0","","0.2502080146","0.6","0.8","0.4","0.2","0.2502080146","0.4548105643","0.5429668589","0.7380689997","","","","","","","","","","","","","","72","H","0","img/none_selected.jpg","","158","main_expt",""
"","bandit","238","573778","0.0-200.0-0.0","98053425","wem/bandit_party_2","A2DXDKP02YEP0V","either","1","263","","","","","","","0","1","0","","0.7632184112","0.6","0.8","0.4","0.2","0.2729805177","0.4622667215","0.5991419929","0.7632184112","","","","","","","","","","","","","","76","L","3","","","159","main_expt",""
"","bandit","239","575605","0.0-201.0-0.0","98053425","wem/bandit_party_2","A2DXDKP02YEP0V","either","1","298","","","","","","","0","0","1","0.2801697818","","0.6","0.8","0.4","0.2","","","","","0.2801697818","0.4600517474","0.6480894682","0.6917664031","","","","","","","","","","72","H","0","img/none_selected.jpg","","160","main_expt",""
"","bandit","240","578535","0.0-202.0-0.0","98053425","wem/bandit_party_2","A2DXDKP02YEP0V","either","1","1410","","","","","","","0","1","0","","0.7106531984","0.6","0.8","0.4","0.2","0.2437938608","0.481388234","0.6776161973","0.7106531984","","","","","","","","","","","","","","76","L","3","","","161","main_expt",""
"","bandit","241","580383","0.0-203.0-0.0","98053425","wem/bandit_party_2","A2DXDKP02YEP0V","either","1","336","","","","","","","0","0","1","0.2687553501","","0.6","0.8","0.4","0.2","","","","","0.2687553501","0.3850106192","0.7134031715","0.809310282","","","","","","","","","","72","H","0","img/none_selected.jpg","","162","main_expt",""
"","bandit","242","581924","0.0-204.0-0.0","98053425","wem/bandit_party_2","A2DXDKP02YEP0V","either","1","16","","","","","","","0","1","0","","0.7492875705","0.6","0.8","0.4","0.2","0.245991677","0.3498723973","0.6215635068","0.7492875705","","","","","","","","","","","","","","76","L","3","","","163","main_expt",""
"","bandit","243","583810","0.0-205.0-0.0","98053425","wem/bandit_party_2","A2DXDKP02YEP0V","either","1","359","","","","","","","0","0","1","0.270385563","","0.6","0.8","0.4","0.2","","","","","0.270385563","0.4287417444","0.5219240024","0.7561394707","","","","","","","","","","72","H","0","img/none_selected.jpg","","164","main_expt",""
"","bandit","244","585390","0.0-206.0-0.0","98053425","wem/bandit_party_2","A2DXDKP02YEP0V","either","1","57","","","","","","","0","1","0","","0.8111415702","0.6","0.8","0.4","0.2","0.3037855967","0.3150145745","0.4727302842","0.8111415702","","","","","","","","","","","","","","76","L","3","","","165","main_expt",""
"","bandit","245","587270","0.0-207.0-0.0","98053425","wem/bandit_party_2","A2DXDKP02YEP0V","either","1","366","","","","","","","0","0","1","0.3395577104","","0.6","0.8","0.4","0.2","","","","","0.3395577104","0.2927018344","0.5181018645","0.7759938205","","","","","","","","","","72","H","0","img/none_selected.jpg","","166","main_expt",""
"","bandit","246","588918","0.0-208.0-0.0","98053425","wem/bandit_party_2","A2DXDKP02YEP0V","either","1","123","","","","","","","0","1","0","","0.8267633335","0.6","0.8","0.4","0.2","0.3443901906","0.3610256338","0.5280433419","0.8267633335","","","","","","","","","","","","","","76","L","3","","","167","main_expt",""
"","bandit","247","590746","0.0-209.0-0.0","98053425","wem/bandit_party_2","A2DXDKP02YEP0V","either","1","295","","","","","","","0","0","1","0.2552323567","","0.6","0.8","0.4","0.2","","","","","0.2552323567","0.3137127159","0.5470010145","0.8136073627","","","","","","","","","","72","H","0","img/none_selected.jpg","","168","main_expt",""
"","bandit","248","592471","0.0-210.0-0.0","98053425","wem/bandit_party_2","A2DXDKP02YEP0V","either","1","202","","","","","","","0","1","0","","0.7308533614","0.6","0.8","0.4","0.2","0.289352286","0.2292796242","0.5558845962","0.7308533614","","","","","","","","","","","","","","76","L","3","","","169","main_expt",""
"","bandit","249","594289","0.0-211.0-0.0","98053425","wem/bandit_party_2","A2DXDKP02YEP0V","either","1","292","","","","","","","0","0","1","0.2262743404","","0.6","0.8","0.4","0.2","","","","","0.2262743404","0.221948569","0.5799309324","0.7090730391","","","","","","","","","","72","H","0","img/none_selected.jpg","","170","main_expt",""
"","bandit","250","595973","0.0-212.0-0.0","98053425","wem/bandit_party_2","A2DXDKP02YEP0V","either","1","162","","","","","","","0","1","0","","0.7229684446","0.6","0.8","0.4","0.2","0.2644351609","0.159615594","0.6643953266","0.7229684446","","","","","","","","","","","","","","76","L","3","","","171","main_expt",""
"","bandit","251","597799","0.0-213.0-0.0","98053425","wem/bandit_party_2","A2DXDKP02YEP0V","either","1","300","","","","","","","0","1","0","","0.6612043244","0.6","0.8","0.4","0.2","0.4136296373","0.1303854457","0.7610666705","0.6612043244","","","","","","","","","","","","","","76","L","3","","","172","main_expt",""
"","bandit","252","599650","0.0-214.0-0.0","98053425","wem/bandit_party_2","A2DXDKP02YEP0V","either","1","324","","","","","","","0","1","0","","0.7669021743","0.6","0.8","0.4","0.2","0.491318492","0.07729024622","0.8006149786","0.7669021743","","","","","","","","","","","","","","76","L","3","","","173","main_expt",""
"","bandit","253","601287","0.0-215.0-0.0","98053425","wem/bandit_party_2","A2DXDKP02YEP0V","either","1","111","","","","","","","0","1","0","","0.8111867287","0.6","0.8","0.4","0.2","0.4966763124","0.1227026474","0.791095403","0.8111867287","","","","","","","","","","","","","","76","L","3","","","174","main_expt",""
"","bandit","254","603025","0.0-216.0-0.0","98053425","wem/bandit_party_2","A2DXDKP02YEP0V","either","1","212","","","","","","","0","1","0","","0.8192498968","0.6","0.8","0.4","0.2","0.5109350621","0.09483306355","0.8572088762","0.8192498968","","","","","","","","","","","","","","76","L","3","","","175","main_expt",""
"","bandit","255","604793","0.0-217.0-0.0","98053425","wem/bandit_party_2","A2DXDKP02YEP0V","either","1","251","","","","","","","0","1","0","","0.8371283275","0.6","0.8","0.4","0.2","0.6321295754","0.143069758","0.8576080684","0.8371283275","","","","","","","","","","","","","","76","L","3","","","176","main_expt",""
"","bandit","256","606642","0.0-218.0-0.0","98053425","wem/bandit_party_2","A2DXDKP02YEP0V","either","1","327","","","","","","","0","1","0","","0.8545140947","0.6","0.8","0.4","0.2","0.5515755996","0.1741656422","0.8678158231","0.8545140947","","","","","","","","","","","","","","76","L","3","","","177","main_expt",""
"","bandit","257","609297","0.0-219.0-0.0","98053425","wem/bandit_party_2","A2DXDKP02YEP0V","either","1","1129","","","","","","","0","1","0","","0.8794893657","0.6","0.8","0.4","0.2","0.5086275016","0.1904086474","0.8820542777","0.8794893657","","","","","","","","","","","","","","76","L","3","","","178","main_expt",""
"","bandit","258","611235","0.0-220.0-0.0","98053425","wem/bandit_party_2","A2DXDKP02YEP0V","either","1","411","","","","","","","0","1","0","","0.8939587296","0.6","0.8","0.4","0.2","0.5215192908","0.1778905233","0.8907334788","0.8939587296","","","","","","","","","","","","","","76","L","3","","","179","main_expt",""
"","bandit","259","612761","0.0-221.0-0.0","98053425","wem/bandit_party_2","A2DXDKP02YEP0V","either","1","0","","","","","","","0","1","0","","0.868077767","0.6","0.8","0.4","0.2","0.5193414217","0.2112817454","0.9161653667","0.868077767","","","","","","","","","","","","","","76","L","3","","","180","main_expt",""
"","bandit","260","614608","0.0-222.0-0.0","98053425","wem/bandit_party_2","A2DXDKP02YEP0V","either","1","323","","","","","","","1","0","0","0.9295405476","","0.6","0.8","0.4","0.2","","","","","0.4613460131","0.2236312472","0.9327112184","0.9295405476","","","","","","","","","","76","L","3","","","181","main_expt",""
"","bandit","261","617119","0.0-223.0-0.0","98053425","wem/bandit_party_2","A2DXDKP02YEP0V","either","1","979","","","","","","","0","1","0","","0.9213574857","0.6","0.8","0.4","0.2","0.4468633868","0.264467441","0.9284398706","0.9213574857","","","","","","","","","","","","","","76","L","3","","","182","main_expt",""
"","bandit","262","619923","0.0-224.0-0.0","98053425","wem/bandit_party_2","A2DXDKP02YEP0V","either","1","1267","","","","","","","0","1","0","","0.9374560388","0.6","0.8","0.4","0.2","0.4985091709","0.2240632979","0.89591471","0.9374560388","","","","","","","","","","","","","","76","L","3","","","183","main_expt",""
"","bandit","263","622113","0.0-225.0-0.0","98053425","wem/bandit_party_2","A2DXDKP02YEP0V","either","1","657","","","","","","","0","1","0","","0.9120054929","0.6","0.8","0.4","0.2","0.6057575335","0.1671404848","0.9146434193","0.9120054929","","","","","","","","","","","","","","76","L","3","","","184","main_expt",""
"","bandit","264","624153","0.0-226.0-0.0","98053425","wem/bandit_party_2","A2DXDKP02YEP0V","either","1","514","","","","","","","0","0","1","","0.8428471033","0.6","0.8","0.4","0.2","0.4915456485","0.1932257563","0.8575823977","0.8428471033","","","","","","","","","","","","","","76","L","3","","","185","main_expt",""
"","bandit","265","626239","0.0-227.0-0.0","98053425","wem/bandit_party_2","A2DXDKP02YEP0V","either","1","574","","","","","","","0","0","1","","0.7734335662","0.6","0.8","0.4","0.2","0.5976273718","0.155472597","0.8487952361","0.7734335662","","","","","","","","","","","","","","76","L","3","","","186","main_expt",""
"","bandit","266","628224","0.0-228.0-0.0","98053425","wem/bandit_party_2","A2DXDKP02YEP0V","either","1","471","","","","","","","0","1","0","","0.7667319261","0.6","0.8","0.4","0.2","0.5743595779","0.1895871356","0.8603972339","0.7667319261","","","","","","","","","","","","","","76","L","3","","","187","main_expt",""
"","bandit","267","631235","0.0-229.0-0.0","98053425","wem/bandit_party_2","A2DXDKP02YEP0V","either","1","1485","","","","","","","0","1","0","","0.5945875292","0.6","0.8","0.4","0.2","0.6833173747","0.2119556673","0.8834510925","0.5945875292","","","","","","","","","","","","","","76","L","3","","","188","main_expt",""
"","bandit","268","634034","0.0-230.0-0.0","98053425","wem/bandit_party_2","A2DXDKP02YEP0V","either","1","1272","","","","","","","1","0","0","0.7406569186","","0.6","0.8","0.4","0.2","","","","","0.651089354","0.2255007403","0.8973947779","0.7406569186","","","","","","","","","","76","L","3","","","189","main_expt",""
"","bandit","269","635699","0.0-231.0-0.0","98053425","wem/bandit_party_2","A2DXDKP02YEP0V","either","1","136","","","","","","","0","1","0","","0.7371931777","0.6","0.8","0.4","0.2","0.6599652607","0.1754842532","0.8824587855","0.7371931777","","","","","","","","","","","","","","76","L","3","","","190","main_expt",""
"","bandit","270","637970","0.0-232.0-0.0","98053425","wem/bandit_party_2","A2DXDKP02YEP0V","either","1","745","","","","","","","0","1","0","","0.7019705866","0.6","0.8","0.4","0.2","0.6960236584","0.1936311571","0.9076431997","0.7019705866","","","","","","","","","","","","","","76","L","3","","","191","main_expt",""
"","bandit","271","676980","0.0-233.0-0.0","98053425","wem/bandit_party_2","A2DXDKP02YEP0V","either","1","37497","","","","","","","0","1","0","","0.6198122665","0.6","0.8","0.4","0.2","0.6713911156","0.215612591","0.8673165995","0.6198122665","","","","","","","","","","","","","","76","L","3","","","192","main_expt",""
"","bandit","272","678974","0.0-234.0-0.0","98053425","wem/bandit_party_2","A2DXDKP02YEP0V","either","1","461","","","","","","","0","1","0","","0.6100930929","0.6","0.8","0.4","0.2","0.7244072205","0.2818734505","0.8264401474","0.6100930929","","","","","","","","","","","","","","76","L","3","","","193","main_expt",""
"","bandit","273","681138","0.0-235.0-0.0","98053425","wem/bandit_party_2","A2DXDKP02YEP0V","either","1","635","","","","","","","0","1","0","","0.6332739585","0.6","0.8","0.4","0.2","0.7397798508","0.3616108755","0.8546086414","0.6332739585","","","","","","","","","","","","","","76","L","3","","","194","main_expt",""
"","bandit","274","683448","0.0-236.0-0.0","98053425","wem/bandit_party_2","A2DXDKP02YEP0V","either","1","795","","","","","","","0","1","0","","0.609207161","0.6","0.8","0.4","0.2","0.7602069811","0.3979961615","0.7914914872","0.609207161","","","","","","","","","","","","","","76","L","3","","","195","main_expt",""
"","bandit","275","685609","0.0-237.0-0.0","98053425","wem/bandit_party_2","A2DXDKP02YEP0V","either","1","634","","","","","","","0","1","0","","0.6560649547","0.6","0.8","0.4","0.2","0.7114092524","0.4366641927","0.7608346536","0.6560649547","","","","","","","","","","","","","","76","L","3","","","196","main_expt",""
"","bandit","276","687781","0.0-238.0-0.0","98053425","wem/bandit_party_2","A2DXDKP02YEP0V","either","1","643","","","","","","","0","0","1","","0.6656533059","0.6","0.8","0.4","0.2","0.6917424169","0.560782874","0.7003784325","0.6656533059","","","","","","","","","","","","","","76","L","3","","","197","main_expt",""
"","bandit","277","689722","0.0-239.0-0.0","98053425","wem/bandit_party_2","A2DXDKP02YEP0V","either","1","413","","","","","","","0","1","0","","0.6841747727","0.6","0.8","0.4","0.2","0.6561069913","0.5649388288","0.6036075577","0.6841747727","","","","","","","","","","","","","","76","L","3","","","198","main_expt",""
"","bandit","278","691695","0.0-240.0-0.0","98053425","wem/bandit_party_2","A2DXDKP02YEP0V","either","1","445","","","","","","","0","0","1","0.7105065455","","0.6","0.8","0.4","0.2","","","","","0.6948346643","0.5375892324","0.5843314555","0.7105065455","","","","","","","","","","76","L","3","","","199","main_expt",""
"","bandit","279","693251","0.0-241.0-0.0","98053425","wem/bandit_party_2","A2DXDKP02YEP0V","either","1","33","","","","","","","0","1","0","","0.7380433654","0.6","0.8","0.4","0.2","0.7369743936","0.5625167851","0.539414212","0.7380433654","","","","","","","","","","","","","","76","L","3","","","200","main_expt",""
"","bandit","280","695170","0.0-242.0-0.0","98053425","wem/bandit_party_2","A2DXDKP02YEP0V","either","1","395","","","","","","","0","1","0","","0.6432951689","0.6","0.8","0.4","0.2","0.8347268415","0.6266810217","0.3774065742","0.6432951689","","","","","","","","","","","","","","76","L","3","","","201","main_expt",""
"","bandit","281","697195","0.0-243.0-0.0","98053425","wem/bandit_party_2","A2DXDKP02YEP0V","either","1","498","","","","","","","0","0","1","","0.4995879772","0.6","0.8","0.4","0.2","0.7612264534","0.6661075828","0.2824615609","0.4995879772","","","","","","","","","","","","","","76","L","3","","","202","main_expt",""
"","bandit","282","699143","0.0-244.0-0.0","98053425","wem/bandit_party_2","A2DXDKP02YEP0V","either","1","431","","","","","","","0","0","1","","0.4767352753","0.6","0.8","0.4","0.2","0.6904596671","0.7534099026","0.210170224","0.4767352753","","","","","","","","","","","","","","76","L","3","","","203","main_expt",""
"","bandit","283","701187","0.0-245.0-0.0","98053425","wem/bandit_party_2","A2DXDKP02YEP0V","either","1","525","","","","","","","0","1","0","","0.3680612217","0.6","0.8","0.4","0.2","0.6855485072","0.7033522103","0.2708138581","0.3680612217","","","","","","","","","","","","","","76","L","3","","","204","main_expt",""
"","bandit","284","702898","0.0-246.0-0.0","98053425","wem/bandit_party_2","A2DXDKP02YEP0V","either","1","184","","","","","","","0","0","1","","0.3404512965","0.6","0.8","0.4","0.2","0.7006332368","0.6105989365","0.3319820794","0.3404512965","","","","","","","","","","","","","","76","L","3","","","205","main_expt",""
"","bandit","285","704756","0.0-247.0-0.0","98053425","wem/bandit_party_2","A2DXDKP02YEP0V","either","1","331","","","","","","","0","0","1","","0.2774568564","0.6","0.8","0.4","0.2","0.7533130943","0.725137222","0.3517339603","0.2774568564","","","","","","","","","","","","","","76","L","3","","","206","main_expt",""
"","bandit","286","706408","0.0-248.0-0.0","98053425","wem/bandit_party_2","A2DXDKP02YEP0V","either","1","125","","","","","","","0","0","1","","0.2228883469","0.6","0.8","0.4","0.2","0.7191760557","0.5888984072","0.2871079035","0.2228883469","","","","","","","","","","","","","","76","L","3","","","207","main_expt",""
"","bandit","287","708167","0.0-249.0-0.0","98053425","wem/bandit_party_2","A2DXDKP02YEP0V","either","1","231","","","","","","","0","1","0","","0.2829247412","0.6","0.8","0.4","0.2","0.6264293856","0.4650323514","0.2642306377","0.2829247412","","","","","","","","","","","","","","76","L","3","","","208","main_expt",""
"","bandit","288","709794","0.0-250.0-0.0","98053425","wem/bandit_party_2","A2DXDKP02YEP0V","either","1","98","","","","","","","0","0","1","","0.3169104167","0.6","0.8","0.4","0.2","0.6500478562","0.4100719568","0.3587725811","0.3169104167","","","","","","","","","","","","","","76","L","3","","","209","main_expt",""
"","bandit","289","712195","0.0-251.0-0.0","98053425","wem/bandit_party_2","A2DXDKP02YEP0V","either","1","875","","","","","","","1","0","0","0.6498865343","","0.6","0.8","0.4","0.2","","","","","0.6498865343","0.5177296744","0.3103342645","0.2090062306","","","","","","","","","","72","H","0","img/none_selected.jpg","","210","main_expt",""
"","bandit","290","714081","0.0-252.0-0.0","98053425","wem/bandit_party_2","A2DXDKP02YEP0V","either","1","367","","","","","","","0","0","1","0.6056301442","","0.6","0.8","0.4","0.2","","","","","0.6056301442","0.5950812693","0.3760595068","0.1481662818","","","","","","","","","","72","H","0","img/none_selected.jpg","","211","main_expt",""
"","bandit","291","715985","0.0-253.0-0.0","98053425","wem/bandit_party_2","A2DXDKP02YEP0V","either","1","376","","","","","","","0","1","0","","0.7169745983","0.6","0.8","0.4","0.2","0.5524844402","0.7169745983","0.447023013","0.2114888193","","","","","","","","","","","","","","74","J","1","","","212","main_expt",""
"","bandit","292","717777","0.0-254.0-0.0","98053425","wem/bandit_party_2","A2DXDKP02YEP0V","either","1","263","","","","","","","1","0","0","0.6766124197","","0.6","0.8","0.4","0.2","","","","","0.6984249358","0.6766124197","0.4529182837","0.2234642754","","","","","","","","","","74","J","1","","","213","main_expt",""
"","bandit","293","719800","0.0-255.0-0.0","98053425","wem/bandit_party_2","A2DXDKP02YEP0V","either","1","495","","","","","","","0","1","0","","0.8005648136","0.6","0.8","0.4","0.2","0.5996975418","0.8005648136","0.4306534983","0.2315139555","","","","","","","","","","","","","","74","J","1","","","214","main_expt",""
"","bandit","294","721677","0.0-256.0-0.0","98053425","wem/bandit_party_2","A2DXDKP02YEP0V","either","1","350","","","","","","","1","0","0","0.8487964291","","0.6","0.8","0.4","0.2","","","","","0.6067129047","0.8487964291","0.4314469479","0.1949488974","","","","","","","","","","74","J","1","","","215","main_expt",""
"","bandit","295","723607","0.0-257.0-0.0","98053425","wem/bandit_party_2","A2DXDKP02YEP0V","either","1","400","","","","","","","1","0","0","0.8674123454","","0.6","0.8","0.4","0.2","","","","","0.6297976658","0.8674123454","0.45439575","0.2333303883","","","","","","","","","","74","J","1","","","216","main_expt",""
"","bandit","296","725437","0.0-258.0-0.0","98053425","wem/bandit_party_2","A2DXDKP02YEP0V","either","1","300","","","","","","","0","0","1","","0.8774404243","0.6","0.8","0.4","0.2","0.6095272491","0.8774404243","0.5228861726","0.2027763819","","","","","","","","","","","","","","74","J","1","","","217","main_expt",""
"","bandit","297","727167","0.0-259.0-0.0","98053425","wem/bandit_party_2","A2DXDKP02YEP0V","either","1","203","","","","","","","0","1","0","","0.8836448068","0.6","0.8","0.4","0.2","0.7058099393","0.8836448068","0.463703458","0.1895874514","","","","","","","","","","","","","","74","J","1","","","218","main_expt",""
"","bandit","298","729018","0.0-260.0-0.0","98053425","wem/bandit_party_2","A2DXDKP02YEP0V","either","1","337","","","","","","","0","1","0","","0.880498508","0.6","0.8","0.4","0.2","0.7396246451","0.880498508","0.4522864467","0.1537120117","","","","","","","","","","","","","","74","J","1","","","219","main_expt",""
"","bandit","299","730943","0.0-261.0-0.0","98053425","wem/bandit_party_2","A2DXDKP02YEP0V","either","1","397","","","","","","","0","1","0","","0.8740874997","0.6","0.8","0.4","0.2","0.7091968036","0.8740874997","0.4561576612","0.2022747423","","","","","","","","","","","","","","74","J","1","","","220","main_expt",""
"","bandit","300","732934","0.0-262.0-0.0","98053425","wem/bandit_party_2","A2DXDKP02YEP0V","either","1","471","","","","","","","0","0","1","0.8527830905","","0.6","0.8","0.4","0.2","","","","","0.7116308873","0.8527830905","0.4264657168","0.3174413427","","","","","","","","","","74","J","1","","","221","main_expt",""
"","bandit","301","734784","0.0-263.0-0.0","98053425","wem/bandit_party_2","A2DXDKP02YEP0V","either","1","319","","","","","","","0","0","1","","0.3055141729","0.6","0.8","0.4","0.2","0.769465391","0.7717907476","0.3055141729","0.2315667073","","","","","","","","","","","","","","75","K","2","","","222","main_expt",""
"","bandit","302","736438","0.0-264.0-0.0","98053425","wem/bandit_party_2","A2DXDKP02YEP0V","either","1","132","","","","","","","1","0","0","0.8359700354","","0.6","0.8","0.4","0.2","","","","","0.7509006974","0.8359700354","0.2868954791","0.2261006122","","","","","","","","","","74","J","1","","","223","main_expt",""
"","bandit","303","738248","0.0-265.0-0.0","98053425","wem/bandit_party_2","A2DXDKP02YEP0V","either","1","281","","","","","","","1","0","0","0.819670806","","0.6","0.8","0.4","0.2","","","","","0.7007688409","0.819670806","0.2698185242","0.2662378096","","","","","","","","","","74","J","1","","","224","main_expt",""
"","bandit","304","740111","0.0-266.0-0.0","98053425","wem/bandit_party_2","A2DXDKP02YEP0V","either","1","335","","","","","","","1","0","0","0.8512382749","","0.6","0.8","0.4","0.2","","","","","0.7409020096","0.8512382749","0.213842325","0.2163280173","","","","","","","","","","74","J","1","","","225","main_expt",""
"","bandit","305","741663","0.0-267.0-0.0","98053425","wem/bandit_party_2","A2DXDKP02YEP0V","either","1","23","","","","","","","1","0","0","0.8342861847","","0.6","0.8","0.4","0.2","","","","","0.7052945704","0.8342861847","0.1616408491","0.2809353625","","","","","","","","","","74","J","1","","","226","main_expt",""
"","bandit","306","744378","0.0-268.0-0.0","98053425","wem/bandit_party_2","A2DXDKP02YEP0V","either","1","1186","","","","","","","1","0","0","0.7736041865","","0.6","0.8","0.4","0.2","","","","","0.606091252","0.7736041865","0.1777599287","0.2396571279","","","","","","","","","","74","J","1","","","227","main_expt",""
"","bandit","307","746397","0.0-269.0-0.0","98053425","wem/bandit_party_2","A2DXDKP02YEP0V","either","1","490","","","","","","","0","0","1","0.8094350608","","0.6","0.8","0.4","0.2","","","","","0.5834203199","0.8094350608","0.2866543064","0.3430446928","","","","","","","","","","74","J","1","","","228","main_expt",""
"","bandit","308","748229","0.0-270.0-0.0","98053425","wem/bandit_party_2","A2DXDKP02YEP0V","either","1","299","","","","","","","0","0","1","0.8078722129","","0.6","0.8","0.4","0.2","","","","","0.5466214007","0.8078722129","0.3948293382","0.2886233194","","","","","","","","","","74","J","1","","","229","main_expt",""
"","bandit","309","750255","0.0-271.0-0.0","98053425","wem/bandit_party_2","A2DXDKP02YEP0V","either","1","497","","","","","","","1","0","0","0.7719043616","","0.6","0.8","0.4","0.2","","","","","0.5519014059","0.7719043616","0.3291786684","0.3213731463","","","","","","","","","","74","J","1","","","230","main_expt",""
"","bandit","310","752225","0.0-272.0-0.0","98053425","wem/bandit_party_2","A2DXDKP02YEP0V","either","1","442","","","","","","","1","0","0","0.8049264475","","0.6","0.8","0.4","0.2","","","","","0.4527164215","0.8049264475","0.2378236032","0.2771614906","","","","","","","","","","74","J","1","","","231","main_expt",""
"","bandit","311","754406","0.0-273.0-0.0","98053425","wem/bandit_party_2","A2DXDKP02YEP0V","either","1","661","","","","","","","1","0","0","0.8850589997","","0.6","0.8","0.4","0.2","","","","","0.5135082398","0.8850589997","0.246393804","0.2249105956","","","","","","","","","","74","J","1","","","232","main_expt",""
"","bandit","312","756283","0.0-274.0-0.0","98053425","wem/bandit_party_2","A2DXDKP02YEP0V","either","1","337","","","","","","","0","1","0","","0.9183615156","0.6","0.8","0.4","0.2","0.5502454751","0.9183615156","0.2141634692","0.2447973041","","","","","","","","","","","","","","74","J","1","","","233","main_expt",""
"","bandit","313","758335","0.0-275.0-0.0","98053425","wem/bandit_party_2","A2DXDKP02YEP0V","either","1","532","","","","","","","0","1","0","","0.9639410842","0.6","0.8","0.4","0.2","0.3783923662","0.9639410842","0.2876436191","0.24601643","","","","","","","","","","","","","","74","J","1","","","234","main_expt",""
"","bandit","314","760550","0.0-276.0-0.0","98053425","wem/bandit_party_2","A2DXDKP02YEP0V","either","1","692","","","","","","","1","0","0","0.9697187448","","0.6","0.8","0.4","0.2","","","","","0.2814299379","0.9697187448","0.2769077257","0.1629844561","","","","","","","","","","74","J","1","","","235","main_expt",""
