"consent","trial_type","trial_index","time_elapsed","internal_node_id","subjID","study","MID","cond","drift","rt","responses","button_pressed","key_press","like","value","connected","gems","bombs","no_reward","GemPrChosen","BombPrChosen","GainOverPainPr_0","GainOverPainPr_1","GainOverPainPr_2","GainOverPainPr_3","LosePr_0","LosePr_1","LosePr_2","LosePr_3","WinPr_0","WinPr_1","WinPr_2","WinPr_3","Q0","Q1","Q2","gender","age","ethnicity","label","expt_phase","target","respCharCode","respKey","respChoiceNum","respChoice","practice","trial_counter","trial_label","Q0_index"
"GDM/GDM_behavioral_consent_30min_online.html","consent","0","15678","0.0-0.0","98854899","wem/bandit_party_2","A2RXPK0UN2O745","either","8","","","","","","","","","","","","","","","","","","","","","","","","","","","","","","","","","","","","","","","","",""
"","survey-text","1","21632","0.0-1.0","98854899","wem/bandit_party_2","A2RXPK0UN2O745","either","8","4935","{""Q0"":""A2RXPK0UN2O745""}","","","","","","","","","","","","","","","","","","","","","","","","","","","","","","","","","","","","","","",""
"","button-response","2","24044","0.0-2.0","98854899","wem/bandit_party_2","A2RXPK0UN2O745","either","8","1408","","0","","","","","","","","","","","","","","","","","","","","","","","","","","","","","","","","","","","","","",""
"","text-replacement","3","34308","0.0-3.0","98854899","wem/bandit_party_2","A2RXPK0UN2O745","either","8","9247","","","32","","","","","","","","","","","","","","","","","","","","","","","","","","","","","","","","","","","","",""
"","text-replacement","4","52124","0.0-4.0","98854899","wem/bandit_party_2","A2RXPK0UN2O745","either","8","17814","","","32","","","","","","","","","","","","","","","","","","","","","","","","","","","","","","","","","","","","",""
"","identification","5","63566","0.0-6.0-0.0","98854899","wem/bandit_party_2","A2RXPK0UN2O745","either","8","11424","","","","5","5","3","","","","","","","","","","","","","","","","","","","","","","","","pre","identification_pre","the Republican Party","","","","","","","",""
"","identification","6","68350","0.0-6.0-1.0","98854899","wem/bandit_party_2","A2RXPK0UN2O745","either","8","3767","","","","0","0","0","","","","","","","","","","","","","","","","","","","","","","","","pre","identification_pre","the Democratic Party","","","","","","","",""
"","text-replacement","7","76420","0.0-7.0","98854899","wem/bandit_party_2","A2RXPK0UN2O745","either","8","7067","","","32","","","","","","","","","","","","","","","","","","","","","","","","","","","","","","","","","","","","",""
"","text-replacement","8","87252","0.0-8.0","98854899","wem/bandit_party_2","A2RXPK0UN2O745","either","8","10830","","","32","","","","","","","","","","","","","","","","","","","","","","","","","","","","","","","","","","","","",""
"","text-replacement","9","98933","0.0-9.0","98854899","wem/bandit_party_2","A2RXPK0UN2O745","either","8","11679","","","32","","","","","","","","","","","","","","","","","","","","","","","","","","","","","","","","","","","","",""
"","text-replacement","10","102827","0.0-10.0","98854899","wem/bandit_party_2","A2RXPK0UN2O745","either","8","3891","","","32","","","","","","","","","","","","","","","","","","","","","","","","","","","","","","","","","","","","",""
"","text-replacement","11","107203","0.0-11.0","98854899","wem/bandit_party_2","A2RXPK0UN2O745","either","8","4374","","","32","","","","","","","","","","","","","","","","","","","","","","","","","","","","","","","","","","","","",""
"","bandit","12","112381","0.0-12.0-0.0","98854899","wem/bandit_party_2","A2RXPK0UN2O745","either","8","3612","","","","","","","0","0","1","0","0","","","","","0","","","","0","","","","","","","","","","","","","74","J","0","img/none_selected_demo.jpg","true","0","",""
"","bandit","13","115114","0.0-13.0-0.0","98854899","wem/bandit_party_2","A2RXPK0UN2O745","either","8","1228","","","","","","","0","0","1","0","0","","","","","0","","","","0","","","","","","","","","","","","","75","K","0","img/none_selected_demo.jpg","true","0","",""
"","text-replacement","14","119748","0.0-14.0","98854899","wem/bandit_party_2","A2RXPK0UN2O745","either","8","4631","","","32","","","","","","","","","","","","","","","","","","","","","","","","","","","","","","","","","","","","",""
"","text-replacement","15","125564","0.0-15.0","98854899","wem/bandit_party_2","A2RXPK0UN2O745","either","8","5814","","","32","","","","","","","","","","","","","","","","","","","","","","","","","","","","","","","","","","","","",""
"","text-replacement","16","132636","0.0-16.0","98854899","wem/bandit_party_2","A2RXPK0UN2O745","either","8","7070","","","32","","","","","","","","","","","","","","","","","","","","","","","","","","","","","","","","","","","","",""
"","text-replacement","17","137651","0.0-17.0","98854899","wem/bandit_party_2","A2RXPK0UN2O745","either","8","5013","","","32","","","","","","","","","","","","","","","","","","","","","","","","","","","","","","","","","","","","",""
"","bandit","18","140481","0.0-18.0-0.0","98854899","wem/bandit_party_2","A2RXPK0UN2O745","either","8","1236","","","","","","","0","0","1","","0.2","0.5","0.5","","","0.8","0.2","","","","","","","","","","","","","","","","75","K","1","","true","0","80_20_practice",""
"","bandit","19","143350","0.0-18.0-1.0","98854899","wem/bandit_party_2","A2RXPK0UN2O745","either","8","1327","","","","","","","1","0","0","0.8","","0.5","0.5","","","","","","","0.8","0.2","","","","","","","","","","","","74","J","0","img/none_selected_demo.jpg","true","0","80_20_practice",""
"","bandit","20","145377","0.0-18.0-2.0","98854899","wem/bandit_party_2","A2RXPK0UN2O745","either","8","521","","","","","","","1","0","0","0.8","","0.5","0.5","","","","","","","0.8","0.2","","","","","","","","","","","","74","J","0","img/none_selected_demo.jpg","true","0","80_20_practice",""
"","bandit","21","147537","0.0-18.0-3.0","98854899","wem/bandit_party_2","A2RXPK0UN2O745","either","8","656","","","","","","","0","1","0","","0.8","0.5","0.5","","","0.8","0.2","","","","","","","","","","","","","","","","74","J","0","img/none_selected_demo.jpg","true","0","80_20_practice",""
"","bandit","22","150948","0.0-18.0-4.0","98854899","wem/bandit_party_2","A2RXPK0UN2O745","either","8","1906","","","","","","","0","0","1","","0.8","0.5","0.5","","","0.8","0.2","","","","","","","","","","","","","","","","74","J","0","img/none_selected_demo.jpg","true","0","80_20_practice",""
"","bandit","23","153344","0.0-18.0-5.0","98854899","wem/bandit_party_2","A2RXPK0UN2O745","either","8","812","","","","","","","0","0","1","0.8","","0.5","0.5","","","","","","","0.8","0.2","","","","","","","","","","","","74","J","0","img/none_selected_demo.jpg","true","0","80_20_practice",""
"","bandit","24","155200","0.0-18.0-6.0","98854899","wem/bandit_party_2","A2RXPK0UN2O745","either","8","352","","","","","","","0","0","1","","0.2","0.5","0.5","","","0.8","0.2","","","","","","","","","","","","","","","","75","K","1","","true","0","80_20_practice",""
"","bandit","25","158178","0.0-18.0-7.0","98854899","wem/bandit_party_2","A2RXPK0UN2O745","either","8","1472","","","","","","","0","1","0","","0.8","0.5","0.5","","","0.8","0.2","","","","","","","","","","","","","","","","74","J","0","img/none_selected_demo.jpg","true","0","80_20_practice",""
"","bandit","26","161244","0.0-18.0-8.0","98854899","wem/bandit_party_2","A2RXPK0UN2O745","either","8","1550","","","","","","","1","0","0","0.8","","0.5","0.5","","","","","","","0.8","0.2","","","","","","","","","","","","74","J","0","img/none_selected_demo.jpg","true","0","80_20_practice",""
"","bandit","27","163129","0.0-18.0-9.0","98854899","wem/bandit_party_2","A2RXPK0UN2O745","either","8","379","","","","","","","0","0","1","0.2","","0.5","0.5","","","","","","","0.8","0.2","","","","","","","","","","","","75","K","1","","true","0","80_20_practice",""
"","bandit","28","164642","0.0-18.0-10.0","98854899","wem/bandit_party_2","A2RXPK0UN2O745","either","8","8","","","","","","","0","1","0","","0.8","0.5","0.5","","","0.8","0.2","","","","","","","","","","","","","","","","74","J","0","img/none_selected_demo.jpg","true","0","80_20_practice",""
"","bandit","29","167066","0.0-18.0-11.0","98854899","wem/bandit_party_2","A2RXPK0UN2O745","either","8","919","","","","","","","0","1","0","","0.8","0.5","0.5","","","0.8","0.2","","","","","","","","","","","","","","","","74","J","0","img/none_selected_demo.jpg","true","0","80_20_practice",""
"","bandit","30","169613","0.0-18.0-12.0","98854899","wem/bandit_party_2","A2RXPK0UN2O745","either","8","1030","","","","","","","1","0","0","0.8","","0.5","0.5","","","","","","","0.8","0.2","","","","","","","","","","","","74","J","0","img/none_selected_demo.jpg","true","0","80_20_practice",""
"","bandit","31","172074","0.0-18.0-13.0","98854899","wem/bandit_party_2","A2RXPK0UN2O745","either","8","955","","","","","","","0","0","1","","0.2","0.5","0.5","","","0.8","0.2","","","","","","","","","","","","","","","","75","K","1","","true","0","80_20_practice",""
"","bandit","32","174113","0.0-18.0-14.0","98854899","wem/bandit_party_2","A2RXPK0UN2O745","either","8","533","","","","","","","0","1","0","","0.8","0.5","0.5","","","0.8","0.2","","","","","","","","","","","","","","","","74","J","0","img/none_selected_demo.jpg","true","0","80_20_practice",""
"","bandit","33","176385","0.0-18.0-15.0","98854899","wem/bandit_party_2","A2RXPK0UN2O745","either","8","767","","","","","","","1","0","0","0.8","","0.5","0.5","","","","","","","0.8","0.2","","","","","","","","","","","","74","J","0","img/none_selected_demo.jpg","true","0","80_20_practice",""
"","bandit","34","178680","0.0-18.0-16.0","98854899","wem/bandit_party_2","A2RXPK0UN2O745","either","8","791","","","","","","","0","1","0","","0.8","0.5","0.5","","","0.8","0.2","","","","","","","","","","","","","","","","74","J","0","img/none_selected_demo.jpg","true","0","80_20_practice",""
"","bandit","35","180761","0.0-18.0-17.0","98854899","wem/bandit_party_2","A2RXPK0UN2O745","either","8","576","","","","","","","0","1","0","","0.8","0.5","0.5","","","0.8","0.2","","","","","","","","","","","","","","","","74","J","0","img/none_selected_demo.jpg","true","0","80_20_practice",""
"","bandit","36","183986","0.0-18.0-18.0","98854899","wem/bandit_party_2","A2RXPK0UN2O745","either","8","1655","","","","","","","1","0","0","0.8","","0.5","0.5","","","","","","","0.8","0.2","","","","","","","","","","","","74","J","0","img/none_selected_demo.jpg","true","0","80_20_practice",""
"","bandit","37","186058","0.0-18.0-19.0","98854899","wem/bandit_party_2","A2RXPK0UN2O745","either","8","566","","","","","","","0","0","1","0.2","","0.5","0.5","","","","","","","0.8","0.2","","","","","","","","","","","","75","K","1","","true","0","80_20_practice",""
"","text-replacement","38","192860","0.0-19.0","98854899","wem/bandit_party_2","A2RXPK0UN2O745","either","8","6799","","","32","","","","","","","","","","","","","","","","","","","","","","","","","","","","","","","","","","","","",""
"","bandit","39","195712","0.0-20.0-0.0","98854899","wem/bandit_party_2","A2RXPK0UN2O745","either","8","1346","","","","","","","1","0","0","1","0","","","","","0","1","","","1","0","","","","","","","","","","","","74","J","0","img/none_selected_demo.jpg","true","0","",""
"","text-replacement","40","200460","0.0-21.0","98854899","wem/bandit_party_2","A2RXPK0UN2O745","either","8","4745","","","32","","","","","","","","","","","","","","","","","","","","","","","","","","","","","","","","","","","","",""
"","text-replacement","41","203965","0.0-22.0","98854899","wem/bandit_party_2","A2RXPK0UN2O745","either","8","3502","","","32","","","","","","","","","","","","","","","","","","","","","","","","","","","","","","","","","","","","",""
"","text-replacement","42","206515","0.0-23.0","98854899","wem/bandit_party_2","A2RXPK0UN2O745","either","8","2548","","","32","","","","","","","","","","","","","","","","","","","","","","","","","","","","","","","","","","","","",""
"","text-replacement","43","209203","0.0-24.0","98854899","wem/bandit_party_2","A2RXPK0UN2O745","either","8","2685","","","32","","","","","","","","","","","","","","","","","","","","","","","","","","","","","","","","","","","","",""
"","text-replacement","44","212827","0.0-25.0","98854899","wem/bandit_party_2","A2RXPK0UN2O745","either","8","3621","","","32","","","","","","","","","","","","","","","","","","","","","","","","","","","","","","","","","","","","",""
"","text-replacement","45","252165","0.0-26.0","98854899","wem/bandit_party_2","A2RXPK0UN2O745","either","8","39336","","","32","","","","","","","","","","","","","","","","","","","","","","","","","","","","","","","","","","","","",""
"","text-replacement","46","254780","0.0-27.0","98854899","wem/bandit_party_2","A2RXPK0UN2O745","either","8","2612","","","32","","","","","","","","","","","","","","","","","","","","","","","","","","","","","","","","","","","","",""
"","text-replacement","47","256350","0.0-28.0","98854899","wem/bandit_party_2","A2RXPK0UN2O745","either","8","1568","","","32","","","","","","","","","","","","","","","","","","","","","","","","","","","","","","","","","","","","",""
"","text-replacement","48","258164","0.0-29.0","98854899","wem/bandit_party_2","A2RXPK0UN2O745","either","8","1811","","","32","","","","","","","","","","","","","","","","","","","","","","","","","","","","","","","","","","","","",""
"","text-replacement","49","259251","0.0-30.0","98854899","wem/bandit_party_2","A2RXPK0UN2O745","either","8","1084","","","32","","","","","","","","","","","","","","","","","","","","","","","","","","","","","","","","","","","","",""
"","text-replacement","50","261579","0.0-31.0","98854899","wem/bandit_party_2","A2RXPK0UN2O745","either","8","2325","","","32","","","","","","","","","","","","","","","","","","","","","","","","","","","","","","","","","","","","",""
"","bandit","51","265365","0.0-32.0-0.0","98854899","wem/bandit_party_2","A2RXPK0UN2O745","either","8","2268","","","","","","","1","0","0","0.8","","0.5","0.5","0.5","0.5","","","","","0.8","0.2","0.6","0.2","","","","","","","","","","72","H","0","img/none_selected.jpg","true","0","full_practice",""
"","bandit","52","267952","0.0-32.0-1.0","98854899","wem/bandit_party_2","A2RXPK0UN2O745","either","8","1082","","","","","","","0","1","0","","0.8","0.5","0.5","0.5","0.5","0.8","0.2","0.6","0.2","","","","","","","","","","","","","","72","H","0","img/none_selected.jpg","true","0","full_practice",""
"","bandit","53","270001","0.0-32.0-2.0","98854899","wem/bandit_party_2","A2RXPK0UN2O745","either","8","544","","","","","","","0","1","0","","0.8","0.5","0.5","0.5","0.5","0.8","0.2","0.6","0.2","","","","","","","","","","","","","","72","H","0","img/none_selected.jpg","true","0","full_practice",""
"","bandit","54","272076","0.0-32.0-3.0","98854899","wem/bandit_party_2","A2RXPK0UN2O745","either","8","563","","","","","","","1","0","0","0.8","","0.5","0.5","0.5","0.5","","","","","0.8","0.2","0.6","0.2","","","","","","","","","","72","H","0","img/none_selected.jpg","true","0","full_practice",""
"","bandit","55","274402","0.0-32.0-4.0","98854899","wem/bandit_party_2","A2RXPK0UN2O745","either","8","762","","","","","","","1","0","0","0.8","","0.5","0.5","0.5","0.5","","","","","0.8","0.2","0.6","0.2","","","","","","","","","","72","H","0","img/none_selected.jpg","true","0","full_practice",""
"","bandit","56","276536","0.0-32.0-5.0","98854899","wem/bandit_party_2","A2RXPK0UN2O745","either","8","623","","","","","","","0","0","1","","0.8","0.5","0.5","0.5","0.5","0.8","0.2","0.6","0.2","","","","","","","","","","","","","","72","H","0","img/none_selected.jpg","true","0","full_practice",""
"","bandit","57","278729","0.0-32.0-6.0","98854899","wem/bandit_party_2","A2RXPK0UN2O745","either","8","686","","","","","","","0","0","1","","0.2","0.5","0.5","0.5","0.5","0.8","0.2","0.6","0.2","","","","","","","","","","","","","","76","L","3","","true","0","full_practice",""
"","bandit","58","281177","0.0-32.0-7.0","98854899","wem/bandit_party_2","A2RXPK0UN2O745","either","8","942","","","","","","","0","1","0","","0.6","0.5","0.5","0.5","0.5","0.8","0.2","0.6","0.2","","","","","","","","","","","","","","75","K","2","","true","0","full_practice",""
"","bandit","59","284202","0.0-32.0-8.0","98854899","wem/bandit_party_2","A2RXPK0UN2O745","either","8","1518","","","","","","","0","0","1","","0.6","0.5","0.5","0.5","0.5","0.8","0.2","0.6","0.2","","","","","","","","","","","","","","75","K","2","","true","0","full_practice",""
"","bandit","60","286177","0.0-32.0-9.0","98854899","wem/bandit_party_2","A2RXPK0UN2O745","either","8","466","","","","","","","0","0","1","","0.2","0.5","0.5","0.5","0.5","0.8","0.2","0.6","0.2","","","","","","","","","","","","","","74","J","1","","true","0","full_practice",""
"","bandit","61","287761","0.0-32.0-10.0","98854899","wem/bandit_party_2","A2RXPK0UN2O745","either","8","78","","","","","","","0","1","0","","0.8","0.5","0.5","0.5","0.5","0.8","0.2","0.6","0.2","","","","","","","","","","","","","","72","H","0","img/none_selected.jpg","true","0","full_practice",""
"","bandit","62","289642","0.0-32.0-11.0","98854899","wem/bandit_party_2","A2RXPK0UN2O745","either","8","375","","","","","","","0","1","0","","0.8","0.5","0.5","0.5","0.5","0.8","0.2","0.6","0.2","","","","","","","","","","","","","","72","H","0","img/none_selected.jpg","true","0","full_practice",""
"","bandit","63","292726","0.0-32.0-12.0","98854899","wem/bandit_party_2","A2RXPK0UN2O745","either","8","1558","","","","","","","0","0","1","0.8","","0.5","0.5","0.5","0.5","","","","","0.8","0.2","0.6","0.2","","","","","","","","","","72","H","0","img/none_selected.jpg","true","0","full_practice",""
"","bandit","64","294552","0.0-32.0-13.0","98854899","wem/bandit_party_2","A2RXPK0UN2O745","either","8","320","","","","","","","0","0","1","","0.6","0.5","0.5","0.5","0.5","0.8","0.2","0.6","0.2","","","","","","","","","","","","","","75","K","2","","true","0","full_practice",""
"","bandit","65","296428","0.0-32.0-14.0","98854899","wem/bandit_party_2","A2RXPK0UN2O745","either","8","368","","","","","","","0","0","1","0.2","","0.5","0.5","0.5","0.5","","","","","0.8","0.2","0.6","0.2","","","","","","","","","","76","L","3","","true","0","full_practice",""
"","bandit","66","298696","0.0-32.0-15.0","98854899","wem/bandit_party_2","A2RXPK0UN2O745","either","8","755","","","","","","","0","1","0","","0.8","0.5","0.5","0.5","0.5","0.8","0.2","0.6","0.2","","","","","","","","","","","","","","72","H","0","img/none_selected.jpg","true","0","full_practice",""
"","bandit","67","300849","0.0-32.0-16.0","98854899","wem/bandit_party_2","A2RXPK0UN2O745","either","8","646","","","","","","","0","1","0","","0.8","0.5","0.5","0.5","0.5","0.8","0.2","0.6","0.2","","","","","","","","","","","","","","72","H","0","img/none_selected.jpg","true","0","full_practice",""
"","bandit","68","303472","0.0-32.0-17.0","98854899","wem/bandit_party_2","A2RXPK0UN2O745","either","8","1118","","","","","","","1","0","0","0.8","","0.5","0.5","0.5","0.5","","","","","0.8","0.2","0.6","0.2","","","","","","","","","","72","H","0","img/none_selected.jpg","true","0","full_practice",""
"","bandit","69","305866","0.0-32.0-18.0","98854899","wem/bandit_party_2","A2RXPK0UN2O745","either","8","888","","","","","","","0","0","1","","0.2","0.5","0.5","0.5","0.5","0.8","0.2","0.6","0.2","","","","","","","","","","","","","","74","J","1","","true","0","full_practice",""
"","bandit","70","308394","0.0-32.0-19.0","98854899","wem/bandit_party_2","A2RXPK0UN2O745","either","8","1021","","","","","","","1","0","0","0.6","","0.5","0.5","0.5","0.5","","","","","0.8","0.2","0.6","0.2","","","","","","","","","","75","K","2","","true","0","full_practice",""
"","text","71","311364","0.0-33.0","98854899","wem/bandit_party_2","A2RXPK0UN2O745","either","8","2959","","","32","","","","","","","","","","","","","","","","","","","","","","","","","","","","","","","","","","","","",""
"","text-replacement","72","370964","0.0-34.0","98854899","wem/bandit_party_2","A2RXPK0UN2O745","either","8","58560","","","32","","","","","","","","","","","","","","","","","","","","","","","","","","","","","","","","","","","","",""
"","text-replacement","73","378244","0.0-35.0","98854899","wem/bandit_party_2","A2RXPK0UN2O745","either","8","7275","","","32","","","","","","","","","","","","","","","","","","","","","","","","","","","","","","","","","","","","",""
"","text-replacement","74","379387","0.0-36.0","98854899","wem/bandit_party_2","A2RXPK0UN2O745","either","8","1141","","","32","","","","","","","","","","","","","","","","","","","","","","","","","","","","","","","","","","","","",""
"","text-replacement","75","380386","0.0-37.0","98854899","wem/bandit_party_2","A2RXPK0UN2O745","either","8","996","","","32","","","","","","","","","","","","","","","","","","","","","","","","","","","","","","","","","","","","",""
"","text-replacement","76","381580","0.0-38.0","98854899","wem/bandit_party_2","A2RXPK0UN2O745","either","8","1191","","","32","","","","","","","","","","","","","","","","","","","","","","","","","","","","","","","","","","","","",""
"","survey-multi-choice-replacement","77","387758","0.0-39.0-0.0","98854899","wem/bandit_party_2","A2RXPK0UN2O745","either","8","6168","","","","","","","","","","","","","","","","","","","","","","","","Money will be added to the pool for <span style='color:red;'>REPUBLICANS</span>","","","","","","","attn_check","","","","","","","","","0"
"","survey-multi-choice-replacement","78","394159","0.0-40.0-0.0","98854899","wem/bandit_party_2","A2RXPK0UN2O745","either","8","5389","","","","","","","","","","","","","","","","","","","","","","","","Equal amounts of money will be added to the pool for <span style='color:red;'>REPUBLICANS</span> and subtracted from the pool for <span style='color:blue;'>DEMOCRATS</span>","","","","","","","attn_check","","","","","","","","","2"
"","survey-multi-choice-replacement","79","399900","0.0-41.0-0.0","98854899","wem/bandit_party_2","A2RXPK0UN2O745","either","8","4730","","","","","","","","","","","","","","","","","","","","","","","","No money will be added to either pool","","","","","","","attn_check","","","","","","","","","3"
"","bandit","80","454846","0.0-42.0-0.0","98854899","wem/bandit_party_2","A2RXPK0UN2O745","either","8","52436","","","","","","","0","0","1","","0.3040937467","0.8","0.6","0.2","0.4","0.6337563202","0.3040937467","0.4468950172","0.2428949588","","","","","","","","","","","","","","74","J","1","","","1","main_expt",""
"","bandit","81","457720","0.0-43.0-0.0","98854899","wem/bandit_party_2","A2RXPK0UN2O745","either","8","1367","","","","","","","0","0","1","","0.3846124694","0.8","0.6","0.2","0.4","0.7380673114","0.2687625136","0.3846124694","0.248961424","","","","","","","","","","","","","","75","K","2","","","2","main_expt",""
"","bandit","82","459920","0.0-44.0-0.0","98854899","wem/bandit_party_2","A2RXPK0UN2O745","either","8","695","","","","","","","1","0","0","0.7715549737","","0.8","0.6","0.2","0.4","","","","","0.7715549737","0.3017919557","0.3885967974","0.1878604038","","","","","","","","","","72","H","0","img/none_selected.jpg","","3","main_expt",""
"","bandit","83","462097","0.0-45.0-0.0","98854899","wem/bandit_party_2","A2RXPK0UN2O745","either","8","671","","","","","","","1","0","0","0.8257013646","","0.8","0.6","0.2","0.4","","","","","0.8257013646","0.3388517529","0.2891644394","0.1194049449","","","","","","","","","","72","H","0","img/none_selected.jpg","","4","main_expt",""
"","bandit","84","464122","0.0-46.0-0.0","98854899","wem/bandit_party_2","A2RXPK0UN2O745","either","8","519","","","","","","","0","1","0","","0.8617886559","0.8","0.6","0.2","0.4","0.8617886559","0.389096829","0.2654579937","0.197046458","","","","","","","","","","","","","","72","H","0","img/none_selected.jpg","","5","main_expt",""
"","bandit","85","466249","0.0-47.0-0.0","98854899","wem/bandit_party_2","A2RXPK0UN2O745","either","8","620","","","","","","","1","0","0","0.8452125903","","0.8","0.6","0.2","0.4","","","","","0.8452125903","0.4799636182","0.355160999","0.2312720201","","","","","","","","","","72","H","0","img/none_selected.jpg","","6","main_expt",""
"","bandit","86","468199","0.0-48.0-0.0","98854899","wem/bandit_party_2","A2RXPK0UN2O745","either","8","444","","","","","","","1","0","0","0.8765288384","","0.8","0.6","0.2","0.4","","","","","0.8765288384","0.5316557606","0.4733904832","0.3255591742","","","","","","","","","","72","H","0","img/none_selected.jpg","","7","main_expt",""
"","bandit","87","470104","0.0-49.0-0.0","98854899","wem/bandit_party_2","A2RXPK0UN2O745","either","8","399","","","","","","","1","0","0","0.8625068071","","0.8","0.6","0.2","0.4","","","","","0.8625068071","0.4935712437","0.4900136729","0.163151729","","","","","","","","","","72","H","0","img/none_selected.jpg","","8","main_expt",""
"","bandit","88","472090","0.0-50.0-0.0","98854899","wem/bandit_party_2","A2RXPK0UN2O745","either","8","480","","","","","","","1","0","0","0.8385781597","","0.8","0.6","0.2","0.4","","","","","0.8385781597","0.5400450001","0.4543552171","0.1671639775","","","","","","","","","","72","H","0","img/none_selected.jpg","","9","main_expt",""
"","bandit","89","473993","0.0-51.0-0.0","98854899","wem/bandit_party_2","A2RXPK0UN2O745","either","8","396","","","","","","","0","0","1","0.833356221","","0.8","0.6","0.2","0.4","","","","","0.833356221","0.6510952772","0.4523920981","0.1315225434","","","","","","","","","","72","H","0","img/none_selected.jpg","","10","main_expt",""
"","bandit","90","476153","0.0-52.0-0.0","98854899","wem/bandit_party_2","A2RXPK0UN2O745","either","8","653","","","","","","","0","0","1","","0.1287002637","0.8","0.6","0.2","0.4","0.9030756702","0.6117649901","0.4053083118","0.1287002637","","","","","","","","","","","","","","76","L","3","","","11","main_expt",""
"","bandit","91","477665","0.0-53.0-0.0","98854899","wem/bandit_party_2","A2RXPK0UN2O745","either","8","6","","","","","","","0","0","1","","0.4059907931","0.8","0.6","0.2","0.4","0.9129290363","0.6360746298","0.4059907931","0.1026596936","","","","","","","","","","","","","","75","K","2","","","12","main_expt",""
"","bandit","92","479472","0.0-54.0-0.0","98854899","wem/bandit_party_2","A2RXPK0UN2O745","either","8","302","","","","","","","1","0","0","0.5673960652","","0.8","0.6","0.2","0.4","","","","","0.8638417716","0.5673960652","0.2934167972","0.1287514256","","","","","","","","","","74","J","1","","","13","main_expt",""
"","bandit","93","481987","0.0-55.0-0.0","98854899","wem/bandit_party_2","A2RXPK0UN2O745","either","8","1010","","","","","","","0","0","1","","0.6747725803","0.8","0.6","0.2","0.4","0.787806988","0.6747725803","0.3260927596","0.1786171179","","","","","","","","","","","","","","74","J","1","","","14","main_expt",""
"","bandit","94","484961","0.0-56.0-0.0","98854899","wem/bandit_party_2","A2RXPK0UN2O745","either","8","1468","","","","","","","1","0","0","0.7254212376","","0.8","0.6","0.2","0.4","","","","","0.7254212376","0.6277188345","0.3355382734","0.1459410532","","","","","","","","","","72","H","0","img/none_selected.jpg","","15","main_expt",""
"","bandit","95","487348","0.0-57.0-0.0","98854899","wem/bandit_party_2","A2RXPK0UN2O745","either","8","813","","","","","","","1","0","0","0.7238415528","","0.8","0.6","0.2","0.4","","","","","0.7238415528","0.5435568235","0.3040928121","0.2255600906","","","","","","","","","","72","H","0","img/none_selected.jpg","","16","main_expt",""
"","bandit","96","490781","0.0-58.0-0.0","98854899","wem/bandit_party_2","A2RXPK0UN2O745","either","8","1923","","","","","","","0","0","1","","0.7796243455","0.8","0.6","0.2","0.4","0.7796243455","0.4180161478","0.2730366263","0.2052013943","","","","","","","","","","","","","","72","H","0","img/none_selected.jpg","","17","main_expt",""
"","bandit","97","497961","0.0-59.0-0.0","98854899","wem/bandit_party_2","A2RXPK0UN2O745","either","8","5675","","","","","","","0","0","1","","0.4105298721","0.8","0.6","0.2","0.4","0.6928902724","0.4961111773","0.4105298721","0.1780354615","","","","","","","","","","","","","","75","K","2","","","18","main_expt",""
"","bandit","98","499882","0.0-60.0-0.0","98854899","wem/bandit_party_2","A2RXPK0UN2O745","either","8","414","","","","","","","0","0","1","","0.445530788","0.8","0.6","0.2","0.4","0.7658630901","0.445530788","0.3586923344","0.1576496117","","","","","","","","","","","","","","74","J","1","","","19","main_expt",""
"","bandit","99","501746","0.0-61.0-0.0","98854899","wem/bandit_party_2","A2RXPK0UN2O745","either","8","356","","","","","","","0","0","1","0.7584200513","","0.8","0.6","0.2","0.4","","","","","0.7584200513","0.3443163705","0.3220075653","0.1618752313","","","","","","","","","","72","H","0","img/none_selected.jpg","","20","main_expt",""
"","bandit","100","503577","0.0-62.0-0.0","98854899","wem/bandit_party_2","A2RXPK0UN2O745","either","8","326","","","","","","","0","0","1","","0.2152187387","0.8","0.6","0.2","0.4","0.7727038765","0.3012808647","0.2729660799","0.2152187387","","","","","","","","","","","","","","76","L","3","","","21","main_expt",""
"","bandit","101","505249","0.0-63.0-0.0","98854899","wem/bandit_party_2","A2RXPK0UN2O745","either","8","166","","","","","","","0","0","1","0.2712352107","","0.8","0.6","0.2","0.4","","","","","0.8152565923","0.2882062485","0.2712352107","0.3547982299","","","","","","","","","","75","K","2","","","22","main_expt",""
"","bandit","102","507560","0.0-64.0-0.0","98854899","wem/bandit_party_2","A2RXPK0UN2O745","either","8","804","","","","","","","0","0","1","","0.2113421372","0.8","0.6","0.2","0.4","0.7537075358","0.2113421372","0.3390855774","0.323805638","","","","","","","","","","","","","","74","J","1","","","23","main_expt",""
"","bandit","103","510153","0.0-65.0-0.0","98854899","wem/bandit_party_2","A2RXPK0UN2O745","either","8","1084","","","","","","","0","0","1","0.7108822858","","0.8","0.6","0.2","0.4","","","","","0.7108822858","0.2201805416","0.3483259141","0.3588909826","","","","","","","","","","72","H","0","img/none_selected.jpg","","24","main_expt",""
"","bandit","104","512450","0.0-66.0-0.0","98854899","wem/bandit_party_2","A2RXPK0UN2O745","either","8","789","","","","","","","1","0","0","0.6930515954","","0.8","0.6","0.2","0.4","","","","","0.6930515954","0.2580956466","0.3416976173","0.3885553436","","","","","","","","","","72","H","0","img/none_selected.jpg","","25","main_expt",""
"","bandit","105","515689","0.0-67.0-0.0","98854899","wem/bandit_party_2","A2RXPK0UN2O745","either","8","1733","","","","","","","0","1","0","","0.6905393417","0.8","0.6","0.2","0.4","0.6905393417","0.2153432854","0.4243476322","0.4871556374","","","","","","","","","","","","","","72","H","0","img/none_selected.jpg","","26","main_expt",""
"","bandit","106","517876","0.0-68.0-0.0","98854899","wem/bandit_party_2","A2RXPK0UN2O745","either","8","679","","","","","","","1","0","0","0.7531652131","","0.8","0.6","0.2","0.4","","","","","0.7531652131","0.1727955236","0.5257754898","0.4934119911","","","","","","","","","","72","H","0","img/none_selected.jpg","","27","main_expt",""
"","bandit","107","523965","0.0-69.0-0.0","98854899","wem/bandit_party_2","A2RXPK0UN2O745","either","8","4583","","","","","","","0","0","1","","0.8001777041","0.8","0.6","0.2","0.4","0.8001777041","0.1894296703","0.5246232361","0.4322092846","","","","","","","","","","","","","","72","H","0","img/none_selected.jpg","","28","main_expt",""
"","bandit","108","531601","0.0-70.0-0.0","98854899","wem/bandit_party_2","A2RXPK0UN2O745","either","8","6129","","","","","","","0","0","1","","0.375994784","0.8","0.6","0.2","0.4","0.8118404327","0.2128919211","0.375994784","0.3459113699","","","","","","","","","","","","","","75","K","2","","","29","main_expt",""
"","bandit","109","533602","0.0-71.0-0.0","98854899","wem/bandit_party_2","A2RXPK0UN2O745","either","8","495","","","","","","","0","0","1","","0.280789843","0.8","0.6","0.2","0.4","0.7839534503","0.206056468","0.2936890161","0.280789843","","","","","","","","","","","","","","76","L","3","","","30","main_expt",""
"","bandit","110","535634","0.0-72.0-0.0","98854899","wem/bandit_party_2","A2RXPK0UN2O745","either","8","526","","","","","","","0","0","1","0.1725623241","","0.8","0.6","0.2","0.4","","","","","0.8066372971","0.1725623241","0.2878812258","0.2613810438","","","","","","","","","","74","J","1","","","31","main_expt",""
"","bandit","111","538504","0.0-73.0-0.0","98854899","wem/bandit_party_2","A2RXPK0UN2O745","either","8","1364","","","","","","","0","0","1","0.8049259064","","0.8","0.6","0.2","0.4","","","","","0.8049259064","0.1629883914","0.2451492808","0.3821585683","","","","","","","","","","72","H","0","img/none_selected.jpg","","32","main_expt",""
"","bandit","112","540337","0.0-74.0-0.0","98854899","wem/bandit_party_2","A2RXPK0UN2O745","either","8","327","","","","","","","1","0","0","0.7891664673","","0.8","0.6","0.2","0.4","","","","","0.7891664673","0.2107911223","0.2802113289","0.2714925976","","","","","","","","","","72","H","0","img/none_selected.jpg","","33","main_expt",""
"","bandit","113","544194","0.0-75.0-0.0","98854899","wem/bandit_party_2","A2RXPK0UN2O745","either","8","2347","","","","","","","1","0","0","0.7854278051","","0.8","0.6","0.2","0.4","","","","","0.7854278051","0.1025901997","0.2892342718","0.2755575364","","","","","","","","","","72","H","0","img/none_selected.jpg","","34","main_expt",""
"","bandit","114","546386","0.0-76.0-0.0","98854899","wem/bandit_party_2","A2RXPK0UN2O745","either","8","682","","","","","","","1","0","0","0.7260182018","","0.8","0.6","0.2","0.4","","","","","0.7260182018","0.1289879153","0.2486893666","0.2697856654","","","","","","","","","","72","H","0","img/none_selected.jpg","","35","main_expt",""
"","bandit","115","548497","0.0-77.0-0.0","98854899","wem/bandit_party_2","A2RXPK0UN2O745","either","8","604","","","","","","","1","0","0","0.7910957192","","0.8","0.6","0.2","0.4","","","","","0.7910957192","0.1645491317","0.3536408983","0.2483646443","","","","","","","","","","72","H","0","img/none_selected.jpg","","36","main_expt",""
"","bandit","116","550529","0.0-78.0-0.0","98854899","wem/bandit_party_2","A2RXPK0UN2O745","either","8","526","","","","","","","1","0","0","0.7996551039","","0.8","0.6","0.2","0.4","","","","","0.7996551039","0.1698046746","0.2493566902","0.2103950957","","","","","","","","","","72","H","0","img/none_selected.jpg","","37","main_expt",""
"","bandit","117","552538","0.0-79.0-0.0","98854899","wem/bandit_party_2","A2RXPK0UN2O745","either","8","502","","","","","","","1","0","0","0.6717479894","","0.8","0.6","0.2","0.4","","","","","0.6717479894","0.2281502886","0.2948354516","0.2128944509","","","","","","","","","","72","H","0","img/none_selected.jpg","","38","main_expt",""
"","bandit","118","554562","0.0-80.0-0.0","98854899","wem/bandit_party_2","A2RXPK0UN2O745","either","8","517","","","","","","","0","0","1","","0.7121128808","0.8","0.6","0.2","0.4","0.7121128808","0.1561271762","0.3373274679","0.2965153327","","","","","","","","","","","","","","72","H","0","img/none_selected.jpg","","39","main_expt",""
"","bandit","119","556344","0.0-81.0-0.0","98854899","wem/bandit_party_2","A2RXPK0UN2O745","either","8","269","","","","","","","0","1","0","","0.4138768052","0.8","0.6","0.2","0.4","0.7157410044","0.1543620621","0.4138768052","0.4447532253","","","","","","","","","","","","","","75","K","2","","","40","main_expt",""
"","bandit","120","558249","0.0-82.0-0.0","98854899","wem/bandit_party_2","A2RXPK0UN2O745","either","8","397","","","","","","","0","0","1","","0.438096834","0.8","0.6","0.2","0.4","0.681196038","0.2271499981","0.438096834","0.5330008696","","","","","","","","","","","","","","75","K","2","","","41","main_expt",""
"","bandit","121","559908","0.0-83.0-0.0","98854899","wem/bandit_party_2","A2RXPK0UN2O745","either","8","152","","","","","","","0","0","1","0.2882452936","","0.8","0.6","0.2","0.4","","","","","0.6504320647","0.2882452936","0.4185173612","0.573861049","","","","","","","","","","74","J","1","","","42","main_expt",""
"","bandit","122","562158","0.0-84.0-0.0","98854899","wem/bandit_party_2","A2RXPK0UN2O745","either","8","740","","","","","","","0","0","1","0.298522686","","0.8","0.6","0.2","0.4","","","","","0.7369830744","0.298522686","0.3796335567","0.6654349765","","","","","","","","","","74","J","1","","","43","main_expt",""
"","bandit","123","564025","0.0-85.0-0.0","98854899","wem/bandit_party_2","A2RXPK0UN2O745","either","8","358","","","","","","","1","0","0","0.691198465","","0.8","0.6","0.2","0.4","","","","","0.6797935378","0.3188886026","0.31766129","0.691198465","","","","","","","","","","76","L","3","","","44","main_expt",""
"","bandit","124","566066","0.0-86.0-0.0","98854899","wem/bandit_party_2","A2RXPK0UN2O745","either","8","532","","","","","","","1","0","0","0.7652674903","","0.8","0.6","0.2","0.4","","","","","0.6507473666","0.2705760174","0.4047397141","0.7652674903","","","","","","","","","","76","L","3","","","45","main_expt",""
"","bandit","125","568146","0.0-87.0-0.0","98854899","wem/bandit_party_2","A2RXPK0UN2O745","either","8","573","","","","","","","0","1","0","","0.8065230058","0.8","0.6","0.2","0.4","0.6334510787","0.2506880939","0.4961613307","0.8065230058","","","","","","","","","","","","","","76","L","3","","","46","main_expt",""
"","bandit","126","570282","0.0-88.0-0.0","98854899","wem/bandit_party_2","A2RXPK0UN2O745","either","8","627","","","","","","","0","0","1","","0.7774474893","0.8","0.6","0.2","0.4","0.6143175143","0.2491585872","0.4624468315","0.7774474893","","","","","","","","","","","","","","76","L","3","","","47","main_expt",""
"","bandit","127","571839","0.0-89.0-0.0","98854899","wem/bandit_party_2","A2RXPK0UN2O745","either","8","27","","","","","","","0","1","0","","0.6404512611","0.8","0.6","0.2","0.4","0.6404512611","0.1997021219","0.4886537242","0.7693176975","","","","","","","","","","","","","","72","H","0","img/none_selected.jpg","","48","main_expt",""
"","bandit","128","573872","0.0-90.0-0.0","98854899","wem/bandit_party_2","A2RXPK0UN2O745","either","8","526","","","","","","","0","0","1","0.6758621215","","0.8","0.6","0.2","0.4","","","","","0.6758621215","0.2119577724","0.4270302022","0.807419373","","","","","","","","","","72","H","0","img/none_selected.jpg","","49","main_expt",""
"","bandit","129","575604","0.0-91.0-0.0","98854899","wem/bandit_party_2","A2RXPK0UN2O745","either","8","220","","","","","","","0","0","1","","0.5151345658","0.8","0.6","0.2","0.4","0.6873234502","0.2615271711","0.5151345658","0.8562769227","","","","","","","","","","","","","","75","K","2","","","50","main_expt",""
"","bandit","130","577857","0.0-92.0-0.0","98854899","wem/bandit_party_2","A2RXPK0UN2O745","either","8","745","","","","","","","1","0","0","0.8705114925","","0.8","0.6","0.2","0.4","","","","","0.7776044395","0.2764427577","0.5134524181","0.8705114925","","","","","","","","","","76","L","3","","","51","main_expt",""
"","bandit","131","580788","0.0-93.0-0.0","98854899","wem/bandit_party_2","A2RXPK0UN2O745","either","8","1413","","","","","","","1","0","0","0.9310361031","","0.8","0.6","0.2","0.4","","","","","0.8403410939","0.3833776697","0.4842684999","0.9310361031","","","","","","","","","","76","L","3","","","52","main_expt",""
"","bandit","132","583656","0.0-94.0-0.0","98854899","wem/bandit_party_2","A2RXPK0UN2O745","either","8","1361","","","","","","","1","0","0","0.905794742","","0.8","0.6","0.2","0.4","","","","","0.8151983534","0.4356502318","0.4412850773","0.905794742","","","","","","","","","","76","L","3","","","53","main_expt",""
"","bandit","133","585850","0.0-95.0-0.0","98854899","wem/bandit_party_2","A2RXPK0UN2O745","either","8","686","","","","","","","0","1","0","","0.9391541593","0.8","0.6","0.2","0.4","0.8081222638","0.4120588364","0.4397693946","0.9391541593","","","","","","","","","","","","","","76","L","3","","","54","main_expt",""
"","bandit","134","588138","0.0-96.0-0.0","98854899","wem/bandit_party_2","A2RXPK0UN2O745","either","8","779","","","","","","","0","0","1","","0.9596285882","0.8","0.6","0.2","0.4","0.742009976","0.2714296105","0.3928202278","0.9596285882","","","","","","","","","","","","","","76","L","3","","","55","main_expt",""
"","bandit","135","590681","0.0-97.0-0.0","98854899","wem/bandit_party_2","A2RXPK0UN2O745","either","8","1035","","","","","","","0","0","1","","0.4593665993","0.8","0.6","0.2","0.4","0.7065076074","0.2122311877","0.4593665993","0.9565658233","","","","","","","","","","","","","","75","K","2","","","56","main_expt",""
"","bandit","136","592666","0.0-98.0-0.0","98854899","wem/bandit_party_2","A2RXPK0UN2O745","either","8","477","","","","","","","0","0","1","0.2282278588","","0.8","0.6","0.2","0.4","","","","","0.6860695476","0.2282278588","0.4006145211","0.9681540372","","","","","","","","","","74","J","1","","","57","main_expt",""
"","bandit","137","594473","0.0-99.0-0.0","98854899","wem/bandit_party_2","A2RXPK0UN2O745","either","8","298","","","","","","","1","0","0","0.742301155","","0.8","0.6","0.2","0.4","","","","","0.742301155","0.1392076118","0.4597890412","0.9207083952","","","","","","","","","","72","H","0","img/none_selected.jpg","","58","main_expt",""
"","bandit","138","604803","0.0-100.0-0.0","98854899","wem/bandit_party_2","A2RXPK0UN2O745","either","8","8822","","","","","","","1","0","0","0.5291004622","","0.8","0.6","0.2","0.4","","","","","0.5291004622","0.1706239206","0.4232266093","0.9178227258","","","","","","","","","","72","H","0","img/none_selected.jpg","","59","main_expt",""
"","bandit","139","607889","0.0-101.0-0.0","98854899","wem/bandit_party_2","A2RXPK0UN2O745","either","8","1579","","","","","","","0","0","1","0.6348838793","","0.8","0.6","0.2","0.4","","","","","0.6348838793","0.1674269281","0.3565880291","0.8951285427","","","","","","","","","","72","H","0","img/none_selected.jpg","","60","main_expt",""
"","bandit","140","611830","0.0-102.0-0.0","98854899","wem/bandit_party_2","A2RXPK0UN2O745","either","8","2427","","","","","","","0","0","1","","0.3663276413","0.8","0.6","0.2","0.4","0.6796423313","0.2182313474","0.3663276413","0.8506814954","","","","","","","","","","","","","","75","K","2","","","61","main_expt",""
"","bandit","141","613689","0.0-103.0-0.0","98854899","wem/bandit_party_2","A2RXPK0UN2O745","either","8","350","","","","","","","0","1","0","","0.2949218256","0.8","0.6","0.2","0.4","0.6928172916","0.2949218256","0.3193005293","0.8513854559","","","","","","","","","","","","","","74","J","1","","","62","main_expt",""
"","bandit","142","615878","0.0-104.0-0.0","98854899","wem/bandit_party_2","A2RXPK0UN2O745","either","8","680","","","","","","","1","0","0","0.3170222383","","0.8","0.6","0.2","0.4","","","","","0.6996506825","0.3170222383","0.1562068481","0.8927579502","","","","","","","","","","74","J","1","","","63","main_expt",""
"","bandit","143","620217","0.0-105.0-0.0","98854899","wem/bandit_party_2","A2RXPK0UN2O745","either","8","2832","","","","","","","0","0","1","0.3033511374","","0.8","0.6","0.2","0.4","","","","","0.7294442249","0.3033511374","0.2300477965","0.9217936765","","","","","","","","","","74","J","1","","","64","main_expt",""
"","bandit","144","622423","0.0-106.0-0.0","98854899","wem/bandit_party_2","A2RXPK0UN2O745","either","8","676","","","","","","","1","0","0","0.6605354899","","0.8","0.6","0.2","0.4","","","","","0.6605354899","0.3973690147","0.2869838185","0.9357047413","","","","","","","","","","72","H","0","img/none_selected.jpg","","65","main_expt",""
"","bandit","145","624912","0.0-107.0-0.0","98854899","wem/bandit_party_2","A2RXPK0UN2O745","either","8","877","","","","","","","0","1","0","","0.6959621059","0.8","0.6","0.2","0.4","0.6959621059","0.4320294497","0.3287476356","0.910343843","","","","","","","","","","","","","","72","H","0","img/none_selected.jpg","","66","main_expt",""
"","bandit","146","627235","0.0-108.0-0.0","98854899","wem/bandit_party_2","A2RXPK0UN2O745","either","8","814","","","","","","","0","0","1","0.653899752","","0.8","0.6","0.2","0.4","","","","","0.653899752","0.3208465419","0.3018365728","0.9022080512","","","","","","","","","","72","H","0","img/none_selected.jpg","","67","main_expt",""
"","bandit","147","628882","0.0-109.0-0.0","98854899","wem/bandit_party_2","A2RXPK0UN2O745","either","8","138","","","","","","","1","0","0","0.8492414063","","0.8","0.6","0.2","0.4","","","","","0.6517851336","0.3570730799","0.3208616414","0.8492414063","","","","","","","","","","76","L","3","","","68","main_expt",""
"","bandit","148","632698","0.0-110.0-0.0","98854899","wem/bandit_party_2","A2RXPK0UN2O745","either","8","2290","","","","","","","0","0","1","0.768219052","","0.8","0.6","0.2","0.4","","","","","0.7011615004","0.3451514791","0.386863802","0.768219052","","","","","","","","","","76","L","3","","","69","main_expt",""
"","bandit","149","634520","0.0-111.0-0.0","98854899","wem/bandit_party_2","A2RXPK0UN2O745","either","8","315","","","","","","","0","1","0","","0.3628244161","0.8","0.6","0.2","0.4","0.6278947594","0.3127714871","0.3628244161","0.7996218848","","","","","","","","","","","","","","75","K","2","","","70","main_expt",""
"","bandit","150","638545","0.0-112.0-0.0","98854899","wem/bandit_party_2","A2RXPK0UN2O745","either","8","2519","","","","","","","0","0","1","","0.2969295023","0.8","0.6","0.2","0.4","0.688517509","0.3855297895","0.2969295023","0.9130189757","","","","","","","","","","","","","","75","K","2","","","71","main_expt",""
"","bandit","151","640138","0.0-113.0-0.0","98854899","wem/bandit_party_2","A2RXPK0UN2O745","either","8","53","","","","","","","0","0","1","","0.3555010044","0.8","0.6","0.2","0.4","0.6125440106","0.3555010044","0.3512325323","0.9016843832","","","","","","","","","","","","","","74","J","1","","","72","main_expt",""
"","bandit","152","642449","0.0-114.0-0.0","98854899","wem/bandit_party_2","A2RXPK0UN2O745","either","8","802","","","","","","","0","0","1","","0.3278360739","0.8","0.6","0.2","0.4","0.4884410468","0.3278360739","0.3845321254","0.9166584401","","","","","","","","","","","","","","74","J","1","","","73","main_expt",""
"","bandit","153","644553","0.0-115.0-0.0","98854899","wem/bandit_party_2","A2RXPK0UN2O745","either","8","596","","","","","","","0","0","1","0.5800760741","","0.8","0.6","0.2","0.4","","","","","0.5800760741","0.3275161349","0.3760614253","0.8699410266","","","","","","","","","","72","H","0","img/none_selected.jpg","","74","main_expt",""
"","bandit","154","646065","0.0-116.0-0.0","98854899","wem/bandit_party_2","A2RXPK0UN2O745","either","8","3","","","","","","","0","0","1","","0.370831352","0.8","0.6","0.2","0.4","0.6614390465","0.3454333807","0.370831352","0.8192171788","","","","","","","","","","","","","","75","K","2","","","75","main_expt",""
"","bandit","155","648730","0.0-117.0-0.0","98854899","wem/bandit_party_2","A2RXPK0UN2O745","either","8","1155","","","","","","","0","1","0","","0.8990587115","0.8","0.6","0.2","0.4","0.6861570843","0.4213924804","0.4008199491","0.8990587115","","","","","","","","","","","","","","76","L","3","","","76","main_expt",""
"","bandit","156","652217","0.0-118.0-0.0","98854899","wem/bandit_party_2","A2RXPK0UN2O745","either","8","1978","","","","","","","0","1","0","","0.9062137116","0.8","0.6","0.2","0.4","0.5980737028","0.439510692","0.3928984844","0.9062137116","","","","","","","","","","","","","","76","L","3","","","77","main_expt",""
"","bandit","157","656218","0.0-119.0-0.0","98854899","wem/bandit_party_2","A2RXPK0UN2O745","either","8","2490","","","","","","","0","1","0","","0.9215914722","0.8","0.6","0.2","0.4","0.6754083514","0.4419424199","0.4709058574","0.9215914722","","","","","","","","","","","","","","76","L","3","","","78","main_expt",""
"","bandit","158","659179","0.0-120.0-0.0","98854899","wem/bandit_party_2","A2RXPK0UN2O745","either","8","1450","","","","","","","0","1","0","","0.895443078","0.8","0.6","0.2","0.4","0.7012934339","0.5056762283","0.4971614577","0.895443078","","","","","","","","","","","","","","76","L","3","","","79","main_expt",""
"","bandit","159","662377","0.0-121.0-0.0","98854899","wem/bandit_party_2","A2RXPK0UN2O745","either","8","1595","","","","","","","0","1","0","","0.7789772955","0.8","0.6","0.2","0.4","0.7067798052","0.4558190996","0.4828267768","0.7789772955","","","","","","","","","","","","","","76","L","3","","","80","main_expt",""
"","bandit","160","665145","0.0-122.0-0.0","98854899","wem/bandit_party_2","A2RXPK0UN2O745","either","8","1260","","","","","","","0","1","0","","0.755426824","0.8","0.6","0.2","0.4","0.7259433061","0.4774921548","0.4280570329","0.755426824","","","","","","","","","","","","","","76","L","3","","","81","main_expt",""
"","bandit","161","667593","0.0-123.0-0.0","98854899","wem/bandit_party_2","A2RXPK0UN2O745","either","8","940","","","","","","","1","0","0","0.8356426425","","0.8","0.6","0.2","0.4","","","","","0.7022130872","0.3611036613","0.486136241","0.8356426425","","","","","","","","","","76","L","3","","","82","main_expt",""
"","bandit","162","670453","0.0-124.0-0.0","98854899","wem/bandit_party_2","A2RXPK0UN2O745","either","8","1333","","","","","","","0","1","0","","0.8783145762","0.8","0.6","0.2","0.4","0.75927227","0.3341354767","0.3539143083","0.8783145762","","","","","","","","","","","","","","76","L","3","","","83","main_expt",""
"","bandit","163","673042","0.0-125.0-0.0","98854899","wem/bandit_party_2","A2RXPK0UN2O745","either","8","1081","","","","","","","0","1","0","","0.9087743635","0.8","0.6","0.2","0.4","0.8556046088","0.288479151","0.374811954","0.9087743635","","","","","","","","","","","","","","76","L","3","","","84","main_expt",""
"","bandit","164","676050","0.0-126.0-0.0","98854899","wem/bandit_party_2","A2RXPK0UN2O745","either","8","1500","","","","","","","0","1","0","","0.8632011641","0.8","0.6","0.2","0.4","0.7835234447","0.3061923995","0.4518264681","0.8632011641","","","","","","","","","","","","","","76","L","3","","","85","main_expt",""
"","bandit","165","679233","0.0-127.0-0.0","98854899","wem/bandit_party_2","A2RXPK0UN2O745","either","8","1674","","","","","","","0","1","0","","0.8341253046","0.8","0.6","0.2","0.4","0.7037548709","0.3370204437","0.461936863","0.8341253046","","","","","","","","","","","","","","76","L","3","","","86","main_expt",""
"","bandit","166","681737","0.0-128.0-0.0","98854899","wem/bandit_party_2","A2RXPK0UN2O745","either","8","996","","","","","","","0","1","0","","0.8728746981","0.8","0.6","0.2","0.4","0.6903674631","0.3900809043","0.3681660755","0.8728746981","","","","","","","","","","","","","","76","L","3","","","87","main_expt",""
"","bandit","167","685369","0.0-129.0-0.0","98854899","wem/bandit_party_2","A2RXPK0UN2O745","either","8","2122","","","","","","","0","1","0","","0.8408980459","0.8","0.6","0.2","0.4","0.5883284312","0.4296615172","0.3788462328","0.8408980459","","","","","","","","","","","","","","76","L","3","","","88","main_expt",""
"","bandit","168","688145","0.0-130.0-0.0","98854899","wem/bandit_party_2","A2RXPK0UN2O745","either","8","1267","","","","","","","0","1","0","","0.8585781628","0.8","0.6","0.2","0.4","0.5258490985","0.4636560077","0.3316952272","0.8585781628","","","","","","","","","","","","","","76","L","3","","","89","main_expt",""
"","bandit","169","690594","0.0-131.0-0.0","98854899","wem/bandit_party_2","A2RXPK0UN2O745","either","8","936","","","","","","","1","0","0","0.925840658","","0.8","0.6","0.2","0.4","","","","","0.6395041767","0.4463585346","0.438068917","0.925840658","","","","","","","","","","76","L","3","","","90","main_expt",""
"","bandit","170","693170","0.0-132.0-0.0","98854899","wem/bandit_party_2","A2RXPK0UN2O745","either","8","1069","","","","","","","0","1","0","","0.9201841885","0.8","0.6","0.2","0.4","0.6931091445","0.4734463503","0.5158843935","0.9201841885","","","","","","","","","","","","","","76","L","3","","","91","main_expt",""
"","bandit","171","695657","0.0-133.0-0.0","98854899","wem/bandit_party_2","A2RXPK0UN2O745","either","8","979","","","","","","","1","0","0","0.8508076908","","0.8","0.6","0.2","0.4","","","","","0.6725373887","0.5248255385","0.5182757575","0.8508076908","","","","","","","","","","76","L","3","","","92","main_expt",""
"","bandit","172","698370","0.0-134.0-0.0","98854899","wem/bandit_party_2","A2RXPK0UN2O745","either","8","1123","","","","","","","0","1","0","","0.8106711147","0.8","0.6","0.2","0.4","0.7388835399","0.3386726181","0.5498130742","0.8106711147","","","","","","","","","","","","","","76","L","3","","","93","main_expt",""
"","bandit","173","700762","0.0-135.0-0.0","98854899","wem/bandit_party_2","A2RXPK0UN2O745","either","8","880","","","","","","","1","0","0","0.8543263914","","0.8","0.6","0.2","0.4","","","","","0.697373586","0.3718894848","0.6049407638","0.8543263914","","","","","","","","","","76","L","3","","","94","main_expt",""
"","bandit","174","703246","0.0-136.0-0.0","98854899","wem/bandit_party_2","A2RXPK0UN2O745","either","8","954","","","","","","","1","0","0","0.8387782901","","0.8","0.6","0.2","0.4","","","","","0.7550322224","0.4005278521","0.6604115927","0.8387782901","","","","","","","","","","76","L","3","","","95","main_expt",""
"","bandit","175","705552","0.0-137.0-0.0","98854899","wem/bandit_party_2","A2RXPK0UN2O745","either","8","798","","","","","","","0","1","0","","0.8208071174","0.8","0.6","0.2","0.4","0.6576962358","0.3694595514","0.7003847986","0.8208071174","","","","","","","","","","","","","","76","L","3","","","96","main_expt",""
"","bandit","176","707750","0.0-138.0-0.0","98854899","wem/bandit_party_2","A2RXPK0UN2O745","either","8","669","","","","","","","1","0","0","0.765358829","","0.8","0.6","0.2","0.4","","","","","0.6802484638","0.3186037095","0.6793148949","0.765358829","","","","","","","","","","76","L","3","","","97","main_expt",""
"","bandit","177","710530","0.0-139.0-0.0","98854899","wem/bandit_party_2","A2RXPK0UN2O745","either","8","1268","","","","","","","1","0","0","0.7823463211","","0.8","0.6","0.2","0.4","","","","","0.7042077447","0.2786717818","0.6204607354","0.7823463211","","","","","","","","","","76","L","3","","","98","main_expt",""
"","bandit","178","712730","0.0-140.0-0.0","98854899","wem/bandit_party_2","A2RXPK0UN2O745","either","8","691","","","","","","","0","0","1","","0.7523003034","0.8","0.6","0.2","0.4","0.7355617892","0.32929866","0.6166262367","0.7523003034","","","","","","","","","","","","","","76","L","3","","","99","main_expt",""
"","bandit","179","714986","0.0-141.0-0.0","98854899","wem/bandit_party_2","A2RXPK0UN2O745","either","8","747","","","","","","","0","0","1","0.3115323478","","0.8","0.6","0.2","0.4","","","","","0.7117411671","0.3115323478","0.5347115766","0.7174790615","","","","","","","","","","74","J","1","","","100","main_expt",""
"","bandit","180","717472","0.0-142.0-0.0","98854899","wem/bandit_party_2","A2RXPK0UN2O745","either","8","977","","","","","","","0","0","1","","0.3418016043","0.8","0.6","0.2","0.4","0.7263903312","0.4221749579","0.3418016043","0.7660578318","","","","","","","","","","","","","","75","K","2","","","101","main_expt",""
"","bandit","181","720289","0.0-143.0-0.0","98854899","wem/bandit_party_2","A2RXPK0UN2O745","either","8","1308","","","","","","","0","0","1","0.7357346189","","0.8","0.6","0.2","0.4","","","","","0.7357346189","0.2718078598","0.2550922237","0.7201180075","","","","","","","","","","72","H","0","img/none_selected.jpg","","102","main_expt",""
"","bandit","182","721815","0.0-144.0-0.0","98854899","wem/bandit_party_2","A2RXPK0UN2O745","either","8","18","","","","","","","0","1","0","","0.8452780714","0.8","0.6","0.2","0.4","0.7026134783","0.3011307106","0.3181696353","0.8452780714","","","","","","","","","","","","","","76","L","3","","","103","main_expt",""
"","bandit","183","723906","0.0-145.0-0.0","98854899","wem/bandit_party_2","A2RXPK0UN2O745","either","8","583","","","","","","","0","0","1","","0.7236924273","0.8","0.6","0.2","0.4","0.8073666152","0.3659291838","0.3383579412","0.7236924273","","","","","","","","","","","","","","76","L","3","","","104","main_expt",""
"","bandit","184","725923","0.0-146.0-0.0","98854899","wem/bandit_party_2","A2RXPK0UN2O745","either","8","508","","","","","","","0","1","0","","0.743719778","0.8","0.6","0.2","0.4","0.824483439","0.3499435223","0.2354673658","0.743719778","","","","","","","","","","","","","","76","L","3","","","105","main_expt",""
"","bandit","185","728154","0.0-147.0-0.0","98854899","wem/bandit_party_2","A2RXPK0UN2O745","either","8","721","","","","","","","1","0","0","0.7985687284","","0.8","0.6","0.2","0.4","","","","","0.9208810438","0.3602262465","0.159398249","0.7985687284","","","","","","","","","","76","L","3","","","106","main_expt",""
"","bandit","186","730520","0.0-148.0-0.0","98854899","wem/bandit_party_2","A2RXPK0UN2O745","either","8","858","","","","","","","1","0","0","0.799345197","","0.8","0.6","0.2","0.4","","","","","0.8911910097","0.3252215163","0.1295169146","0.799345197","","","","","","","","","","76","L","3","","","107","main_expt",""
"","bandit","187","732676","0.0-149.0-0.0","98854899","wem/bandit_party_2","A2RXPK0UN2O745","either","8","644","","","","","","","0","1","0","","0.8681690713","0.8","0.6","0.2","0.4","0.8450149587","0.2812406992","0.07754053308","0.8681690713","","","","","","","","","","","","","","76","L","3","","","108","main_expt",""
"","bandit","188","734874","0.0-150.0-0.0","98854899","wem/bandit_party_2","A2RXPK0UN2O745","either","8","688","","","","","","","0","1","0","","0.8556732204","0.8","0.6","0.2","0.4","0.868327257","0.2559497519","0.06591215473","0.8556732204","","","","","","","","","","","","","","76","L","3","","","109","main_expt",""
"","bandit","189","737058","0.0-151.0-0.0","98854899","wem/bandit_party_2","A2RXPK0UN2O745","either","8","675","","","","","","","0","1","0","","0.8669893864","0.8","0.6","0.2","0.4","0.8868335222","0.2817400418","0.1189546392","0.8669893864","","","","","","","","","","","","","","76","L","3","","","110","main_expt",""
"","bandit","190","739721","0.0-152.0-0.0","98854899","wem/bandit_party_2","A2RXPK0UN2O745","either","8","1155","","","","","","","1","0","0","0.799383849","","0.8","0.6","0.2","0.4","","","","","0.8770728171","0.2773620367","0.09523351692","0.799383849","","","","","","","","","","76","L","3","","","111","main_expt",""
"","bandit","191","741983","0.0-153.0-0.0","98854899","wem/bandit_party_2","A2RXPK0UN2O745","either","8","753","","","","","","","0","1","0","","0.859799476","0.8","0.6","0.2","0.4","0.8481710002","0.2833316415","0.107489667","0.859799476","","","","","","","","","","","","","","76","L","3","","","112","main_expt",""
"","bandit","192","745450","0.0-154.0-0.0","98854899","wem/bandit_party_2","A2RXPK0UN2O745","either","8","1957","","","","","","","0","1","0","","0.7932436089","0.8","0.6","0.2","0.4","0.8573528835","0.3433702059","0.1026187258","0.7932436089","","","","","","","","","","","","","","76","L","3","","","113","main_expt",""
"","bandit","193","749002","0.0-155.0-0.0","98854899","wem/bandit_party_2","A2RXPK0UN2O745","either","8","2041","","","","","","","0","0","1","","0.849407262","0.8","0.6","0.2","0.4","0.8291807482","0.4828882278","0.1044839951","0.849407262","","","","","","","","","","","","","","76","L","3","","","114","main_expt",""
"","bandit","194","751001","0.0-156.0-0.0","98854899","wem/bandit_party_2","A2RXPK0UN2O745","either","8","490","","","","","","","0","1","0","","0.8882716547","0.8","0.6","0.2","0.4","0.761972944","0.54932579","0.1213931844","0.8882716547","","","","","","","","","","","","","","76","L","3","","","115","main_expt",""
"","bandit","195","753129","0.0-157.0-0.0","98854899","wem/bandit_party_2","A2RXPK0UN2O745","either","8","619","","","","","","","1","0","0","0.8741354715","","0.8","0.6","0.2","0.4","","","","","0.786197192","0.6971345968","0.1184144227","0.8741354715","","","","","","","","","","76","L","3","","","116","main_expt",""
"","bandit","196","755254","0.0-158.0-0.0","98854899","wem/bandit_party_2","A2RXPK0UN2O745","either","8","603","","","","","","","0","0","1","","0.8083823922","0.8","0.6","0.2","0.4","0.7834453561","0.5396272374","0.1983931569","0.8083823922","","","","","","","","","","","","","","76","L","3","","","117","main_expt",""
"","bandit","197","756841","0.0-159.0-0.0","98854899","wem/bandit_party_2","A2RXPK0UN2O745","either","8","78","","","","","","","1","0","0","0.868525306","","0.8","0.6","0.2","0.4","","","","","0.6742380839","0.5544567993","0.2840039584","0.868525306","","","","","","","","","","76","L","3","","","118","main_expt",""
"","bandit","198","758858","0.0-160.0-0.0","98854899","wem/bandit_party_2","A2RXPK0UN2O745","either","8","506","","","","","","","0","0","1","0.8386471998","","0.8","0.6","0.2","0.4","","","","","0.7350700153","0.5504896642","0.3563325119","0.8386471998","","","","","","","","","","76","L","3","","","119","main_expt",""
"","bandit","199","760395","0.0-161.0-0.0","98854899","wem/bandit_party_2","A2RXPK0UN2O745","either","8","28","","","","","","","0","0","1","","0.5682387565","0.8","0.6","0.2","0.4","0.70601835","0.5812137135","0.5682387565","0.8103559508","","","","","","","","","","","","","","75","K","2","","","120","main_expt",""
"","bandit","200","762506","0.0-162.0-0.0","98854899","wem/bandit_party_2","A2RXPK0UN2O745","either","8","599","","","","","","","0","0","1","","0.5189107771","0.8","0.6","0.2","0.4","0.7347719752","0.6033058466","0.5189107771","0.8193015173","","","","","","","","","","","","","","75","K","2","","","121","main_expt",""
"","bandit","201","765145","0.0-163.0-0.0","98854899","wem/bandit_party_2","A2RXPK0UN2O745","either","8","1131","","","","","","","0","0","1","0.6102220397","","0.8","0.6","0.2","0.4","","","","","0.8270923978","0.6102220397","0.4428493372","0.8025146027","","","","","","","","","","74","J","1","","","122","main_expt",""
"","bandit","202","767138","0.0-164.0-0.0","98854899","wem/bandit_party_2","A2RXPK0UN2O745","either","8","481","","","","","","","0","0","1","0.6108151959","","0.8","0.6","0.2","0.4","","","","","0.7980631313","0.6108151959","0.472724465","0.8121847492","","","","","","","","","","74","J","1","","","123","main_expt",""
"","bandit","203","768650","0.0-165.0-0.0","98854899","wem/bandit_party_2","A2RXPK0UN2O745","either","8","3","","","","","","","0","0","1","0.7369852887","","0.8","0.6","0.2","0.4","","","","","0.7369852887","0.7117385939","0.4799585558","0.8299418439","","","","","","","","","","72","H","0","img/none_selected.jpg","","124","main_expt",""
"","bandit","204","770802","0.0-166.0-0.0","98854899","wem/bandit_party_2","A2RXPK0UN2O745","either","8","643","","","","","","","1","0","0","0.7465944313","","0.8","0.6","0.2","0.4","","","","","0.7465944313","0.7554186078","0.5080184993","0.825688343","","","","","","","","","","72","H","0","img/none_selected.jpg","","125","main_expt",""
"","bandit","205","772921","0.0-167.0-0.0","98854899","wem/bandit_party_2","A2RXPK0UN2O745","either","8","610","","","","","","","0","1","0","","0.7596834852","0.8","0.6","0.2","0.4","0.7596834852","0.8855751833","0.4555098289","0.8372054396","","","","","","","","","","","","","","72","H","0","img/none_selected.jpg","","126","main_expt",""
"","bandit","206","776089","0.0-168.0-0.0","98854899","wem/bandit_party_2","A2RXPK0UN2O745","either","8","1658","","","","","","","1","0","0","0.7398299979","","0.8","0.6","0.2","0.4","","","","","0.7398299979","0.8003015049","0.5475411796","0.7906689898","","","","","","","","","","72","H","0","img/none_selected.jpg","","127","main_expt",""
"","bandit","207","778420","0.0-169.0-0.0","98854899","wem/bandit_party_2","A2RXPK0UN2O745","either","8","762","","","","","","","0","0","1","0.7764866849","","0.8","0.6","0.2","0.4","","","","","0.7764866849","0.8403113951","0.612647382","0.8008571507","","","","","","","","","","72","H","0","img/none_selected.jpg","","128","main_expt",""
"","bandit","208","780850","0.0-170.0-0.0","98854899","wem/bandit_party_2","A2RXPK0UN2O745","either","8","921","","","","","","","1","0","0","0.6435675963","","0.8","0.6","0.2","0.4","","","","","0.6435675963","0.8826872071","0.7128970287","0.7829297973","","","","","","","","","","72","H","0","img/none_selected.jpg","","129","main_expt",""
"","bandit","209","783296","0.0-171.0-0.0","98854899","wem/bandit_party_2","A2RXPK0UN2O745","either","8","938","","","","","","","1","0","0","0.7030252038","","0.8","0.6","0.2","0.4","","","","","0.7030252038","0.8641000085","0.7309911721","0.6898445721","","","","","","","","","","72","H","0","img/none_selected.jpg","","130","main_expt",""
"","bandit","210","785626","0.0-172.0-0.0","98854899","wem/bandit_party_2","A2RXPK0UN2O745","either","8","818","","","","","","","1","0","0","0.6829232191","","0.8","0.6","0.2","0.4","","","","","0.6829232191","0.8752037592","0.73180147","0.5864867529","","","","","","","","","","72","H","0","img/none_selected.jpg","","131","main_expt",""
"","bandit","211","788057","0.0-173.0-0.0","98854899","wem/bandit_party_2","A2RXPK0UN2O745","either","8","920","","","","","","","0","0","1","0.7406452387","","0.8","0.6","0.2","0.4","","","","","0.7406452387","0.8279556795","0.8467134838","0.560122833","","","","","","","","","","72","H","0","img/none_selected.jpg","","132","main_expt",""
"","bandit","212","790317","0.0-174.0-0.0","98854899","wem/bandit_party_2","A2RXPK0UN2O745","either","8","747","","","","","","","0","0","1","","0.48439517","0.8","0.6","0.2","0.4","0.6666234363","0.8194722428","0.8481264083","0.48439517","","","","","","","","","","","","","","76","L","3","","","133","main_expt",""
"","bandit","213","792602","0.0-175.0-0.0","98854899","wem/bandit_party_2","A2RXPK0UN2O745","either","8","775","","","","","","","0","1","0","","0.680542061","0.8","0.6","0.2","0.4","0.680542061","0.8037084922","0.8771050955","0.3919863126","","","","","","","","","","","","","","72","H","0","img/none_selected.jpg","","134","main_expt",""
"","bandit","214","795466","0.0-176.0-0.0","98854899","wem/bandit_party_2","A2RXPK0UN2O745","either","8","1354","","","","","","","1","0","0","0.7006187635","","0.8","0.6","0.2","0.4","","","","","0.7006187635","0.8155916457","0.9103241533","0.5174750093","","","","","","","","","","72","H","0","img/none_selected.jpg","","135","main_expt",""
"","bandit","215","808681","0.0-177.0-0.0","98854899","wem/bandit_party_2","A2RXPK0UN2O745","either","8","11703","","","","","","","0","1","0","","0.6936815578","0.8","0.6","0.2","0.4","0.6936815578","0.8281957705","0.9126032517","0.4264762493","","","","","","","","","","","","","","72","H","0","img/none_selected.jpg","","136","main_expt",""
"","bandit","216","810921","0.0-178.0-0.0","98854899","wem/bandit_party_2","A2RXPK0UN2O745","either","8","727","","","","","","","1","0","0","0.6531428085","","0.8","0.6","0.2","0.4","","","","","0.6531428085","0.7055403129","0.8983360858","0.5351999402","","","","","","","","","","72","H","0","img/none_selected.jpg","","137","main_expt",""
"","bandit","217","814173","0.0-179.0-0.0","98854899","wem/bandit_party_2","A2RXPK0UN2O745","either","8","1743","","","","","","","1","0","0","0.6769758131","","0.8","0.6","0.2","0.4","","","","","0.6769758131","0.6884351598","0.8851370462","0.4758748922","","","","","","","","","","72","H","0","img/none_selected.jpg","","138","main_expt",""
"","bandit","218","817041","0.0-180.0-0.0","98854899","wem/bandit_party_2","A2RXPK0UN2O745","either","8","1357","","","","","","","1","0","0","0.7649589049","","0.8","0.6","0.2","0.4","","","","","0.7649589049","0.6090423031","0.8662270416","0.4039793023","","","","","","","","","","72","H","0","img/none_selected.jpg","","139","main_expt",""
"","bandit","219","819434","0.0-181.0-0.0","98854899","wem/bandit_party_2","A2RXPK0UN2O745","either","8","884","","","","","","","1","0","0","0.7674202191","","0.8","0.6","0.2","0.4","","","","","0.7674202191","0.7000077187","0.8345767194","0.384774136","","","","","","","","","","72","H","0","img/none_selected.jpg","","140","main_expt",""
"","bandit","220","821896","0.0-182.0-0.0","98854899","wem/bandit_party_2","A2RXPK0UN2O745","either","8","951","","","","","","","1","0","0","0.8575114448","","0.8","0.6","0.2","0.4","","","","","0.8575114448","0.6643185619","0.8783670964","0.327254859","","","","","","","","","","72","H","0","img/none_selected.jpg","","141","main_expt",""
"","bandit","221","824201","0.0-183.0-0.0","98854899","wem/bandit_party_2","A2RXPK0UN2O745","either","8","796","","","","","","","1","0","0","0.8134430427","","0.8","0.6","0.2","0.4","","","","","0.8134430427","0.7079845674","0.8895828315","0.4536641492","","","","","","","","","","72","H","0","img/none_selected.jpg","","142","main_expt",""
"","bandit","222","827273","0.0-184.0-0.0","98854899","wem/bandit_party_2","A2RXPK0UN2O745","either","8","1561","","","","","","","0","1","0","","0.8345505038","0.8","0.6","0.2","0.4","0.8345505038","0.6624187643","0.9053928798","0.4348486293","","","","","","","","","","","","","","72","H","0","img/none_selected.jpg","","143","main_expt",""
"","bandit","223","830172","0.0-185.0-0.0","98854899","wem/bandit_party_2","A2RXPK0UN2O745","either","8","1388","","","","","","","0","0","1","0.7482817554","","0.8","0.6","0.2","0.4","","","","","0.7482817554","0.6779247185","0.9033088386","0.4086594597","","","","","","","","","","72","H","0","img/none_selected.jpg","","144","main_expt",""
"","bandit","224","833351","0.0-186.0-0.0","98854899","wem/bandit_party_2","A2RXPK0UN2O745","either","8","1599","","","","","","","1","0","0","0.7400387939","","0.8","0.6","0.2","0.4","","","","","0.7400387939","0.7216102374","0.8572864227","0.4420772456","","","","","","","","","","72","H","0","img/none_selected.jpg","","145","main_expt",""
"","bandit","225","835845","0.0-187.0-0.0","98854899","wem/bandit_party_2","A2RXPK0UN2O745","either","8","985","","","","","","","1","0","0","0.795971973","","0.8","0.6","0.2","0.4","","","","","0.795971973","0.7837267619","0.8687508917","0.508741462","","","","","","","","","","72","H","0","img/none_selected.jpg","","146","main_expt",""
"","bandit","226","837712","0.0-188.0-0.0","98854899","wem/bandit_party_2","A2RXPK0UN2O745","either","8","358","","","","","","","1","0","0","0.7503502301","","0.8","0.6","0.2","0.4","","","","","0.7503502301","0.7652264833","0.8657621525","0.4624398998","","","","","","","","","","72","H","0","img/none_selected.jpg","","147","main_expt",""
"","bandit","227","840879","0.0-189.0-0.0","98854899","wem/bandit_party_2","A2RXPK0UN2O745","either","8","1652","","","","","","","0","0","1","0.8200474043","","0.8","0.6","0.2","0.4","","","","","0.8200474043","0.7358716413","0.8362891365","0.4062589849","","","","","","","","","","72","H","0","img/none_selected.jpg","","148","main_expt",""
"","bandit","228","842770","0.0-190.0-0.0","98854899","wem/bandit_party_2","A2RXPK0UN2O745","either","8","380","","","","","","","0","0","1","","0.4895331913","0.8","0.6","0.2","0.4","0.8509010271","0.7129200786","0.8144386017","0.4895331913","","","","","","","","","","","","","","76","L","3","","","149","main_expt",""
"","bandit","229","844664","0.0-191.0-0.0","98854899","wem/bandit_party_2","A2RXPK0UN2O745","either","8","385","","","","","","","0","1","0","","0.4704746919","0.8","0.6","0.2","0.4","0.8298908313","0.705531668","0.6948055455","0.4704746919","","","","","","","","","","","","","","76","L","3","","","150","main_expt",""
"","bandit","230","847138","0.0-192.0-0.0","98854899","wem/bandit_party_2","A2RXPK0UN2O745","either","8","961","","","","","","","0","0","1","","0.4725745774","0.8","0.6","0.2","0.4","0.7362749002","0.5744604188","0.6231991314","0.4725745774","","","","","","","","","","","","","","76","L","3","","","151","main_expt",""
"","bandit","231","849321","0.0-193.0-0.0","98854899","wem/bandit_party_2","A2RXPK0UN2O745","either","8","674","","","","","","","1","0","0","0.4943906398","","0.8","0.6","0.2","0.4","","","","","0.7601791643","0.5372669321","0.7045057733","0.4943906398","","","","","","","","","","76","L","3","","","152","main_expt",""
"","bandit","232","854442","0.0-194.0-0.0","98854899","wem/bandit_party_2","A2RXPK0UN2O745","either","8","3611","","","","","","","0","1","0","","0.4639524782","0.8","0.6","0.2","0.4","0.7590648118","0.5447545218","0.5331338622","0.4639524782","","","","","","","","","","","","","","76","L","3","","","153","main_expt",""
"","bandit","233","857877","0.0-195.0-0.0","98854899","wem/bandit_party_2","A2RXPK0UN2O745","either","8","1925","","","","","","","0","0","1","0.3935792086","","0.8","0.6","0.2","0.4","","","","","0.7805387907","0.4191749193","0.5096720896","0.3935792086","","","","","","","","","","76","L","3","","","154","main_expt",""
"","bandit","234","860369","0.0-196.0-0.0","98854899","wem/bandit_party_2","A2RXPK0UN2O745","either","8","982","","","","","","","1","0","0","0.8450805748","","0.8","0.6","0.2","0.4","","","","","0.8450805748","0.4269770229","0.4719011365","0.4127348605","","","","","","","","","","72","H","0","img/none_selected.jpg","","155","main_expt",""
"","bandit","235","862512","0.0-197.0-0.0","98854899","wem/bandit_party_2","A2RXPK0UN2O745","either","8","634","","","","","","","0","0","1","0.8513110265","","0.8","0.6","0.2","0.4","","","","","0.8513110265","0.4589862704","0.5818713095","0.3697675558","","","","","","","","","","72","H","0","img/none_selected.jpg","","156","main_expt",""
"","bandit","236","874762","0.0-198.0-0.0","98854899","wem/bandit_party_2","A2RXPK0UN2O745","either","8","10738","","","","","","","1","0","0","0.3604398023","","0.8","0.6","0.2","0.4","","","","","0.8226236001","0.5370818316","0.5804022203","0.3604398023","","","","","","","","","","76","L","3","","","157","main_expt",""
"","bandit","237","876793","0.0-199.0-0.0","98854899","wem/bandit_party_2","A2RXPK0UN2O745","either","8","521","","","","","","","0","1","0","","0.4061750625","0.8","0.6","0.2","0.4","0.8843141367","0.4757376888","0.4773166223","0.4061750625","","","","","","","","","","","","","","76","L","3","","","158","main_expt",""
"","bandit","238","894394","0.0-200.0-0.0","98854899","wem/bandit_party_2","A2RXPK0UN2O745","either","8","16091","","","","","","","0","1","0","","0.4696417586","0.8","0.6","0.2","0.4","0.8078798749","0.4887287223","0.419048585","0.4696417586","","","","","","","","","","","","","","76","L","3","","","159","main_expt",""
"","bandit","239","896641","0.0-201.0-0.0","98854899","wem/bandit_party_2","A2RXPK0UN2O745","either","8","735","","","","","","","0","0","1","","0.4659569923","0.8","0.6","0.2","0.4","0.7689164465","0.4588489809","0.4672574386","0.4659569923","","","","","","","","","","","","","","76","L","3","","","160","main_expt",""
"","bandit","240","899146","0.0-202.0-0.0","98854899","wem/bandit_party_2","A2RXPK0UN2O745","either","8","995","","","","","","","1","0","0","0.7863156869","","0.8","0.6","0.2","0.4","","","","","0.7863156869","0.4920004413","0.5612985374","0.3947207546","","","","","","","","","","72","H","0","img/none_selected.jpg","","161","main_expt",""
"","bandit","241","901393","0.0-203.0-0.0","98854899","wem/bandit_party_2","A2RXPK0UN2O745","either","8","738","","","","","","","0","1","0","","0.8098475403","0.8","0.6","0.2","0.4","0.8098475403","0.5389881207","0.5288680036","0.2460097942","","","","","","","","","","","","","","72","H","0","img/none_selected.jpg","","162","main_expt",""
"","bandit","242","903522","0.0-204.0-0.0","98854899","wem/bandit_party_2","A2RXPK0UN2O745","either","8","619","","","","","","","0","1","0","","0.8222712862","0.8","0.6","0.2","0.4","0.8222712862","0.6040136001","0.6096883849","0.3603606056","","","","","","","","","","","","","","72","H","0","img/none_selected.jpg","","163","main_expt",""
"","bandit","243","907186","0.0-205.0-0.0","98854899","wem/bandit_party_2","A2RXPK0UN2O745","either","8","2154","","","","","","","1","0","0","0.7876031225","","0.8","0.6","0.2","0.4","","","","","0.7876031225","0.623756827","0.4868922288","0.2507209727","","","","","","","","","","72","H","0","img/none_selected.jpg","","164","main_expt",""
"","bandit","244","909403","0.0-206.0-0.0","98854899","wem/bandit_party_2","A2RXPK0UN2O745","either","8","641","","","","","","","1","0","0","0.7435052823","","0.8","0.6","0.2","0.4","","","","","0.7435052823","0.6164515281","0.4055552053","0.2162043423","","","","","","","","","","72","H","0","img/none_selected.jpg","","165","main_expt",""
"","bandit","245","911273","0.0-207.0-0.0","98854899","wem/bandit_party_2","A2RXPK0UN2O745","either","8","360","","","","","","","0","0","1","0.6545739251","","0.8","0.6","0.2","0.4","","","","","0.6545739251","0.4660222187","0.4748236382","0.2573409732","","","","","","","","","","72","H","0","img/none_selected.jpg","","166","main_expt",""
"","bandit","246","913392","0.0-208.0-0.0","98854899","wem/bandit_party_2","A2RXPK0UN2O745","either","8","609","","","","","","","1","0","0","0.6645907447","","0.8","0.6","0.2","0.4","","","","","0.6645907447","0.3336058786","0.4725242185","0.4016088623","","","","","","","","","","72","H","0","img/none_selected.jpg","","167","main_expt",""
"","bandit","247","915912","0.0-209.0-0.0","98854899","wem/bandit_party_2","A2RXPK0UN2O745","either","8","1008","","","","","","","1","0","0","0.7243751722","","0.8","0.6","0.2","0.4","","","","","0.7243751722","0.2887723434","0.4775208721","0.5522858252","","","","","","","","","","72","H","0","img/none_selected.jpg","","168","main_expt",""
"","bandit","248","919671","0.0-210.0-0.0","98854899","wem/bandit_party_2","A2RXPK0UN2O745","either","8","2237","","","","","","","1","0","0","0.6453105543","","0.8","0.6","0.2","0.4","","","","","0.6453105543","0.3357056981","0.4682732781","0.5461138513","","","","","","","","","","72","H","0","img/none_selected.jpg","","169","main_expt",""
"","bandit","249","922538","0.0-211.0-0.0","98854899","wem/bandit_party_2","A2RXPK0UN2O745","either","8","1346","","","","","","","1","0","0","0.5334010147","","0.8","0.6","0.2","0.4","","","","","0.5334010147","0.4179693295","0.4246621539","0.4402798015","","","","","","","","","","72","H","0","img/none_selected.jpg","","170","main_expt",""
"","bandit","250","928120","0.0-212.0-0.0","98854899","wem/bandit_party_2","A2RXPK0UN2O745","either","8","4072","","","","","","","1","0","0","0.498122785","","0.8","0.6","0.2","0.4","","","","","0.498122785","0.3050406521","0.2843380906","0.450294849","","","","","","","","","","72","H","0","img/none_selected.jpg","","171","main_expt",""
"","bandit","251","930443","0.0-213.0-0.0","98854899","wem/bandit_party_2","A2RXPK0UN2O745","either","8","738","","","","","","","1","0","0","0.4356988635","","0.8","0.6","0.2","0.4","","","","","0.4356988635","0.3364500029","0.2668952485","0.6475755847","","","","","","","","","","72","H","0","img/none_selected.jpg","","172","main_expt",""
"","bandit","252","932586","0.0-214.0-0.0","98854899","wem/bandit_party_2","A2RXPK0UN2O745","either","8","629","","","","","","","0","0","1","0.3964199688","","0.8","0.6","0.2","0.4","","","","","0.3964199688","0.421339117","0.3802819164","0.6095255177","","","","","","","","","","72","H","0","img/none_selected.jpg","","173","main_expt",""
"","bandit","253","935034","0.0-215.0-0.0","98854899","wem/bandit_party_2","A2RXPK0UN2O745","either","8","936","","","","","","","0","0","1","0.3194345802","","0.8","0.6","0.2","0.4","","","","","0.3194345802","0.4913704717","0.4042455133","0.5003628493","","","","","","","","","","72","H","0","img/none_selected.jpg","","174","main_expt",""
"","bandit","254","936842","0.0-216.0-0.0","98854899","wem/bandit_party_2","A2RXPK0UN2O745","either","8","297","","","","","","","0","1","0","","0.5576212716","0.8","0.6","0.2","0.4","0.2865230234","0.5882611891","0.4393989914","0.5576212716","","","","","","","","","","","","","","76","L","3","","","175","main_expt",""
"","bandit","255","939074","0.0-217.0-0.0","98854899","wem/bandit_party_2","A2RXPK0UN2O745","either","8","721","","","","","","","0","1","0","","0.6230679906","0.8","0.6","0.2","0.4","0.3352692614","0.6313830356","0.4705173801","0.6230679906","","","","","","","","","","","","","","76","L","3","","","176","main_expt",""
"","bandit","256","941914","0.0-218.0-0.0","98854899","wem/bandit_party_2","A2RXPK0UN2O745","either","8","1327","","","","","","","0","0","1","","0.6501784685","0.8","0.6","0.2","0.4","0.3389264817","0.5531265137","0.4698597734","0.6501784685","","","","","","","","","","","","","","76","L","3","","","177","main_expt",""
"","bandit","257","943928","0.0-219.0-0.0","98854899","wem/bandit_party_2","A2RXPK0UN2O745","either","8","504","","","","","","","0","0","1","0.3709673039","","0.8","0.6","0.2","0.4","","","","","0.3709673039","0.4621004187","0.3570804947","0.6334155083","","","","","","","","","","72","H","0","img/none_selected.jpg","","178","main_expt",""
"","bandit","258","947593","0.0-220.0-0.0","98854899","wem/bandit_party_2","A2RXPK0UN2O745","either","8","2154","","","","","","","0","0","1","0.2940579202","","0.8","0.6","0.2","0.4","","","","","0.2940579202","0.512884041","0.3441184995","0.7548338289","","","","","","","","","","72","H","0","img/none_selected.jpg","","179","main_expt",""
"","bandit","259","949361","0.0-221.0-0.0","98854899","wem/bandit_party_2","A2RXPK0UN2O745","either","8","169","","","","","","","0","0","1","","0.8074073351","0.8","0.6","0.2","0.4","0.3218724025","0.506744284","0.3646136501","0.8074073351","","","","","","","","","","","","","","76","L","3","","","180","main_expt",""
"","bandit","260","951899","0.0-222.0-0.0","98854899","wem/bandit_party_2","A2RXPK0UN2O745","either","8","1025","","","","","","","0","1","0","","0.3777688814","0.8","0.6","0.2","0.4","0.3633286182","0.4556494723","0.3777688814","0.780721516","","","","","","","","","","","","","","75","K","2","","","181","main_expt",""
"","bandit","261","953936","0.0-223.0-0.0","98854899","wem/bandit_party_2","A2RXPK0UN2O745","either","8","513","","","","","","","0","1","0","","0.4578236703","0.8","0.6","0.2","0.4","0.3324048704","0.4494525508","0.4578236703","0.7647415088","","","","","","","","","","","","","","75","K","2","","","182","main_expt",""
"","bandit","262","955785","0.0-224.0-0.0","98854899","wem/bandit_party_2","A2RXPK0UN2O745","either","8","339","","","","","","","0","1","0","","0.4244895098","0.8","0.6","0.2","0.4","0.3092830871","0.5189143621","0.4244895098","0.7349307529","","","","","","","","","","","","","","75","K","2","","","183","main_expt",""
"","bandit","263","957911","0.0-225.0-0.0","98854899","wem/bandit_party_2","A2RXPK0UN2O745","either","8","615","","","","","","","0","0","1","","0.3566779322","0.8","0.6","0.2","0.4","0.3905692936","0.5167606333","0.3566779322","0.8298088288","","","","","","","","","","","","","","75","K","2","","","184","main_expt",""
"","bandit","264","960050","0.0-226.0-0.0","98854899","wem/bandit_party_2","A2RXPK0UN2O745","either","8","627","","","","","","","0","0","1","","0.3737416658","0.8","0.6","0.2","0.4","0.4626192444","0.5270237034","0.3737416658","0.7894193193","","","","","","","","","","","","","","75","K","2","","","185","main_expt",""
"","bandit","265","961930","0.0-227.0-0.0","98854899","wem/bandit_party_2","A2RXPK0UN2O745","either","8","369","","","","","","","0","1","0","","0.3120176694","0.8","0.6","0.2","0.4","0.6061762586","0.5556036571","0.3120176694","0.7665022487","","","","","","","","","","","","","","75","K","2","","","186","main_expt",""
"","bandit","266","964202","0.0-228.0-0.0","98854899","wem/bandit_party_2","A2RXPK0UN2O745","either","8","760","","","","","","","0","0","1","","0.4134691065","0.8","0.6","0.2","0.4","0.530958695","0.5865134094","0.4134691065","0.7394266891","","","","","","","","","","","","","","75","K","2","","","187","main_expt",""
"","bandit","267","966178","0.0-229.0-0.0","98854899","wem/bandit_party_2","A2RXPK0UN2O745","either","8","465","","","","","","","0","0","1","0.4637770407","","0.8","0.6","0.2","0.4","","","","","0.380024655","0.5034866795","0.4637770407","0.6567361442","","","","","","","","","","75","K","2","","","188","main_expt",""
"","bandit","268","968251","0.0-230.0-0.0","98854899","wem/bandit_party_2","A2RXPK0UN2O745","either","8","560","","","","","","","0","0","1","","0.5761715841","0.8","0.6","0.2","0.4","0.4563575644","0.5761715841","0.5739034088","0.6572443956","","","","","","","","","","","","","","74","J","1","","","189","main_expt",""
"","bandit","269","970435","0.0-231.0-0.0","98854899","wem/bandit_party_2","A2RXPK0UN2O745","either","8","671","","","","","","","0","0","1","0.5325489933","","0.8","0.6","0.2","0.4","","","","","0.4540853102","0.5325489933","0.5859504021","0.6735764162","","","","","","","","","","74","J","1","","","190","main_expt",""
"","bandit","270","972372","0.0-232.0-0.0","98854899","wem/bandit_party_2","A2RXPK0UN2O745","either","8","360","","","","","","","0","0","1","","0.5325822721","0.8","0.6","0.2","0.4","0.4328006462","0.5614919892","0.5325822721","0.5997518312","","","","","","","","","","","","","","75","K","2","","","191","main_expt",""
"","bandit","271","974771","0.0-233.0-0.0","98854899","wem/bandit_party_2","A2RXPK0UN2O745","either","8","886","","","","","","","0","0","1","","0.6582178794","0.8","0.6","0.2","0.4","0.4979354652","0.5972832049","0.4622441745","0.6582178794","","","","","","","","","","","","","","76","L","3","","","192","main_expt",""
"","bandit","272","976576","0.0-234.0-0.0","98854899","wem/bandit_party_2","A2RXPK0UN2O745","either","8","295","","","","","","","0","0","1","0.4887187701","","0.8","0.6","0.2","0.4","","","","","0.4887187701","0.6997951875","0.4765036663","0.7246172867","","","","","","","","","","72","H","0","img/none_selected.jpg","","193","main_expt",""
"","bandit","273","978593","0.0-235.0-0.0","98854899","wem/bandit_party_2","A2RXPK0UN2O745","either","8","506","","","","","","","0","0","1","0.4993882896","","0.8","0.6","0.2","0.4","","","","","0.4993882896","0.7511051992","0.4504155567","0.7721250451","","","","","","","","","","72","H","0","img/none_selected.jpg","","194","main_expt",""
"","bandit","274","980753","0.0-236.0-0.0","98854899","wem/bandit_party_2","A2RXPK0UN2O745","either","8","649","","","","","","","1","0","0","0.5011331455","","0.8","0.6","0.2","0.4","","","","","0.5011331455","0.8281457055","0.4354252764","0.8366496483","","","","","","","","","","72","H","0","img/none_selected.jpg","","195","main_expt",""
"","bandit","275","989359","0.0-237.0-0.0","98854899","wem/bandit_party_2","A2RXPK0UN2O745","either","8","7011","","","","","","","0","0","1","0.4487960683","","0.8","0.6","0.2","0.4","","","","","0.4487960683","0.8248544968","0.4170899215","0.8484646997","","","","","","","","","","72","H","0","img/none_selected.jpg","","196","main_expt",""
"","bandit","276","990914","0.0-238.0-0.0","98854899","wem/bandit_party_2","A2RXPK0UN2O745","either","8","42","","","","","","","0","1","0","","0.8734060335","0.8","0.6","0.2","0.4","0.3975590019","0.8532714289","0.4149059055","0.8734060335","","","","","","","","","","","","","","76","L","3","","","197","main_expt",""
"","bandit","277","993899","0.0-239.0-0.0","98854899","wem/bandit_party_2","A2RXPK0UN2O745","either","8","1474","","","","","","","0","1","0","","0.8515360685","0.8","0.6","0.2","0.4","0.4161601929","0.7587337752","0.4737306044","0.8515360685","","","","","","","","","","","","","","76","L","3","","","198","main_expt",""
"","bandit","278","998465","0.0-240.0-0.0","98854899","wem/bandit_party_2","A2RXPK0UN2O745","either","8","3055","","","","","","","0","1","0","","0.8805923715","0.8","0.6","0.2","0.4","0.4483979408","0.8124408481","0.4541760911","0.8805923715","","","","","","","","","","","","","","76","L","3","","","199","main_expt",""
"","bandit","279","1004707","0.0-241.0-0.0","98854899","wem/bandit_party_2","A2RXPK0UN2O745","either","8","4732","","","","","","","0","1","0","","0.9645818821","0.8","0.6","0.2","0.4","0.5303380975","0.7935778268","0.3964714959","0.9645818821","","","","","","","","","","","","","","76","L","3","","","200","main_expt",""
"","bandit","280","1012221","0.0-242.0-0.0","98854899","wem/bandit_party_2","A2RXPK0UN2O745","either","8","5975","","","","","","","1","0","0","0.9689478708","","0.8","0.6","0.2","0.4","","","","","0.4014045657","0.736942723","0.3815447649","0.9689478708","","","","","","","","","","76","L","3","","","201","main_expt",""
"","bandit","281","1017729","0.0-243.0-0.0","98854899","wem/bandit_party_2","A2RXPK0UN2O745","either","8","3992","","","","","","","0","1","0","","0.9678291885","0.8","0.6","0.2","0.4","0.5115169607","0.7001951276","0.3726367513","0.9678291885","","","","","","","","","","","","","","76","L","3","","","202","main_expt",""
"","bandit","282","1021761","0.0-244.0-0.0","98854899","wem/bandit_party_2","A2RXPK0UN2O745","either","8","2517","","","","","","","0","1","0","","0.9633244117","0.8","0.6","0.2","0.4","0.5026191452","0.7209300446","0.3062653216","0.9633244117","","","","","","","","","","","","","","76","L","3","","","203","main_expt",""
"","bandit","283","1024171","0.0-245.0-0.0","98854899","wem/bandit_party_2","A2RXPK0UN2O745","either","8","899","","","","","","","1","0","0","0.9730812582","","0.8","0.6","0.2","0.4","","","","","0.4736298566","0.8574132932","0.2848501254","0.9730812582","","","","","","","","","","76","L","3","","","204","main_expt",""
"","bandit","284","1027378","0.0-246.0-0.0","98854899","wem/bandit_party_2","A2RXPK0UN2O745","either","8","1614","","","","","","","1","0","0","0.9521206422","","0.8","0.6","0.2","0.4","","","","","0.6121858428","0.9038760074","0.3457586416","0.9521206422","","","","","","","","","","76","L","3","","","205","main_expt",""
"","bandit","285","1032778","0.0-247.0-0.0","98854899","wem/bandit_party_2","A2RXPK0UN2O745","either","8","3889","","","","","","","0","1","0","","0.9614764056","0.8","0.6","0.2","0.4","0.6377028942","0.9273356803","0.4609097875","0.9614764056","","","","","","","","","","","","","","76","L","3","","","206","main_expt",""
"","bandit","286","1046596","0.0-248.0-0.0","98854899","wem/bandit_party_2","A2RXPK0UN2O745","either","8","12306","","","","","","","0","1","0","","0.4980316736","0.8","0.6","0.2","0.4","0.5700483165","0.9502037039","0.4980316736","0.9625830716","","","","","","","","","","","","","","75","K","2","","","207","main_expt",""
"","bandit","287","1056241","0.0-249.0-0.0","98854899","wem/bandit_party_2","A2RXPK0UN2O745","either","8","8130","","","","","","","0","0","1","","0.4537691537","0.8","0.6","0.2","0.4","0.624428721","0.944094639","0.4537691537","0.9359306517","","","","","","","","","","","","","","75","K","2","","","208","main_expt",""
"","bandit","288","1059011","0.0-250.0-0.0","98854899","wem/bandit_party_2","A2RXPK0UN2O745","either","8","1251","","","","","","","0","0","1","0.4475842875","","0.8","0.6","0.2","0.4","","","","","0.4861871301","0.9070839441","0.4475842875","0.9632917203","","","","","","","","","","75","K","2","","","209","main_expt",""
"","bandit","289","1060978","0.0-251.0-0.0","98854899","wem/bandit_party_2","A2RXPK0UN2O745","either","8","453","","","","","","","0","1","0","","0.9633226214","0.8","0.6","0.2","0.4","0.3956361612","0.8960653589","0.4803454055","0.9633226214","","","","","","","","","","","","","","76","L","3","","","210","main_expt",""
"","bandit","290","1063415","0.0-252.0-0.0","98854899","wem/bandit_party_2","A2RXPK0UN2O745","either","8","896","","","","","","","0","1","0","","0.9719781217","0.8","0.6","0.2","0.4","0.3599204452","0.9155455821","0.4126443349","0.9719781217","","","","","","","","","","","","","","76","L","3","","","211","main_expt",""
"","bandit","291","1065696","0.0-253.0-0.0","98854899","wem/bandit_party_2","A2RXPK0UN2O745","either","8","771","","","","","","","0","1","0","","0.9700781686","0.8","0.6","0.2","0.4","0.3349000901","0.9087954588","0.3384802849","0.9700781686","","","","","","","","","","","","","","76","L","3","","","212","main_expt",""
"","bandit","292","1072866","0.0-254.0-0.0","98854899","wem/bandit_party_2","A2RXPK0UN2O745","either","8","5658","","","","","","","0","1","0","","0.971165811","0.8","0.6","0.2","0.4","0.3183344176","0.8528540962","0.3039242722","0.971165811","","","","","","","","","","","","","","76","L","3","","","213","main_expt",""
"","bandit","293","1079873","0.0-255.0-0.0","98854899","wem/bandit_party_2","A2RXPK0UN2O745","either","8","5495","","","","","","","0","1","0","","0.9627117","0.8","0.6","0.2","0.4","0.2390758011","0.8506041988","0.4541530846","0.9627117","","","","","","","","","","","","","","76","L","3","","","214","main_expt",""
"","bandit","294","1082922","0.0-256.0-0.0","98854899","wem/bandit_party_2","A2RXPK0UN2O745","either","8","1537","","","","","","","1","0","0","0.9552130497","","0.8","0.6","0.2","0.4","","","","","0.1997060473","0.8001829978","0.5101749692","0.9552130497","","","","","","","","","","76","L","3","","","215","main_expt",""
"","bandit","295","1089937","0.0-257.0-0.0","98854899","wem/bandit_party_2","A2RXPK0UN2O745","either","8","5501","","","","","","","0","1","0","","0.9220350188","0.8","0.6","0.2","0.4","0.2326539104","0.733614842","0.5580520347","0.9220350188","","","","","","","","","","","","","","76","L","3","","","216","main_expt",""
"","bandit","296","1092250","0.0-258.0-0.0","98854899","wem/bandit_party_2","A2RXPK0UN2O745","either","8","801","","","","","","","0","1","0","","0.8736667029","0.8","0.6","0.2","0.4","0.2319826337","0.7479737912","0.4368451062","0.8736667029","","","","","","","","","","","","","","76","L","3","","","217","main_expt",""
"","bandit","297","1094242","0.0-259.0-0.0","98854899","wem/bandit_party_2","A2RXPK0UN2O745","either","8","479","","","","","","","1","0","0","0.7602784417","","0.8","0.6","0.2","0.4","","","","","0.3143382807","0.7713398237","0.3963441813","0.7602784417","","","","","","","","","","76","L","3","","","218","main_expt",""
"","bandit","298","1099025","0.0-260.0-0.0","98854899","wem/bandit_party_2","A2RXPK0UN2O745","either","8","3271","","","","","","","0","1","0","","0.7643050859","0.8","0.6","0.2","0.4","0.3304972923","0.8077055691","0.4809426617","0.7643050859","","","","","","","","","","","","","","76","L","3","","","219","main_expt",""
"","bandit","299","1101193","0.0-261.0-0.0","98854899","wem/bandit_party_2","A2RXPK0UN2O745","either","8","653","","","","","","","1","0","0","0.7793587236","","0.8","0.6","0.2","0.4","","","","","0.2866104843","0.7778114837","0.397759556","0.7793587236","","","","","","","","","","76","L","3","","","220","main_expt",""
"","bandit","300","1103232","0.0-262.0-0.0","98854899","wem/bandit_party_2","A2RXPK0UN2O745","either","8","418","","","","","","","0","1","0","","0.82086311","0.8","0.6","0.2","0.4","0.3602561646","0.7214198583","0.4087677593","0.82086311","","","","","","","","","","","","","","76","L","3","","","221","main_expt",""
"","bandit","301","1105241","0.0-263.0-0.0","98854899","wem/bandit_party_2","A2RXPK0UN2O745","either","8","496","","","","","","","0","1","0","","0.8543662658","0.8","0.6","0.2","0.4","0.3228749062","0.8091526303","0.4561280915","0.8543662658","","","","","","","","","","","","","","76","L","3","","","222","main_expt",""
"","bandit","302","1109114","0.0-264.0-0.0","98854899","wem/bandit_party_2","A2RXPK0UN2O745","either","8","2361","","","","","","","1","0","0","0.8599459829","","0.8","0.6","0.2","0.4","","","","","0.2549485676","0.8240838469","0.4419858618","0.8599459829","","","","","","","","","","76","L","3","","","223","main_expt",""
"","bandit","303","1111274","0.0-265.0-0.0","98854899","wem/bandit_party_2","A2RXPK0UN2O745","either","8","648","","","","","","","0","0","1","","0.8747991669","0.8","0.6","0.2","0.4","0.2389333491","0.7670685714","0.494409337","0.8747991669","","","","","","","","","","","","","","76","L","3","","","224","main_expt",""
"","bandit","304","1114834","0.0-266.0-0.0","98854899","wem/bandit_party_2","A2RXPK0UN2O745","either","8","2048","","","","","","","0","1","0","","0.7910409491","0.8","0.6","0.2","0.4","0.1517307125","0.8775689376","0.3713348049","0.7910409491","","","","","","","","","","","","","","76","L","3","","","225","main_expt",""
"","bandit","305","1117442","0.0-267.0-0.0","98854899","wem/bandit_party_2","A2RXPK0UN2O745","either","8","1096","","","","","","","0","1","0","","0.7212928749","0.8","0.6","0.2","0.4","0.1002450003","0.8846504348","0.4013452417","0.7212928749","","","","","","","","","","","","","","76","L","3","","","226","main_expt",""
"","bandit","306","1119657","0.0-268.0-0.0","98854899","wem/bandit_party_2","A2RXPK0UN2O745","either","8","702","","","","","","","0","1","0","","0.7090989562","0.8","0.6","0.2","0.4","0.1049945928","0.851087938","0.393451628","0.7090989562","","","","","","","","","","","","","","76","L","3","","","227","main_expt",""
"","bandit","307","1121960","0.0-269.0-0.0","98854899","wem/bandit_party_2","A2RXPK0UN2O745","either","8","792","","","","","","","0","0","1","","0.6606736223","0.8","0.6","0.2","0.4","0.03915988122","0.9074720337","0.4175844788","0.6606736223","","","","","","","","","","","","","","76","L","3","","","228","main_expt",""
"","bandit","308","1123884","0.0-270.0-0.0","98854899","wem/bandit_party_2","A2RXPK0UN2O745","either","8","413","","","","","","","0","1","0","","0.6893924153","0.8","0.6","0.2","0.4","0.03767516843","0.872332114","0.408368909","0.6893924153","","","","","","","","","","","","","","76","L","3","","","229","main_expt",""
"","bandit","309","1125994","0.0-271.0-0.0","98854899","wem/bandit_party_2","A2RXPK0UN2O745","either","8","598","","","","","","","0","1","0","","0.6067604319","0.8","0.6","0.2","0.4","0.05804790214","0.7967167456","0.4777699032","0.6067604319","","","","","","","","","","","","","","76","L","3","","","230","main_expt",""
"","bandit","310","1128202","0.0-272.0-0.0","98854899","wem/bandit_party_2","A2RXPK0UN2O745","either","8","696","","","","","","","0","0","1","0.5037419277","","0.8","0.6","0.2","0.4","","","","","0.04963095007","0.7760618079","0.4935442242","0.5037419277","","","","","","","","","","76","L","3","","","231","main_expt",""
"","bandit","311","1130106","0.0-273.0-0.0","98854899","wem/bandit_party_2","A2RXPK0UN2O745","either","8","391","","","","","","","0","1","0","","0.4339479185","0.8","0.6","0.2","0.4","0.03759782928","0.7765467853","0.4889590317","0.4339479185","","","","","","","","","","","","","","76","L","3","","","232","main_expt",""
"","bandit","312","1135632","0.0-274.0-0.0","98854899","wem/bandit_party_2","A2RXPK0UN2O745","either","8","4014","","","","","","","0","0","1","","0.4525546635","0.8","0.6","0.2","0.4","0.03147013274","0.7895219362","0.5212294662","0.4525546635","","","","","","","","","","","","","","76","L","3","","","233","main_expt",""
"","bandit","313","1137762","0.0-275.0-0.0","98854899","wem/bandit_party_2","A2RXPK0UN2O745","either","8","619","","","","","","","0","0","1","0.3680080929","","0.8","0.6","0.2","0.4","","","","","0.03547440544","0.7491899586","0.4420617392","0.3680080929","","","","","","","","","","76","L","3","","","234","main_expt",""
"","bandit","314","1140153","0.0-276.0-0.0","98854899","wem/bandit_party_2","A2RXPK0UN2O745","either","8","879","","","","","","","1","0","0","0.3416373547","","0.8","0.6","0.2","0.4","","","","","0.04486782706","0.7397351474","0.4816955248","0.3416373547","","","","","","","","","","76","L","3","","","235","main_expt",""
