"consent","trial_type","trial_index","time_elapsed","internal_node_id","subjID","study","MID","cond","drift","rt","responses","button_pressed","key_press","like","value","connected","gems","bombs","no_reward","GemPrChosen","BombPrChosen","GainOverPainPr_0","GainOverPainPr_1","GainOverPainPr_2","GainOverPainPr_3","LosePr_0","LosePr_1","LosePr_2","LosePr_3","WinPr_0","WinPr_1","WinPr_2","WinPr_3","Q0","Q1","Q2","gender","age","ethnicity","label","expt_phase","target","respCharCode","respKey","respChoiceNum","respChoice","practice","trial_counter","trial_label","Q0_index"
"GDM/GDM_behavioral_consent_30min_online.html","consent","0","40865","0.0-0.0","99246116","wem/bandit_party_2","A2VNR6984SDFGQ","either","3","","","","","","","","","","","","","","","","","","","","","","","","","","","","","","","","","","","","","","","","",""
"","survey-text","1","84133","0.0-1.0","99246116","wem/bandit_party_2","A2VNR6984SDFGQ","either","3","42217","{""Q0"":""A2VNR6984SDFGQ""}","","","","","","","","","","","","","","","","","","","","","","","","","","","","","","","","","","","","","","",""
"","button-response","2","89907","0.0-2.0","99246116","wem/bandit_party_2","A2VNR6984SDFGQ","either","3","4729","","0","","","","","","","","","","","","","","","","","","","","","","","","","","","","","","","","","","","","","",""
"","text-replacement","3","165539","0.0-3.0","99246116","wem/bandit_party_2","A2VNR6984SDFGQ","either","3","74600","","","32","","","","","","","","","","","","","","","","","","","","","","","","","","","","","","","","","","","","",""
"","text-replacement","4","174383","0.0-4.0","99246116","wem/bandit_party_2","A2VNR6984SDFGQ","either","3","8837","","","32","","","","","","","","","","","","","","","","","","","","","","","","","","","","","","","","","","","","",""
"","identification","5","182584","0.0-6.0-0.0","99246116","wem/bandit_party_2","A2VNR6984SDFGQ","either","3","7992","","","","5","5","5","","","","","","","","","","","","","","","","","","","","","","","","pre","identification_pre","the Republican Party","","","","","","","",""
"","identification","6","195450","0.0-6.0-1.0","99246116","wem/bandit_party_2","A2VNR6984SDFGQ","either","3","11756","","","","3","3","3","","","","","","","","","","","","","","","","","","","","","","","","pre","identification_pre","the Democratic Party","","","","","","","",""
"","text-replacement","7","210084","0.0-7.0","99246116","wem/bandit_party_2","A2VNR6984SDFGQ","either","3","13612","","","32","","","","","","","","","","","","","","","","","","","","","","","","","","","","","","","","","","","","",""
"","text-replacement","8","217274","0.0-8.0","99246116","wem/bandit_party_2","A2VNR6984SDFGQ","either","3","7183","","","32","","","","","","","","","","","","","","","","","","","","","","","","","","","","","","","","","","","","",""
"","text-replacement","9","226469","0.0-9.0","99246116","wem/bandit_party_2","A2VNR6984SDFGQ","either","3","9185","","","32","","","","","","","","","","","","","","","","","","","","","","","","","","","","","","","","","","","","",""
"","text-replacement","10","230454","0.0-10.0","99246116","wem/bandit_party_2","A2VNR6984SDFGQ","either","3","3978","","","32","","","","","","","","","","","","","","","","","","","","","","","","","","","","","","","","","","","","",""
"","text-replacement","11","235574","0.0-11.0","99246116","wem/bandit_party_2","A2VNR6984SDFGQ","either","3","5113","","","32","","","","","","","","","","","","","","","","","","","","","","","","","","","","","","","","","","","","",""
"","bandit","12","239582","0.0-12.0-0.0","99246116","wem/bandit_party_2","A2VNR6984SDFGQ","either","3","2427","","","","","","","0","0","1","0","0","","","","","0","","","","0","","","","","","","","","","","","","74","J","0","img/none_selected_demo.jpg","true","0","",""
"","bandit","13","243785","0.0-13.0-0.0","99246116","wem/bandit_party_2","A2VNR6984SDFGQ","either","3","2665","","","","","","","0","0","1","0","0","","","","","0","","","","0","","","","","","","","","","","","","75","K","0","img/none_selected_demo.jpg","true","0","",""
"","text-replacement","14","270386","0.0-14.0","99246116","wem/bandit_party_2","A2VNR6984SDFGQ","either","3","26592","","","32","","","","","","","","","","","","","","","","","","","","","","","","","","","","","","","","","","","","",""
"","text-replacement","15","277267","0.0-15.0","99246116","wem/bandit_party_2","A2VNR6984SDFGQ","either","3","6872","","","32","","","","","","","","","","","","","","","","","","","","","","","","","","","","","","","","","","","","",""
"","text-replacement","16","286448","0.0-16.0","99246116","wem/bandit_party_2","A2VNR6984SDFGQ","either","3","9172","","","32","","","","","","","","","","","","","","","","","","","","","","","","","","","","","","","","","","","","",""
"","text-replacement","17","292310","0.0-17.0","99246116","wem/bandit_party_2","A2VNR6984SDFGQ","either","3","5854","","","32","","","","","","","","","","","","","","","","","","","","","","","","","","","","","","","","","","","","",""
"","bandit","18","296102","0.0-18.0-0.0","99246116","wem/bandit_party_2","A2VNR6984SDFGQ","either","3","2261","","","","","","","1","0","0","0.8","","0.5","0.5","","","","","","","0.8","0.2","","","","","","","","","","","","74","J","0","img/none_selected_demo.jpg","true","0","80_20_practice",""
"","bandit","19","298008","0.0-18.0-1.0","99246116","wem/bandit_party_2","A2VNR6984SDFGQ","either","3","358","","","","","","","0","1","0","","0.8","0.5","0.5","","","0.8","0.2","","","","","","","","","","","","","","","","74","J","0","img/none_selected_demo.jpg","true","0","80_20_practice",""
"","bandit","20","299587","0.0-18.0-2.0","99246116","wem/bandit_party_2","A2VNR6984SDFGQ","either","3","24","","","","","","","1","0","0","0.8","","0.5","0.5","","","","","","","0.8","0.2","","","","","","","","","","","","74","J","0","img/none_selected_demo.jpg","true","0","80_20_practice",""
"","bandit","21","302574","0.0-18.0-3.0","99246116","wem/bandit_party_2","A2VNR6984SDFGQ","either","3","1455","","","","","","","0","1","0","","0.8","0.5","0.5","","","0.8","0.2","","","","","","","","","","","","","","","","74","J","0","img/none_selected_demo.jpg","true","0","80_20_practice",""
"","bandit","22","304751","0.0-18.0-4.0","99246116","wem/bandit_party_2","A2VNR6984SDFGQ","either","3","644","","","","","","","0","0","1","","0.2","0.5","0.5","","","0.8","0.2","","","","","","","","","","","","","","","","75","K","1","","true","0","80_20_practice",""
"","bandit","23","307298","0.0-18.0-5.0","99246116","wem/bandit_party_2","A2VNR6984SDFGQ","either","3","1017","","","","","","","1","0","0","0.8","","0.5","0.5","","","","","","","0.8","0.2","","","","","","","","","","","","74","J","0","img/none_selected_demo.jpg","true","0","80_20_practice",""
"","bandit","24","309283","0.0-18.0-6.0","99246116","wem/bandit_party_2","A2VNR6984SDFGQ","either","3","444","","","","","","","1","0","0","0.8","","0.5","0.5","","","","","","","0.8","0.2","","","","","","","","","","","","74","J","0","img/none_selected_demo.jpg","true","0","80_20_practice",""
"","bandit","25","311378","0.0-18.0-7.0","99246116","wem/bandit_party_2","A2VNR6984SDFGQ","either","3","557","","","","","","","0","1","0","","0.8","0.5","0.5","","","0.8","0.2","","","","","","","","","","","","","","","","74","J","0","img/none_selected_demo.jpg","true","0","80_20_practice",""
"","bandit","26","313191","0.0-18.0-8.0","99246116","wem/bandit_party_2","A2VNR6984SDFGQ","either","3","280","","","","","","","1","0","0","0.8","","0.5","0.5","","","","","","","0.8","0.2","","","","","","","","","","","","74","J","0","img/none_selected_demo.jpg","true","0","80_20_practice",""
"","bandit","27","315083","0.0-18.0-9.0","99246116","wem/bandit_party_2","A2VNR6984SDFGQ","either","3","353","","","","","","","0","1","0","","0.8","0.5","0.5","","","0.8","0.2","","","","","","","","","","","","","","","","74","J","0","img/none_selected_demo.jpg","true","0","80_20_practice",""
"","bandit","28","317160","0.0-18.0-10.0","99246116","wem/bandit_party_2","A2VNR6984SDFGQ","either","3","523","","","","","","","0","0","1","0.8","","0.5","0.5","","","","","","","0.8","0.2","","","","","","","","","","","","74","J","0","img/none_selected_demo.jpg","true","0","80_20_practice",""
"","bandit","29","319606","0.0-18.0-11.0","99246116","wem/bandit_party_2","A2VNR6984SDFGQ","either","3","901","","","","","","","1","0","0","0.8","","0.5","0.5","","","","","","","0.8","0.2","","","","","","","","","","","","74","J","0","img/none_selected_demo.jpg","true","0","80_20_practice",""
"","bandit","30","321429","0.0-18.0-12.0","99246116","wem/bandit_party_2","A2VNR6984SDFGQ","either","3","283","","","","","","","1","0","0","0.8","","0.5","0.5","","","","","","","0.8","0.2","","","","","","","","","","","","74","J","0","img/none_selected_demo.jpg","true","0","80_20_practice",""
"","bandit","31","323323","0.0-18.0-13.0","99246116","wem/bandit_party_2","A2VNR6984SDFGQ","either","3","336","","","","","","","0","1","0","","0.8","0.5","0.5","","","0.8","0.2","","","","","","","","","","","","","","","","74","J","0","img/none_selected_demo.jpg","true","0","80_20_practice",""
"","bandit","32","324877","0.0-18.0-14.0","99246116","wem/bandit_party_2","A2VNR6984SDFGQ","either","3","2","","","","","","","0","1","0","","0.8","0.5","0.5","","","0.8","0.2","","","","","","","","","","","","","","","","74","J","0","img/none_selected_demo.jpg","true","0","80_20_practice",""
"","bandit","33","327380","0.0-18.0-15.0","99246116","wem/bandit_party_2","A2VNR6984SDFGQ","either","3","974","","","","","","","1","0","0","0.8","","0.5","0.5","","","","","","","0.8","0.2","","","","","","","","","","","","74","J","0","img/none_selected_demo.jpg","true","0","80_20_practice",""
"","bandit","34","329116","0.0-18.0-16.0","99246116","wem/bandit_party_2","A2VNR6984SDFGQ","either","3","185","","","","","","","0","1","0","","0.8","0.5","0.5","","","0.8","0.2","","","","","","","","","","","","","","","","74","J","0","img/none_selected_demo.jpg","true","0","80_20_practice",""
"","bandit","35","331522","0.0-18.0-17.0","99246116","wem/bandit_party_2","A2VNR6984SDFGQ","either","3","865","","","","","","","0","1","0","","0.8","0.5","0.5","","","0.8","0.2","","","","","","","","","","","","","","","","74","J","0","img/none_selected_demo.jpg","true","0","80_20_practice",""
"","bandit","36","333821","0.0-18.0-18.0","99246116","wem/bandit_party_2","A2VNR6984SDFGQ","either","3","767","","","","","","","1","0","0","0.8","","0.5","0.5","","","","","","","0.8","0.2","","","","","","","","","","","","74","J","0","img/none_selected_demo.jpg","true","0","80_20_practice",""
"","bandit","37","336061","0.0-18.0-19.0","99246116","wem/bandit_party_2","A2VNR6984SDFGQ","either","3","691","","","","","","","0","1","0","","0.8","0.5","0.5","","","0.8","0.2","","","","","","","","","","","","","","","","74","J","0","img/none_selected_demo.jpg","true","0","80_20_practice",""
"","text-replacement","38","340858","0.0-19.0","99246116","wem/bandit_party_2","A2VNR6984SDFGQ","either","3","4772","","","32","","","","","","","","","","","","","","","","","","","","","","","","","","","","","","","","","","","","",""
"","bandit","39","343141","0.0-20.0-0.0","99246116","wem/bandit_party_2","A2VNR6984SDFGQ","either","3","725","","","","","","","1","0","0","1","0","","","","","0","1","","","1","0","","","","","","","","","","","","74","J","0","img/none_selected_demo.jpg","true","0","",""
"","text-replacement","40","350679","0.0-21.0","99246116","wem/bandit_party_2","A2VNR6984SDFGQ","either","3","7527","","","74","","","","","","","","","","","","","","","","","","","","","","","","","","","","","","","","","","","","",""
"","text-replacement","41","360083","0.0-22.0","99246116","wem/bandit_party_2","A2VNR6984SDFGQ","either","3","9395","","","32","","","","","","","","","","","","","","","","","","","","","","","","","","","","","","","","","","","","",""
"","text-replacement","42","362379","0.0-23.0","99246116","wem/bandit_party_2","A2VNR6984SDFGQ","either","3","2287","","","32","","","","","","","","","","","","","","","","","","","","","","","","","","","","","","","","","","","","",""
"","text-replacement","43","365916","0.0-24.0","99246116","wem/bandit_party_2","A2VNR6984SDFGQ","either","3","3529","","","32","","","","","","","","","","","","","","","","","","","","","","","","","","","","","","","","","","","","",""
"","text-replacement","44","376322","0.0-25.0","99246116","wem/bandit_party_2","A2VNR6984SDFGQ","either","3","10398","","","32","","","","","","","","","","","","","","","","","","","","","","","","","","","","","","","","","","","","",""
"","text-replacement","45","382811","0.0-26.0","99246116","wem/bandit_party_2","A2VNR6984SDFGQ","either","3","6481","","","32","","","","","","","","","","","","","","","","","","","","","","","","","","","","","","","","","","","","",""
"","text-replacement","46","554339","0.0-27.0","99246116","wem/bandit_party_2","A2VNR6984SDFGQ","either","3","171519","","","32","","","","","","","","","","","","","","","","","","","","","","","","","","","","","","","","","","","","",""
"","text-replacement","47","558786","0.0-28.0","99246116","wem/bandit_party_2","A2VNR6984SDFGQ","either","3","4438","","","32","","","","","","","","","","","","","","","","","","","","","","","","","","","","","","","","","","","","",""
"","text-replacement","48","563368","0.0-29.0","99246116","wem/bandit_party_2","A2VNR6984SDFGQ","either","3","4575","","","32","","","","","","","","","","","","","","","","","","","","","","","","","","","","","","","","","","","","",""
"","text-replacement","49","565098","0.0-30.0","99246116","wem/bandit_party_2","A2VNR6984SDFGQ","either","3","1721","","","32","","","","","","","","","","","","","","","","","","","","","","","","","","","","","","","","","","","","",""
"","text-replacement","50","571338","0.0-31.0","99246116","wem/bandit_party_2","A2VNR6984SDFGQ","either","3","6231","","","32","","","","","","","","","","","","","","","","","","","","","","","","","","","","","","","","","","","","",""
"","bandit","51","573552","0.0-32.0-0.0","99246116","wem/bandit_party_2","A2VNR6984SDFGQ","either","3","651","","","","","","","0","1","0","","0.8","0.5","0.5","0.5","0.5","0.8","0.2","0.6","0.2","","","","","","","","","","","","","","72","H","0","img/none_selected.jpg","true","0","full_practice",""
"","bandit","52","575677","0.0-32.0-1.0","99246116","wem/bandit_party_2","A2VNR6984SDFGQ","either","3","542","","","","","","","0","1","0","","0.8","0.5","0.5","0.5","0.5","0.8","0.2","0.6","0.2","","","","","","","","","","","","","","72","H","0","img/none_selected.jpg","true","0","full_practice",""
"","bandit","53","577538","0.0-32.0-2.0","99246116","wem/bandit_party_2","A2VNR6984SDFGQ","either","3","316","","","","","","","1","0","0","0.8","","0.5","0.5","0.5","0.5","","","","","0.8","0.2","0.6","0.2","","","","","","","","","","72","H","0","img/none_selected.jpg","true","0","full_practice",""
"","bandit","54","579429","0.0-32.0-3.0","99246116","wem/bandit_party_2","A2VNR6984SDFGQ","either","3","339","","","","","","","0","1","0","","0.8","0.5","0.5","0.5","0.5","0.8","0.2","0.6","0.2","","","","","","","","","","","","","","72","H","0","img/none_selected.jpg","true","0","full_practice",""
"","bandit","55","581523","0.0-32.0-4.0","99246116","wem/bandit_party_2","A2VNR6984SDFGQ","either","3","544","","","","","","","0","1","0","","0.8","0.5","0.5","0.5","0.5","0.8","0.2","0.6","0.2","","","","","","","","","","","","","","72","H","0","img/none_selected.jpg","true","0","full_practice",""
"","bandit","56","583305","0.0-32.0-5.0","99246116","wem/bandit_party_2","A2VNR6984SDFGQ","either","3","244","","","","","","","0","1","0","","0.8","0.5","0.5","0.5","0.5","0.8","0.2","0.6","0.2","","","","","","","","","","","","","","72","H","0","img/none_selected.jpg","true","0","full_practice",""
"","bandit","57","585150","0.0-32.0-6.0","99246116","wem/bandit_party_2","A2VNR6984SDFGQ","either","3","302","","","","","","","0","1","0","","0.8","0.5","0.5","0.5","0.5","0.8","0.2","0.6","0.2","","","","","","","","","","","","","","72","H","0","img/none_selected.jpg","true","0","full_practice",""
"","bandit","58","587213","0.0-32.0-7.0","99246116","wem/bandit_party_2","A2VNR6984SDFGQ","either","3","516","","","","","","","0","1","0","","0.8","0.5","0.5","0.5","0.5","0.8","0.2","0.6","0.2","","","","","","","","","","","","","","72","H","0","img/none_selected.jpg","true","0","full_practice",""
"","bandit","59","589214","0.0-32.0-8.0","99246116","wem/bandit_party_2","A2VNR6984SDFGQ","either","3","441","","","","","","","0","1","0","","0.8","0.5","0.5","0.5","0.5","0.8","0.2","0.6","0.2","","","","","","","","","","","","","","72","H","0","img/none_selected.jpg","true","0","full_practice",""
"","bandit","60","591280","0.0-32.0-9.0","99246116","wem/bandit_party_2","A2VNR6984SDFGQ","either","3","521","","","","","","","1","0","0","0.8","","0.5","0.5","0.5","0.5","","","","","0.8","0.2","0.6","0.2","","","","","","","","","","72","H","0","img/none_selected.jpg","true","0","full_practice",""
"","bandit","61","593680","0.0-32.0-10.0","99246116","wem/bandit_party_2","A2VNR6984SDFGQ","either","3","810","","","","","","","0","0","1","0.8","","0.5","0.5","0.5","0.5","","","","","0.8","0.2","0.6","0.2","","","","","","","","","","72","H","0","img/none_selected.jpg","true","0","full_practice",""
"","bandit","62","595541","0.0-32.0-11.0","99246116","wem/bandit_party_2","A2VNR6984SDFGQ","either","3","315","","","","","","","1","0","0","0.2","","0.5","0.5","0.5","0.5","","","","","0.8","0.2","0.6","0.2","","","","","","","","","","74","J","1","","true","0","full_practice",""
"","bandit","63","597650","0.0-32.0-12.0","99246116","wem/bandit_party_2","A2VNR6984SDFGQ","either","3","549","","","","","","","0","0","1","","0.2","0.5","0.5","0.5","0.5","0.8","0.2","0.6","0.2","","","","","","","","","","","","","","74","J","1","","true","0","full_practice",""
"","bandit","64","599403","0.0-32.0-13.0","99246116","wem/bandit_party_2","A2VNR6984SDFGQ","either","3","210","","","","","","","0","1","0","","0.6","0.5","0.5","0.5","0.5","0.8","0.2","0.6","0.2","","","","","","","","","","","","","","75","K","2","","true","0","full_practice",""
"","bandit","65","601356","0.0-32.0-14.0","99246116","wem/bandit_party_2","A2VNR6984SDFGQ","either","3","396","","","","","","","1","0","0","0.6","","0.5","0.5","0.5","0.5","","","","","0.8","0.2","0.6","0.2","","","","","","","","","","75","K","2","","true","0","full_practice",""
"","bandit","66","603468","0.0-32.0-15.0","99246116","wem/bandit_party_2","A2VNR6984SDFGQ","either","3","558","","","","","","","0","0","1","","0.6","0.5","0.5","0.5","0.5","0.8","0.2","0.6","0.2","","","","","","","","","","","","","","75","K","2","","true","0","full_practice",""
"","bandit","67","605331","0.0-32.0-16.0","99246116","wem/bandit_party_2","A2VNR6984SDFGQ","either","3","312","","","","","","","0","0","1","","0.2","0.5","0.5","0.5","0.5","0.8","0.2","0.6","0.2","","","","","","","","","","","","","","76","L","3","","true","0","full_practice",""
"","bandit","68","607143","0.0-32.0-17.0","99246116","wem/bandit_party_2","A2VNR6984SDFGQ","either","3","268","","","","","","","0","0","1","","0.2","0.5","0.5","0.5","0.5","0.8","0.2","0.6","0.2","","","","","","","","","","","","","","76","L","3","","true","0","full_practice",""
"","bandit","69","609005","0.0-32.0-18.0","99246116","wem/bandit_party_2","A2VNR6984SDFGQ","either","3","316","","","","","","","0","1","0","","0.6","0.5","0.5","0.5","0.5","0.8","0.2","0.6","0.2","","","","","","","","","","","","","","75","K","2","","true","0","full_practice",""
"","bandit","70","611055","0.0-32.0-19.0","99246116","wem/bandit_party_2","A2VNR6984SDFGQ","either","3","501","","","","","","","0","0","1","0.6","","0.5","0.5","0.5","0.5","","","","","0.8","0.2","0.6","0.2","","","","","","","","","","75","K","2","","true","0","full_practice",""
"","text","71","614294","0.0-33.0","99246116","wem/bandit_party_2","A2VNR6984SDFGQ","either","3","3216","","","32","","","","","","","","","","","","","","","","","","","","","","","","","","","","","","","","","","","","",""
"","text-replacement","72","629571","0.0-34.0","99246116","wem/bandit_party_2","A2VNR6984SDFGQ","either","3","14245","","","32","","","","","","","","","","","","","","","","","","","","","","","","","","","","","","","","","","","","",""
"","text-replacement","73","640409","0.0-35.0","99246116","wem/bandit_party_2","A2VNR6984SDFGQ","either","3","10827","","","32","","","","","","","","","","","","","","","","","","","","","","","","","","","","","","","","","","","","",""
"","text-replacement","74","650792","0.0-36.0","99246116","wem/bandit_party_2","A2VNR6984SDFGQ","either","3","10372","","","32","","","","","","","","","","","","","","","","","","","","","","","","","","","","","","","","","","","","",""
"","text-replacement","75","658480","0.0-37.0","99246116","wem/bandit_party_2","A2VNR6984SDFGQ","either","3","7677","","","32","","","","","","","","","","","","","","","","","","","","","","","","","","","","","","","","","","","","",""
"","text-replacement","76","665188","0.0-38.0","99246116","wem/bandit_party_2","A2VNR6984SDFGQ","either","3","6697","","","32","","","","","","","","","","","","","","","","","","","","","","","","","","","","","","","","","","","","",""
"","survey-multi-choice-replacement","77","672742","0.0-39.0-0.0","99246116","wem/bandit_party_2","A2VNR6984SDFGQ","either","3","7470","","","","","","","","","","","","","","","","","","","","","","","","Money will be added to the pool for <span style='color:red;'>REPUBLICANS</span>","","","","","","","attn_check","","","","","","","","","0"
"","survey-multi-choice-replacement","78","684548","0.0-40.0-0.0","99246116","wem/bandit_party_2","A2VNR6984SDFGQ","either","3","10757","","","","","","","","","","","","","","","","","","","","","","","","Equal amounts of money will be added to the pool for <span style='color:red;'>REPUBLICANS</span> and subtracted from the pool for <span style='color:blue;'>DEMOCRATS</span>","","","","","","","attn_check","","","","","","","","","2"
"","survey-multi-choice-replacement","79","689466","0.0-41.0-0.0","99246116","wem/bandit_party_2","A2VNR6984SDFGQ","either","3","3835","","","","","","","","","","","","","","","","","","","","","","","","No money will be added to either pool","","","","","","","attn_check","","","","","","","","","3"
"","bandit","80","694941","0.0-42.0-0.0","99246116","wem/bandit_party_2","A2VNR6984SDFGQ","either","3","2913","","","","","","","0","0","1","","0.1387034319","0.2","0.8","0.4","0.6","0.1387034319","0.6494041588","0.6473934842","0.4261870849","","","","","","","","","","","","","","72","H","0","img/none_selected.jpg","","1","main_expt",""
"","bandit","81","696863","0.0-43.0-0.0","99246116","wem/bandit_party_2","A2VNR6984SDFGQ","either","3","381","","","","","","","0","0","1","0.7608835745","","0.2","0.8","0.4","0.6","","","","","0.2166337036","0.7608835745","0.5221866694","0.3223101542","","","","","","","","","","74","J","1","","","2","main_expt",""
"","bandit","82","698694","0.0-44.0-0.0","99246116","wem/bandit_party_2","A2VNR6984SDFGQ","either","3","286","","","","","","","0","0","1","","0.5356292978","0.2","0.8","0.4","0.6","0.3253899216","0.7745567172","0.5356292978","0.2541217019","","","","","","","","","","","","","","75","K","2","","","3","main_expt",""
"","bandit","83","700522","0.0-45.0-0.0","99246116","wem/bandit_party_2","A2VNR6984SDFGQ","either","3","288","","","","","","","0","0","1","","0.2272043942","0.2","0.8","0.4","0.6","0.3003293127","0.8315703218","0.5154592071","0.2272043942","","","","","","","","","","","","","","76","L","3","","","4","main_expt",""
"","bandit","84","702414","0.0-46.0-0.0","99246116","wem/bandit_party_2","A2VNR6984SDFGQ","either","3","350","","","","","","","1","0","0","0.3839660868","","0.2","0.8","0.4","0.6","","","","","0.3839660868","0.8380789219","0.4578896037","0.2967729676","","","","","","","","","","72","H","0","img/none_selected.jpg","","5","main_expt",""
"","bandit","85","704274","0.0-47.0-0.0","99246116","wem/bandit_party_2","A2VNR6984SDFGQ","either","3","310","","","","","","","0","0","1","","0.3833463511","0.2","0.8","0.4","0.6","0.3833463511","0.8233568153","0.4825789634","0.3211998527","","","","","","","","","","","","","","72","H","0","img/none_selected.jpg","","6","main_expt",""
"","bandit","86","706228","0.0-48.0-0.0","99246116","wem/bandit_party_2","A2VNR6984SDFGQ","either","3","407","","","","","","","1","0","0","0.8672840292","","0.2","0.8","0.4","0.6","","","","","0.3173395401","0.8672840292","0.4013658759","0.4190649117","","","","","","","","","","74","J","1","","","7","main_expt",""
"","bandit","87","708158","0.0-49.0-0.0","99246116","wem/bandit_party_2","A2VNR6984SDFGQ","either","3","371","","","","","","","0","1","0","","0.7921451217","0.2","0.8","0.4","0.6","0.3265190876","0.7921451217","0.3721769634","0.5253498774","","","","","","","","","","","","","","74","J","1","","","8","main_expt",""
"","bandit","88","710136","0.0-50.0-0.0","99246116","wem/bandit_party_2","A2VNR6984SDFGQ","either","3","409","","","","","","","1","0","0","0.7826569337","","0.2","0.8","0.4","0.6","","","","","0.4229840653","0.7826569337","0.3934089605","0.5552176016","","","","","","","","","","74","J","1","","","9","main_expt",""
"","bandit","89","712209","0.0-51.0-0.0","99246116","wem/bandit_party_2","A2VNR6984SDFGQ","either","3","509","","","","","","","0","1","0","","0.7150392401","0.2","0.8","0.4","0.6","0.5107168356","0.7150392401","0.3360942297","0.654745146","","","","","","","","","","","","","","74","J","1","","","10","main_expt",""
"","bandit","90","714074","0.0-52.0-0.0","99246116","wem/bandit_party_2","A2VNR6984SDFGQ","either","3","315","","","","","","","1","0","0","0.6906605055","","0.2","0.8","0.4","0.6","","","","","0.4383577931","0.6906605055","0.4969537907","0.6089063278","","","","","","","","","","74","J","1","","","11","main_expt",""
"","bandit","91","715981","0.0-53.0-0.0","99246116","wem/bandit_party_2","A2VNR6984SDFGQ","either","3","337","","","","","","","0","0","1","0.6725575113","","0.2","0.8","0.4","0.6","","","","","0.5487148549","0.6725575113","0.4760264401","0.559155858","","","","","","","","","","74","J","1","","","12","main_expt",""
"","bandit","92","717956","0.0-54.0-0.0","99246116","wem/bandit_party_2","A2VNR6984SDFGQ","either","3","420","","","","","","","1","0","0","0.7404599176","","0.2","0.8","0.4","0.6","","","","","0.7407599438","0.7404599176","0.4008761295","0.6464491645","","","","","","","","","","74","J","1","","","13","main_expt",""
"","bandit","93","720067","0.0-55.0-0.0","99246116","wem/bandit_party_2","A2VNR6984SDFGQ","either","3","557","","","","","","","1","0","0","0.6751607758","","0.2","0.8","0.4","0.6","","","","","0.8307131687","0.6751607758","0.358486362","0.6936958995","","","","","","","","","","74","J","1","","","14","main_expt",""
"","bandit","94","722005","0.0-56.0-0.0","99246116","wem/bandit_party_2","A2VNR6984SDFGQ","either","3","384","","","","","","","1","0","0","0.6115440925","","0.2","0.8","0.4","0.6","","","","","0.8114394421","0.6115440925","0.395258373","0.731471075","","","","","","","","","","74","J","1","","","15","main_expt",""
"","bandit","95","724286","0.0-57.0-0.0","99246116","wem/bandit_party_2","A2VNR6984SDFGQ","either","3","724","","","","","","","1","0","0","0.7019001419","","0.2","0.8","0.4","0.6","","","","","0.8242397169","0.7019001419","0.4197334966","0.6487541525","","","","","","","","","","74","J","1","","","16","main_expt",""
"","bandit","96","726523","0.0-58.0-0.0","99246116","wem/bandit_party_2","A2VNR6984SDFGQ","either","3","679","","","","","","","1","0","0","0.7017998","","0.2","0.8","0.4","0.6","","","","","0.8317633157","0.7017998","0.2160816064","0.7654634758","","","","","","","","","","74","J","1","","","17","main_expt",""
"","bandit","97","733367","0.0-59.0-0.0","99246116","wem/bandit_party_2","A2VNR6984SDFGQ","either","3","5269","","","","","","","0","1","0","","0.7672473748","0.2","0.8","0.4","0.6","0.8158638682","0.7672473748","0.2058632209","0.7160830043","","","","","","","","","","","","","","74","J","1","","","18","main_expt",""
"","bandit","98","735649","0.0-60.0-0.0","99246116","wem/bandit_party_2","A2VNR6984SDFGQ","either","3","741","","","","","","","1","0","0","0.7950219121","","0.2","0.8","0.4","0.6","","","","","0.8291878069","0.7950219121","0.2314559036","0.6856656502","","","","","","","","","","74","J","1","","","19","main_expt",""
"","bandit","99","738136","0.0-61.0-0.0","99246116","wem/bandit_party_2","A2VNR6984SDFGQ","either","3","908","","","","","","","0","1","0","","0.8460513568","0.2","0.8","0.4","0.6","0.8665153398","0.8460513568","0.1762066147","0.6829400921","","","","","","","","","","","","","","74","J","1","","","20","main_expt",""
"","bandit","100","740574","0.0-62.0-0.0","99246116","wem/bandit_party_2","A2VNR6984SDFGQ","either","3","900","","","","","","","0","1","0","","0.8571228725","0.2","0.8","0.4","0.6","0.8181415858","0.8571228725","0.150477598","0.6849203215","","","","","","","","","","","","","","74","J","1","","","21","main_expt",""
"","bandit","101","743207","0.0-63.0-0.0","99246116","wem/bandit_party_2","A2VNR6984SDFGQ","either","3","1067","","","","","","","0","1","0","","0.7731960963","0.2","0.8","0.4","0.6","0.7731960963","0.8498483749","0.1957635407","0.6832197831","","","","","","","","","","","","","","72","H","0","img/none_selected.jpg","","22","main_expt",""
"","bandit","102","745528","0.0-64.0-0.0","99246116","wem/bandit_party_2","A2VNR6984SDFGQ","either","3","752","","","","","","","1","0","0","0.887495535","","0.2","0.8","0.4","0.6","","","","","0.8004626553","0.887495535","0.2193187944","0.6103957523","","","","","","","","","","74","J","1","","","23","main_expt",""
"","bandit","103","747748","0.0-65.0-0.0","99246116","wem/bandit_party_2","A2VNR6984SDFGQ","either","3","671","","","","","","","0","0","1","0.1836328706","","0.2","0.8","0.4","0.6","","","","","0.7941911222","0.918231735","0.1836328706","0.5485819736","","","","","","","","","","75","K","2","","","24","main_expt",""
"","bandit","104","749969","0.0-66.0-0.0","99246116","wem/bandit_party_2","A2VNR6984SDFGQ","either","3","664","","","","","","","0","1","0","","0.5852935809","0.2","0.8","0.4","0.6","0.7100633829","0.9111146318","0.1410441375","0.5852935809","","","","","","","","","","","","","","76","L","3","","","25","main_expt",""
"","bandit","105","752766","0.0-67.0-0.0","99246116","wem/bandit_party_2","A2VNR6984SDFGQ","either","3","1224","","","","","","","1","0","0","0.9190640316","","0.2","0.8","0.4","0.6","","","","","0.6872129375","0.9190640316","0.1082593399","0.6097892937","","","","","","","","","","74","J","1","","","26","main_expt",""
"","bandit","106","755845","0.0-68.0-0.0","99246116","wem/bandit_party_2","A2VNR6984SDFGQ","either","3","1527","","","","","","","1","0","0","0.9372614837","","0.2","0.8","0.4","0.6","","","","","0.6798864795","0.9372614837","0.1042047793","0.6653335402","","","","","","","","","","74","J","1","","","27","main_expt",""
"","bandit","107","758705","0.0-69.0-0.0","99246116","wem/bandit_party_2","A2VNR6984SDFGQ","either","3","1311","","","","","","","0","1","0","","0.9269484959","0.2","0.8","0.4","0.6","0.6812343762","0.9269484959","0.1153509117","0.6850825106","","","","","","","","","","","","","","74","J","1","","","28","main_expt",""
"","bandit","108","761299","0.0-70.0-0.0","99246116","wem/bandit_party_2","A2VNR6984SDFGQ","either","3","1020","","","","","","","1","0","0","0.9376772981","","0.2","0.8","0.4","0.6","","","","","0.5305157647","0.9376772981","0.1601566248","0.7309016742","","","","","","","","","","74","J","1","","","29","main_expt",""
"","bandit","109","763800","0.0-71.0-0.0","99246116","wem/bandit_party_2","A2VNR6984SDFGQ","either","3","955","","","","","","","1","0","0","0.8795505253","","0.2","0.8","0.4","0.6","","","","","0.4713174284","0.8795505253","0.09548927903","0.8141980113","","","","","","","","","","74","J","1","","","30","main_expt",""
"","bandit","110","766301","0.0-72.0-0.0","99246116","wem/bandit_party_2","A2VNR6984SDFGQ","either","3","935","","","","","","","1","0","0","0.8605863748","","0.2","0.8","0.4","0.6","","","","","0.2938490869","0.8605863748","0.09272353297","0.8926711601","","","","","","","","","","74","J","1","","","31","main_expt",""
"","bandit","111","769115","0.0-73.0-0.0","99246116","wem/bandit_party_2","A2VNR6984SDFGQ","either","3","1269","","","","","","","0","0","1","0.757600507","","0.2","0.8","0.4","0.6","","","","","0.3005160425","0.757600507","0.09547929832","0.8397563013","","","","","","","","","","74","J","1","","","32","main_expt",""
"","bandit","112","771600","0.0-74.0-0.0","99246116","wem/bandit_party_2","A2VNR6984SDFGQ","either","3","914","","","","","","","0","1","0","","0.7257103923","0.2","0.8","0.4","0.6","0.3661211491","0.7257103923","0.08683876107","0.8251988787","","","","","","","","","","","","","","74","J","1","","","33","main_expt",""
"","bandit","113","775071","0.0-75.0-0.0","99246116","wem/bandit_party_2","A2VNR6984SDFGQ","either","3","1922","","","","","","","0","0","1","","0.08117088791","0.2","0.8","0.4","0.6","0.4614725573","0.5786815464","0.08117088791","0.7303528712","","","","","","","","","","","","","","75","K","2","","","34","main_expt",""
"","bandit","114","777758","0.0-76.0-0.0","99246116","wem/bandit_party_2","A2VNR6984SDFGQ","either","3","1099","","","","","","","0","0","1","","0.09593582107","0.2","0.8","0.4","0.6","0.4597324626","0.4812266686","0.09593582107","0.8093673003","","","","","","","","","","","","","","75","K","2","","","35","main_expt",""
"","bandit","115","779999","0.0-77.0-0.0","99246116","wem/bandit_party_2","A2VNR6984SDFGQ","either","3","700","","","","","","","0","0","1","","0.79718131","0.2","0.8","0.4","0.6","0.4294742096","0.4459447539","0.1392988708","0.79718131","","","","","","","","","","","","","","76","L","3","","","36","main_expt",""
"","bandit","116","782250","0.0-78.0-0.0","99246116","wem/bandit_party_2","A2VNR6984SDFGQ","either","3","698","","","","","","","1","0","0","0.5737218407","","0.2","0.8","0.4","0.6","","","","","0.5301274199","0.5737218407","0.07673209605","0.8157762275","","","","","","","","","","74","J","1","","","37","main_expt",""
"","bandit","117","784485","0.0-79.0-0.0","99246116","wem/bandit_party_2","A2VNR6984SDFGQ","either","3","667","","","","","","","0","0","1","0.1078843958","","0.2","0.8","0.4","0.6","","","","","0.5746889943","0.6008421093","0.1078843958","0.7941499978","","","","","","","","","","75","K","2","","","38","main_expt",""
"","bandit","118","786844","0.0-80.0-0.0","99246116","wem/bandit_party_2","A2VNR6984SDFGQ","either","3","810","","","","","","","1","0","0","0.7352357368","","0.2","0.8","0.4","0.6","","","","","0.6621100331","0.6076920036","0.09731722171","0.7352357368","","","","","","","","","","76","L","3","","","39","main_expt",""
"","bandit","119","789376","0.0-81.0-0.0","99246116","wem/bandit_party_2","A2VNR6984SDFGQ","either","3","983","","","","","","","0","0","1","0.6616622706","","0.2","0.8","0.4","0.6","","","","","0.6794361822","0.6616622706","0.2123509389","0.7920886563","","","","","","","","","","74","J","1","","","40","main_expt",""
"","bandit","120","792081","0.0-82.0-0.0","99246116","wem/bandit_party_2","A2VNR6984SDFGQ","either","3","1157","","","","","","","0","0","1","","0.1265365425","0.2","0.8","0.4","0.6","0.7140523024","0.6945341382","0.1265365425","0.8780543775","","","","","","","","","","","","","","75","K","2","","","41","main_expt",""
"","bandit","121","794707","0.0-83.0-0.0","99246116","wem/bandit_party_2","A2VNR6984SDFGQ","either","3","1058","","","","","","","0","1","0","","0.6833149102","0.2","0.8","0.4","0.6","0.6669732994","0.6833149102","0.166138795","0.9167256642","","","","","","","","","","","","","","74","J","1","","","42","main_expt",""
"","bandit","122","797052","0.0-84.0-0.0","99246116","wem/bandit_party_2","A2VNR6984SDFGQ","either","3","789","","","","","","","0","0","1","0.7094953576","","0.2","0.8","0.4","0.6","","","","","0.5435093165","0.7094953576","0.1782339186","0.9407985187","","","","","","","","","","74","J","1","","","43","main_expt",""
"","bandit","123","799506","0.0-85.0-0.0","99246116","wem/bandit_party_2","A2VNR6984SDFGQ","either","3","910","","","","","","","1","0","0","0.7519468023","","0.2","0.8","0.4","0.6","","","","","0.6002661395","0.7519468023","0.1342945815","0.9000978766","","","","","","","","","","74","J","1","","","44","main_expt",""
"","bandit","124","802199","0.0-86.0-0.0","99246116","wem/bandit_party_2","A2VNR6984SDFGQ","either","3","1153","","","","","","","1","0","0","0.7673203249","","0.2","0.8","0.4","0.6","","","","","0.5948203474","0.7673203249","0.09086288848","0.9190036262","","","","","","","","","","74","J","1","","","45","main_expt",""
"","bandit","125","804574","0.0-87.0-0.0","99246116","wem/bandit_party_2","A2VNR6984SDFGQ","either","3","821","","","","","","","0","0","1","","0.722836051","0.2","0.8","0.4","0.6","0.6230250108","0.722836051","0.06420934006","0.8865788656","","","","","","","","","","","","","","74","J","1","","","46","main_expt",""
"","bandit","126","807155","0.0-88.0-0.0","99246116","wem/bandit_party_2","A2VNR6984SDFGQ","either","3","1028","","","","","","","1","0","0","0.7392487755","","0.2","0.8","0.4","0.6","","","","","0.7239235909","0.7392487755","0.02332738683","0.8207935484","","","","","","","","","","74","J","1","","","47","main_expt",""
"","bandit","127","809734","0.0-89.0-0.0","99246116","wem/bandit_party_2","A2VNR6984SDFGQ","either","3","1012","","","","","","","1","0","0","0.7551111279","","0.2","0.8","0.4","0.6","","","","","0.7715310514","0.7551111279","0.03517565614","0.8170742187","","","","","","","","","","74","J","1","","","48","main_expt",""
"","bandit","128","812068","0.0-90.0-0.0","99246116","wem/bandit_party_2","A2VNR6984SDFGQ","either","3","781","","","","","","","0","1","0","","0.6917772817","0.2","0.8","0.4","0.6","0.822179592","0.6917772817","0.04466115719","0.7874830355","","","","","","","","","","","","","","74","J","1","","","49","main_expt",""
"","bandit","129","815100","0.0-91.0-0.0","99246116","wem/bandit_party_2","A2VNR6984SDFGQ","either","3","1486","","","","","","","1","0","0","0.6689959301","","0.2","0.8","0.4","0.6","","","","","0.8108951243","0.6689959301","0.05053383529","0.8279472521","","","","","","","","","","74","J","1","","","50","main_expt",""
"","bandit","130","817850","0.0-92.0-0.0","99246116","wem/bandit_party_2","A2VNR6984SDFGQ","either","3","1213","","","","","","","0","0","1","0.6020608281","","0.2","0.8","0.4","0.6","","","","","0.7649170446","0.6020608281","0.04681033125","0.8426817256","","","","","","","","","","74","J","1","","","51","main_expt",""
"","bandit","131","820320","0.0-93.0-0.0","99246116","wem/bandit_party_2","A2VNR6984SDFGQ","either","3","926","","","","","","","1","0","0","0.6583182673","","0.2","0.8","0.4","0.6","","","","","0.8169848275","0.6583182673","0.09308222201","0.8377647656","","","","","","","","","","74","J","1","","","52","main_expt",""
"","bandit","132","822933","0.0-94.0-0.0","99246116","wem/bandit_party_2","A2VNR6984SDFGQ","either","3","1067","","","","","","","0","1","0","","0.8843577791","0.2","0.8","0.4","0.6","0.8843577791","0.5419436754","0.1397702629","0.8241398149","","","","","","","","","","","","","","72","H","0","img/none_selected.jpg","","53","main_expt",""
"","bandit","133","828922","0.0-95.0-0.0","99246116","wem/bandit_party_2","A2VNR6984SDFGQ","either","3","4447","","","","","","","0","1","0","","0.8854515068","0.2","0.8","0.4","0.6","0.8854515068","0.5717614462","0.110287685","0.7289352116","","","","","","","","","","","","","","72","H","0","img/none_selected.jpg","","54","main_expt",""
"","bandit","134","833004","0.0-96.0-0.0","99246116","wem/bandit_party_2","A2VNR6984SDFGQ","either","3","2514","","","","","","","0","1","0","","0.8884574585","0.2","0.8","0.4","0.6","0.8884574585","0.5497935615","0.1843384007","0.5895019519","","","","","","","","","","","","","","72","H","0","img/none_selected.jpg","","55","main_expt",""
"","bandit","135","835246","0.0-97.0-0.0","99246116","wem/bandit_party_2","A2VNR6984SDFGQ","either","3","685","","","","","","","1","0","0","0.4902645195","","0.2","0.8","0.4","0.6","","","","","0.8840911236","0.4902645195","0.2056752237","0.4622464331","","","","","","","","","","74","J","1","","","56","main_expt",""
"","bandit","136","837880","0.0-98.0-0.0","99246116","wem/bandit_party_2","A2VNR6984SDFGQ","either","3","1094","","","","","","","0","0","1","","0.490024734","0.2","0.8","0.4","0.6","0.864283103","0.5258365243","0.3410726922","0.490024734","","","","","","","","","","","","","","76","L","3","","","57","main_expt",""
"","bandit","137","840319","0.0-99.0-0.0","99246116","wem/bandit_party_2","A2VNR6984SDFGQ","either","3","852","","","","","","","0","1","0","","0.6182628796","0.2","0.8","0.4","0.6","0.7377821737","0.6097664349","0.3873695161","0.6182628796","","","","","","","","","","","","","","76","L","3","","","58","main_expt",""
"","bandit","138","842961","0.0-100.0-0.0","99246116","wem/bandit_party_2","A2VNR6984SDFGQ","either","3","1100","","","","","","","1","0","0","0.6976829826","","0.2","0.8","0.4","0.6","","","","","0.7469541206","0.6016711108","0.3281321534","0.6976829826","","","","","","","","","","76","L","3","","","59","main_expt",""
"","bandit","139","848146","0.0-101.0-0.0","99246116","wem/bandit_party_2","A2VNR6984SDFGQ","either","3","3633","","","","","","","0","0","1","0.5544917648","","0.2","0.8","0.4","0.6","","","","","0.8019510571","0.5544917648","0.2380439254","0.675433977","","","","","","","","","","74","J","1","","","60","main_expt",""
"","bandit","140","850834","0.0-102.0-0.0","99246116","wem/bandit_party_2","A2VNR6984SDFGQ","either","3","1117","","","","","","","1","0","0","0.8943887388","","0.2","0.8","0.4","0.6","","","","","0.8943887388","0.6842720067","0.2228222105","0.7206550838","","","","","","","","","","72","H","0","img/none_selected.jpg","","61","main_expt",""
"","bandit","141","853371","0.0-103.0-0.0","99246116","wem/bandit_party_2","A2VNR6984SDFGQ","either","3","951","","","","","","","1","0","0","0.7184677658","","0.2","0.8","0.4","0.6","","","","","0.8942973556","0.6824345281","0.2489253665","0.7184677658","","","","","","","","","","76","L","3","","","62","main_expt",""
"","bandit","142","855945","0.0-104.0-0.0","99246116","wem/bandit_party_2","A2VNR6984SDFGQ","either","3","1023","","","","","","","1","0","0","0.7321168219","","0.2","0.8","0.4","0.6","","","","","0.8829609874","0.7321168219","0.2298237489","0.6785259816","","","","","","","","","","74","J","1","","","63","main_expt",""
"","bandit","143","859025","0.0-105.0-0.0","99246116","wem/bandit_party_2","A2VNR6984SDFGQ","either","3","1513","","","","","","","1","0","0","0.8175344892","","0.2","0.8","0.4","0.6","","","","","0.8175344892","0.8123013145","0.1849055857","0.6349383059","","","","","","","","","","72","H","0","img/none_selected.jpg","","64","main_expt",""
"","bandit","144","861510","0.0-106.0-0.0","99246116","wem/bandit_party_2","A2VNR6984SDFGQ","either","3","941","","","","","","","0","1","0","","0.629769122","0.2","0.8","0.4","0.6","0.7812905168","0.8236121316","0.2285715909","0.629769122","","","","","","","","","","","","","","76","L","3","","","65","main_expt",""
"","bandit","145","864933","0.0-107.0-0.0","99246116","wem/bandit_party_2","A2VNR6984SDFGQ","either","3","1879","","","","","","","0","1","0","","0.8270077233","0.2","0.8","0.4","0.6","0.7848445355","0.8270077233","0.2477643906","0.7158950816","","","","","","","","","","","","","","74","J","1","","","66","main_expt",""
"","bandit","146","868734","0.0-108.0-0.0","99246116","wem/bandit_party_2","A2VNR6984SDFGQ","either","3","2231","","","","","","","0","0","1","","0.1801078726","0.2","0.8","0.4","0.6","0.763143195","0.7601471472","0.1801078726","0.6309271871","","","","","","","","","","","","","","75","K","2","","","67","main_expt",""
"","bandit","147","873531","0.0-109.0-0.0","99246116","wem/bandit_party_2","A2VNR6984SDFGQ","either","3","3243","","","","","","","0","0","1","0.08479184886","","0.2","0.8","0.4","0.6","","","","","0.7966751536","0.7567750057","0.08479184886","0.617221228","","","","","","","","","","75","K","2","","","68","main_expt",""
"","bandit","148","880562","0.0-110.0-0.0","99246116","wem/bandit_party_2","A2VNR6984SDFGQ","either","3","5475","","","","","","","1","0","0","0.6871277649","","0.2","0.8","0.4","0.6","","","","","0.8534335227","0.6871277649","0.06982522498","0.6235929763","","","","","","","","","","74","J","1","","","69","main_expt",""
"","bandit","149","886690","0.0-111.0-0.0","99246116","wem/bandit_party_2","A2VNR6984SDFGQ","either","3","4575","","","","","","","0","0","1","0.773099018","","0.2","0.8","0.4","0.6","","","","","0.8915498471","0.773099018","0.05029268469","0.5543620559","","","","","","","","","","74","J","1","","","70","main_expt",""
"","bandit","150","888565","0.0-112.0-0.0","99246116","wem/bandit_party_2","A2VNR6984SDFGQ","either","3","321","","","","","","","0","0","1","0.06413839938","","0.2","0.8","0.4","0.6","","","","","0.8736989015","0.7412476729","0.06413839938","0.5333999135","","","","","","","","","","75","K","2","","","71","main_expt",""
"","bandit","151","891475","0.0-113.0-0.0","99246116","wem/bandit_party_2","A2VNR6984SDFGQ","either","3","1332","","","","","","","0","0","1","","0.5905126671","0.2","0.8","0.4","0.6","0.8837551658","0.8080704968","0.05155778705","0.5905126671","","","","","","","","","","","","","","76","L","3","","","72","main_expt",""
"","bandit","152","893866","0.0-114.0-0.0","99246116","wem/bandit_party_2","A2VNR6984SDFGQ","either","3","833","","","","","","","0","0","1","","0.6925119087","0.2","0.8","0.4","0.6","0.8495494246","0.8270016227","0.0232747386","0.6925119087","","","","","","","","","","","","","","76","L","3","","","73","main_expt",""
"","bandit","153","896788","0.0-115.0-0.0","99246116","wem/bandit_party_2","A2VNR6984SDFGQ","either","3","1377","","","","","","","0","1","0","","0.9127472651","0.2","0.8","0.4","0.6","0.9127472651","0.7872017979","0.04751547773","0.7134745341","","","","","","","","","","","","","","72","H","0","img/none_selected.jpg","","74","main_expt",""
"","bandit","154","899321","0.0-116.0-0.0","99246116","wem/bandit_party_2","A2VNR6984SDFGQ","either","3","975","","","","","","","0","1","0","","0.9199060817","0.2","0.8","0.4","0.6","0.9199060817","0.6167225576","0.05282531612","0.8065440948","","","","","","","","","","","","","","72","H","0","img/none_selected.jpg","","75","main_expt",""
"","bandit","155","902150","0.0-117.0-0.0","99246116","wem/bandit_party_2","A2VNR6984SDFGQ","either","3","1257","","","","","","","1","0","0","0.8691294168","","0.2","0.8","0.4","0.6","","","","","0.8691294168","0.637182095","0.08738729654","0.7849172319","","","","","","","","","","72","H","0","img/none_selected.jpg","","76","main_expt",""
"","bandit","156","904901","0.0-118.0-0.0","99246116","wem/bandit_party_2","A2VNR6984SDFGQ","either","3","1183","","","","","","","1","0","0","0.9111329321","","0.2","0.8","0.4","0.6","","","","","0.9111329321","0.7169911294","0.08851312664","0.7818962729","","","","","","","","","","72","H","0","img/none_selected.jpg","","77","main_expt",""
"","bandit","157","907496","0.0-119.0-0.0","99246116","wem/bandit_party_2","A2VNR6984SDFGQ","either","3","1047","","","","","","","1","0","0","0.7446448061","","0.2","0.8","0.4","0.6","","","","","0.9286966754","0.7446448061","0.145228539","0.7002933386","","","","","","","","","","74","J","1","","","78","main_expt",""
"","bandit","158","910747","0.0-120.0-0.0","99246116","wem/bandit_party_2","A2VNR6984SDFGQ","either","3","1659","","","","","","","1","0","0","0.6510109529","","0.2","0.8","0.4","0.6","","","","","0.9616021792","0.8152221547","0.1669860915","0.6510109529","","","","","","","","","","76","L","3","","","79","main_expt",""
"","bandit","159","913904","0.0-121.0-0.0","99246116","wem/bandit_party_2","A2VNR6984SDFGQ","either","3","1596","","","","","","","0","0","1","","0.1922913003","0.2","0.8","0.4","0.6","0.950571795","0.810351938","0.1922913003","0.6765614865","","","","","","","","","","","","","","75","K","2","","","80","main_expt",""
"","bandit","160","916764","0.0-122.0-0.0","99246116","wem/bandit_party_2","A2VNR6984SDFGQ","either","3","1273","","","","","","","0","1","0","","0.5908869344","0.2","0.8","0.4","0.6","0.9331160128","0.8895110989","0.2407870914","0.5908869344","","","","","","","","","","","","","","76","L","3","","","81","main_expt",""
"","bandit","161","919188","0.0-123.0-0.0","99246116","wem/bandit_party_2","A2VNR6984SDFGQ","either","3","870","","","","","","","1","0","0","0.3077898034","","0.2","0.8","0.4","0.6","","","","","0.9465986336","0.9046816681","0.3077898034","0.5267531711","","","","","","","","","","75","K","2","","","82","main_expt",""
"","bandit","162","922267","0.0-124.0-0.0","99246116","wem/bandit_party_2","A2VNR6984SDFGQ","either","3","1512","","","","","","","1","0","0","0.8465278631","","0.2","0.8","0.4","0.6","","","","","0.9371159138","0.8465278631","0.2337579628","0.6168373964","","","","","","","","","","74","J","1","","","83","main_expt",""
"","bandit","163","926955","0.0-125.0-0.0","99246116","wem/bandit_party_2","A2VNR6984SDFGQ","either","3","3119","","","","","","","1","0","0","0.5733990252","","0.2","0.8","0.4","0.6","","","","","0.8998840018","0.7584930438","0.2781329454","0.5733990252","","","","","","","","","","76","L","3","","","84","main_expt",""
"","bandit","164","929816","0.0-126.0-0.0","99246116","wem/bandit_party_2","A2VNR6984SDFGQ","either","3","1307","","","","","","","0","0","1","0.4719695616","","0.2","0.8","0.4","0.6","","","","","0.9102188985","0.7727946294","0.3013149798","0.4719695616","","","","","","","","","","76","L","3","","","85","main_expt",""
"","bandit","165","932128","0.0-127.0-0.0","99246116","wem/bandit_party_2","A2VNR6984SDFGQ","either","3","724","","","","","","","1","0","0","0.8216594778","","0.2","0.8","0.4","0.6","","","","","0.9000055418","0.8216594778","0.3231836659","0.6941651786","","","","","","","","","","74","J","1","","","86","main_expt",""
"","bandit","166","934708","0.0-128.0-0.0","99246116","wem/bandit_party_2","A2VNR6984SDFGQ","either","3","1040","","","","","","","1","0","0","0.7833884788","","0.2","0.8","0.4","0.6","","","","","0.8563468124","0.7833884788","0.3986379136","0.5408952125","","","","","","","","","","74","J","1","","","87","main_expt",""
"","bandit","167","938129","0.0-129.0-0.0","99246116","wem/bandit_party_2","A2VNR6984SDFGQ","either","3","1868","","","","","","","0","0","1","","0.4230151841","0.2","0.8","0.4","0.6","0.7349543302","0.7804426693","0.4230151841","0.5438891422","","","","","","","","","","","","","","75","K","2","","","88","main_expt",""
"","bandit","168","941303","0.0-130.0-0.0","99246116","wem/bandit_party_2","A2VNR6984SDFGQ","either","3","1627","","","","","","","0","0","1","","0.4294971294","0.2","0.8","0.4","0.6","0.7907967515","0.7930928848","0.3761858397","0.4294971294","","","","","","","","","","","","","","76","L","3","","","89","main_expt",""
"","bandit","169","943975","0.0-131.0-0.0","99246116","wem/bandit_party_2","A2VNR6984SDFGQ","either","3","1106","","","","","","","0","1","0","","0.4928337868","0.2","0.8","0.4","0.6","0.7883246469","0.7683039237","0.4799086841","0.4928337868","","","","","","","","","","","","","","76","L","3","","","90","main_expt",""
"","bandit","170","948291","0.0-132.0-0.0","99246116","wem/bandit_party_2","A2VNR6984SDFGQ","either","3","2769","","","","","","","1","0","0","0.5655090935","","0.2","0.8","0.4","0.6","","","","","0.8389096604","0.8072091422","0.4558425901","0.5655090935","","","","","","","","","","76","L","3","","","91","main_expt",""
"","bandit","171","952090","0.0-133.0-0.0","99246116","wem/bandit_party_2","A2VNR6984SDFGQ","either","3","2252","","","","","","","0","1","0","","0.3781515597","0.2","0.8","0.4","0.6","0.8064187158","0.7791444337","0.3781515597","0.6154818033","","","","","","","","","","","","","","75","K","2","","","92","main_expt",""
"","bandit","172","955313","0.0-134.0-0.0","99246116","wem/bandit_party_2","A2VNR6984SDFGQ","either","3","1635","","","","","","","0","1","0","","0.8498372391","0.2","0.8","0.4","0.6","0.7542368763","0.8498372391","0.2858753042","0.7381217307","","","","","","","","","","","","","","74","J","1","","","93","main_expt",""
"","bandit","173","959893","0.0-135.0-0.0","99246116","wem/bandit_party_2","A2VNR6984SDFGQ","either","3","3032","","","","","","","0","0","1","0.6932487021","","0.2","0.8","0.4","0.6","","","","","0.6932487021","0.8440610374","0.3914428564","0.7776388333","","","","","","","","","","72","H","0","img/none_selected.jpg","","94","main_expt",""
"","bandit","174","968397","0.0-136.0-0.0","99246116","wem/bandit_party_2","A2VNR6984SDFGQ","either","3","6953","","","","","","","0","1","0","","0.8299152283","0.2","0.8","0.4","0.6","0.6706070003","0.8092418145","0.3800018616","0.8299152283","","","","","","","","","","","","","","76","L","3","","","95","main_expt",""
"","bandit","175","973851","0.0-137.0-0.0","99246116","wem/bandit_party_2","A2VNR6984SDFGQ","either","3","3893","","","","","","","0","0","1","","0.6670251336","0.2","0.8","0.4","0.6","0.6670251336","0.8655172998","0.3078584031","0.7697811485","","","","","","","","","","","","","","72","H","0","img/none_selected.jpg","","96","main_expt",""
"","bandit","176","983872","0.0-138.0-0.0","99246116","wem/bandit_party_2","A2VNR6984SDFGQ","either","3","8436","","","","","","","1","0","0","0.7487724405","","0.2","0.8","0.4","0.6","","","","","0.7023758817","0.8735151232","0.218486712","0.7487724405","","","","","","","","","","76","L","3","","","97","main_expt",""
"","bandit","177","989561","0.0-139.0-0.0","99246116","wem/bandit_party_2","A2VNR6984SDFGQ","either","3","4136","","","","","","","0","0","1","0.7450583294","","0.2","0.8","0.4","0.6","","","","","0.7036518389","0.84409386","0.2037628256","0.7450583294","","","","","","","","","","76","L","3","","","98","main_expt",""
"","bandit","178","991968","0.0-140.0-0.0","99246116","wem/bandit_party_2","A2VNR6984SDFGQ","either","3","845","","","","","","","0","0","1","0.2400196326","","0.2","0.8","0.4","0.6","","","","","0.8401346726","0.8089648913","0.2400196326","0.7227120129","","","","","","","","","","75","K","2","","","99","main_expt",""
"","bandit","179","993749","0.0-141.0-0.0","99246116","wem/bandit_party_2","A2VNR6984SDFGQ","either","3","194","","","","","","","0","0","1","0.3298222115","","0.2","0.8","0.4","0.6","","","","","0.8640782416","0.7259557377","0.3298222115","0.5872141049","","","","","","","","","","75","K","2","","","100","main_expt",""
"","bandit","180","995922","0.0-142.0-0.0","99246116","wem/bandit_party_2","A2VNR6984SDFGQ","either","3","594","","","","","","","0","0","1","","0.8232172207","0.2","0.8","0.4","0.6","0.8232172207","0.6332869741","0.3108047587","0.6432213136","","","","","","","","","","","","","","72","H","0","img/none_selected.jpg","","101","main_expt",""
"","bandit","181","1000330","0.0-143.0-0.0","99246116","wem/bandit_party_2","A2VNR6984SDFGQ","either","3","2853","","","","","","","0","0","1","0.2869381514","","0.2","0.8","0.4","0.6","","","","","0.8451901448","0.659443461","0.2869381514","0.6009476408","","","","","","","","","","75","K","2","","","102","main_expt",""
"","bandit","182","1003299","0.0-144.0-0.0","99246116","wem/bandit_party_2","A2VNR6984SDFGQ","either","3","1401","","","","","","","0","0","1","","0.8792283932","0.2","0.8","0.4","0.6","0.8792283932","0.5959971703","0.246485708","0.6120105745","","","","","","","","","","","","","","72","H","0","img/none_selected.jpg","","103","main_expt",""
"","bandit","183","1005675","0.0-145.0-0.0","99246116","wem/bandit_party_2","A2VNR6984SDFGQ","either","3","807","","","","","","","1","0","0","0.5643630141","","0.2","0.8","0.4","0.6","","","","","0.8887181638","0.5643630141","0.2175667678","0.6821098495","","","","","","","","","","74","J","1","","","104","main_expt",""
"","bandit","184","1008191","0.0-146.0-0.0","99246116","wem/bandit_party_2","A2VNR6984SDFGQ","either","3","948","","","","","","","1","0","0","0.5489079514","","0.2","0.8","0.4","0.6","","","","","0.8013578166","0.5489079514","0.2645808036","0.7228510016","","","","","","","","","","74","J","1","","","105","main_expt",""
"","bandit","185","1010859","0.0-147.0-0.0","99246116","wem/bandit_party_2","A2VNR6984SDFGQ","either","3","1118","","","","","","","1","0","0","0.4336033326","","0.2","0.8","0.4","0.6","","","","","0.7307006529","0.4336033326","0.2652424516","0.6639212405","","","","","","","","","","74","J","1","","","106","main_expt",""
"","bandit","186","1013784","0.0-148.0-0.0","99246116","wem/bandit_party_2","A2VNR6984SDFGQ","either","3","1375","","","","","","","0","0","1","0.4779201531","","0.2","0.8","0.4","0.6","","","","","0.7519500851","0.4779201531","0.2481661544","0.6237034742","","","","","","","","","","74","J","1","","","107","main_expt",""
"","bandit","187","1016862","0.0-149.0-0.0","99246116","wem/bandit_party_2","A2VNR6984SDFGQ","either","3","1507","","","","","","","1","0","0","0.5075294874","","0.2","0.8","0.4","0.6","","","","","0.7457577851","0.5075294874","0.2361720859","0.5847293191","","","","","","","","","","74","J","1","","","108","main_expt",""
"","bandit","188","1023896","0.0-150.0-0.0","99246116","wem/bandit_party_2","A2VNR6984SDFGQ","either","3","5485","","","","","","","0","0","1","0.522842385","","0.2","0.8","0.4","0.6","","","","","0.77583868","0.522842385","0.2799679389","0.6260859175","","","","","","","","","","74","J","1","","","109","main_expt",""
"","bandit","189","1027100","0.0-151.0-0.0","99246116","wem/bandit_party_2","A2VNR6984SDFGQ","either","3","1623","","","","","","","0","0","1","0.4788227383","","0.2","0.8","0.4","0.6","","","","","0.7520827962","0.419893696","0.3333098602","0.4788227383","","","","","","","","","","76","L","3","","","110","main_expt",""
"","bandit","190","1030749","0.0-152.0-0.0","99246116","wem/bandit_party_2","A2VNR6984SDFGQ","either","3","2091","","","","","","","0","1","0","","0.6019778282","0.2","0.8","0.4","0.6","0.6512809768","0.431092028","0.3669732535","0.6019778282","","","","","","","","","","","","","","76","L","3","","","111","main_expt",""
"","bandit","191","1033562","0.0-153.0-0.0","99246116","wem/bandit_party_2","A2VNR6984SDFGQ","either","3","1256","","","","","","","1","0","0","0.546445977","","0.2","0.8","0.4","0.6","","","","","0.5891937939","0.3590071368","0.389765336","0.546445977","","","","","","","","","","76","L","3","","","112","main_expt",""
"","bandit","192","1037673","0.0-154.0-0.0","99246116","wem/bandit_party_2","A2VNR6984SDFGQ","either","3","2546","","","","","","","0","1","0","","0.4498419114","0.2","0.8","0.4","0.6","0.6490525038","0.4498419114","0.3191506652","0.6256092846","","","","","","","","","","","","","","74","J","1","","","113","main_expt",""
"","bandit","193","1039757","0.0-155.0-0.0","99246116","wem/bandit_party_2","A2VNR6984SDFGQ","either","3","513","","","","","","","0","0","1","","0.2090321438","0.2","0.8","0.4","0.6","0.6283680234","0.4829831469","0.2090321438","0.6577617598","","","","","","","","","","","","","","75","K","2","","","114","main_expt",""
"","bandit","194","1043929","0.0-156.0-0.0","99246116","wem/bandit_party_2","A2VNR6984SDFGQ","either","3","2629","","","","","","","1","0","0","0.7140476354","","0.2","0.8","0.4","0.6","","","","","0.6064224059","0.4846695964","0.2094439124","0.7140476354","","","","","","","","","","76","L","3","","","115","main_expt",""
"","bandit","195","1046508","0.0-157.0-0.0","99246116","wem/bandit_party_2","A2VNR6984SDFGQ","either","3","1025","","","","","","","0","1","0","","0.545813367","0.2","0.8","0.4","0.6","0.545813367","0.5396909338","0.2695181069","0.6589976567","","","","","","","","","","","","","","72","H","0","img/none_selected.jpg","","116","main_expt",""
"","bandit","196","1052964","0.0-158.0-0.0","99246116","wem/bandit_party_2","A2VNR6984SDFGQ","either","3","4901","","","","","","","1","0","0","0.5378282835","","0.2","0.8","0.4","0.6","","","","","0.5179373022","0.5378282835","0.3402036285","0.6937703341","","","","","","","","","","74","J","1","","","117","main_expt",""
"","bandit","197","1065688","0.0-159.0-0.0","99246116","wem/bandit_party_2","A2VNR6984SDFGQ","either","3","11171","","","","","","","1","0","0","0.5729988564","","0.2","0.8","0.4","0.6","","","","","0.4014157923","0.5729988564","0.3101634078","0.77114399","","","","","","","","","","74","J","1","","","118","main_expt",""
"","bandit","198","1068376","0.0-160.0-0.0","99246116","wem/bandit_party_2","A2VNR6984SDFGQ","either","3","1147","","","","","","","0","0","1","0.5630251564","","0.2","0.8","0.4","0.6","","","","","0.4360264599","0.5630251564","0.3242193616","0.710000291","","","","","","","","","","74","J","1","","","119","main_expt",""
"","bandit","199","1071533","0.0-161.0-0.0","99246116","wem/bandit_party_2","A2VNR6984SDFGQ","either","3","1606","","","","","","","1","0","0","0.3334277272","","0.2","0.8","0.4","0.6","","","","","0.3297853269","0.6482115929","0.3334277272","0.6767982245","","","","","","","","","","75","K","2","","","120","main_expt",""
"","bandit","200","1074066","0.0-162.0-0.0","99246116","wem/bandit_party_2","A2VNR6984SDFGQ","either","3","963","","","","","","","0","0","1","","0.4066521311","0.2","0.8","0.4","0.6","0.3767442019","0.5688505083","0.4066521311","0.7360115258","","","","","","","","","","","","","","75","K","2","","","121","main_expt",""
"","bandit","201","1076848","0.0-163.0-0.0","99246116","wem/bandit_party_2","A2VNR6984SDFGQ","either","3","1227","","","","","","","0","0","1","0.5349597204","","0.2","0.8","0.4","0.6","","","","","0.3589515546","0.5349597204","0.5193034213","0.7258716992","","","","","","","","","","74","J","1","","","122","main_expt",""
"","bandit","202","1093418","0.0-164.0-0.0","99246116","wem/bandit_party_2","A2VNR6984SDFGQ","either","3","15002","","","","","","","0","1","0","","0.5594962391","0.2","0.8","0.4","0.6","0.3461890545","0.412887176","0.5594962391","0.7848203729","","","","","","","","","","","","","","75","K","2","","","123","main_expt",""
"","bandit","203","1096059","0.0-165.0-0.0","99246116","wem/bandit_party_2","A2VNR6984SDFGQ","either","3","1087","","","","","","","0","0","1","","0.6876014299","0.2","0.8","0.4","0.6","0.2287340519","0.4137060999","0.6876014299","0.7673004895","","","","","","","","","","","","","","75","K","2","","","124","main_expt",""
"","bandit","204","1098763","0.0-166.0-0.0","99246116","wem/bandit_party_2","A2VNR6984SDFGQ","either","3","1142","","","","","","","0","1","0","","0.7354493796","0.2","0.8","0.4","0.6","0.2900718705","0.3226696341","0.7354493796","0.8020703208","","","","","","","","","","","","","","75","K","2","","","125","main_expt",""
"","bandit","205","1101281","0.0-167.0-0.0","99246116","wem/bandit_party_2","A2VNR6984SDFGQ","either","3","967","","","","","","","0","0","1","0.3904211026","","0.2","0.8","0.4","0.6","","","","","0.2880997441","0.3904211026","0.76840964","0.8196031782","","","","","","","","","","74","J","1","","","126","main_expt",""
"","bandit","206","1103845","0.0-168.0-0.0","99246116","wem/bandit_party_2","A2VNR6984SDFGQ","either","3","1012","","","","","","","0","0","1","","0.4227014292","0.2","0.8","0.4","0.6","0.3451069126","0.4227014292","0.7310750685","0.7095492128","","","","","","","","","","","","","","74","J","1","","","127","main_expt",""
"","bandit","207","1106018","0.0-169.0-0.0","99246116","wem/bandit_party_2","A2VNR6984SDFGQ","either","3","598","","","","","","","1","0","0","0.543317668","","0.2","0.8","0.4","0.6","","","","","0.3129298861","0.543317668","0.6582635175","0.711577854","","","","","","","","","","74","J","1","","","128","main_expt",""
"","bandit","208","1108628","0.0-170.0-0.0","99246116","wem/bandit_party_2","A2VNR6984SDFGQ","either","3","1055","","","","","","","0","0","1","0.7529887683","","0.2","0.8","0.4","0.6","","","","","0.3507055597","0.5906282681","0.7529887683","0.7022761705","","","","","","","","","","75","K","2","","","129","main_expt",""
"","bandit","209","1110958","0.0-171.0-0.0","99246116","wem/bandit_party_2","A2VNR6984SDFGQ","either","3","776","","","","","","","0","1","0","","0.3753424236","0.2","0.8","0.4","0.6","0.3753424236","0.6636268631","0.7929301986","0.7309419319","","","","","","","","","","","","","","72","H","0","img/none_selected.jpg","","130","main_expt",""
"","bandit","210","1113458","0.0-172.0-0.0","99246116","wem/bandit_party_2","A2VNR6984SDFGQ","either","3","945","","","","","","","0","0","1","","0.3473486375","0.2","0.8","0.4","0.6","0.3473486375","0.5686699027","0.8149544693","0.6904825683","","","","","","","","","","","","","","72","H","0","img/none_selected.jpg","","131","main_expt",""
"","bandit","211","1115634","0.0-173.0-0.0","99246116","wem/bandit_party_2","A2VNR6984SDFGQ","either","3","611","","","","","","","0","0","1","0.6564012045","","0.2","0.8","0.4","0.6","","","","","0.303679922","0.6564012045","0.7626544417","0.7153166113","","","","","","","","","","74","J","1","","","132","main_expt",""
"","bandit","212","1118214","0.0-174.0-0.0","99246116","wem/bandit_party_2","A2VNR6984SDFGQ","either","3","1017","","","","","","","0","1","0","","0.7584501248","0.2","0.8","0.4","0.6","0.3385565331","0.5876654864","0.7584501248","0.8135501627","","","","","","","","","","","","","","75","K","2","","","133","main_expt",""
"","bandit","213","1139455","0.0-175.0-0.0","99246116","wem/bandit_party_2","A2VNR6984SDFGQ","either","3","19690","","","","","","","1","0","0","0.5299368298","","0.2","0.8","0.4","0.6","","","","","0.3686406913","0.5299368298","0.7905015291","0.7707892239","","","","","","","","","","74","J","1","","","134","main_expt",""
"","bandit","214","1149617","0.0-176.0-0.0","99246116","wem/bandit_party_2","A2VNR6984SDFGQ","either","3","8596","","","","","","","0","1","0","","0.4547966061","0.2","0.8","0.4","0.6","0.3672202126","0.4547966061","0.7515189777","0.7689088841","","","","","","","","","","","","","","74","J","1","","","135","main_expt",""
"","bandit","215","1153556","0.0-177.0-0.0","99246116","wem/bandit_party_2","A2VNR6984SDFGQ","either","3","2375","","","","","","","0","1","0","","0.5290841583","0.2","0.8","0.4","0.6","0.4064769993","0.5290841583","0.7293518859","0.6641324257","","","","","","","","","","","","","","74","J","1","","","136","main_expt",""
"","bandit","216","1156168","0.0-178.0-0.0","99246116","wem/bandit_party_2","A2VNR6984SDFGQ","either","3","1054","","","","","","","0","0","1","0.419904672","","0.2","0.8","0.4","0.6","","","","","0.3492503667","0.419904672","0.7286216209","0.635388201","","","","","","","","","","74","J","1","","","137","main_expt",""
"","bandit","217","1158106","0.0-179.0-0.0","99246116","wem/bandit_party_2","A2VNR6984SDFGQ","either","3","391","","","","","","","0","1","0","","0.7425921641","0.2","0.8","0.4","0.6","0.3315752647","0.4532768315","0.7425921641","0.6889508363","","","","","","","","","","","","","","75","K","2","","","138","main_expt",""
"","bandit","218","1162498","0.0-180.0-0.0","99246116","wem/bandit_party_2","A2VNR6984SDFGQ","either","3","2836","","","","","","","0","0","1","","0.7356638012","0.2","0.8","0.4","0.6","0.3080831972","0.4194835996","0.7356638012","0.6481427694","","","","","","","","","","","","","","75","K","2","","","139","main_expt",""
"","bandit","219","1164717","0.0-181.0-0.0","99246116","wem/bandit_party_2","A2VNR6984SDFGQ","either","3","629","","","","","","","0","0","1","0.420008375","","0.2","0.8","0.4","0.6","","","","","0.3254670704","0.420008375","0.7334346803","0.6497449761","","","","","","","","","","74","J","1","","","140","main_expt",""
"","bandit","220","1166796","0.0-182.0-0.0","99246116","wem/bandit_party_2","A2VNR6984SDFGQ","either","3","533","","","","","","","0","0","1","","0.3452870884","0.2","0.8","0.4","0.6","0.3452870884","0.3908595681","0.7737071977","0.7328205829","","","","","","","","","","","","","","72","H","0","img/none_selected.jpg","","141","main_expt",""
"","bandit","221","1169704","0.0-183.0-0.0","99246116","wem/bandit_party_2","A2VNR6984SDFGQ","either","3","1352","","","","","","","0","0","1","","0.6396752577","0.2","0.8","0.4","0.6","0.2659846132","0.3994278682","0.7912630164","0.6396752577","","","","","","","","","","","","","","76","L","3","","","142","main_expt",""
"","bandit","222","1172033","0.0-184.0-0.0","99246116","wem/bandit_party_2","A2VNR6984SDFGQ","either","3","780","","","","","","","0","0","1","0.3137486051","","0.2","0.8","0.4","0.6","","","","","0.2549781044","0.3137486051","0.7709923268","0.5974809775","","","","","","","","","","74","J","1","","","143","main_expt",""
"","bandit","223","1174585","0.0-185.0-0.0","99246116","wem/bandit_party_2","A2VNR6984SDFGQ","either","3","979","","","","","","","0","0","1","0.3961992406","","0.2","0.8","0.4","0.6","","","","","0.3603981418","0.3961992406","0.7492848764","0.5953980303","","","","","","","","","","74","J","1","","","144","main_expt",""
"","bandit","224","1177977","0.0-186.0-0.0","99246116","wem/bandit_party_2","A2VNR6984SDFGQ","either","3","1823","","","","","","","0","0","1","0.3186856111","","0.2","0.8","0.4","0.6","","","","","0.3682949958","0.3186856111","0.7343485297","0.6215671736","","","","","","","","","","74","J","1","","","145","main_expt",""
"","bandit","225","1183482","0.0-187.0-0.0","99246116","wem/bandit_party_2","A2VNR6984SDFGQ","either","3","3950","","","","","","","0","0","1","0.2724247948","","0.2","0.8","0.4","0.6","","","","","0.5028772858","0.2724247948","0.7701032705","0.5766937592","","","","","","","","","","74","J","1","","","146","main_expt",""
"","bandit","226","1186639","0.0-188.0-0.0","99246116","wem/bandit_party_2","A2VNR6984SDFGQ","either","3","1603","","","","","","","1","0","0","0.2844288079","","0.2","0.8","0.4","0.6","","","","","0.4186890645","0.2844288079","0.7521601774","0.4600492943","","","","","","","","","","74","J","1","","","147","main_expt",""
"","bandit","227","1188971","0.0-189.0-0.0","99246116","wem/bandit_party_2","A2VNR6984SDFGQ","either","3","781","","","","","","","0","0","1","0.3095389551","","0.2","0.8","0.4","0.6","","","","","0.3928328601","0.3095389551","0.7762143641","0.4575448178","","","","","","","","","","74","J","1","","","148","main_expt",""
"","bandit","228","1190551","0.0-190.0-0.0","99246116","wem/bandit_party_2","A2VNR6984SDFGQ","either","3","31","","","","","","","0","0","1","0.2464654743","","0.2","0.8","0.4","0.6","","","","","0.4220063763","0.2464654743","0.716016993","0.3840278576","","","","","","","","","","74","J","1","","","149","main_expt",""
"","bandit","229","1192864","0.0-191.0-0.0","99246116","wem/bandit_party_2","A2VNR6984SDFGQ","either","3","764","","","","","","","0","0","1","0.2088091358","","0.2","0.8","0.4","0.6","","","","","0.3206822378","0.2088091358","0.7182774931","0.3004406684","","","","","","","","","","74","J","1","","","150","main_expt",""
"","bandit","230","1195583","0.0-192.0-0.0","99246116","wem/bandit_party_2","A2VNR6984SDFGQ","either","3","1171","","","","","","","1","0","0","0.8028216805","","0.2","0.8","0.4","0.6","","","","","0.3380172956","0.2670014618","0.8028216805","0.2769981479","","","","","","","","","","75","K","2","","","151","main_expt",""
"","bandit","231","1197584","0.0-193.0-0.0","99246116","wem/bandit_party_2","A2VNR6984SDFGQ","either","3","428","","","","","","","0","1","0","","0.8634692279","0.2","0.8","0.4","0.6","0.2461440624","0.3100930243","0.8634692279","0.40565407","","","","","","","","","","","","","","75","K","2","","","152","main_expt",""
"","bandit","232","1199819","0.0-194.0-0.0","99246116","wem/bandit_party_2","A2VNR6984SDFGQ","either","3","661","","","","","","","1","0","0","0.7719190238","","0.2","0.8","0.4","0.6","","","","","0.1852716423","0.3796096158","0.7719190238","0.3829351634","","","","","","","","","","75","K","2","","","153","main_expt",""
"","bandit","233","1201885","0.0-195.0-0.0","99246116","wem/bandit_party_2","A2VNR6984SDFGQ","either","3","509","","","","","","","0","1","0","","0.8343429945","0.2","0.8","0.4","0.6","0.1660439368","0.2265028128","0.8343429945","0.4912137185","","","","","","","","","","","","","","75","K","2","","","154","main_expt",""
"","bandit","234","1205120","0.0-196.0-0.0","99246116","wem/bandit_party_2","A2VNR6984SDFGQ","either","3","1670","","","","","","","0","1","0","","0.2135741777","0.2","0.8","0.4","0.6","0.2241607793","0.2135741777","0.7908731232","0.5312535156","","","","","","","","","","","","","","74","J","1","","","155","main_expt",""
"","bandit","235","1207058","0.0-197.0-0.0","99246116","wem/bandit_party_2","A2VNR6984SDFGQ","either","3","377","","","","","","","0","0","1","0.5747898199","","0.2","0.8","0.4","0.6","","","","","0.1566338899","0.1338357519","0.7848911391","0.5747898199","","","","","","","","","","76","L","3","","","156","main_expt",""
"","bandit","236","1209012","0.0-198.0-0.0","99246116","wem/bandit_party_2","A2VNR6984SDFGQ","either","3","397","","","","","","","0","0","1","","0.7467155263","0.2","0.8","0.4","0.6","0.1839373886","0.1344370697","0.7467155263","0.5948125822","","","","","","","","","","","","","","75","K","2","","","157","main_expt",""
"","bandit","237","1211437","0.0-199.0-0.0","99246116","wem/bandit_party_2","A2VNR6984SDFGQ","either","3","858","","","","","","","0","0","1","","0.1217930933","0.2","0.8","0.4","0.6","0.155802242","0.1217930933","0.7413618202","0.6533804049","","","","","","","","","","","","","","74","J","1","","","158","main_expt",""
"","bandit","238","1215110","0.0-200.0-0.0","99246116","wem/bandit_party_2","A2VNR6984SDFGQ","either","3","2107","","","","","","","1","0","0","0.6882043704","","0.2","0.8","0.4","0.6","","","","","0.2304237345","0.08524485746","0.6882043704","0.5777198579","","","","","","","","","","75","K","2","","","159","main_expt",""
"","bandit","239","1217376","0.0-201.0-0.0","99246116","wem/bandit_party_2","A2VNR6984SDFGQ","either","3","713","","","","","","","0","1","0","","0.7253096401","0.2","0.8","0.4","0.6","0.2242026456","0.07332219892","0.7253096401","0.6777741118","","","","","","","","","","","","","","75","K","2","","","160","main_expt",""
"","bandit","240","1219353","0.0-202.0-0.0","99246116","wem/bandit_party_2","A2VNR6984SDFGQ","either","3","415","","","","","","","0","1","0","","0.6989182833","0.2","0.8","0.4","0.6","0.2708915048","0.1063489691","0.6989182833","0.6249074267","","","","","","","","","","","","","","75","K","2","","","161","main_expt",""
"","bandit","241","1221612","0.0-203.0-0.0","99246116","wem/bandit_party_2","A2VNR6984SDFGQ","either","3","705","","","","","","","0","0","1","","0.7679575172","0.2","0.8","0.4","0.6","0.2921592604","0.09670310095","0.7679575172","0.6755041601","","","","","","","","","","","","","","75","K","2","","","162","main_expt",""
"","bandit","242","1224425","0.0-204.0-0.0","99246116","wem/bandit_party_2","A2VNR6984SDFGQ","either","3","1257","","","","","","","1","0","0","0.6461818487","","0.2","0.8","0.4","0.6","","","","","0.2050535257","0.1266359811","0.6877390752","0.6461818487","","","","","","","","","","76","L","3","","","163","main_expt",""
"","bandit","243","1228275","0.0-205.0-0.0","99246116","wem/bandit_party_2","A2VNR6984SDFGQ","either","3","2294","","","","","","","0","1","0","","0.6957575266","0.2","0.8","0.4","0.6","0.1998759094","0.1212611996","0.6957575266","0.76368027","","","","","","","","","","","","","","75","K","2","","","164","main_expt",""
"","bandit","244","1235447","0.0-206.0-0.0","99246116","wem/bandit_party_2","A2VNR6984SDFGQ","either","3","5613","","","","","","","0","1","0","","0.8400099296","0.2","0.8","0.4","0.6","0.1821974317","0.1917887173","0.6760148625","0.8400099296","","","","","","","","","","","","","","76","L","3","","","165","main_expt",""
"","bandit","245","1237729","0.0-207.0-0.0","99246116","wem/bandit_party_2","A2VNR6984SDFGQ","either","3","728","","","","","","","1","0","0","0.8573275969","","0.2","0.8","0.4","0.6","","","","","0.2916844583","0.1560613016","0.6463317238","0.8573275969","","","","","","","","","","76","L","3","","","166","main_expt",""
"","bandit","246","1240231","0.0-208.0-0.0","99246116","wem/bandit_party_2","A2VNR6984SDFGQ","either","3","942","","","","","","","1","0","0","0.7735369509","","0.2","0.8","0.4","0.6","","","","","0.3087465624","0.2214887095","0.5613055562","0.7735369509","","","","","","","","","","76","L","3","","","167","main_expt",""
"","bandit","247","1243108","0.0-209.0-0.0","99246116","wem/bandit_party_2","A2VNR6984SDFGQ","either","3","1312","","","","","","","0","1","0","","0.8091314607","0.2","0.8","0.4","0.6","0.3896626528","0.3463453368","0.5586162784","0.8091314607","","","","","","","","","","","","","","76","L","3","","","168","main_expt",""
"","bandit","248","1246186","0.0-210.0-0.0","99246116","wem/bandit_party_2","A2VNR6984SDFGQ","either","3","1528","","","","","","","0","1","0","","0.8364166478","0.2","0.8","0.4","0.6","0.4458805252","0.3222551453","0.597448185","0.8364166478","","","","","","","","","","","","","","76","L","3","","","169","main_expt",""
"","bandit","249","1249702","0.0-211.0-0.0","99246116","wem/bandit_party_2","A2VNR6984SDFGQ","either","3","1946","","","","","","","0","1","0","","0.7867883415","0.2","0.8","0.4","0.6","0.4844269655","0.2556410415","0.5351242352","0.7867883415","","","","","","","","","","","","","","76","L","3","","","170","main_expt",""
"","bandit","250","1255799","0.0-212.0-0.0","99246116","wem/bandit_party_2","A2VNR6984SDFGQ","either","3","4525","","","","","","","1","0","0","0.8728822524","","0.2","0.8","0.4","0.6","","","","","0.4858642724","0.2248109201","0.4819966971","0.8728822524","","","","","","","","","","76","L","3","","","171","main_expt",""
"","bandit","251","1258753","0.0-213.0-0.0","99246116","wem/bandit_party_2","A2VNR6984SDFGQ","either","3","1356","","","","","","","0","0","1","0.3468742366","","0.2","0.8","0.4","0.6","","","","","0.5060245996","0.3468742366","0.4038669266","0.7804912391","","","","","","","","","","74","J","1","","","172","main_expt",""
"","bandit","252","1261457","0.0-214.0-0.0","99246116","wem/bandit_party_2","A2VNR6984SDFGQ","either","3","1145","","","","","","","0","0","1","","0.3102533384","0.2","0.8","0.4","0.6","0.5413528159","0.234408543","0.3102533384","0.7728490534","","","","","","","","","","","","","","75","K","2","","","173","main_expt",""
"","bandit","253","1264351","0.0-215.0-0.0","99246116","wem/bandit_party_2","A2VNR6984SDFGQ","either","3","1323","","","","","","","0","1","0","","0.814185781","0.2","0.8","0.4","0.6","0.6505326818","0.1404050277","0.3818943333","0.814185781","","","","","","","","","","","","","","76","L","3","","","174","main_expt",""
"","bandit","254","1266712","0.0-216.0-0.0","99246116","wem/bandit_party_2","A2VNR6984SDFGQ","either","3","738","","","","","","","0","1","0","","0.6470977149","0.2","0.8","0.4","0.6","0.6470977149","0.1081611795","0.2893198216","0.8010682597","","","","","","","","","","","","","","72","H","0","img/none_selected.jpg","","175","main_expt",""
"","bandit","255","1268727","0.0-217.0-0.0","99246116","wem/bandit_party_2","A2VNR6984SDFGQ","either","3","467","","","","","","","0","1","0","","0.7083228223","0.2","0.8","0.4","0.6","0.6844229635","0.0730283124","0.226416223","0.7083228223","","","","","","","","","","","","","","76","L","3","","","176","main_expt",""
"","bandit","256","1270980","0.0-218.0-0.0","99246116","wem/bandit_party_2","A2VNR6984SDFGQ","either","3","675","","","","","","","0","0","1","0.2786676386","","0.2","0.8","0.4","0.6","","","","","0.6883244284","0.07044941978","0.2786676386","0.7408938443","","","","","","","","","","75","K","2","","","177","main_expt",""
"","bandit","257","1273246","0.0-219.0-0.0","99246116","wem/bandit_party_2","A2VNR6984SDFGQ","either","3","719","","","","","","","0","0","1","0.06886985111","","0.2","0.8","0.4","0.6","","","","","0.6098590842","0.06886985111","0.2279078815","0.6621187214","","","","","","","","","","74","J","1","","","178","main_expt",""
"","bandit","258","1275481","0.0-220.0-0.0","99246116","wem/bandit_party_2","A2VNR6984SDFGQ","either","3","682","","","","","","","0","1","0","","0.1690126781","0.2","0.8","0.4","0.6","0.5924449164","0.07254371148","0.1690126781","0.6765487854","","","","","","","","","","","","","","75","K","2","","","179","main_expt",""
"","bandit","259","1277607","0.0-221.0-0.0","99246116","wem/bandit_party_2","A2VNR6984SDFGQ","either","3","542","","","","","","","0","1","0","","0.7276027883","0.2","0.8","0.4","0.6","0.4915111467","0.055057054","0.1356066944","0.7276027883","","","","","","","","","","","","","","76","L","3","","","180","main_expt",""
"","bandit","260","1279592","0.0-222.0-0.0","99246116","wem/bandit_party_2","A2VNR6984SDFGQ","either","3","432","","","","","","","0","0","1","","0.4713933083","0.2","0.8","0.4","0.6","0.4713933083","0.1187845962","0.1889441784","0.7083410305","","","","","","","","","","","","","","72","H","0","img/none_selected.jpg","","181","main_expt",""
"","bandit","261","1281951","0.0-223.0-0.0","99246116","wem/bandit_party_2","A2VNR6984SDFGQ","either","3","763","","","","","","","0","0","1","0.1304227184","","0.2","0.8","0.4","0.6","","","","","0.500114893","0.1304227184","0.2163976064","0.6489729838","","","","","","","","","","74","J","1","","","182","main_expt",""
"","bandit","262","1283906","0.0-224.0-0.0","99246116","wem/bandit_party_2","A2VNR6984SDFGQ","either","3","390","","","","","","","0","0","1","0.1902524086","","0.2","0.8","0.4","0.6","","","","","0.4949273894","0.1374638341","0.1902524086","0.6956751073","","","","","","","","","","75","K","2","","","183","main_expt",""
"","bandit","263","1286062","0.0-225.0-0.0","99246116","wem/bandit_party_2","A2VNR6984SDFGQ","either","3","592","","","","","","","0","1","0","","0.4271361476","0.2","0.8","0.4","0.6","0.4271361476","0.1914365344","0.2265805791","0.6066537109","","","","","","","","","","","","","","72","H","0","img/none_selected.jpg","","184","main_expt",""
"","bandit","264","1288110","0.0-226.0-0.0","99246116","wem/bandit_party_2","A2VNR6984SDFGQ","either","3","492","","","","","","","1","0","0","0.6337362372","","0.2","0.8","0.4","0.6","","","","","0.4558255176","0.1939872458","0.1843452782","0.6337362372","","","","","","","","","","76","L","3","","","185","main_expt",""
"","bandit","265","1290313","0.0-227.0-0.0","99246116","wem/bandit_party_2","A2VNR6984SDFGQ","either","3","618","","","","","","","0","0","1","","0.4031301461","0.2","0.8","0.4","0.6","0.4031301461","0.2219937035","0.1898387663","0.5908962551","","","","","","","","","","","","","","72","H","0","img/none_selected.jpg","","186","main_expt",""
"","bandit","266","1292111","0.0-228.0-0.0","99246116","wem/bandit_party_2","A2VNR6984SDFGQ","either","3","240","","","","","","","0","0","1","0.2024523472","","0.2","0.8","0.4","0.6","","","","","0.3993697366","0.2024523472","0.210498268","0.7651761031","","","","","","","","","","74","J","1","","","187","main_expt",""
"","bandit","267","1294081","0.0-229.0-0.0","99246116","wem/bandit_party_2","A2VNR6984SDFGQ","either","3","400","","","","","","","1","0","0","0.2368649008","","0.2","0.8","0.4","0.6","","","","","0.4478687375","0.1930401344","0.2368649008","0.7928336054","","","","","","","","","","75","K","2","","","188","main_expt",""
"","bandit","268","1296194","0.0-230.0-0.0","99246116","wem/bandit_party_2","A2VNR6984SDFGQ","either","3","527","","","","","","","0","0","1","","0.8917358491","0.2","0.8","0.4","0.6","0.3699601256","0.3255404916","0.291591963","0.8917358491","","","","","","","","","","","","","","76","L","3","","","189","main_expt",""
"","bandit","269","1298649","0.0-231.0-0.0","99246116","wem/bandit_party_2","A2VNR6984SDFGQ","either","3","893","","","","","","","1","0","0","0.3723251068","","0.2","0.8","0.4","0.6","","","","","0.3723251068","0.2364063212","0.4411779124","0.898448025","","","","","","","","","","72","H","0","img/none_selected.jpg","","190","main_expt",""
"","bandit","270","1300555","0.0-232.0-0.0","99246116","wem/bandit_party_2","A2VNR6984SDFGQ","either","3","348","","","","","","","0","1","0","","0.2662767285","0.2","0.8","0.4","0.6","0.3309849287","0.2662767285","0.3968704403","0.9186708851","","","","","","","","","","","","","","74","J","1","","","191","main_expt",""
"","bandit","271","1302714","0.0-233.0-0.0","99246116","wem/bandit_party_2","A2VNR6984SDFGQ","either","3","569","","","","","","","0","1","0","","0.4512817608","0.2","0.8","0.4","0.6","0.2865625263","0.2815174114","0.4512817608","0.9314477517","","","","","","","","","","","","","","75","K","2","","","192","main_expt",""
"","bandit","272","1304746","0.0-234.0-0.0","99246116","wem/bandit_party_2","A2VNR6984SDFGQ","either","3","471","","","","","","","1","0","0","0.9090465067","","0.2","0.8","0.4","0.6","","","","","0.2862811746","0.3461293965","0.4788006455","0.9090465067","","","","","","","","","","76","L","3","","","193","main_expt",""
"","bandit","273","1306699","0.0-235.0-0.0","99246116","wem/bandit_party_2","A2VNR6984SDFGQ","either","3","382","","","","","","","0","0","1","0.2785288642","","0.2","0.8","0.4","0.6","","","","","0.2785288642","0.3303735913","0.4651889587","0.8762249788","","","","","","","","","","72","H","0","img/none_selected.jpg","","194","main_expt",""
"","bandit","274","1309512","0.0-236.0-0.0","99246116","wem/bandit_party_2","A2VNR6984SDFGQ","either","3","1251","","","","","","","0","0","1","0.3194565039","","0.2","0.8","0.4","0.6","","","","","0.2283941808","0.3194565039","0.4718629942","0.8623185747","","","","","","","","","","74","J","1","","","195","main_expt",""
"","bandit","275","1312312","0.0-237.0-0.0","99246116","wem/bandit_party_2","A2VNR6984SDFGQ","either","3","1240","","","","","","","1","0","0","0.3825708332","","0.2","0.8","0.4","0.6","","","","","0.214282227","0.4103944464","0.3825708332","0.7745977574","","","","","","","","","","75","K","2","","","196","main_expt",""
"","bandit","276","1314451","0.0-238.0-0.0","99246116","wem/bandit_party_2","A2VNR6984SDFGQ","either","3","561","","","","","","","0","0","1","0.7723069829","","0.2","0.8","0.4","0.6","","","","","0.1422959513","0.4445726534","0.4530864699","0.7723069829","","","","","","","","","","76","L","3","","","197","main_expt",""
"","bandit","277","1316780","0.0-239.0-0.0","99246116","wem/bandit_party_2","A2VNR6984SDFGQ","either","3","745","","","","","","","0","0","1","","0.1126324943","0.2","0.8","0.4","0.6","0.1126324943","0.4351718099","0.4337652667","0.7084082875","","","","","","","","","","","","","","72","H","0","img/none_selected.jpg","","198","main_expt",""
"","bandit","278","1319266","0.0-240.0-0.0","99246116","wem/bandit_party_2","A2VNR6984SDFGQ","either","3","921","","","","","","","0","0","1","0.4641294157","","0.2","0.8","0.4","0.6","","","","","0.1144166609","0.4641294157","0.4138332966","0.7016883558","","","","","","","","","","74","J","1","","","199","main_expt",""
"","bandit","279","1338459","0.0-241.0-0.0","99246116","wem/bandit_party_2","A2VNR6984SDFGQ","either","3","17632","","","","","","","0","0","1","","0.5005175686","0.2","0.8","0.4","0.6","0.1518003708","0.4468687069","0.5005175686","0.6504384346","","","","","","","","","","","","","","75","K","2","","","200","main_expt",""
"","bandit","280","1345399","0.0-242.0-0.0","99246116","wem/bandit_party_2","A2VNR6984SDFGQ","either","3","5341","","","","","","","1","0","0","0.7904945102","","0.2","0.8","0.4","0.6","","","","","0.1974433607","0.5087435212","0.5122642399","0.7904945102","","","","","","","","","","76","L","3","","","201","main_expt",""
"","bandit","281","1346994","0.0-243.0-0.0","99246116","wem/bandit_party_2","A2VNR6984SDFGQ","either","3","15","","","","","","","0","0","1","","0.5414597976","0.2","0.8","0.4","0.6","0.2000842809","0.4992132835","0.5414597976","0.7039472437","","","","","","","","","","","","","","75","K","2","","","202","main_expt",""
"","bandit","282","1349182","0.0-244.0-0.0","99246116","wem/bandit_party_2","A2VNR6984SDFGQ","either","3","624","","","","","","","1","0","0","0.7478807213","","0.2","0.8","0.4","0.6","","","","","0.1715580826","0.4859842053","0.4993649945","0.7478807213","","","","","","","","","","76","L","3","","","203","main_expt",""
"","bandit","283","1351276","0.0-245.0-0.0","99246116","wem/bandit_party_2","A2VNR6984SDFGQ","either","3","505","","","","","","","0","1","0","","0.6162755314","0.2","0.8","0.4","0.6","0.3028604286","0.6162755314","0.4056752737","0.7346150791","","","","","","","","","","","","","","74","J","1","","","204","main_expt",""
"","bandit","284","1353245","0.0-246.0-0.0","99246116","wem/bandit_party_2","A2VNR6984SDFGQ","either","3","399","","","","","","","0","0","1","","0.4174768156","0.2","0.8","0.4","0.6","0.3714949669","0.6204906845","0.4174768156","0.7240623961","","","","","","","","","","","","","","75","K","2","","","205","main_expt",""
"","bandit","285","1354949","0.0-247.0-0.0","99246116","wem/bandit_party_2","A2VNR6984SDFGQ","either","3","147","","","","","","","1","0","0","0.733657826","","0.2","0.8","0.4","0.6","","","","","0.3034865557","0.6390595606","0.4364097613","0.733657826","","","","","","","","","","76","L","3","","","206","main_expt",""
"","bandit","286","1356918","0.0-248.0-0.0","99246116","wem/bandit_party_2","A2VNR6984SDFGQ","either","3","380","","","","","","","0","0","1","0.2688105372","","0.2","0.8","0.4","0.6","","","","","0.2688105372","0.6022157482","0.4666062126","0.6797091947","","","","","","","","","","72","H","0","img/none_selected.jpg","","207","main_expt",""
"","bandit","287","1358653","0.0-249.0-0.0","99246116","wem/bandit_party_2","A2VNR6984SDFGQ","either","3","133","","","","","","","1","0","0","0.6598502583","","0.2","0.8","0.4","0.6","","","","","0.2240001326","0.6598502583","0.4594719295","0.472157919","","","","","","","","","","74","J","1","","","208","main_expt",""
"","bandit","288","1360513","0.0-250.0-0.0","99246116","wem/bandit_party_2","A2VNR6984SDFGQ","either","3","300","","","","","","","0","0","1","0.5415101973","","0.2","0.8","0.4","0.6","","","","","0.3284172364","0.6329069529","0.5415101973","0.4993955773","","","","","","","","","","75","K","2","","","209","main_expt",""
"","bandit","289","1362483","0.0-251.0-0.0","99246116","wem/bandit_party_2","A2VNR6984SDFGQ","either","3","397","","","","","","","0","1","0","","0.3923888982","0.2","0.8","0.4","0.6","0.3178667136","0.5418549626","0.5627952802","0.3923888982","","","","","","","","","","","","","","76","L","3","","","210","main_expt",""
"","bandit","290","1364389","0.0-252.0-0.0","99246116","wem/bandit_party_2","A2VNR6984SDFGQ","either","3","339","","","","","","","0","0","1","","0.278360526","0.2","0.8","0.4","0.6","0.278360526","0.7265410197","0.5779033475","0.4183885941","","","","","","","","","","","","","","72","H","0","img/none_selected.jpg","","211","main_expt",""
"","bandit","291","1366218","0.0-253.0-0.0","99246116","wem/bandit_party_2","A2VNR6984SDFGQ","either","3","241","","","","","","","1","0","0","0.6550819281","","0.2","0.8","0.4","0.6","","","","","0.2720231684","0.6550819281","0.6169713091","0.5367383083","","","","","","","","","","74","J","1","","","212","main_expt",""
"","bandit","292","1368594","0.0-254.0-0.0","99246116","wem/bandit_party_2","A2VNR6984SDFGQ","either","3","777","","","","","","","1","0","0","0.5688165975","","0.2","0.8","0.4","0.6","","","","","0.3445332441","0.5812500281","0.5688165975","0.5779451767","","","","","","","","","","75","K","2","","","213","main_expt",""
"","bandit","293","1370884","0.0-255.0-0.0","99246116","wem/bandit_party_2","A2VNR6984SDFGQ","either","3","730","","","","","","","0","1","0","","0.6912727382","0.2","0.8","0.4","0.6","0.331154659","0.6912727382","0.5354690829","0.5615700258","","","","","","","","","","","","","","74","J","1","","","214","main_expt",""
"","bandit","294","1373634","0.0-256.0-0.0","99246116","wem/bandit_party_2","A2VNR6984SDFGQ","either","3","1162","","","","","","","0","0","1","","0.4395706401","0.2","0.8","0.4","0.6","0.3168016653","0.695573978","0.4395706401","0.5361399643","","","","","","","","","","","","","","75","K","2","","","215","main_expt",""
"","bandit","295","1376356","0.0-257.0-0.0","99246116","wem/bandit_party_2","A2VNR6984SDFGQ","either","3","1158","","","","","","","1","0","0","0.620750855","","0.2","0.8","0.4","0.6","","","","","0.2870858596","0.6531454011","0.4522294324","0.620750855","","","","","","","","","","76","L","3","","","216","main_expt",""
"","bandit","296","1378856","0.0-258.0-0.0","99246116","wem/bandit_party_2","A2VNR6984SDFGQ","either","3","936","","","","","","","0","1","0","","0.4141575353","0.2","0.8","0.4","0.6","0.2877345098","0.6459690495","0.4141575353","0.4812239037","","","","","","","","","","","","","","75","K","2","","","217","main_expt",""
"","bandit","297","1381170","0.0-259.0-0.0","99246116","wem/bandit_party_2","A2VNR6984SDFGQ","either","3","737","","","","","","","0","0","1","","0.4028497994","0.2","0.8","0.4","0.6","0.3608492067","0.6679944541","0.3009722504","0.4028497994","","","","","","","","","","","","","","76","L","3","","","218","main_expt",""
"","bandit","298","1383749","0.0-260.0-0.0","99246116","wem/bandit_party_2","A2VNR6984SDFGQ","either","3","1002","","","","","","","0","1","0","","0.4380407461","0.2","0.8","0.4","0.6","0.4380407461","0.7159195147","0.2706893249","0.4441021312","","","","","","","","","","","","","","72","H","0","img/none_selected.jpg","","219","main_expt",""
"","bandit","299","1386046","0.0-261.0-0.0","99246116","wem/bandit_party_2","A2VNR6984SDFGQ","either","3","726","","","","","","","0","0","1","0.6874484601","","0.2","0.8","0.4","0.6","","","","","0.4769938592","0.6874484601","0.3821277721","0.4867825248","","","","","","","","","","74","J","1","","","220","main_expt",""
"","bandit","300","1388798","0.0-262.0-0.0","99246116","wem/bandit_party_2","A2VNR6984SDFGQ","either","3","1193","","","","","","","1","0","0","0.6528128226","","0.2","0.8","0.4","0.6","","","","","0.4612627877","0.6528128226","0.4534214389","0.5428062785","","","","","","","","","","74","J","1","","","221","main_expt",""
"","bandit","301","1391579","0.0-263.0-0.0","99246116","wem/bandit_party_2","A2VNR6984SDFGQ","either","3","1194","","","","","","","0","0","1","","0.6836467719","0.2","0.8","0.4","0.6","0.4192901336","0.6836467719","0.6049712458","0.5993321864","","","","","","","","","","","","","","74","J","1","","","222","main_expt",""
"","bandit","302","1394017","0.0-264.0-0.0","99246116","wem/bandit_party_2","A2VNR6984SDFGQ","either","3","881","","","","","","","1","0","0","0.7820879334","","0.2","0.8","0.4","0.6","","","","","0.5559965486","0.7820879334","0.6389506418","0.4920604154","","","","","","","","","","74","J","1","","","223","main_expt",""
"","bandit","303","1396502","0.0-265.0-0.0","99246116","wem/bandit_party_2","A2VNR6984SDFGQ","either","3","867","","","","","","","0","1","0","","0.763226653","0.2","0.8","0.4","0.6","0.6687933923","0.763226653","0.6677375732","0.5344282052","","","","","","","","","","","","","","74","J","1","","","224","main_expt",""
"","bandit","304","1398724","0.0-266.0-0.0","99246116","wem/bandit_party_2","A2VNR6984SDFGQ","either","3","644","","","","","","","0","0","1","0.6931961842","","0.2","0.8","0.4","0.6","","","","","0.5954484576","0.6931961842","0.7706853934","0.5583452501","","","","","","","","","","74","J","1","","","225","main_expt",""
"","bandit","305","1400349","0.0-267.0-0.0","99246116","wem/bandit_party_2","A2VNR6984SDFGQ","either","3","58","","","","","","","0","1","0","","0.7624197083","0.2","0.8","0.4","0.6","0.6152447968","0.6633974694","0.7624197083","0.5126042404","","","","","","","","","","","","","","75","K","2","","","226","main_expt",""
"","bandit","306","1402506","0.0-268.0-0.0","99246116","wem/bandit_party_2","A2VNR6984SDFGQ","either","3","586","","","","","","","0","0","1","0.5720595628","","0.2","0.8","0.4","0.6","","","","","0.6597553912","0.6567175756","0.7287840805","0.5720595628","","","","","","","","","","76","L","3","","","227","main_expt",""
"","bandit","307","1404585","0.0-269.0-0.0","99246116","wem/bandit_party_2","A2VNR6984SDFGQ","either","3","493","","","","","","","0","1","0","","0.594895186","0.2","0.8","0.4","0.6","0.594895186","0.6052730858","0.7993891034","0.6134710885","","","","","","","","","","","","","","72","H","0","img/none_selected.jpg","","228","main_expt",""
"","bandit","308","1406601","0.0-270.0-0.0","99246116","wem/bandit_party_2","A2VNR6984SDFGQ","either","3","441","","","","","","","1","0","0","0.8374027748","","0.2","0.8","0.4","0.6","","","","","0.5722559027","0.5548990383","0.8374027748","0.5669106804","","","","","","","","","","75","K","2","","","229","main_expt",""
"","bandit","309","1408539","0.0-271.0-0.0","99246116","wem/bandit_party_2","A2VNR6984SDFGQ","either","3","365","","","","","","","0","0","1","0.6286782819","","0.2","0.8","0.4","0.6","","","","","0.5409090622","0.6017114108","0.8414873787","0.6286782819","","","","","","","","","","76","L","3","","","230","main_expt",""
"","bandit","310","1410540","0.0-272.0-0.0","99246116","wem/bandit_party_2","A2VNR6984SDFGQ","either","3","418","","","","","","","0","1","0","","0.8531648874","0.2","0.8","0.4","0.6","0.518727512","0.5525336349","0.8531648874","0.5594948871","","","","","","","","","","","","","","75","K","2","","","231","main_expt",""
"","bandit","311","1414044","0.0-273.0-0.0","99246116","wem/bandit_party_2","A2VNR6984SDFGQ","either","3","1950","","","","","","","0","0","1","","0.5817998964","0.2","0.8","0.4","0.6","0.5200298571","0.4493361955","0.8813812612","0.5817998964","","","","","","","","","","","","","","76","L","3","","","232","main_expt",""
"","bandit","312","1416295","0.0-274.0-0.0","99246116","wem/bandit_party_2","A2VNR6984SDFGQ","either","3","687","","","","","","","0","0","1","0.5280832246","","0.2","0.8","0.4","0.6","","","","","0.4564343731","0.5280832246","0.8916766345","0.5971875981","","","","","","","","","","74","J","1","","","233","main_expt",""
"","bandit","313","1418892","0.0-275.0-0.0","99246116","wem/bandit_party_2","A2VNR6984SDFGQ","either","3","1038","","","","","","","0","0","1","","0.4168065644","0.2","0.8","0.4","0.6","0.4168065644","0.6814540918","0.842820862","0.5227237997","","","","","","","","","","","","","","72","H","0","img/none_selected.jpg","","234","main_expt",""
"","bandit","314","1420768","0.0-276.0-0.0","99246116","wem/bandit_party_2","A2VNR6984SDFGQ","either","3","249","","","","","","","1","0","0","0.7856269381","","0.2","0.8","0.4","0.6","","","","","0.4340770274","0.5518959403","0.7856269381","0.6231997156","","","","","","","","","","75","K","2","","","235","main_expt",""
"","bandit","315","1422816","0.0-277.0-0.0","99246116","wem/bandit_party_2","A2VNR6984SDFGQ","either","3","494","","","","","","","0","0","1","0.8092971262","","0.2","0.8","0.4","0.6","","","","","0.4489205242","0.4965619817","0.8092971262","0.558272317","","","","","","","","","","75","K","2","","","236","main_expt",""
"","bandit","316","1425614","0.0-278.0-0.0","99246116","wem/bandit_party_2","A2VNR6984SDFGQ","either","3","1233","","","","","","","0","1","0","","0.8125536838","0.2","0.8","0.4","0.6","0.4838648791","0.4762879104","0.8125536838","0.6118965497","","","","","","","","","","","","","","75","K","2","","","237","main_expt",""
