"consent","trial_type","trial_index","time_elapsed","internal_node_id","subjID","study","MID","cond","drift","rt","responses","button_pressed","key_press","like","value","connected","gems","bombs","no_reward","GemPrChosen","BombPrChosen","GainOverPainPr_0","GainOverPainPr_1","GainOverPainPr_2","GainOverPainPr_3","LosePr_0","LosePr_1","LosePr_2","LosePr_3","WinPr_0","WinPr_1","WinPr_2","WinPr_3","Q0","Q1","Q2","gender","age","ethnicity","label","expt_phase","target","respCharCode","respKey","respChoiceNum","respChoice","practice","trial_counter","trial_label","Q0_index"
"GDM/GDM_behavioral_consent_30min_online.html","consent","0","15290","0.0-0.0","99724236","wem/bandit_party_2","A1NLW5ZS2WQR35","either","6","","","","","","","","","","","","","","","","","","","","","","","","","","","","","","","","","","","","","","","","",""
"","survey-text","1","21020","0.0-1.0","99724236","wem/bandit_party_2","A1NLW5ZS2WQR35","either","6","4720","{""Q0"":""A1NLW5ZS2WQR35""}","","","","","","","","","","","","","","","","","","","","","","","","","","","","","","","","","","","","","","",""
"","button-response","2","24581","0.0-2.0","99724236","wem/bandit_party_2","A1NLW5ZS2WQR35","either","6","2554","","0","","","","","","","","","","","","","","","","","","","","","","","","","","","","","","","","","","","","","",""
"","text-replacement","3","40650","0.0-3.0","99724236","wem/bandit_party_2","A1NLW5ZS2WQR35","either","6","15066","","","32","","","","","","","","","","","","","","","","","","","","","","","","","","","","","","","","","","","","",""
"","text-replacement","4","50277","0.0-4.0","99724236","wem/bandit_party_2","A1NLW5ZS2WQR35","either","6","9624","","","32","","","","","","","","","","","","","","","","","","","","","","","","","","","","","","","","","","","","",""
"","identification","5","57328","0.0-6.0-0.0","99724236","wem/bandit_party_2","A1NLW5ZS2WQR35","either","6","7032","","","","6","6","6","","","","","","","","","","","","","","","","","","","","","","","","pre","identification_pre","the Republican Party","","","","","","","",""
"","identification","6","66804","0.0-6.0-1.0","99724236","wem/bandit_party_2","A1NLW5ZS2WQR35","either","6","8460","","","","2","2","2","","","","","","","","","","","","","","","","","","","","","","","","pre","identification_pre","the Democratic Party","","","","","","","",""
"","text-replacement","7","75725","0.0-7.0","99724236","wem/bandit_party_2","A1NLW5ZS2WQR35","either","6","7917","","","32","","","","","","","","","","","","","","","","","","","","","","","","","","","","","","","","","","","","",""
"","text-replacement","8","81726","0.0-8.0","99724236","wem/bandit_party_2","A1NLW5ZS2WQR35","either","6","5999","","","32","","","","","","","","","","","","","","","","","","","","","","","","","","","","","","","","","","","","",""
"","text-replacement","9","95610","0.0-9.0","99724236","wem/bandit_party_2","A1NLW5ZS2WQR35","either","6","13881","","","32","","","","","","","","","","","","","","","","","","","","","","","","","","","","","","","","","","","","",""
"","text-replacement","10","99758","0.0-10.0","99724236","wem/bandit_party_2","A1NLW5ZS2WQR35","either","6","4146","","","32","","","","","","","","","","","","","","","","","","","","","","","","","","","","","","","","","","","","",""
"","text-replacement","11","105229","0.0-11.0","99724236","wem/bandit_party_2","A1NLW5ZS2WQR35","either","6","5470","","","32","","","","","","","","","","","","","","","","","","","","","","","","","","","","","","","","","","","","",""
"","bandit","12","111375","0.0-12.0-0.0","99724236","wem/bandit_party_2","A1NLW5ZS2WQR35","either","6","4635","","","","","","","0","0","1","0","0","","","","","0","","","","0","","","","","","","","","","","","","74","J","0","img/none_selected_demo.jpg","true","0","",""
"","bandit","13","114428","0.0-13.0-0.0","99724236","wem/bandit_party_2","A1NLW5ZS2WQR35","either","6","1542","","","","","","","0","0","1","0","0","","","","","0","","","","0","","","","","","","","","","","","","75","K","0","img/none_selected_demo.jpg","true","0","",""
"","text-replacement","14","119833","0.0-14.0","99724236","wem/bandit_party_2","A1NLW5ZS2WQR35","either","6","5403","","","32","","","","","","","","","","","","","","","","","","","","","","","","","","","","","","","","","","","","",""
"","text-replacement","15","125976","0.0-15.0","99724236","wem/bandit_party_2","A1NLW5ZS2WQR35","either","6","6141","","","32","","","","","","","","","","","","","","","","","","","","","","","","","","","","","","","","","","","","",""
"","text-replacement","16","132760","0.0-16.0","99724236","wem/bandit_party_2","A1NLW5ZS2WQR35","either","6","6783","","","32","","","","","","","","","","","","","","","","","","","","","","","","","","","","","","","","","","","","",""
"","text-replacement","17","137768","0.0-17.0","99724236","wem/bandit_party_2","A1NLW5ZS2WQR35","either","6","5006","","","32","","","","","","","","","","","","","","","","","","","","","","","","","","","","","","","","","","","","",""
"","bandit","18","140008","0.0-18.0-0.0","99724236","wem/bandit_party_2","A1NLW5ZS2WQR35","either","6","731","","","","","","","1","0","0","0.2","","0.5","0.5","","","","","","","0.8","0.2","","","","","","","","","","","","75","K","1","","true","0","80_20_practice",""
"","bandit","19","142656","0.0-18.0-1.0","99724236","wem/bandit_party_2","A1NLW5ZS2WQR35","either","6","1140","","","","","","","1","0","0","0.2","","0.5","0.5","","","","","","","0.8","0.2","","","","","","","","","","","","75","K","1","","true","0","80_20_practice",""
"","bandit","20","144823","0.0-18.0-2.0","99724236","wem/bandit_party_2","A1NLW5ZS2WQR35","either","6","658","","","","","","","0","0","1","","0.2","0.5","0.5","","","0.8","0.2","","","","","","","","","","","","","","","","75","K","1","","true","0","80_20_practice",""
"","bandit","21","146930","0.0-18.0-3.0","99724236","wem/bandit_party_2","A1NLW5ZS2WQR35","either","6","599","","","","","","","0","0","1","0.2","","0.5","0.5","","","","","","","0.8","0.2","","","","","","","","","","","","75","K","1","","true","0","80_20_practice",""
"","bandit","22","149189","0.0-18.0-4.0","99724236","wem/bandit_party_2","A1NLW5ZS2WQR35","either","6","752","","","","","","","0","1","0","","0.2","0.5","0.5","","","0.8","0.2","","","","","","","","","","","","","","","","75","K","1","","true","0","80_20_practice",""
"","bandit","23","151141","0.0-18.0-5.0","99724236","wem/bandit_party_2","A1NLW5ZS2WQR35","either","6","443","","","","","","","1","0","0","0.2","","0.5","0.5","","","","","","","0.8","0.2","","","","","","","","","","","","75","K","1","","true","0","80_20_practice",""
"","bandit","24","153167","0.0-18.0-6.0","99724236","wem/bandit_party_2","A1NLW5ZS2WQR35","either","6","517","","","","","","","1","0","0","0.2","","0.5","0.5","","","","","","","0.8","0.2","","","","","","","","","","","","75","K","1","","true","0","80_20_practice",""
"","bandit","25","155046","0.0-18.0-7.0","99724236","wem/bandit_party_2","A1NLW5ZS2WQR35","either","6","370","","","","","","","0","1","0","","0.2","0.5","0.5","","","0.8","0.2","","","","","","","","","","","","","","","","75","K","1","","true","0","80_20_practice",""
"","bandit","26","156934","0.0-18.0-8.0","99724236","wem/bandit_party_2","A1NLW5ZS2WQR35","either","6","379","","","","","","","0","0","1","0.2","","0.5","0.5","","","","","","","0.8","0.2","","","","","","","","","","","","75","K","1","","true","0","80_20_practice",""
"","bandit","27","158884","0.0-18.0-9.0","99724236","wem/bandit_party_2","A1NLW5ZS2WQR35","either","6","440","","","","","","","0","0","1","0.2","","0.5","0.5","","","","","","","0.8","0.2","","","","","","","","","","","","75","K","1","","true","0","80_20_practice",""
"","bandit","28","160694","0.0-18.0-10.0","99724236","wem/bandit_party_2","A1NLW5ZS2WQR35","either","6","300","","","","","","","0","0","1","","0.2","0.5","0.5","","","0.8","0.2","","","","","","","","","","","","","","","","75","K","1","","true","0","80_20_practice",""
"","bandit","29","162486","0.0-18.0-11.0","99724236","wem/bandit_party_2","A1NLW5ZS2WQR35","either","6","284","","","","","","","0","1","0","","0.8","0.5","0.5","","","0.8","0.2","","","","","","","","","","","","","","","","74","J","0","img/none_selected_demo.jpg","true","0","80_20_practice",""
"","bandit","30","164319","0.0-18.0-12.0","99724236","wem/bandit_party_2","A1NLW5ZS2WQR35","either","6","326","","","","","","","0","1","0","","0.8","0.5","0.5","","","0.8","0.2","","","","","","","","","","","","","","","","74","J","0","img/none_selected_demo.jpg","true","0","80_20_practice",""
"","bandit","31","166173","0.0-18.0-13.0","99724236","wem/bandit_party_2","A1NLW5ZS2WQR35","either","6","345","","","","","","","0","0","1","","0.8","0.5","0.5","","","0.8","0.2","","","","","","","","","","","","","","","","74","J","0","img/none_selected_demo.jpg","true","0","80_20_practice",""
"","bandit","32","168009","0.0-18.0-14.0","99724236","wem/bandit_party_2","A1NLW5ZS2WQR35","either","6","328","","","","","","","0","1","0","","0.8","0.5","0.5","","","0.8","0.2","","","","","","","","","","","","","","","","74","J","0","img/none_selected_demo.jpg","true","0","80_20_practice",""
"","bandit","33","169853","0.0-18.0-15.0","99724236","wem/bandit_party_2","A1NLW5ZS2WQR35","either","6","336","","","","","","","0","1","0","","0.8","0.5","0.5","","","0.8","0.2","","","","","","","","","","","","","","","","74","J","0","img/none_selected_demo.jpg","true","0","80_20_practice",""
"","bandit","34","171657","0.0-18.0-16.0","99724236","wem/bandit_party_2","A1NLW5ZS2WQR35","either","6","295","","","","","","","0","1","0","","0.8","0.5","0.5","","","0.8","0.2","","","","","","","","","","","","","","","","74","J","0","img/none_selected_demo.jpg","true","0","80_20_practice",""
"","bandit","35","173495","0.0-18.0-17.0","99724236","wem/bandit_party_2","A1NLW5ZS2WQR35","either","6","330","","","","","","","0","1","0","","0.8","0.5","0.5","","","0.8","0.2","","","","","","","","","","","","","","","","74","J","0","img/none_selected_demo.jpg","true","0","80_20_practice",""
"","bandit","36","175259","0.0-18.0-18.0","99724236","wem/bandit_party_2","A1NLW5ZS2WQR35","either","6","256","","","","","","","0","1","0","","0.8","0.5","0.5","","","0.8","0.2","","","","","","","","","","","","","","","","74","J","0","img/none_selected_demo.jpg","true","0","80_20_practice",""
"","bandit","37","177047","0.0-18.0-19.0","99724236","wem/bandit_party_2","A1NLW5ZS2WQR35","either","6","281","","","","","","","1","0","0","0.8","","0.5","0.5","","","","","","","0.8","0.2","","","","","","","","","","","","74","J","0","img/none_selected_demo.jpg","true","0","80_20_practice",""
"","text-replacement","38","182336","0.0-19.0","99724236","wem/bandit_party_2","A1NLW5ZS2WQR35","either","6","5286","","","32","","","","","","","","","","","","","","","","","","","","","","","","","","","","","","","","","","","","",""
"","bandit","39","187471","0.0-20.0-0.0","99724236","wem/bandit_party_2","A1NLW5ZS2WQR35","either","6","3625","","","","","","","1","0","0","1","0","","","","","0","1","","","1","0","","","","","","","","","","","","74","J","0","img/none_selected_demo.jpg","true","0","",""
"","text-replacement","40","200155","0.0-21.0","99724236","wem/bandit_party_2","A1NLW5ZS2WQR35","either","6","12682","","","32","","","","","","","","","","","","","","","","","","","","","","","","","","","","","","","","","","","","",""
"","text-replacement","41","204828","0.0-22.0","99724236","wem/bandit_party_2","A1NLW5ZS2WQR35","either","6","4670","","","32","","","","","","","","","","","","","","","","","","","","","","","","","","","","","","","","","","","","",""
"","text-replacement","42","206886","0.0-23.0","99724236","wem/bandit_party_2","A1NLW5ZS2WQR35","either","6","2057","","","32","","","","","","","","","","","","","","","","","","","","","","","","","","","","","","","","","","","","",""
"","text-replacement","43","210792","0.0-24.0","99724236","wem/bandit_party_2","A1NLW5ZS2WQR35","either","6","3902","","","32","","","","","","","","","","","","","","","","","","","","","","","","","","","","","","","","","","","","",""
"","text-replacement","44","217800","0.0-25.0","99724236","wem/bandit_party_2","A1NLW5ZS2WQR35","either","6","7007","","","32","","","","","","","","","","","","","","","","","","","","","","","","","","","","","","","","","","","","",""
"","text-replacement","45","220633","0.0-26.0","99724236","wem/bandit_party_2","A1NLW5ZS2WQR35","either","6","2830","","","32","","","","","","","","","","","","","","","","","","","","","","","","","","","","","","","","","","","","",""
"","text-replacement","46","223569","0.0-27.0","99724236","wem/bandit_party_2","A1NLW5ZS2WQR35","either","6","2934","","","32","","","","","","","","","","","","","","","","","","","","","","","","","","","","","","","","","","","","",""
"","text-replacement","47","227025","0.0-28.0","99724236","wem/bandit_party_2","A1NLW5ZS2WQR35","either","6","3455","","","32","","","","","","","","","","","","","","","","","","","","","","","","","","","","","","","","","","","","",""
"","text-replacement","48","231248","0.0-29.0","99724236","wem/bandit_party_2","A1NLW5ZS2WQR35","either","6","4221","","","32","","","","","","","","","","","","","","","","","","","","","","","","","","","","","","","","","","","","",""
"","text-replacement","49","233099","0.0-30.0","99724236","wem/bandit_party_2","A1NLW5ZS2WQR35","either","6","1848","","","32","","","","","","","","","","","","","","","","","","","","","","","","","","","","","","","","","","","","",""
"","text-replacement","50","238724","0.0-31.0","99724236","wem/bandit_party_2","A1NLW5ZS2WQR35","either","6","5623","","","32","","","","","","","","","","","","","","","","","","","","","","","","","","","","","","","","","","","","",""
"","bandit","51","240928","0.0-32.0-0.0","99724236","wem/bandit_party_2","A1NLW5ZS2WQR35","either","6","695","","","","","","","0","0","1","0.6","","0.5","0.5","0.5","0.5","","","","","0.8","0.2","0.6","0.2","","","","","","","","","","75","K","2","","true","0","full_practice",""
"","bandit","52","242820","0.0-32.0-1.0","99724236","wem/bandit_party_2","A1NLW5ZS2WQR35","either","6","383","","","","","","","0","1","0","","0.6","0.5","0.5","0.5","0.5","0.8","0.2","0.6","0.2","","","","","","","","","","","","","","75","K","2","","true","0","full_practice",""
"","bandit","53","244632","0.0-32.0-2.0","99724236","wem/bandit_party_2","A1NLW5ZS2WQR35","either","6","301","","","","","","","0","0","1","","0.6","0.5","0.5","0.5","0.5","0.8","0.2","0.6","0.2","","","","","","","","","","","","","","75","K","2","","true","0","full_practice",""
"","bandit","54","246425","0.0-32.0-3.0","99724236","wem/bandit_party_2","A1NLW5ZS2WQR35","either","6","283","","","","","","","0","1","0","","0.6","0.5","0.5","0.5","0.5","0.8","0.2","0.6","0.2","","","","","","","","","","","","","","75","K","2","","true","0","full_practice",""
"","bandit","55","248272","0.0-32.0-4.0","99724236","wem/bandit_party_2","A1NLW5ZS2WQR35","either","6","336","","","","","","","0","0","1","","0.6","0.5","0.5","0.5","0.5","0.8","0.2","0.6","0.2","","","","","","","","","","","","","","75","K","2","","true","0","full_practice",""
"","bandit","56","250152","0.0-32.0-5.0","99724236","wem/bandit_party_2","A1NLW5ZS2WQR35","either","6","373","","","","","","","0","0","1","0.2","","0.5","0.5","0.5","0.5","","","","","0.8","0.2","0.6","0.2","","","","","","","","","","76","L","3","","true","0","full_practice",""
"","bandit","57","251929","0.0-32.0-6.0","99724236","wem/bandit_party_2","A1NLW5ZS2WQR35","either","6","271","","","","","","","0","0","1","0.2","","0.5","0.5","0.5","0.5","","","","","0.8","0.2","0.6","0.2","","","","","","","","","","76","L","3","","true","0","full_practice",""
"","bandit","58","253735","0.0-32.0-7.0","99724236","wem/bandit_party_2","A1NLW5ZS2WQR35","either","6","297","","","","","","","0","0","1","0.2","","0.5","0.5","0.5","0.5","","","","","0.8","0.2","0.6","0.2","","","","","","","","","","76","L","3","","true","0","full_practice",""
"","bandit","59","255943","0.0-32.0-8.0","99724236","wem/bandit_party_2","A1NLW5ZS2WQR35","either","6","700","","","","","","","1","0","0","0.8","","0.5","0.5","0.5","0.5","","","","","0.8","0.2","0.6","0.2","","","","","","","","","","72","H","0","img/none_selected.jpg","true","0","full_practice",""
"","bandit","60","257763","0.0-32.0-9.0","99724236","wem/bandit_party_2","A1NLW5ZS2WQR35","either","6","310","","","","","","","0","0","1","","0.8","0.5","0.5","0.5","0.5","0.8","0.2","0.6","0.2","","","","","","","","","","","","","","72","H","0","img/none_selected.jpg","true","0","full_practice",""
"","bandit","61","259592","0.0-32.0-10.0","99724236","wem/bandit_party_2","A1NLW5ZS2WQR35","either","6","319","","","","","","","1","0","0","0.8","","0.5","0.5","0.5","0.5","","","","","0.8","0.2","0.6","0.2","","","","","","","","","","72","H","0","img/none_selected.jpg","true","0","full_practice",""
"","bandit","62","261365","0.0-32.0-11.0","99724236","wem/bandit_party_2","A1NLW5ZS2WQR35","either","6","264","","","","","","","0","1","0","","0.8","0.5","0.5","0.5","0.5","0.8","0.2","0.6","0.2","","","","","","","","","","","","","","72","H","0","img/none_selected.jpg","true","0","full_practice",""
"","bandit","63","263145","0.0-32.0-12.0","99724236","wem/bandit_party_2","A1NLW5ZS2WQR35","either","6","269","","","","","","","1","0","0","0.8","","0.5","0.5","0.5","0.5","","","","","0.8","0.2","0.6","0.2","","","","","","","","","","72","H","0","img/none_selected.jpg","true","0","full_practice",""
"","bandit","64","264897","0.0-32.0-13.0","99724236","wem/bandit_party_2","A1NLW5ZS2WQR35","either","6","242","","","","","","","0","0","1","0.8","","0.5","0.5","0.5","0.5","","","","","0.8","0.2","0.6","0.2","","","","","","","","","","72","H","0","img/none_selected.jpg","true","0","full_practice",""
"","bandit","65","266778","0.0-32.0-14.0","99724236","wem/bandit_party_2","A1NLW5ZS2WQR35","either","6","373","","","","","","","1","0","0","0.8","","0.5","0.5","0.5","0.5","","","","","0.8","0.2","0.6","0.2","","","","","","","","","","72","H","0","img/none_selected.jpg","true","0","full_practice",""
"","bandit","66","268568","0.0-32.0-15.0","99724236","wem/bandit_party_2","A1NLW5ZS2WQR35","either","6","281","","","","","","","1","0","0","0.8","","0.5","0.5","0.5","0.5","","","","","0.8","0.2","0.6","0.2","","","","","","","","","","72","H","0","img/none_selected.jpg","true","0","full_practice",""
"","bandit","67","270339","0.0-32.0-16.0","99724236","wem/bandit_party_2","A1NLW5ZS2WQR35","either","6","262","","","","","","","0","1","0","","0.8","0.5","0.5","0.5","0.5","0.8","0.2","0.6","0.2","","","","","","","","","","","","","","72","H","0","img/none_selected.jpg","true","0","full_practice",""
"","bandit","68","272712","0.0-32.0-17.0","99724236","wem/bandit_party_2","A1NLW5ZS2WQR35","either","6","864","","","","","","","0","0","1","","0.8","0.5","0.5","0.5","0.5","0.8","0.2","0.6","0.2","","","","","","","","","","","","","","72","H","0","img/none_selected.jpg","true","0","full_practice",""
"","bandit","69","274288","0.0-32.0-18.0","99724236","wem/bandit_party_2","A1NLW5ZS2WQR35","either","6","65","","","","","","","0","0","1","0.6","","0.5","0.5","0.5","0.5","","","","","0.8","0.2","0.6","0.2","","","","","","","","","","75","K","2","","true","0","full_practice",""
"","bandit","70","275825","0.0-32.0-19.0","99724236","wem/bandit_party_2","A1NLW5ZS2WQR35","either","6","29","","","","","","","1","0","0","0.6","","0.5","0.5","0.5","0.5","","","","","0.8","0.2","0.6","0.2","","","","","","","","","","75","K","2","","true","0","full_practice",""
"","text","71","279410","0.0-33.0","99724236","wem/bandit_party_2","A1NLW5ZS2WQR35","either","6","3573","","","32","","","","","","","","","","","","","","","","","","","","","","","","","","","","","","","","","","","","",""
"","text-replacement","72","295529","0.0-34.0","99724236","wem/bandit_party_2","A1NLW5ZS2WQR35","either","6","15115","","","32","","","","","","","","","","","","","","","","","","","","","","","","","","","","","","","","","","","","",""
"","text-replacement","73","306464","0.0-35.0","99724236","wem/bandit_party_2","A1NLW5ZS2WQR35","either","6","10932","","","32","","","","","","","","","","","","","","","","","","","","","","","","","","","","","","","","","","","","",""
"","text-replacement","74","312040","0.0-36.0","99724236","wem/bandit_party_2","A1NLW5ZS2WQR35","either","6","5573","","","32","","","","","","","","","","","","","","","","","","","","","","","","","","","","","","","","","","","","",""
"","text-replacement","75","317843","0.0-37.0","99724236","wem/bandit_party_2","A1NLW5ZS2WQR35","either","6","5800","","","32","","","","","","","","","","","","","","","","","","","","","","","","","","","","","","","","","","","","",""
"","text-replacement","76","325965","0.0-38.0","99724236","wem/bandit_party_2","A1NLW5ZS2WQR35","either","6","8120","","","32","","","","","","","","","","","","","","","","","","","","","","","","","","","","","","","","","","","","",""
"","survey-multi-choice-replacement","77","336194","0.0-39.0-0.0","99724236","wem/bandit_party_2","A1NLW5ZS2WQR35","either","6","10217","","","","","","","","","","","","","","","","","","","","","","","","Money will be added to the pool for <span style='color:red;'>REPUBLICANS</span>","","","","","","","attn_check","","","","","","","","","0"
"","survey-multi-choice-replacement","78","344654","0.0-40.0-0.0","99724236","wem/bandit_party_2","A1NLW5ZS2WQR35","either","6","7447","","","","","","","","","","","","","","","","","","","","","","","","Equal amounts of money will be added to the pool for <span style='color:red;'>REPUBLICANS</span> and subtracted from the pool for <span style='color:blue;'>DEMOCRATS</span>","","","","","","","attn_check","","","","","","","","","2"
"","survey-multi-choice-replacement","79","349103","0.0-41.0-0.0","99724236","wem/bandit_party_2","A1NLW5ZS2WQR35","either","6","3438","","","","","","","","","","","","","","","","","","","","","","","","No money will be added to either pool","","","","","","","attn_check","","","","","","","","","3"
"","bandit","80","356647","0.0-42.0-0.0","99724236","wem/bandit_party_2","A1NLW5ZS2WQR35","either","6","5030","","","","","","","0","0","1","0.3049938501","","0.6","0.4","0.8","0.2","","","","","0.2309914537","0.1947351938","0.3049938501","0.7197236342","","","","","","","","","","75","K","2","","","1","main_expt",""
"","bandit","81","359896","0.0-43.0-0.0","99724236","wem/bandit_party_2","A1NLW5ZS2WQR35","either","6","1738","","","","","","","0","0","1","0.7453792406","","0.6","0.4","0.8","0.2","","","","","0.2351366282","0.1865171684","0.3105507028","0.7453792406","","","","","","","","","","76","L","3","","","2","main_expt",""
"","bandit","82","363023","0.0-44.0-0.0","99724236","wem/bandit_party_2","A1NLW5ZS2WQR35","either","6","1619","","","","","","","0","0","1","","0.347932066","0.6","0.4","0.8","0.2","0.3338792953","0.1578482069","0.347932066","0.7422746785","","","","","","","","","","","","","","75","K","2","","","3","main_expt",""
"","bandit","83","365677","0.0-45.0-0.0","99724236","wem/bandit_party_2","A1NLW5ZS2WQR35","either","6","1144","","","","","","","1","0","0","0.294099503","","0.6","0.4","0.8","0.2","","","","","0.2578124611","0.1733557992","0.294099503","0.8152876082","","","","","","","","","","75","K","2","","","4","main_expt",""
"","bandit","84","368675","0.0-46.0-0.0","99724236","wem/bandit_party_2","A1NLW5ZS2WQR35","either","6","1486","","","","","","","0","0","1","0.256228135","","0.6","0.4","0.8","0.2","","","","","0.152782507","0.1275681293","0.256228135","0.8494846052","","","","","","","","","","75","K","2","","","5","main_expt",""
"","bandit","85","371158","0.0-47.0-0.0","99724236","wem/bandit_party_2","A1NLW5ZS2WQR35","either","6","973","","","","","","","0","0","1","0.3142053347","","0.6","0.4","0.8","0.2","","","","","0.200224935","0.1776351543","0.3142053347","0.8036792828","","","","","","","","","","75","K","2","","","6","main_expt",""
"","bandit","86","373126","0.0-48.0-0.0","99724236","wem/bandit_party_2","A1NLW5ZS2WQR35","either","6","460","","","","","","","0","0","1","0.2382568898","","0.6","0.4","0.8","0.2","","","","","0.2200442108","0.1412615145","0.2382568898","0.8659664865","","","","","","","","","","75","K","2","","","7","main_expt",""
"","bandit","87","376213","0.0-49.0-0.0","99724236","wem/bandit_party_2","A1NLW5ZS2WQR35","either","6","1576","","","","","","","0","0","1","","0.1516915951","0.6","0.4","0.8","0.2","0.1516915951","0.1508054742","0.220471749","0.8475436228","","","","","","","","","","","","","","72","H","0","img/none_selected.jpg","","8","main_expt",""
"","bandit","88","378748","0.0-50.0-0.0","99724236","wem/bandit_party_2","A1NLW5ZS2WQR35","either","6","1024","","","","","","","0","0","1","","0.1468829212","0.6","0.4","0.8","0.2","0.1468829212","0.1882404854","0.2842820234","0.8034999265","","","","","","","","","","","","","","72","H","0","img/none_selected.jpg","","9","main_expt",""
"","bandit","89","380833","0.0-51.0-0.0","99724236","wem/bandit_party_2","A1NLW5ZS2WQR35","either","6","573","","","","","","","1","0","0","0.1507643719","","0.6","0.4","0.8","0.2","","","","","0.1507643719","0.1731305678","0.3392415315","0.7148412232","","","","","","","","","","72","H","0","img/none_selected.jpg","","10","main_expt",""
"","bandit","90","382978","0.0-52.0-0.0","99724236","wem/bandit_party_2","A1NLW5ZS2WQR35","either","6","636","","","","","","","0","0","1","0.18301","","0.6","0.4","0.8","0.2","","","","","0.18301","0.2475279461","0.4470346709","0.7213030285","","","","","","","","","","72","H","0","img/none_selected.jpg","","11","main_expt",""
"","bandit","91","384953","0.0-53.0-0.0","99724236","wem/bandit_party_2","A1NLW5ZS2WQR35","either","6","450","","","","","","","1","0","0","0.209562337","","0.6","0.4","0.8","0.2","","","","","0.209562337","0.2068792089","0.5143820195","0.7396148754","","","","","","","","","","72","H","0","img/none_selected.jpg","","12","main_expt",""
"","bandit","92","387156","0.0-54.0-0.0","99724236","wem/bandit_party_2","A1NLW5ZS2WQR35","either","6","693","","","","","","","1","0","0","0.2133897639","","0.6","0.4","0.8","0.2","","","","","0.2133897639","0.1594062408","0.4934308908","0.6870781676","","","","","","","","","","72","H","0","img/none_selected.jpg","","13","main_expt",""
"","bandit","93","389149","0.0-55.0-0.0","99724236","wem/bandit_party_2","A1NLW5ZS2WQR35","either","6","484","","","","","","","0","1","0","","0.1865122749","0.6","0.4","0.8","0.2","0.1865122749","0.1808320347","0.5884397519","0.6561171826","","","","","","","","","","","","","","72","H","0","img/none_selected.jpg","","14","main_expt",""
"","bandit","94","391134","0.0-56.0-0.0","99724236","wem/bandit_party_2","A1NLW5ZS2WQR35","either","6","476","","","","","","","0","0","1","","0.3169691733","0.6","0.4","0.8","0.2","0.3169691733","0.2401125286","0.425765204","0.6255101569","","","","","","","","","","","","","","72","H","0","img/none_selected.jpg","","15","main_expt",""
"","bandit","95","393183","0.0-57.0-0.0","99724236","wem/bandit_party_2","A1NLW5ZS2WQR35","either","6","537","","","","","","","1","0","0","0.3927767979","","0.6","0.4","0.8","0.2","","","","","0.3927767979","0.1823220599","0.4458974369","0.6101220295","","","","","","","","","","72","H","0","img/none_selected.jpg","","16","main_expt",""
"","bandit","96","395234","0.0-58.0-0.0","99724236","wem/bandit_party_2","A1NLW5ZS2WQR35","either","6","539","","","","","","","0","0","1","0.2882183284","","0.6","0.4","0.8","0.2","","","","","0.2882183284","0.2076179308","0.4907358526","0.6233337625","","","","","","","","","","72","H","0","img/none_selected.jpg","","17","main_expt",""
"","bandit","97","397169","0.0-59.0-0.0","99724236","wem/bandit_party_2","A1NLW5ZS2WQR35","either","6","424","","","","","","","0","0","1","","0.3212622409","0.6","0.4","0.8","0.2","0.3212622409","0.2310064443","0.4895096529","0.598865074","","","","","","","","","","","","","","72","H","0","img/none_selected.jpg","","18","main_expt",""
"","bandit","98","399331","0.0-60.0-0.0","99724236","wem/bandit_party_2","A1NLW5ZS2WQR35","either","6","653","","","","","","","1","0","0","0.3678238944","","0.6","0.4","0.8","0.2","","","","","0.3678238944","0.1919199612","0.5437378015","0.6318918302","","","","","","","","","","72","H","0","img/none_selected.jpg","","19","main_expt",""
"","bandit","99","401563","0.0-61.0-0.0","99724236","wem/bandit_party_2","A1NLW5ZS2WQR35","either","6","723","","","","","","","0","0","1","0.4357360734","","0.6","0.4","0.8","0.2","","","","","0.4357360734","0.2150176637","0.543071052","0.5667690756","","","","","","","","","","72","H","0","img/none_selected.jpg","","20","main_expt",""
"","bandit","100","403591","0.0-62.0-0.0","99724236","wem/bandit_party_2","A1NLW5ZS2WQR35","either","6","519","","","","","","","0","0","1","","0.4486518506","0.6","0.4","0.8","0.2","0.4486518506","0.2980309021","0.5457928974","0.6364396753","","","","","","","","","","","","","","72","H","0","img/none_selected.jpg","","21","main_expt",""
"","bandit","101","405635","0.0-63.0-0.0","99724236","wem/bandit_party_2","A1NLW5ZS2WQR35","either","6","534","","","","","","","0","0","1","0.5145372488","","0.6","0.4","0.8","0.2","","","","","0.5145372488","0.3238742104","0.4531799458","0.5563436533","","","","","","","","","","72","H","0","img/none_selected.jpg","","22","main_expt",""
"","bandit","102","407531","0.0-64.0-0.0","99724236","wem/bandit_party_2","A1NLW5ZS2WQR35","either","6","387","","","","","","","0","0","1","0.4158928209","","0.6","0.4","0.8","0.2","","","","","0.6324996067","0.4158928209","0.4321579995","0.4555064456","","","","","","","","","","74","J","1","","","23","main_expt",""
"","bandit","103","409732","0.0-65.0-0.0","99724236","wem/bandit_party_2","A1NLW5ZS2WQR35","either","6","689","","","","","","","0","0","1","","0.2798670784","0.6","0.4","0.8","0.2","0.6665025749","0.2798670784","0.3892872195","0.4398961724","","","","","","","","","","","","","","74","J","1","","","24","main_expt",""
"","bandit","104","411921","0.0-66.0-0.0","99724236","wem/bandit_party_2","A1NLW5ZS2WQR35","either","6","619","","","","","","","0","0","1","","0.3932164435","0.6","0.4","0.8","0.2","0.5316582614","0.3932164435","0.4322880781","0.3810464824","","","","","","","","","","","","","","74","J","1","","","25","main_expt",""
"","bandit","105","413818","0.0-67.0-0.0","99724236","wem/bandit_party_2","A1NLW5ZS2WQR35","either","6","386","","","","","","","0","1","0","","0.3243459504","0.6","0.4","0.8","0.2","0.4282094451","0.3243459504","0.4560392573","0.451695138","","","","","","","","","","","","","","74","J","1","","","26","main_expt",""
"","bandit","106","415957","0.0-68.0-0.0","99724236","wem/bandit_party_2","A1NLW5ZS2WQR35","either","6","629","","","","","","","0","0","1","","0.4266302179","0.6","0.4","0.8","0.2","0.4711380508","0.4266302179","0.5372901799","0.4423729324","","","","","","","","","","","","","","74","J","1","","","27","main_expt",""
"","bandit","107","418117","0.0-69.0-0.0","99724236","wem/bandit_party_2","A1NLW5ZS2WQR35","either","6","651","","","","","","","0","0","1","0.4206607535","","0.6","0.4","0.8","0.2","","","","","0.4539290932","0.4206607535","0.6619872032","0.4221124674","","","","","","","","","","74","J","1","","","28","main_expt",""
"","bandit","108","420129","0.0-70.0-0.0","99724236","wem/bandit_party_2","A1NLW5ZS2WQR35","either","6","502","","","","","","","0","0","1","","0.440099583","0.6","0.4","0.8","0.2","0.4378511583","0.440099583","0.5939885142","0.489207998","","","","","","","","","","","","","","74","J","1","","","29","main_expt",""
"","bandit","109","422311","0.0-71.0-0.0","99724236","wem/bandit_party_2","A1NLW5ZS2WQR35","either","6","672","","","","","","","0","0","1","0.5602145404","","0.6","0.4","0.8","0.2","","","","","0.3425428874","0.3982168329","0.5602145404","0.4406356357","","","","","","","","","","75","K","2","","","30","main_expt",""
"","bandit","110","424283","0.0-72.0-0.0","99724236","wem/bandit_party_2","A1NLW5ZS2WQR35","either","6","462","","","","","","","1","0","0","0.5376870091","","0.6","0.4","0.8","0.2","","","","","0.2354865125","0.3573437221","0.5376870091","0.484130952","","","","","","","","","","75","K","2","","","31","main_expt",""
"","bandit","111","426313","0.0-73.0-0.0","99724236","wem/bandit_party_2","A1NLW5ZS2WQR35","either","6","520","","","","","","","1","0","0","0.6346195819","","0.6","0.4","0.8","0.2","","","","","0.2552437171","0.3712986889","0.6346195819","0.432294219","","","","","","","","","","75","K","2","","","32","main_expt",""
"","bandit","112","428234","0.0-74.0-0.0","99724236","wem/bandit_party_2","A1NLW5ZS2WQR35","either","6","411","","","","","","","0","0","1","0.7540961955","","0.6","0.4","0.8","0.2","","","","","0.2470382599","0.45096985","0.7540961955","0.4821309474","","","","","","","","","","75","K","2","","","33","main_expt",""
"","bandit","113","430209","0.0-75.0-0.0","99724236","wem/bandit_party_2","A1NLW5ZS2WQR35","either","6","464","","","","","","","0","0","1","","0.699797925","0.6","0.4","0.8","0.2","0.2951894024","0.5559331637","0.699797925","0.4702474349","","","","","","","","","","","","","","75","K","2","","","34","main_expt",""
"","bandit","114","432168","0.0-76.0-0.0","99724236","wem/bandit_party_2","A1NLW5ZS2WQR35","either","6","443","","","","","","","1","0","0","0.7410295452","","0.6","0.4","0.8","0.2","","","","","0.2596626779","0.7354386419","0.7410295452","0.5363697359","","","","","","","","","","75","K","2","","","35","main_expt",""
"","bandit","115","434121","0.0-77.0-0.0","99724236","wem/bandit_party_2","A1NLW5ZS2WQR35","either","6","442","","","","","","","0","0","1","0.7332281969","","0.6","0.4","0.8","0.2","","","","","0.3164764808","0.6934166837","0.7332281969","0.602250539","","","","","","","","","","75","K","2","","","36","main_expt",""
"","bandit","116","435925","0.0-78.0-0.0","99724236","wem/bandit_party_2","A1NLW5ZS2WQR35","either","6","292","","","","","","","0","1","0","","0.736713329","0.6","0.4","0.8","0.2","0.3672962009","0.6311869688","0.736713329","0.5337433964","","","","","","","","","","","","","","75","K","2","","","37","main_expt",""
"","bandit","117","437779","0.0-79.0-0.0","99724236","wem/bandit_party_2","A1NLW5ZS2WQR35","either","6","343","","","","","","","1","0","0","0.6860808007","","0.6","0.4","0.8","0.2","","","","","0.4056598401","0.6583504975","0.6860808007","0.5970413872","","","","","","","","","","75","K","2","","","38","main_expt",""
"","bandit","118","439705","0.0-80.0-0.0","99724236","wem/bandit_party_2","A1NLW5ZS2WQR35","either","6","415","","","","","","","1","0","0","0.7498761973","","0.6","0.4","0.8","0.2","","","","","0.4236995386","0.5861321806","0.7498761973","0.6529448079","","","","","","","","","","75","K","2","","","39","main_expt",""
"","bandit","119","441597","0.0-81.0-0.0","99724236","wem/bandit_party_2","A1NLW5ZS2WQR35","either","6","382","","","","","","","0","0","1","0.7043283504","","0.6","0.4","0.8","0.2","","","","","0.4365163158","0.4892836735","0.7043283504","0.6612991154","","","","","","","","","","75","K","2","","","40","main_expt",""
"","bandit","120","443539","0.0-82.0-0.0","99724236","wem/bandit_party_2","A1NLW5ZS2WQR35","either","6","432","","","","","","","1","0","0","0.6469690382","","0.6","0.4","0.8","0.2","","","","","0.4854269132","0.3479900608","0.6469690382","0.7390431107","","","","","","","","","","75","K","2","","","41","main_expt",""
"","bandit","121","445536","0.0-83.0-0.0","99724236","wem/bandit_party_2","A1NLW5ZS2WQR35","either","6","487","","","","","","","1","0","0","0.6388905256","","0.6","0.4","0.8","0.2","","","","","0.4753587859","0.376709287","0.6388905256","0.7609423287","","","","","","","","","","75","K","2","","","42","main_expt",""
"","bandit","122","447476","0.0-84.0-0.0","99724236","wem/bandit_party_2","A1NLW5ZS2WQR35","either","6","429","","","","","","","1","0","0","0.6383372244","","0.6","0.4","0.8","0.2","","","","","0.452202747","0.4319300722","0.6383372244","0.8039673949","","","","","","","","","","75","K","2","","","43","main_expt",""
"","bandit","123","449363","0.0-85.0-0.0","99724236","wem/bandit_party_2","A1NLW5ZS2WQR35","either","6","377","","","","","","","0","0","1","","0.6247854939","0.6","0.4","0.8","0.2","0.5522191005","0.4458636389","0.6247854939","0.8216753652","","","","","","","","","","","","","","75","K","2","","","44","main_expt",""
"","bandit","124","451356","0.0-86.0-0.0","99724236","wem/bandit_party_2","A1NLW5ZS2WQR35","either","6","483","","","","","","","1","0","0","0.6341880498","","0.6","0.4","0.8","0.2","","","","","0.4878962787","0.4323480181","0.6341880498","0.7636866317","","","","","","","","","","75","K","2","","","45","main_expt",""
"","bandit","125","453364","0.0-87.0-0.0","99724236","wem/bandit_party_2","A1NLW5ZS2WQR35","either","6","498","","","","","","","1","0","0","0.5081310512","","0.6","0.4","0.8","0.2","","","","","0.487595293","0.4348202433","0.5081310512","0.8203755575","","","","","","","","","","75","K","2","","","46","main_expt",""
"","bandit","126","455285","0.0-88.0-0.0","99724236","wem/bandit_party_2","A1NLW5ZS2WQR35","either","6","411","","","","","","","0","0","1","0.4202927251","","0.6","0.4","0.8","0.2","","","","","0.444754188","0.3430847618","0.4202927251","0.8706375764","","","","","","","","","","75","K","2","","","47","main_expt",""
"","bandit","127","457233","0.0-89.0-0.0","99724236","wem/bandit_party_2","A1NLW5ZS2WQR35","either","6","438","","","","","","","0","0","1","0.4767868938","","0.6","0.4","0.8","0.2","","","","","0.5044276746","0.2601977795","0.4767868938","0.8019506245","","","","","","","","","","75","K","2","","","48","main_expt",""
"","bandit","128","459167","0.0-90.0-0.0","99724236","wem/bandit_party_2","A1NLW5ZS2WQR35","either","6","421","","","","","","","0","0","1","0.3749468019","","0.6","0.4","0.8","0.2","","","","","0.3766714482","0.2368144698","0.3749468019","0.7331224435","","","","","","","","","","75","K","2","","","49","main_expt",""
"","bandit","129","461103","0.0-91.0-0.0","99724236","wem/bandit_party_2","A1NLW5ZS2WQR35","either","6","426","","","","","","","0","0","1","","0.3532902347","0.6","0.4","0.8","0.2","0.406992786","0.2484527115","0.3532902347","0.7908344101","","","","","","","","","","","","","","75","K","2","","","50","main_expt",""
"","bandit","130","463483","0.0-92.0-0.0","99724236","wem/bandit_party_2","A1NLW5ZS2WQR35","either","6","870","","","","","","","1","0","0","0.7922828235","","0.6","0.4","0.8","0.2","","","","","0.3854505747","0.230268934","0.2413466802","0.7922828235","","","","","","","","","","76","L","3","","","51","main_expt",""
"","bandit","131","465385","0.0-93.0-0.0","99724236","wem/bandit_party_2","A1NLW5ZS2WQR35","either","6","390","","","","","","","0","1","0","","0.7485378942","0.6","0.4","0.8","0.2","0.3956915145","0.3429002399","0.2673723166","0.7485378942","","","","","","","","","","","","","","76","L","3","","","52","main_expt",""
"","bandit","132","467315","0.0-94.0-0.0","99724236","wem/bandit_party_2","A1NLW5ZS2WQR35","either","6","419","","","","","","","1","0","0","0.6603794952","","0.6","0.4","0.8","0.2","","","","","0.3062348001","0.2871029552","0.2806035608","0.6603794952","","","","","","","","","","76","L","3","","","53","main_expt",""
"","bandit","133","469235","0.0-95.0-0.0","99724236","wem/bandit_party_2","A1NLW5ZS2WQR35","either","6","409","","","","","","","0","1","0","","0.6931449795","0.6","0.4","0.8","0.2","0.2996500993","0.2594444468","0.2544312064","0.6931449795","","","","","","","","","","","","","","76","L","3","","","54","main_expt",""
"","bandit","134","471185","0.0-96.0-0.0","99724236","wem/bandit_party_2","A1NLW5ZS2WQR35","either","6","439","","","","","","","0","1","0","","0.7553272845","0.6","0.4","0.8","0.2","0.2518247787","0.3333749245","0.3362815808","0.7553272845","","","","","","","","","","","","","","76","L","3","","","55","main_expt",""
"","bandit","135","473048","0.0-97.0-0.0","99724236","wem/bandit_party_2","A1NLW5ZS2WQR35","either","6","351","","","","","","","0","1","0","","0.7231548626","0.6","0.4","0.8","0.2","0.3014763065","0.3049104067","0.3798256012","0.7231548626","","","","","","","","","","","","","","76","L","3","","","56","main_expt",""
"","bandit","136","474956","0.0-98.0-0.0","99724236","wem/bandit_party_2","A1NLW5ZS2WQR35","either","6","398","","","","","","","0","1","0","","0.7485901337","0.6","0.4","0.8","0.2","0.2730843718","0.3623273811","0.3989549393","0.7485901337","","","","","","","","","","","","","","76","L","3","","","57","main_expt",""
"","bandit","137","476761","0.0-99.0-0.0","99724236","wem/bandit_party_2","A1NLW5ZS2WQR35","either","6","294","","","","","","","0","1","0","","0.797082508","0.6","0.4","0.8","0.2","0.367239041","0.3621169042","0.3373398956","0.797082508","","","","","","","","","","","","","","76","L","3","","","58","main_expt",""
"","bandit","138","478607","0.0-100.0-0.0","99724236","wem/bandit_party_2","A1NLW5ZS2WQR35","either","6","334","","","","","","","1","0","0","0.7466963627","","0.6","0.4","0.8","0.2","","","","","0.4005220403","0.3672848169","0.3381045731","0.7466963627","","","","","","","","","","76","L","3","","","59","main_expt",""
"","bandit","139","480565","0.0-101.0-0.0","99724236","wem/bandit_party_2","A1NLW5ZS2WQR35","either","6","370","","","","","","","0","0","1","","0.6359615323","0.6","0.4","0.8","0.2","0.4863912708","0.5123874715","0.4838111383","0.6359615323","","","","","","","","","","","","","","76","L","3","","","60","main_expt",""
"","bandit","140","482459","0.0-102.0-0.0","99724236","wem/bandit_party_2","A1NLW5ZS2WQR35","either","6","385","","","","","","","0","0","1","","0.7125939799","0.6","0.4","0.8","0.2","0.5220595343","0.5218319631","0.4290776342","0.7125939799","","","","","","","","","","","","","","76","L","3","","","61","main_expt",""
"","bandit","141","484428","0.0-103.0-0.0","99724236","wem/bandit_party_2","A1NLW5ZS2WQR35","either","6","458","","","","","","","0","0","1","","0.5978650666","0.6","0.4","0.8","0.2","0.5447889898","0.6482151027","0.4387439774","0.5978650666","","","","","","","","","","","","","","76","L","3","","","62","main_expt",""
"","bandit","142","486415","0.0-104.0-0.0","99724236","wem/bandit_party_2","A1NLW5ZS2WQR35","either","6","476","","","","","","","0","1","0","","0.5166338879","0.6","0.4","0.8","0.2","0.5517390004","0.6966290852","0.3670418014","0.5166338879","","","","","","","","","","","","","","76","L","3","","","63","main_expt",""
"","bandit","143","488348","0.0-105.0-0.0","99724236","wem/bandit_party_2","A1NLW5ZS2WQR35","either","6","422","","","","","","","0","0","1","","0.4901650138","0.6","0.4","0.8","0.2","0.6576188384","0.6497033777","0.3470393933","0.4901650138","","","","","","","","","","","","","","76","L","3","","","64","main_expt",""
"","bandit","144","490335","0.0-106.0-0.0","99724236","wem/bandit_party_2","A1NLW5ZS2WQR35","either","6","476","","","","","","","0","0","1","","0.459365688","0.6","0.4","0.8","0.2","0.5156176703","0.6925184903","0.3361574661","0.459365688","","","","","","","","","","","","","","76","L","3","","","65","main_expt",""
"","bandit","145","492349","0.0-107.0-0.0","99724236","wem/bandit_party_2","A1NLW5ZS2WQR35","either","6","505","","","","","","","0","0","1","","0.4666104807","0.6","0.4","0.8","0.2","0.3851410914","0.8298767513","0.34308242","0.4666104807","","","","","","","","","","","","","","76","L","3","","","66","main_expt",""
"","bandit","146","494774","0.0-108.0-0.0","99724236","wem/bandit_party_2","A1NLW5ZS2WQR35","either","6","913","","","","","","","0","0","1","0.3925250542","","0.6","0.4","0.8","0.2","","","","","0.3925250542","0.8506596021","0.3730603492","0.5547259005","","","","","","","","","","72","H","0","img/none_selected.jpg","","67","main_expt",""
"","bandit","147","498310","0.0-109.0-0.0","99724236","wem/bandit_party_2","A1NLW5ZS2WQR35","either","6","2026","","","","","","","0","1","0","","0.3884113518","0.6","0.4","0.8","0.2","0.3884113518","0.8536910832","0.4089949532","0.6038719492","","","","","","","","","","","","","","72","H","0","img/none_selected.jpg","","68","main_expt",""
"","bandit","148","500652","0.0-110.0-0.0","99724236","wem/bandit_party_2","A1NLW5ZS2WQR35","either","6","828","","","","","","","0","0","1","0.3434478979","","0.6","0.4","0.8","0.2","","","","","0.3434478979","0.8642538991","0.3749002533","0.6148283845","","","","","","","","","","72","H","0","img/none_selected.jpg","","69","main_expt",""
"","bandit","149","502531","0.0-111.0-0.0","99724236","wem/bandit_party_2","A1NLW5ZS2WQR35","either","6","367","","","","","","","1","0","0","0.4426642051","","0.6","0.4","0.8","0.2","","","","","0.4426642051","0.8073802352","0.4133869845","0.6683283761","","","","","","","","","","72","H","0","img/none_selected.jpg","","70","main_expt",""
"","bandit","150","504558","0.0-112.0-0.0","99724236","wem/bandit_party_2","A1NLW5ZS2WQR35","either","6","516","","","","","","","0","0","1","0.4518046004","","0.6","0.4","0.8","0.2","","","","","0.4518046004","0.8059201048","0.3302164541","0.738459761","","","","","","","","","","72","H","0","img/none_selected.jpg","","71","main_expt",""
"","bandit","151","506430","0.0-113.0-0.0","99724236","wem/bandit_party_2","A1NLW5ZS2WQR35","either","6","361","","","","","","","0","1","0","","0.4903223245","0.6","0.4","0.8","0.2","0.4903223245","0.8262275011","0.2570952275","0.6525166508","","","","","","","","","","","","","","72","H","0","img/none_selected.jpg","","72","main_expt",""
"","bandit","152","508370","0.0-114.0-0.0","99724236","wem/bandit_party_2","A1NLW5ZS2WQR35","either","6","429","","","","","","","0","0","1","0.5296083002","","0.6","0.4","0.8","0.2","","","","","0.5296083002","0.7334390718","0.2042885023","0.5715134512","","","","","","","","","","72","H","0","img/none_selected.jpg","","73","main_expt",""
"","bandit","153","510284","0.0-115.0-0.0","99724236","wem/bandit_party_2","A1NLW5ZS2WQR35","either","6","404","","","","","","","0","0","1","0.4883026933","","0.6","0.4","0.8","0.2","","","","","0.4883026933","0.7490977197","0.2152837516","0.6228045854","","","","","","","","","","72","H","0","img/none_selected.jpg","","74","main_expt",""
"","bandit","154","512324","0.0-116.0-0.0","99724236","wem/bandit_party_2","A1NLW5ZS2WQR35","either","6","528","","","","","","","0","0","1","0.4914171484","","0.6","0.4","0.8","0.2","","","","","0.4914171484","0.7554087461","0.2044775694","0.613630376","","","","","","","","","","72","H","0","img/none_selected.jpg","","75","main_expt",""
"","bandit","155","514312","0.0-117.0-0.0","99724236","wem/bandit_party_2","A1NLW5ZS2WQR35","either","6","478","","","","","","","0","1","0","","0.804443878","0.6","0.4","0.8","0.2","0.6059218973","0.804443878","0.2247613499","0.7047266053","","","","","","","","","","","","","","74","J","1","","","76","main_expt",""
"","bandit","156","516195","0.0-118.0-0.0","99724236","wem/bandit_party_2","A1NLW5ZS2WQR35","either","6","372","","","","","","","0","1","0","","0.6656620098","0.6","0.4","0.8","0.2","0.553792366","0.6656620098","0.2266335256","0.6910360943","","","","","","","","","","","","","","74","J","1","","","77","main_expt",""
"","bandit","157","518171","0.0-119.0-0.0","99724236","wem/bandit_party_2","A1NLW5ZS2WQR35","either","6","465","","","","","","","0","1","0","","0.5898140708","0.6","0.4","0.8","0.2","0.6884193839","0.5898140708","0.1659731505","0.5515992215","","","","","","","","","","","","","","74","J","1","","","78","main_expt",""
"","bandit","158","520097","0.0-120.0-0.0","99724236","wem/bandit_party_2","A1NLW5ZS2WQR35","either","6","413","","","","","","","0","1","0","","0.613215191","0.6","0.4","0.8","0.2","0.7214277645","0.613215191","0.2343921172","0.6448399581","","","","","","","","","","","","","","74","J","1","","","79","main_expt",""
"","bandit","159","522025","0.0-121.0-0.0","99724236","wem/bandit_party_2","A1NLW5ZS2WQR35","either","6","417","","","","","","","0","0","1","0.4605925783","","0.6","0.4","0.8","0.2","","","","","0.7328142644","0.4605925783","0.2164054515","0.739479497","","","","","","","","","","74","J","1","","","80","main_expt",""
"","bandit","160","523965","0.0-122.0-0.0","99724236","wem/bandit_party_2","A1NLW5ZS2WQR35","either","6","429","","","","","","","0","0","1","","0.5390789087","0.6","0.4","0.8","0.2","0.7101675561","0.5390789087","0.1361232007","0.6956071838","","","","","","","","","","","","","","74","J","1","","","81","main_expt",""
"","bandit","161","525983","0.0-123.0-0.0","99724236","wem/bandit_party_2","A1NLW5ZS2WQR35","either","6","507","","","","","","","0","0","1","0.621290364","","0.6","0.4","0.8","0.2","","","","","0.6984384541","0.621290364","0.2275447725","0.5886517937","","","","","","","","","","74","J","1","","","82","main_expt",""
"","bandit","162","527848","0.0-124.0-0.0","99724236","wem/bandit_party_2","A1NLW5ZS2WQR35","either","6","352","","","","","","","0","0","1","","0.6359424421","0.6","0.4","0.8","0.2","0.7447883659","0.6359424421","0.1900607051","0.4764182235","","","","","","","","","","","","","","74","J","1","","","83","main_expt",""
"","bandit","163","529995","0.0-125.0-0.0","99724236","wem/bandit_party_2","A1NLW5ZS2WQR35","either","6","584","","","","","","","0","0","1","","0.1306868958","0.6","0.4","0.8","0.2","0.6900592863","0.6133664729","0.1306868958","0.5149027494","","","","","","","","","","","","","","75","K","2","","","84","main_expt",""
"","bandit","164","531900","0.0-126.0-0.0","99724236","wem/bandit_party_2","A1NLW5ZS2WQR35","either","6","395","","","","","","","1","0","0","0.1683201849","","0.6","0.4","0.8","0.2","","","","","0.7010597455","0.7815463305","0.1683201849","0.4908067213","","","","","","","","","","75","K","2","","","85","main_expt",""
"","bandit","165","533866","0.0-127.0-0.0","99724236","wem/bandit_party_2","A1NLW5ZS2WQR35","either","6","455","","","","","","","0","0","1","0.1290314955","","0.6","0.4","0.8","0.2","","","","","0.6171062652","0.7355789231","0.1290314955","0.4139472458","","","","","","","","","","75","K","2","","","86","main_expt",""
"","bandit","166","535728","0.0-128.0-0.0","99724236","wem/bandit_party_2","A1NLW5ZS2WQR35","either","6","352","","","","","","","0","0","1","","0.2297537383","0.6","0.4","0.8","0.2","0.5629375242","0.7267399876","0.2297537383","0.4253818619","","","","","","","","","","","","","","75","K","2","","","87","main_expt",""
"","bandit","167","537521","0.0-129.0-0.0","99724236","wem/bandit_party_2","A1NLW5ZS2WQR35","either","6","283","","","","","","","0","0","1","0.1878263516","","0.6","0.4","0.8","0.2","","","","","0.6434443074","0.7703195612","0.1878263516","0.4448862761","","","","","","","","","","75","K","2","","","88","main_expt",""
"","bandit","168","539399","0.0-130.0-0.0","99724236","wem/bandit_party_2","A1NLW5ZS2WQR35","either","6","294","","","","","","","0","1","0","","0.1896964823","0.6","0.4","0.8","0.2","0.7296698787","0.81872988","0.1896964823","0.4295642349","","","","","","","","","","","","","","75","K","2","","","89","main_expt",""
"","bandit","169","542754","0.0-131.0-0.0","99724236","wem/bandit_party_2","A1NLW5ZS2WQR35","either","6","1843","","","","","","","0","0","1","0.1614970172","","0.6","0.4","0.8","0.2","","","","","0.7042864347","0.8032570632","0.1614970172","0.3655203192","","","","","","","","","","75","K","2","","","90","main_expt",""
"","bandit","170","544781","0.0-132.0-0.0","99724236","wem/bandit_party_2","A1NLW5ZS2WQR35","either","6","517","","","","","","","0","1","0","","0.402428746","0.6","0.4","0.8","0.2","0.7606559624","0.8257352781","0.2107705911","0.402428746","","","","","","","","","","","","","","76","L","3","","","91","main_expt",""
"","bandit","171","546600","0.0-133.0-0.0","99724236","wem/bandit_party_2","A1NLW5ZS2WQR35","either","6","307","","","","","","","0","0","1","","0.452733603","0.6","0.4","0.8","0.2","0.8466818248","0.7762210657","0.1317951273","0.452733603","","","","","","","","","","","","","","76","L","3","","","92","main_expt",""
"","bandit","172","548533","0.0-134.0-0.0","99724236","wem/bandit_party_2","A1NLW5ZS2WQR35","either","6","421","","","","","","","1","0","0","0.5416456901","","0.6","0.4","0.8","0.2","","","","","0.8181600593","0.8293629201","0.09268613222","0.5416456901","","","","","","","","","","76","L","3","","","93","main_expt",""
"","bandit","173","550479","0.0-135.0-0.0","99724236","wem/bandit_party_2","A1NLW5ZS2WQR35","either","6","431","","","","","","","0","1","0","","0.5246039132","0.6","0.4","0.8","0.2","0.7259749053","0.7849393417","0.06418168538","0.5246039132","","","","","","","","","","","","","","76","L","3","","","94","main_expt",""
"","bandit","174","552296","0.0-136.0-0.0","99724236","wem/bandit_party_2","A1NLW5ZS2WQR35","either","6","306","","","","","","","0","0","1","","0.606801291","0.6","0.4","0.8","0.2","0.6538641892","0.7850226125","0.100072779","0.606801291","","","","","","","","","","","","","","76","L","3","","","95","main_expt",""
"","bandit","175","554371","0.0-137.0-0.0","99724236","wem/bandit_party_2","A1NLW5ZS2WQR35","either","6","563","","","","","","","0","1","0","","0.7175242067","0.6","0.4","0.8","0.2","0.6384360591","0.8013150942","0.09628221604","0.7175242067","","","","","","","","","","","","","","76","L","3","","","96","main_expt",""
"","bandit","176","556443","0.0-138.0-0.0","99724236","wem/bandit_party_2","A1NLW5ZS2WQR35","either","6","560","","","","","","","0","0","1","0.7706560561","","0.6","0.4","0.8","0.2","","","","","0.6836118029","0.70340399","0.1335622201","0.7706560561","","","","","","","","","","76","L","3","","","97","main_expt",""
"","bandit","177","558403","0.0-139.0-0.0","99724236","wem/bandit_party_2","A1NLW5ZS2WQR35","either","6","356","","","","","","","0","1","0","","0.7234704616","0.6","0.4","0.8","0.2","0.659457158","0.7562517051","0.167202632","0.7234704616","","","","","","","","","","","","","","76","L","3","","","98","main_expt",""
"","bandit","178","561022","0.0-140.0-0.0","99724236","wem/bandit_party_2","A1NLW5ZS2WQR35","either","6","1108","","","","","","","0","0","1","0.6582042781","","0.6","0.4","0.8","0.2","","","","","0.7726162223","0.6514659141","0.1216125457","0.6582042781","","","","","","","","","","76","L","3","","","99","main_expt",""
"","bandit","179","563116","0.0-141.0-0.0","99724236","wem/bandit_party_2","A1NLW5ZS2WQR35","either","6","582","","","","","","","0","0","1","","0.6530973887","0.6","0.4","0.8","0.2","0.8446518706","0.7112237606","0.1163239148","0.6530973887","","","","","","","","","","","","","","76","L","3","","","100","main_expt",""
"","bandit","180","564952","0.0-142.0-0.0","99724236","wem/bandit_party_2","A1NLW5ZS2WQR35","either","6","326","","","","","","","0","1","0","","0.6690961394","0.6","0.4","0.8","0.2","0.8784151442","0.6865981462","0.1037928869","0.6690961394","","","","","","","","","","","","","","76","L","3","","","101","main_expt",""
"","bandit","181","566896","0.0-143.0-0.0","99724236","wem/bandit_party_2","A1NLW5ZS2WQR35","either","6","431","","","","","","","0","1","0","","0.6268844929","0.6","0.4","0.8","0.2","0.8781202538","0.6663704066","0.0991068806","0.6268844929","","","","","","","","","","","","","","76","L","3","","","102","main_expt",""
"","bandit","182","568748","0.0-144.0-0.0","99724236","wem/bandit_party_2","A1NLW5ZS2WQR35","either","6","340","","","","","","","0","0","1","","0.6657789595","0.6","0.4","0.8","0.2","0.8123732176","0.6006744832","0.1226752409","0.6657789595","","","","","","","","","","","","","","76","L","3","","","103","main_expt",""
"","bandit","183","570543","0.0-145.0-0.0","99724236","wem/bandit_party_2","A1NLW5ZS2WQR35","either","6","283","","","","","","","0","0","1","","0.6951589836","0.6","0.4","0.8","0.2","0.8461937008","0.518723913","0.1552466415","0.6951589836","","","","","","","","","","","","","","76","L","3","","","104","main_expt",""
"","bandit","184","572333","0.0-146.0-0.0","99724236","wem/bandit_party_2","A1NLW5ZS2WQR35","either","6","277","","","","","","","0","1","0","","0.6382729445","0.6","0.4","0.8","0.2","0.8664825842","0.5343999165","0.1702138509","0.6382729445","","","","","","","","","","","","","","76","L","3","","","105","main_expt",""
"","bandit","185","574126","0.0-147.0-0.0","99724236","wem/bandit_party_2","A1NLW5ZS2WQR35","either","6","281","","","","","","","0","1","0","","0.7139624249","0.6","0.4","0.8","0.2","0.8703997655","0.4959998489","0.2021425125","0.7139624249","","","","","","","","","","","","","","76","L","3","","","106","main_expt",""
"","bandit","186","575898","0.0-148.0-0.0","99724236","wem/bandit_party_2","A1NLW5ZS2WQR35","either","6","260","","","","","","","0","1","0","","0.7718136471","0.6","0.4","0.8","0.2","0.8964314806","0.5052663648","0.2196373816","0.7718136471","","","","","","","","","","","","","","76","L","3","","","107","main_expt",""
"","bandit","187","577674","0.0-149.0-0.0","99724236","wem/bandit_party_2","A1NLW5ZS2WQR35","either","6","263","","","","","","","0","1","0","","0.8818715302","0.6","0.4","0.8","0.2","0.9080126319","0.4859582203","0.2393661099","0.8818715302","","","","","","","","","","","","","","76","L","3","","","108","main_expt",""
"","bandit","188","579475","0.0-150.0-0.0","99724236","wem/bandit_party_2","A1NLW5ZS2WQR35","either","6","289","","","","","","","0","1","0","","0.8757741924","0.6","0.4","0.8","0.2","0.8880845243","0.523617738","0.2516352594","0.8757741924","","","","","","","","","","","","","","76","L","3","","","109","main_expt",""
"","bandit","189","581417","0.0-151.0-0.0","99724236","wem/bandit_party_2","A1NLW5ZS2WQR35","either","6","429","","","","","","","0","1","0","","0.8657151097","0.6","0.4","0.8","0.2","0.899251136","0.5492010791","0.2424291788","0.8657151097","","","","","","","","","","","","","","76","L","3","","","110","main_expt",""
"","bandit","190","583215","0.0-152.0-0.0","99724236","wem/bandit_party_2","A1NLW5ZS2WQR35","either","6","287","","","","","","","0","1","0","","0.8457624762","0.6","0.4","0.8","0.2","0.9019514556","0.5467154696","0.2033086481","0.8457624762","","","","","","","","","","","","","","76","L","3","","","111","main_expt",""
"","bandit","191","585068","0.0-153.0-0.0","99724236","wem/bandit_party_2","A1NLW5ZS2WQR35","either","6","342","","","","","","","1","0","0","0.8756116827","","0.6","0.4","0.8","0.2","","","","","0.9315537639","0.5396215981","0.208613213","0.8756116827","","","","","","","","","","76","L","3","","","112","main_expt",""
"","bandit","192","586942","0.0-154.0-0.0","99724236","wem/bandit_party_2","A1NLW5ZS2WQR35","either","6","363","","","","","","","1","0","0","0.8773181328","","0.6","0.4","0.8","0.2","","","","","0.9254394702","0.5542875214","0.2743958833","0.8773181328","","","","","","","","","","76","L","3","","","113","main_expt",""
"","bandit","193","588822","0.0-155.0-0.0","99724236","wem/bandit_party_2","A1NLW5ZS2WQR35","either","6","369","","","","","","","0","1","0","","0.8842236373","0.6","0.4","0.8","0.2","0.9394904604","0.6411428718","0.2657329006","0.8842236373","","","","","","","","","","","","","","76","L","3","","","114","main_expt",""
"","bandit","194","590746","0.0-156.0-0.0","99724236","wem/bandit_party_2","A1NLW5ZS2WQR35","either","6","413","","","","","","","0","1","0","","0.8499121835","0.6","0.4","0.8","0.2","0.9533355239","0.7261400339","0.3234316928","0.8499121835","","","","","","","","","","","","","","76","L","3","","","115","main_expt",""
"","bandit","195","592621","0.0-157.0-0.0","99724236","wem/bandit_party_2","A1NLW5ZS2WQR35","either","6","363","","","","","","","1","0","0","0.7890056153","","0.6","0.4","0.8","0.2","","","","","0.960842596","0.7395407697","0.3625587123","0.7890056153","","","","","","","","","","76","L","3","","","116","main_expt",""
"","bandit","196","595118","0.0-158.0-0.0","99724236","wem/bandit_party_2","A1NLW5ZS2WQR35","either","6","987","","","","","","","1","0","0","0.7709890197","","0.6","0.4","0.8","0.2","","","","","0.937733065","0.8231731708","0.4946904956","0.7709890197","","","","","","","","","","76","L","3","","","117","main_expt",""
"","bandit","197","597189","0.0-159.0-0.0","99724236","wem/bandit_party_2","A1NLW5ZS2WQR35","either","6","559","","","","","","","0","1","0","","0.7459937787","0.6","0.4","0.8","0.2","0.9561499645","0.8278750807","0.6246330079","0.7459937787","","","","","","","","","","","","","","76","L","3","","","118","main_expt",""
"","bandit","198","599118","0.0-160.0-0.0","99724236","wem/bandit_party_2","A1NLW5ZS2WQR35","either","6","417","","","","","","","1","0","0","0.716881491","","0.6","0.4","0.8","0.2","","","","","0.9595118281","0.8715827524","0.5818097722","0.716881491","","","","","","","","","","76","L","3","","","119","main_expt",""
"","bandit","199","601068","0.0-161.0-0.0","99724236","wem/bandit_party_2","A1NLW5ZS2WQR35","either","6","437","","","","","","","0","1","0","","0.6595649419","0.6","0.4","0.8","0.2","0.9548463758","0.8522670476","0.5990025551","0.6595649419","","","","","","","","","","","","","","76","L","3","","","120","main_expt",""
"","bandit","200","602953","0.0-162.0-0.0","99724236","wem/bandit_party_2","A1NLW5ZS2WQR35","either","6","374","","","","","","","0","1","0","","0.6576447048","0.6","0.4","0.8","0.2","0.958085665","0.8266542562","0.6534424477","0.6576447048","","","","","","","","","","","","","","76","L","3","","","121","main_expt",""
"","bandit","201","604829","0.0-163.0-0.0","99724236","wem/bandit_party_2","A1NLW5ZS2WQR35","either","6","364","","","","","","","0","0","1","","0.6391957719","0.6","0.4","0.8","0.2","0.9630601427","0.81688531","0.5952731017","0.6391957719","","","","","","","","","","","","","","76","L","3","","","122","main_expt",""
"","bandit","202","606745","0.0-164.0-0.0","99724236","wem/bandit_party_2","A1NLW5ZS2WQR35","either","6","405","","","","","","","0","1","0","","0.5873908865","0.6","0.4","0.8","0.2","0.9790283764","0.8307363081","0.6469086187","0.5873908865","","","","","","","","","","","","","","76","L","3","","","123","main_expt",""
"","bandit","203","608572","0.0-165.0-0.0","99724236","wem/bandit_party_2","A1NLW5ZS2WQR35","either","6","316","","","","","","","0","1","0","","0.6592760984","0.6","0.4","0.8","0.2","0.9718765302","0.6943824695","0.6911454426","0.6592760984","","","","","","","","","","","","","","76","L","3","","","124","main_expt",""
"","bandit","204","610406","0.0-166.0-0.0","99724236","wem/bandit_party_2","A1NLW5ZS2WQR35","either","6","322","","","","","","","0","0","1","","0.6012083746","0.6","0.4","0.8","0.2","0.9845173964","0.7137568944","0.750572215","0.6012083746","","","","","","","","","","","","","","76","L","3","","","125","main_expt",""
"","bandit","205","612225","0.0-167.0-0.0","99724236","wem/bandit_party_2","A1NLW5ZS2WQR35","either","6","306","","","","","","","0","1","0","","0.6043440275","0.6","0.4","0.8","0.2","0.9804670004","0.6878742658","0.8108432581","0.6043440275","","","","","","","","","","","","","","76","L","3","","","126","main_expt",""
"","bandit","206","614026","0.0-168.0-0.0","99724236","wem/bandit_party_2","A1NLW5ZS2WQR35","either","6","289","","","","","","","0","0","1","","0.5043142332","0.6","0.4","0.8","0.2","0.9792667249","0.6175454059","0.8338196277","0.5043142332","","","","","","","","","","","","","","76","L","3","","","127","main_expt",""
"","bandit","207","615866","0.0-169.0-0.0","99724236","wem/bandit_party_2","A1NLW5ZS2WQR35","either","6","328","","","","","","","0","0","1","","0.5778209799","0.6","0.4","0.8","0.2","0.9853815399","0.5556505876","0.8624128669","0.5778209799","","","","","","","","","","","","","","76","L","3","","","128","main_expt",""
"","bandit","208","617792","0.0-170.0-0.0","99724236","wem/bandit_party_2","A1NLW5ZS2WQR35","either","6","412","","","","","","","0","0","1","0.5806273004","","0.6","0.4","0.8","0.2","","","","","0.9838319732","0.5948532478","0.9026068167","0.5806273004","","","","","","","","","","76","L","3","","","129","main_expt",""
"","bandit","209","619675","0.0-171.0-0.0","99724236","wem/bandit_party_2","A1NLW5ZS2WQR35","either","6","373","","","","","","","0","1","0","","0.4152233618","0.6","0.4","0.8","0.2","0.9798768453","0.6646968067","0.8983636673","0.4152233618","","","","","","","","","","","","","","76","L","3","","","130","main_expt",""
"","bandit","210","621489","0.0-172.0-0.0","99724236","wem/bandit_party_2","A1NLW5ZS2WQR35","either","6","303","","","","","","","0","0","1","","0.4527057242","0.6","0.4","0.8","0.2","0.9628017066","0.6676177377","0.888478962","0.4527057242","","","","","","","","","","","","","","76","L","3","","","131","main_expt",""
"","bandit","211","623316","0.0-173.0-0.0","99724236","wem/bandit_party_2","A1NLW5ZS2WQR35","either","6","315","","","","","","","0","1","0","","0.5185753891","0.6","0.4","0.8","0.2","0.9723970119","0.7638630926","0.8470567254","0.5185753891","","","","","","","","","","","","","","76","L","3","","","132","main_expt",""
"","bandit","212","625118","0.0-174.0-0.0","99724236","wem/bandit_party_2","A1NLW5ZS2WQR35","either","6","290","","","","","","","0","1","0","","0.4567386081","0.6","0.4","0.8","0.2","0.9754432393","0.726350598","0.8852081265","0.4567386081","","","","","","","","","","","","","","76","L","3","","","133","main_expt",""
"","bandit","213","626853","0.0-175.0-0.0","99724236","wem/bandit_party_2","A1NLW5ZS2WQR35","either","6","225","","","","","","","0","0","1","0.4494056808","","0.6","0.4","0.8","0.2","","","","","0.9635376407","0.7638059904","0.8317422298","0.4494056808","","","","","","","","","","76","L","3","","","134","main_expt",""
"","bandit","214","628624","0.0-176.0-0.0","99724236","wem/bandit_party_2","A1NLW5ZS2WQR35","either","6","256","","","","","","","0","0","1","","0.4608562393","0.6","0.4","0.8","0.2","0.9304273523","0.7337835984","0.8121858422","0.4608562393","","","","","","","","","","","","","","76","L","3","","","135","main_expt",""
"","bandit","215","630383","0.0-177.0-0.0","99724236","wem/bandit_party_2","A1NLW5ZS2WQR35","either","6","245","","","","","","","0","1","0","","0.6684020244","0.6","0.4","0.8","0.2","0.9295592062","0.7869055623","0.8473276522","0.6684020244","","","","","","","","","","","","","","76","L","3","","","136","main_expt",""
"","bandit","216","632153","0.0-178.0-0.0","99724236","wem/bandit_party_2","A1NLW5ZS2WQR35","either","6","256","","","","","","","0","0","1","","0.614137061","0.6","0.4","0.8","0.2","0.9343332129","0.8033651193","0.8251243182","0.614137061","","","","","","","","","","","","","","76","L","3","","","137","main_expt",""
"","bandit","217","633879","0.0-179.0-0.0","99724236","wem/bandit_party_2","A1NLW5ZS2WQR35","either","6","216","","","","","","","1","0","0","0.711021659","","0.6","0.4","0.8","0.2","","","","","0.9325781127","0.7620089345","0.7892590299","0.711021659","","","","","","","","","","76","L","3","","","138","main_expt",""
"","bandit","218","635623","0.0-180.0-0.0","99724236","wem/bandit_party_2","A1NLW5ZS2WQR35","either","6","233","","","","","","","0","0","1","","0.5731932267","0.6","0.4","0.8","0.2","0.9687763229","0.8098853196","0.753698647","0.5731932267","","","","","","","","","","","","","","76","L","3","","","139","main_expt",""
"","bandit","219","637415","0.0-181.0-0.0","99724236","wem/bandit_party_2","A1NLW5ZS2WQR35","either","6","266","","","","","","","0","0","1","","0.6553783698","0.6","0.4","0.8","0.2","0.9520204639","0.8737133651","0.7281837229","0.6553783698","","","","","","","","","","","","","","76","L","3","","","140","main_expt",""
"","bandit","220","639195","0.0-182.0-0.0","99724236","wem/bandit_party_2","A1NLW5ZS2WQR35","either","6","265","","","","","","","0","1","0","","0.5665224918","0.6","0.4","0.8","0.2","0.9615613541","0.8464817719","0.7913145473","0.5665224918","","","","","","","","","","","","","","76","L","3","","","141","main_expt",""
"","bandit","221","640942","0.0-183.0-0.0","99724236","wem/bandit_party_2","A1NLW5ZS2WQR35","either","6","236","","","","","","","0","0","1","","0.5230460729","0.6","0.4","0.8","0.2","0.9438722422","0.8457688645","0.7498898283","0.5230460729","","","","","","","","","","","","","","76","L","3","","","142","main_expt",""
"","bandit","222","642680","0.0-184.0-0.0","99724236","wem/bandit_party_2","A1NLW5ZS2WQR35","either","6","227","","","","","","","0","1","0","","0.5401897842","0.6","0.4","0.8","0.2","0.9419241064","0.8801682128","0.723110339","0.5401897842","","","","","","","","","","","","","","76","L","3","","","143","main_expt",""
"","bandit","223","644423","0.0-185.0-0.0","99724236","wem/bandit_party_2","A1NLW5ZS2WQR35","either","6","230","","","","","","","0","1","0","","0.5495292383","0.6","0.4","0.8","0.2","0.9383966058","0.7806105972","0.7697142539","0.5495292383","","","","","","","","","","","","","","76","L","3","","","144","main_expt",""
"","bandit","224","646124","0.0-186.0-0.0","99724236","wem/bandit_party_2","A1NLW5ZS2WQR35","either","6","189","","","","","","","0","0","1","0.4718854897","","0.6","0.4","0.8","0.2","","","","","0.9442204223","0.7384744451","0.8279494337","0.4718854897","","","","","","","","","","76","L","3","","","145","main_expt",""
"","bandit","225","647653","0.0-187.0-0.0","99724236","wem/bandit_party_2","A1NLW5ZS2WQR35","either","6","17","","","","","","","0","0","1","","0.3790577705","0.6","0.4","0.8","0.2","0.9461270134","0.7078417075","0.747104877","0.3790577705","","","","","","","","","","","","","","76","L","3","","","146","main_expt",""
"","bandit","226","649436","0.0-188.0-0.0","99724236","wem/bandit_party_2","A1NLW5ZS2WQR35","either","6","271","","","","","","","0","1","0","","0.3671333747","0.6","0.4","0.8","0.2","0.9677113618","0.7671729372","0.7635883185","0.3671333747","","","","","","","","","","","","","","76","L","3","","","147","main_expt",""
"","bandit","227","651492","0.0-189.0-0.0","99724236","wem/bandit_party_2","A1NLW5ZS2WQR35","either","6","543","","","","","","","0","0","1","","0.4462771912","0.6","0.4","0.8","0.2","0.9603287673","0.7515071201","0.6650729927","0.4462771912","","","","","","","","","","","","","","76","L","3","","","148","main_expt",""
"","bandit","228","653366","0.0-190.0-0.0","99724236","wem/bandit_party_2","A1NLW5ZS2WQR35","either","6","361","","","","","","","0","0","1","","0.3929125452","0.6","0.4","0.8","0.2","0.9256305183","0.7582160768","0.594527628","0.3929125452","","","","","","","","","","","","","","76","L","3","","","149","main_expt",""
"","bandit","229","655194","0.0-191.0-0.0","99724236","wem/bandit_party_2","A1NLW5ZS2WQR35","either","6","315","","","","","","","0","0","1","","0.3825194633","0.6","0.4","0.8","0.2","0.9222609783","0.6843302658","0.5101412162","0.3825194633","","","","","","","","","","","","","","76","L","3","","","150","main_expt",""
"","bandit","230","657061","0.0-192.0-0.0","99724236","wem/bandit_party_2","A1NLW5ZS2WQR35","either","6","355","","","","","","","0","1","0","","0.9522131909","0.6","0.4","0.8","0.2","0.9522131909","0.4980827124","0.5755011036","0.3889652011","","","","","","","","","","","","","","72","H","0","img/none_selected.jpg","","151","main_expt",""
"","bandit","231","659004","0.0-193.0-0.0","99724236","wem/bandit_party_2","A1NLW5ZS2WQR35","either","6","426","","","","","","","1","0","0","0.9351777179","","0.6","0.4","0.8","0.2","","","","","0.9351777179","0.5418861514","0.5415628766","0.372169082","","","","","","","","","","72","H","0","img/none_selected.jpg","","152","main_expt",""
"","bandit","232","661409","0.0-194.0-0.0","99724236","wem/bandit_party_2","A1NLW5ZS2WQR35","either","6","895","","","","","","","0","1","0","","0.9526549669","0.6","0.4","0.8","0.2","0.9526549669","0.6424708626","0.6392888902","0.4275919172","","","","","","","","","","","","","","72","H","0","img/none_selected.jpg","","153","main_expt",""
"","bandit","233","663359","0.0-195.0-0.0","99724236","wem/bandit_party_2","A1NLW5ZS2WQR35","either","6","438","","","","","","","1","0","0","0.944677936","","0.6","0.4","0.8","0.2","","","","","0.944677936","0.6200403258","0.6798835142","0.3978897223","","","","","","","","","","72","H","0","img/none_selected.jpg","","154","main_expt",""
"","bandit","234","665356","0.0-196.0-0.0","99724236","wem/bandit_party_2","A1NLW5ZS2WQR35","either","6","485","","","","","","","1","0","0","0.9443948233","","0.6","0.4","0.8","0.2","","","","","0.9443948233","0.5087788092","0.7376683638","0.4922143253","","","","","","","","","","72","H","0","img/none_selected.jpg","","155","main_expt",""
"","bandit","235","667306","0.0-197.0-0.0","99724236","wem/bandit_party_2","A1NLW5ZS2WQR35","either","6","436","","","","","","","1","0","0","0.9312029685","","0.6","0.4","0.8","0.2","","","","","0.9312029685","0.4397360723","0.7740838489","0.5060601407","","","","","","","","","","72","H","0","img/none_selected.jpg","","156","main_expt",""
"","bandit","236","669149","0.0-198.0-0.0","99724236","wem/bandit_party_2","A1NLW5ZS2WQR35","either","6","330","","","","","","","0","1","0","","0.9009413449","0.6","0.4","0.8","0.2","0.9009413449","0.4529934193","0.7526352547","0.56460533","","","","","","","","","","","","","","72","H","0","img/none_selected.jpg","","157","main_expt",""
"","bandit","237","671026","0.0-199.0-0.0","99724236","wem/bandit_party_2","A1NLW5ZS2WQR35","either","6","362","","","","","","","1","0","0","0.8799225656","","0.6","0.4","0.8","0.2","","","","","0.8799225656","0.522014142","0.807066173","0.5551408743","","","","","","","","","","72","H","0","img/none_selected.jpg","","158","main_expt",""
"","bandit","238","673319","0.0-200.0-0.0","99724236","wem/bandit_party_2","A1NLW5ZS2WQR35","either","6","776","","","","","","","1","0","0","0.9103166083","","0.6","0.4","0.8","0.2","","","","","0.9103166083","0.447178695","0.8348587906","0.6362487126","","","","","","","","","","72","H","0","img/none_selected.jpg","","159","main_expt",""
"","bandit","239","675270","0.0-201.0-0.0","99724236","wem/bandit_party_2","A1NLW5ZS2WQR35","either","6","437","","","","","","","1","0","0","0.9575168601","","0.6","0.4","0.8","0.2","","","","","0.9575168601","0.4293784973","0.8054329593","0.5818198138","","","","","","","","","","72","H","0","img/none_selected.jpg","","160","main_expt",""
"","bandit","240","677259","0.0-202.0-0.0","99724236","wem/bandit_party_2","A1NLW5ZS2WQR35","either","6","476","","","","","","","0","1","0","","0.9323430526","0.6","0.4","0.8","0.2","0.9323430526","0.4263694152","0.8263011938","0.5079421761","","","","","","","","","","","","","","72","H","0","img/none_selected.jpg","","161","main_expt",""
"","bandit","241","679293","0.0-203.0-0.0","99724236","wem/bandit_party_2","A1NLW5ZS2WQR35","either","6","521","","","","","","","0","1","0","","0.8731035433","0.6","0.4","0.8","0.2","0.8731035433","0.4394756583","0.8468561623","0.3944353318","","","","","","","","","","","","","","72","H","0","img/none_selected.jpg","","162","main_expt",""
"","bandit","242","681281","0.0-204.0-0.0","99724236","wem/bandit_party_2","A1NLW5ZS2WQR35","either","6","476","","","","","","","0","0","1","","0.860239847","0.6","0.4","0.8","0.2","0.860239847","0.4632532181","0.866861138","0.4560534757","","","","","","","","","","","","","","72","H","0","img/none_selected.jpg","","163","main_expt",""
"","bandit","243","683157","0.0-205.0-0.0","99724236","wem/bandit_party_2","A1NLW5ZS2WQR35","either","6","364","","","","","","","0","1","0","","0.8327160304","0.6","0.4","0.8","0.2","0.8327160304","0.469091439","0.8621839131","0.4338988853","","","","","","","","","","","","","","72","H","0","img/none_selected.jpg","","164","main_expt",""
"","bandit","244","684987","0.0-206.0-0.0","99724236","wem/bandit_party_2","A1NLW5ZS2WQR35","either","6","317","","","","","","","0","0","1","0.8780399083","","0.6","0.4","0.8","0.2","","","","","0.8780399083","0.4691854483","0.8368369455","0.3640020004","","","","","","","","","","72","H","0","img/none_selected.jpg","","165","main_expt",""
"","bandit","245","686803","0.0-207.0-0.0","99724236","wem/bandit_party_2","A1NLW5ZS2WQR35","either","6","304","","","","","","","0","0","1","0.8659509199","","0.6","0.4","0.8","0.2","","","","","0.8659509199","0.424594696","0.8543831227","0.4433911144","","","","","","","","","","72","H","0","img/none_selected.jpg","","166","main_expt",""
"","bandit","246","688561","0.0-208.0-0.0","99724236","wem/bandit_party_2","A1NLW5ZS2WQR35","either","6","245","","","","","","","0","1","0","","0.8458676595","0.6","0.4","0.8","0.2","0.8458676595","0.4691217736","0.8444257961","0.4852122499","","","","","","","","","","","","","","72","H","0","img/none_selected.jpg","","167","main_expt",""
"","bandit","247","690394","0.0-209.0-0.0","99724236","wem/bandit_party_2","A1NLW5ZS2WQR35","either","6","323","","","","","","","0","1","0","","0.7368025647","0.6","0.4","0.8","0.2","0.7368025647","0.4605946041","0.8895061166","0.4829488348","","","","","","","","","","","","","","72","H","0","img/none_selected.jpg","","168","main_expt",""
"","bandit","248","692218","0.0-210.0-0.0","99724236","wem/bandit_party_2","A1NLW5ZS2WQR35","either","6","307","","","","","","","0","0","1","0.6811301937","","0.6","0.4","0.8","0.2","","","","","0.6811301937","0.4302520818","0.8980662015","0.467087579","","","","","","","","","","72","H","0","img/none_selected.jpg","","169","main_expt",""
"","bandit","249","694098","0.0-211.0-0.0","99724236","wem/bandit_party_2","A1NLW5ZS2WQR35","either","6","367","","","","","","","0","0","1","0.6781719117","","0.6","0.4","0.8","0.2","","","","","0.6781719117","0.3846086554","0.9399190154","0.3575164989","","","","","","","","","","72","H","0","img/none_selected.jpg","","170","main_expt",""
"","bandit","250","695883","0.0-212.0-0.0","99724236","wem/bandit_party_2","A1NLW5ZS2WQR35","either","6","270","","","","","","","1","0","0","0.5779776893","","0.6","0.4","0.8","0.2","","","","","0.5779776893","0.4938912128","0.9199626721","0.3433755155","","","","","","","","","","72","H","0","img/none_selected.jpg","","171","main_expt",""
"","bandit","251","697681","0.0-213.0-0.0","99724236","wem/bandit_party_2","A1NLW5ZS2WQR35","either","6","285","","","","","","","1","0","0","0.5461867433","","0.6","0.4","0.8","0.2","","","","","0.5461867433","0.5409242696","0.8885959212","0.2921203137","","","","","","","","","","72","H","0","img/none_selected.jpg","","172","main_expt",""
"","bandit","252","699475","0.0-214.0-0.0","99724236","wem/bandit_party_2","A1NLW5ZS2WQR35","either","6","280","","","","","","","1","0","0","0.5898781272","","0.6","0.4","0.8","0.2","","","","","0.5898781272","0.4899310385","0.8502068985","0.3237382503","","","","","","","","","","72","H","0","img/none_selected.jpg","","173","main_expt",""
"","bandit","253","701325","0.0-215.0-0.0","99724236","wem/bandit_party_2","A1NLW5ZS2WQR35","either","6","336","","","","","","","0","0","1","0.5990225055","","0.6","0.4","0.8","0.2","","","","","0.5990225055","0.4464532747","0.9054067092","0.2935635685","","","","","","","","","","72","H","0","img/none_selected.jpg","","174","main_expt",""
"","bandit","254","703096","0.0-216.0-0.0","99724236","wem/bandit_party_2","A1NLW5ZS2WQR35","either","6","255","","","","","","","1","0","0","0.6129624105","","0.6","0.4","0.8","0.2","","","","","0.6129624105","0.4363040476","0.9096893241","0.2797951809","","","","","","","","","","72","H","0","img/none_selected.jpg","","175","main_expt",""
"","bandit","255","704880","0.0-217.0-0.0","99724236","wem/bandit_party_2","A1NLW5ZS2WQR35","either","6","271","","","","","","","0","0","1","","0.5434192492","0.6","0.4","0.8","0.2","0.5434192492","0.4198776974","0.9081003197","0.2067270565","","","","","","","","","","","","","","72","H","0","img/none_selected.jpg","","176","main_expt",""
"","bandit","256","706668","0.0-218.0-0.0","99724236","wem/bandit_party_2","A1NLW5ZS2WQR35","either","6","274","","","","","","","0","1","0","","0.5893108522","0.6","0.4","0.8","0.2","0.5893108522","0.4001478854","0.8417535431","0.19266164","","","","","","","","","","","","","","72","H","0","img/none_selected.jpg","","177","main_expt",""
"","bandit","257","708562","0.0-219.0-0.0","99724236","wem/bandit_party_2","A1NLW5ZS2WQR35","either","6","377","","","","","","","0","0","1","0.4862463398","","0.6","0.4","0.8","0.2","","","","","0.4862463398","0.3015477047","0.8045518304","0.1393448617","","","","","","","","","","72","H","0","img/none_selected.jpg","","178","main_expt",""
"","bandit","258","710381","0.0-220.0-0.0","99724236","wem/bandit_party_2","A1NLW5ZS2WQR35","either","6","306","","","","","","","0","0","1","0.4227787996","","0.6","0.4","0.8","0.2","","","","","0.4227787996","0.2700131006","0.8250115846","0.1149816072","","","","","","","","","","72","H","0","img/none_selected.jpg","","179","main_expt",""
"","bandit","259","712223","0.0-221.0-0.0","99724236","wem/bandit_party_2","A1NLW5ZS2WQR35","either","6","324","","","","","","","0","0","1","","0.3583368423","0.6","0.4","0.8","0.2","0.3583368423","0.3473069","0.7418096358","0.1231561222","","","","","","","","","","","","","","72","H","0","img/none_selected.jpg","","180","main_expt",""
"","bandit","260","714144","0.0-222.0-0.0","99724236","wem/bandit_party_2","A1NLW5ZS2WQR35","either","6","409","","","","","","","0","0","1","","0.3478804011","0.6","0.4","0.8","0.2","0.3820052134","0.3478804011","0.7180260456","0.1134989143","","","","","","","","","","","","","","74","J","1","","","181","main_expt",""
"","bandit","261","716031","0.0-223.0-0.0","99724236","wem/bandit_party_2","A1NLW5ZS2WQR35","either","6","373","","","","","","","1","0","0","0.3304981007","","0.6","0.4","0.8","0.2","","","","","0.437769555","0.3304981007","0.6777378447","0.07317944644","","","","","","","","","","74","J","1","","","182","main_expt",""
"","bandit","262","718200","0.0-224.0-0.0","99724236","wem/bandit_party_2","A1NLW5ZS2WQR35","either","6","656","","","","","","","0","0","1","0.2578466268","","0.6","0.4","0.8","0.2","","","","","0.3951330089","0.2578466268","0.6331465848","0.05085611098","","","","","","","","","","74","J","1","","","183","main_expt",""
"","bandit","263","720128","0.0-225.0-0.0","99724236","wem/bandit_party_2","A1NLW5ZS2WQR35","either","6","414","","","","","","","0","0","1","0.3550464129","","0.6","0.4","0.8","0.2","","","","","0.4062376343","0.3550464129","0.6578519513","0.07152820202","","","","","","","","","","74","J","1","","","184","main_expt",""
"","bandit","264","722059","0.0-226.0-0.0","99724236","wem/bandit_party_2","A1NLW5ZS2WQR35","either","6","415","","","","","","","0","0","1","0.2993299556","","0.6","0.4","0.8","0.2","","","","","0.4035727276","0.2993299556","0.7160298793","0.08814522307","","","","","","","","","","74","J","1","","","185","main_expt",""
"","bandit","265","724051","0.0-227.0-0.0","99724236","wem/bandit_party_2","A1NLW5ZS2WQR35","either","6","478","","","","","","","0","0","1","","0.3985972224","0.6","0.4","0.8","0.2","0.4595565904","0.3985972224","0.7081703269","0.0931487442","","","","","","","","","","","","","","74","J","1","","","186","main_expt",""
"","bandit","266","725923","0.0-228.0-0.0","99724236","wem/bandit_party_2","A1NLW5ZS2WQR35","either","6","356","","","","","","","0","0","1","","0.05847154344","0.6","0.4","0.8","0.2","0.4956959756","0.4563810555","0.7670757258","0.05847154344","","","","","","","","","","","","","","76","L","3","","","187","main_expt",""
"","bandit","267","727718","0.0-229.0-0.0","99724236","wem/bandit_party_2","A1NLW5ZS2WQR35","either","6","282","","","","","","","0","0","1","","0.05005107021","0.6","0.4","0.8","0.2","0.4295585103","0.4621092719","0.7986884496","0.05005107021","","","","","","","","","","","","","","76","L","3","","","188","main_expt",""
"","bandit","268","729487","0.0-230.0-0.0","99724236","wem/bandit_party_2","A1NLW5ZS2WQR35","either","6","256","","","","","","","0","0","1","","0.05158958255","0.6","0.4","0.8","0.2","0.4121259827","0.4214675273","0.8113194514","0.05158958255","","","","","","","","","","","","","","76","L","3","","","189","main_expt",""
"","bandit","269","731664","0.0-231.0-0.0","99724236","wem/bandit_party_2","A1NLW5ZS2WQR35","either","6","662","","","","","","","0","0","1","0.0530996007","","0.6","0.4","0.8","0.2","","","","","0.40505342","0.4445162903","0.8311477635","0.0530996007","","","","","","","","","","76","L","3","","","190","main_expt",""
"","bandit","270","733491","0.0-232.0-0.0","99724236","wem/bandit_party_2","A1NLW5ZS2WQR35","either","6","313","","","","","","","0","1","0","","0.7941336253","0.6","0.4","0.8","0.2","0.3671493273","0.4077799102","0.7941336253","0.05342003941","","","","","","","","","","","","","","75","K","2","","","191","main_expt",""
"","bandit","271","735253","0.0-233.0-0.0","99724236","wem/bandit_party_2","A1NLW5ZS2WQR35","either","6","247","","","","","","","1","0","0","0.841847859","","0.6","0.4","0.8","0.2","","","","","0.3367263454","0.413117206","0.841847859","0.05264216412","","","","","","","","","","75","K","2","","","192","main_expt",""
"","bandit","272","737018","0.0-234.0-0.0","99724236","wem/bandit_party_2","A1NLW5ZS2WQR35","either","6","251","","","","","","","1","0","0","0.865127625","","0.6","0.4","0.8","0.2","","","","","0.2587514209","0.374663265","0.865127625","0.07418965368","","","","","","","","","","75","K","2","","","193","main_expt",""
"","bandit","273","738911","0.0-235.0-0.0","99724236","wem/bandit_party_2","A1NLW5ZS2WQR35","either","6","380","","","","","","","0","0","1","0.8369883383","","0.6","0.4","0.8","0.2","","","","","0.2123696513","0.2792309937","0.8369883383","0.1148515542","","","","","","","","","","75","K","2","","","194","main_expt",""
"","bandit","274","740754","0.0-236.0-0.0","99724236","wem/bandit_party_2","A1NLW5ZS2WQR35","either","6","329","","","","","","","1","0","0","0.8226177272","","0.6","0.4","0.8","0.2","","","","","0.2551117677","0.3090424304","0.8226177272","0.1102075851","","","","","","","","","","75","K","2","","","195","main_expt",""
"","bandit","275","742651","0.0-237.0-0.0","99724236","wem/bandit_party_2","A1NLW5ZS2WQR35","either","6","383","","","","","","","1","0","0","0.8759919892","","0.6","0.4","0.8","0.2","","","","","0.2948177706","0.2254203465","0.8759919892","0.09307195637","","","","","","","","","","75","K","2","","","196","main_expt",""
"","bandit","276","744545","0.0-238.0-0.0","99724236","wem/bandit_party_2","A1NLW5ZS2WQR35","either","6","379","","","","","","","0","1","0","","0.9413038234","0.6","0.4","0.8","0.2","0.2864074111","0.2104085952","0.9413038234","0.08341332984","","","","","","","","","","","","","","75","K","2","","","197","main_expt",""
"","bandit","277","746433","0.0-239.0-0.0","99724236","wem/bandit_party_2","A1NLW5ZS2WQR35","either","6","373","","","","","","","1","0","0","0.9384937307","","0.6","0.4","0.8","0.2","","","","","0.3044962429","0.1686499416","0.9384937307","0.06206278739","","","","","","","","","","75","K","2","","","198","main_expt",""
"","bandit","278","748496","0.0-240.0-0.0","99724236","wem/bandit_party_2","A1NLW5ZS2WQR35","either","6","549","","","","","","","1","0","0","0.927250614","","0.6","0.4","0.8","0.2","","","","","0.2804127106","0.1696058054","0.927250614","0.1015706687","","","","","","","","","","75","K","2","","","199","main_expt",""
"","bandit","279","751329","0.0-241.0-0.0","99724236","wem/bandit_party_2","A1NLW5ZS2WQR35","either","6","1317","","","","","","","1","0","0","0.8840406778","","0.6","0.4","0.8","0.2","","","","","0.3151112274","0.1940139532","0.8840406778","0.07348353789","","","","","","","","","","75","K","2","","","200","main_expt",""
"","bandit","280","753711","0.0-242.0-0.0","99724236","wem/bandit_party_2","A1NLW5ZS2WQR35","either","6","866","","","","","","","1","0","0","0.8866639954","","0.6","0.4","0.8","0.2","","","","","0.3124471347","0.2384341862","0.8866639954","0.09218994405","","","","","","","","","","75","K","2","","","201","main_expt",""
"","bandit","281","756110","0.0-243.0-0.0","99724236","wem/bandit_party_2","A1NLW5ZS2WQR35","either","6","881","","","","","","","0","0","1","0.8188103646","","0.6","0.4","0.8","0.2","","","","","0.3418115628","0.2069173963","0.8188103646","0.1662378481","","","","","","","","","","75","K","2","","","202","main_expt",""
"","bandit","282","758010","0.0-244.0-0.0","99724236","wem/bandit_party_2","A1NLW5ZS2WQR35","either","6","384","","","","","","","1","0","0","0.8026106274","","0.6","0.4","0.8","0.2","","","","","0.2676578736","0.2502389624","0.8026106274","0.1808123801","","","","","","","","","","75","K","2","","","203","main_expt",""
"","bandit","283","760411","0.0-245.0-0.0","99724236","wem/bandit_party_2","A1NLW5ZS2WQR35","either","6","886","","","","","","","1","0","0","0.6613987003","","0.6","0.4","0.8","0.2","","","","","0.2513587973","0.2226806","0.6613987003","0.2011980288","","","","","","","","","","75","K","2","","","204","main_expt",""
"","bandit","284","762466","0.0-246.0-0.0","99724236","wem/bandit_party_2","A1NLW5ZS2WQR35","either","6","540","","","","","","","1","0","0","0.7402115251","","0.6","0.4","0.8","0.2","","","","","0.2733703365","0.2327973494","0.7402115251","0.1877492959","","","","","","","","","","75","K","2","","","205","main_expt",""
"","bandit","285","764447","0.0-247.0-0.0","99724236","wem/bandit_party_2","A1NLW5ZS2WQR35","either","6","465","","","","","","","0","0","1","0.6792505986","","0.6","0.4","0.8","0.2","","","","","0.3212331514","0.3134624789","0.6792505986","0.1891298069","","","","","","","","","","75","K","2","","","206","main_expt",""
"","bandit","286","766320","0.0-248.0-0.0","99724236","wem/bandit_party_2","A1NLW5ZS2WQR35","either","6","359","","","","","","","0","0","1","0.6510378203","","0.6","0.4","0.8","0.2","","","","","0.3381772831","0.3808856429","0.6510378203","0.2092890992","","","","","","","","","","75","K","2","","","207","main_expt",""
"","bandit","287","768168","0.0-249.0-0.0","99724236","wem/bandit_party_2","A1NLW5ZS2WQR35","either","6","333","","","","","","","0","1","0","","0.5971377862","0.6","0.4","0.8","0.2","0.2370260631","0.318509643","0.5971377862","0.2563161799","","","","","","","","","","","","","","75","K","2","","","208","main_expt",""
"","bandit","288","770061","0.0-250.0-0.0","99724236","wem/bandit_party_2","A1NLW5ZS2WQR35","either","6","380","","","","","","","0","1","0","","0.6040603887","0.6","0.4","0.8","0.2","0.2157004535","0.2932847295","0.6040603887","0.2643940457","","","","","","","","","","","","","","75","K","2","","","209","main_expt",""
"","bandit","289","771875","0.0-251.0-0.0","99724236","wem/bandit_party_2","A1NLW5ZS2WQR35","either","6","300","","","","","","","1","0","0","0.7794442159","","0.6","0.4","0.8","0.2","","","","","0.2655169153","0.2230023122","0.7794442159","0.2710870001","","","","","","","","","","75","K","2","","","210","main_expt",""
"","bandit","290","773684","0.0-252.0-0.0","99724236","wem/bandit_party_2","A1NLW5ZS2WQR35","either","6","292","","","","","","","1","0","0","0.8397026392","","0.6","0.4","0.8","0.2","","","","","0.2359505063","0.1899351836","0.8397026392","0.2056380183","","","","","","","","","","75","K","2","","","211","main_expt",""
"","bandit","291","775505","0.0-253.0-0.0","99724236","wem/bandit_party_2","A1NLW5ZS2WQR35","either","6","305","","","","","","","0","0","1","0.7883870126","","0.6","0.4","0.8","0.2","","","","","0.2431981852","0.2593929449","0.7883870126","0.2487045614","","","","","","","","","","75","K","2","","","212","main_expt",""
"","bandit","292","777257","0.0-254.0-0.0","99724236","wem/bandit_party_2","A1NLW5ZS2WQR35","either","6","238","","","","","","","1","0","0","0.7160446845","","0.6","0.4","0.8","0.2","","","","","0.3385658967","0.2304425673","0.7160446845","0.3520378668","","","","","","","","","","75","K","2","","","213","main_expt",""
"","bandit","293","779051","0.0-255.0-0.0","99724236","wem/bandit_party_2","A1NLW5ZS2WQR35","either","6","277","","","","","","","1","0","0","0.7501162241","","0.6","0.4","0.8","0.2","","","","","0.445002088","0.2849244028","0.7501162241","0.3455661114","","","","","","","","","","75","K","2","","","214","main_expt",""
"","bandit","294","780838","0.0-256.0-0.0","99724236","wem/bandit_party_2","A1NLW5ZS2WQR35","either","6","269","","","","","","","0","0","1","0.7574589115","","0.6","0.4","0.8","0.2","","","","","0.4340580748","0.3184819088","0.7574589115","0.3290646698","","","","","","","","","","75","K","2","","","215","main_expt",""
"","bandit","295","782623","0.0-257.0-0.0","99724236","wem/bandit_party_2","A1NLW5ZS2WQR35","either","6","225","","","","","","","1","0","0","0.7376674805","","0.6","0.4","0.8","0.2","","","","","0.3996931216","0.2989728513","0.7376674805","0.2737258078","","","","","","","","","","75","K","2","","","216","main_expt",""
"","bandit","296","784463","0.0-258.0-0.0","99724236","wem/bandit_party_2","A1NLW5ZS2WQR35","either","6","325","","","","","","","0","0","1","","0.67262171","0.6","0.4","0.8","0.2","0.453570069","0.5538830624","0.67262171","0.2401291484","","","","","","","","","","","","","","75","K","2","","","217","main_expt",""
"","bandit","297","786216","0.0-259.0-0.0","99724236","wem/bandit_party_2","A1NLW5ZS2WQR35","either","6","237","","","","","","","0","0","1","0.6309662891","","0.6","0.4","0.8","0.2","","","","","0.3566620654","0.5331458927","0.6309662891","0.2395298113","","","","","","","","","","75","K","2","","","218","main_expt",""
"","bandit","298","787981","0.0-260.0-0.0","99724236","wem/bandit_party_2","A1NLW5ZS2WQR35","either","6","251","","","","","","","1","0","0","0.610488243","","0.6","0.4","0.8","0.2","","","","","0.3114207129","0.409279481","0.610488243","0.2333127667","","","","","","","","","","75","K","2","","","219","main_expt",""
"","bandit","299","789748","0.0-261.0-0.0","99724236","wem/bandit_party_2","A1NLW5ZS2WQR35","either","6","252","","","","","","","1","0","0","0.6741838821","","0.6","0.4","0.8","0.2","","","","","0.348491043","0.3910907299","0.6741838821","0.2097963002","","","","","","","","","","75","K","2","","","220","main_expt",""
"","bandit","300","791264","0.0-262.0-0.0","99724236","wem/bandit_party_2","A1NLW5ZS2WQR35","either","6","1","","","","","","","1","0","0","0.6938787555","","0.6","0.4","0.8","0.2","","","","","0.325682353","0.37386253","0.6938787555","0.1761429423","","","","","","","","","","75","K","2","","","221","main_expt",""
"","bandit","301","792781","0.0-263.0-0.0","99724236","wem/bandit_party_2","A1NLW5ZS2WQR35","either","6","2","","","","","","","0","0","1","0.622086605","","0.6","0.4","0.8","0.2","","","","","0.3582518194","0.5460784034","0.622086605","0.1770547834","","","","","","","","","","75","K","2","","","222","main_expt",""
"","bandit","302","795051","0.0-264.0-0.0","99724236","wem/bandit_party_2","A1NLW5ZS2WQR35","either","6","755","","","","","","","0","1","0","","0.6190419158","0.6","0.4","0.8","0.2","0.3596631187","0.5484594206","0.6190419158","0.1494166006","","","","","","","","","","","","","","75","K","2","","","223","main_expt",""
"","bandit","303","796927","0.0-265.0-0.0","99724236","wem/bandit_party_2","A1NLW5ZS2WQR35","either","6","362","","","","","","","1","0","0","0.6525227655","","0.6","0.4","0.8","0.2","","","","","0.4757784632","0.5156266917","0.6525227655","0.1444184755","","","","","","","","","","75","K","2","","","224","main_expt",""
"","bandit","304","799009","0.0-266.0-0.0","99724236","wem/bandit_party_2","A1NLW5ZS2WQR35","either","6","566","","","","","","","1","0","0","0.5739960468","","0.6","0.4","0.8","0.2","","","","","0.5384710229","0.5120039273","0.5739960468","0.2381889698","","","","","","","","","","75","K","2","","","225","main_expt",""
"","bandit","305","800947","0.0-267.0-0.0","99724236","wem/bandit_party_2","A1NLW5ZS2WQR35","either","6","424","","","","","","","1","0","0","0.6038380469","","0.6","0.4","0.8","0.2","","","","","0.5308581489","0.5568413113","0.6038380469","0.1429230379","","","","","","","","","","75","K","2","","","226","main_expt",""
"","bandit","306","802749","0.0-268.0-0.0","99724236","wem/bandit_party_2","A1NLW5ZS2WQR35","either","6","288","","","","","","","0","0","1","","0.5203417309","0.6","0.4","0.8","0.2","0.488482713","0.5277183188","0.5203417309","0.124100867","","","","","","","","","","","","","","75","K","2","","","227","main_expt",""
"","bandit","307","804562","0.0-269.0-0.0","99724236","wem/bandit_party_2","A1NLW5ZS2WQR35","either","6","300","","","","","","","0","0","1","","0.4263922038","0.6","0.4","0.8","0.2","0.4406219513","0.5041270258","0.4263922038","0.1762219884","","","","","","","","","","","","","","75","K","2","","","228","main_expt",""
"","bandit","308","806315","0.0-270.0-0.0","99724236","wem/bandit_party_2","A1NLW5ZS2WQR35","either","6","238","","","","","","","1","0","0","0.3475105047","","0.6","0.4","0.8","0.2","","","","","0.4892119921","0.4541369304","0.3475105047","0.1910325121","","","","","","","","","","75","K","2","","","229","main_expt",""
"","bandit","309","807940","0.0-271.0-0.0","99724236","wem/bandit_party_2","A1NLW5ZS2WQR35","either","6","109","","","","","","","0","0","1","0.3353007417","","0.6","0.4","0.8","0.2","","","","","0.5129573662","0.4504381994","0.3353007417","0.2571549068","","","","","","","","","","75","K","2","","","230","main_expt",""
"","bandit","310","809683","0.0-272.0-0.0","99724236","wem/bandit_party_2","A1NLW5ZS2WQR35","either","6","228","","","","","","","0","0","1","0.2870546929","","0.6","0.4","0.8","0.2","","","","","0.4382888871","0.4698668598","0.2870546929","0.1781345747","","","","","","","","","","75","K","2","","","231","main_expt",""
"","bandit","311","811471","0.0-273.0-0.0","99724236","wem/bandit_party_2","A1NLW5ZS2WQR35","either","6","269","","","","","","","0","0","1","0.3092655517","","0.6","0.4","0.8","0.2","","","","","0.42174841","0.5460008395","0.3092655517","0.1748933913","","","","","","","","","","75","K","2","","","232","main_expt",""
"","bandit","312","813111","0.0-274.0-0.0","99724236","wem/bandit_party_2","A1NLW5ZS2WQR35","either","6","121","","","","","","","0","1","0","","0.4231157335","0.6","0.4","0.8","0.2","0.4297142637","0.5345299581","0.4231157335","0.2196371411","","","","","","","","","","","","","","75","K","2","","","233","main_expt",""
"","bandit","313","814665","0.0-275.0-0.0","99724236","wem/bandit_party_2","A1NLW5ZS2WQR35","either","6","32","","","","","","","0","0","1","0.5525929145","","0.6","0.4","0.8","0.2","","","","","0.3016140143","0.508060833","0.5525929145","0.2052749597","","","","","","","","","","75","K","2","","","234","main_expt",""
"","bandit","314","817370","0.0-276.0-0.0","99724236","wem/bandit_party_2","A1NLW5ZS2WQR35","either","6","1191","","","","","","","1","0","0","0.7239072418","","0.6","0.4","0.8","0.2","","","","","0.2735586703","0.4956589368","0.7239072418","0.3158924645","","","","","","","","","","75","K","2","","","235","main_expt",""
"","bandit","315","820533","0.0-277.0-0.0","99724236","wem/bandit_party_2","A1NLW5ZS2WQR35","either","6","1648","","","","","","","1","0","0","0.8076920848","","0.6","0.4","0.8","0.2","","","","","0.2536827631","0.5514737959","0.8076920848","0.3668106878","","","","","","","","","","75","K","2","","","236","main_expt",""
"","bandit","316","822381","0.0-278.0-0.0","99724236","wem/bandit_party_2","A1NLW5ZS2WQR35","either","6","335","","","","","","","1","0","0","0.7703095863","","0.6","0.4","0.8","0.2","","","","","0.2478783488","0.5183580196","0.7703095863","0.3866395083","","","","","","","","","","75","K","2","","","237","main_expt",""
"","bandit","317","824213","0.0-279.0-0.0","99724236","wem/bandit_party_2","A1NLW5ZS2WQR35","either","6","316","","","","","","","1","0","0","0.6485929649","","0.6","0.4","0.8","0.2","","","","","0.1688186905","0.5320509842","0.6485929649","0.4108821033","","","","","","","","","","75","K","2","","","238","main_expt",""
