"consent","trial_type","trial_index","time_elapsed","internal_node_id","subjID","study","MID","cond","drift","rt","responses","button_pressed","key_press","like","value","connected","gems","bombs","no_reward","GemPrChosen","BombPrChosen","GainOverPainPr_0","GainOverPainPr_1","GainOverPainPr_2","GainOverPainPr_3","LosePr_0","LosePr_1","LosePr_2","LosePr_3","WinPr_0","WinPr_1","WinPr_2","WinPr_3","Q0","Q1","Q2","gender","age","ethnicity","label","expt_phase","target","respCharCode","respKey","respChoiceNum","respChoice","practice","trial_counter","trial_label","Q0_index","view_history"
"GDM/GDM_behavioral_consent_30min_online.html","consent","0","80652","0.0-0.0","99764116","wem/bandit_party_2","A3KWM8WSJMGI45","either","4","","","","","","","","","","","","","","","","","","","","","","","","","","","","","","","","","","","","","","","","","",""
"","survey-text","1","90045","0.0-1.0","99764116","wem/bandit_party_2","A3KWM8WSJMGI45","either","4","8377","{""Q0"":""A3KWM8WSJMGI45""}","","","","","","","","","","","","","","","","","","","","","","","","","","","","","","","","","","","","","","","",""
"","button-response","2","92741","0.0-2.0","99764116","wem/bandit_party_2","A3KWM8WSJMGI45","either","4","1690","","1","","","","","","","","","","","","","","","","","","","","","","","","","","","","","","","","","","","","","","",""
"","text-replacement","3","102129","0.0-3.0","99764116","wem/bandit_party_2","A3KWM8WSJMGI45","either","4","8384","","","32","","","","","","","","","","","","","","","","","","","","","","","","","","","","","","","","","","","","","",""
"","text-replacement","4","120210","0.0-4.0","99764116","wem/bandit_party_2","A3KWM8WSJMGI45","either","4","18079","","","32","","","","","","","","","","","","","","","","","","","","","","","","","","","","","","","","","","","","","",""
"","identification","5","141867","0.0-6.0-0.0","99764116","wem/bandit_party_2","A3KWM8WSJMGI45","either","4","21641","","","","1","2","0","","","","","","","","","","","","","","","","","","","","","","","","pre","identification_pre","the Democratic Party","","","","","","","","",""
"","identification","6","149176","0.0-6.0-1.0","99764116","wem/bandit_party_2","A3KWM8WSJMGI45","either","4","6296","","","","0","0","0","","","","","","","","","","","","","","","","","","","","","","","","pre","identification_pre","the Republican Party","","","","","","","","",""
"","text-replacement","7","184754","0.0-7.0","99764116","wem/bandit_party_2","A3KWM8WSJMGI45","either","4","34576","","","32","","","","","","","","","","","","","","","","","","","","","","","","","","","","","","","","","","","","","",""
"","text-replacement","8","189713","0.0-8.0","99764116","wem/bandit_party_2","A3KWM8WSJMGI45","either","4","4954","","","32","","","","","","","","","","","","","","","","","","","","","","","","","","","","","","","","","","","","","",""
"","text-replacement","9","197525","0.0-9.0","99764116","wem/bandit_party_2","A3KWM8WSJMGI45","either","4","7809","","","32","","","","","","","","","","","","","","","","","","","","","","","","","","","","","","","","","","","","","",""
"","text-replacement","10","207507","0.0-10.0","99764116","wem/bandit_party_2","A3KWM8WSJMGI45","either","4","9979","","","32","","","","","","","","","","","","","","","","","","","","","","","","","","","","","","","","","","","","","",""
"","text-replacement","11","213583","0.0-11.0","99764116","wem/bandit_party_2","A3KWM8WSJMGI45","either","4","6074","","","32","","","","","","","","","","","","","","","","","","","","","","","","","","","","","","","","","","","","","",""
"","bandit","12","226872","0.0-12.0-0.0","99764116","wem/bandit_party_2","A3KWM8WSJMGI45","either","4","11779","","","","","","","0","0","1","0","0","","","","","0","","","","0","","","","","","","","","","","","","74","J","0","img/none_selected_demo.jpg","true","0","","",""
"","bandit","13","229066","0.0-13.0-0.0","99764116","wem/bandit_party_2","A3KWM8WSJMGI45","either","4","687","","","","","","","0","0","1","0","0","","","","","0","","","","0","","","","","","","","","","","","","75","K","0","img/none_selected_demo.jpg","true","0","","",""
"","text-replacement","14","233293","0.0-14.0","99764116","wem/bandit_party_2","A3KWM8WSJMGI45","either","4","4223","","","32","","","","","","","","","","","","","","","","","","","","","","","","","","","","","","","","","","","","","",""
"","text-replacement","15","238071","0.0-15.0","99764116","wem/bandit_party_2","A3KWM8WSJMGI45","either","4","4775","","","32","","","","","","","","","","","","","","","","","","","","","","","","","","","","","","","","","","","","","",""
"","text-replacement","16","263093","0.0-16.0","99764116","wem/bandit_party_2","A3KWM8WSJMGI45","either","4","25019","","","32","","","","","","","","","","","","","","","","","","","","","","","","","","","","","","","","","","","","","",""
"","text-replacement","17","266750","0.0-17.0","99764116","wem/bandit_party_2","A3KWM8WSJMGI45","either","4","3653","","","32","","","","","","","","","","","","","","","","","","","","","","","","","","","","","","","","","","","","","",""
"","bandit","18","273851","0.0-18.0-0.0","99764116","wem/bandit_party_2","A3KWM8WSJMGI45","either","4","5587","","","","","","","1","0","0","0.8","","0.5","0.5","","","","","","","0.8","0.2","","","","","","","","","","","","74","J","0","img/none_selected_demo.jpg","true","0","80_20_practice","",""
"","bandit","19","276289","0.0-18.0-1.0","99764116","wem/bandit_party_2","A3KWM8WSJMGI45","either","4","932","","","","","","","0","0","1","","0.2","0.5","0.5","","","0.8","0.2","","","","","","","","","","","","","","","","75","K","1","","true","0","80_20_practice","",""
"","bandit","20","278944","0.0-18.0-2.0","99764116","wem/bandit_party_2","A3KWM8WSJMGI45","either","4","1148","","","","","","","0","1","0","","0.8","0.5","0.5","","","0.8","0.2","","","","","","","","","","","","","","","","74","J","0","img/none_selected_demo.jpg","true","0","80_20_practice","",""
"","bandit","21","281858","0.0-18.0-3.0","99764116","wem/bandit_party_2","A3KWM8WSJMGI45","either","4","1407","","","","","","","0","0","1","0.2","","0.5","0.5","","","","","","","0.8","0.2","","","","","","","","","","","","75","K","1","","true","0","80_20_practice","",""
"","bandit","22","283795","0.0-18.0-4.0","99764116","wem/bandit_party_2","A3KWM8WSJMGI45","either","4","434","","","","","","","0","1","0","","0.8","0.5","0.5","","","0.8","0.2","","","","","","","","","","","","","","","","74","J","0","img/none_selected_demo.jpg","true","0","80_20_practice","",""
"","bandit","23","285908","0.0-18.0-5.0","99764116","wem/bandit_party_2","A3KWM8WSJMGI45","either","4","605","","","","","","","0","0","1","0.2","","0.5","0.5","","","","","","","0.8","0.2","","","","","","","","","","","","75","K","1","","true","0","80_20_practice","",""
"","bandit","24","287775","0.0-18.0-6.0","99764116","wem/bandit_party_2","A3KWM8WSJMGI45","either","4","361","","","","","","","0","0","1","","0.2","0.5","0.5","","","0.8","0.2","","","","","","","","","","","","","","","","75","K","1","","true","0","80_20_practice","",""
"","bandit","25","289459","0.0-18.0-7.0","99764116","wem/bandit_party_2","A3KWM8WSJMGI45","either","4","174","","","","","","","0","0","1","0.2","","0.5","0.5","","","","","","","0.8","0.2","","","","","","","","","","","","75","K","1","","true","0","80_20_practice","",""
"","bandit","26","291389","0.0-18.0-8.0","99764116","wem/bandit_party_2","A3KWM8WSJMGI45","either","4","423","","","","","","","0","0","1","","0.2","0.5","0.5","","","0.8","0.2","","","","","","","","","","","","","","","","75","K","1","","true","0","80_20_practice","",""
"","bandit","27","293808","0.0-18.0-9.0","99764116","wem/bandit_party_2","A3KWM8WSJMGI45","either","4","912","","","","","","","0","0","1","0.2","","0.5","0.5","","","","","","","0.8","0.2","","","","","","","","","","","","75","K","1","","true","0","80_20_practice","",""
"","bandit","28","295930","0.0-18.0-10.0","99764116","wem/bandit_party_2","A3KWM8WSJMGI45","either","4","613","","","","","","","0","0","1","","0.2","0.5","0.5","","","0.8","0.2","","","","","","","","","","","","","","","","75","K","1","","true","0","80_20_practice","",""
"","bandit","29","298031","0.0-18.0-11.0","99764116","wem/bandit_party_2","A3KWM8WSJMGI45","either","4","589","","","","","","","0","0","1","0.2","","0.5","0.5","","","","","","","0.8","0.2","","","","","","","","","","","","75","K","1","","true","0","80_20_practice","",""
"","bandit","30","300058","0.0-18.0-12.0","99764116","wem/bandit_party_2","A3KWM8WSJMGI45","either","4","518","","","","","","","0","0","1","0.2","","0.5","0.5","","","","","","","0.8","0.2","","","","","","","","","","","","75","K","1","","true","0","80_20_practice","",""
"","bandit","31","301878","0.0-18.0-13.0","99764116","wem/bandit_party_2","A3KWM8WSJMGI45","either","4","312","","","","","","","0","0","1","","0.2","0.5","0.5","","","0.8","0.2","","","","","","","","","","","","","","","","75","K","1","","true","0","80_20_practice","",""
"","bandit","32","312228","0.0-18.0-14.0","99764116","wem/bandit_party_2","A3KWM8WSJMGI45","either","4","8844","","","","","","","0","1","0","","0.8","0.5","0.5","","","0.8","0.2","","","","","","","","","","","","","","","","74","J","0","img/none_selected_demo.jpg","true","0","80_20_practice","",""
"","bandit","33","314467","0.0-18.0-15.0","99764116","wem/bandit_party_2","A3KWM8WSJMGI45","either","4","728","","","","","","","1","0","0","0.8","","0.5","0.5","","","","","","","0.8","0.2","","","","","","","","","","","","74","J","0","img/none_selected_demo.jpg","true","0","80_20_practice","",""
"","bandit","34","316548","0.0-18.0-16.0","99764116","wem/bandit_party_2","A3KWM8WSJMGI45","either","4","572","","","","","","","1","0","0","0.8","","0.5","0.5","","","","","","","0.8","0.2","","","","","","","","","","","","74","J","0","img/none_selected_demo.jpg","true","0","80_20_practice","",""
"","bandit","35","318984","0.0-18.0-17.0","99764116","wem/bandit_party_2","A3KWM8WSJMGI45","either","4","926","","","","","","","1","0","0","0.8","","0.5","0.5","","","","","","","0.8","0.2","","","","","","","","","","","","74","J","0","img/none_selected_demo.jpg","true","0","80_20_practice","",""
"","bandit","36","323374","0.0-18.0-18.0","99764116","wem/bandit_party_2","A3KWM8WSJMGI45","either","4","2882","","","","","","","0","1","0","","0.8","0.5","0.5","","","0.8","0.2","","","","","","","","","","","","","","","","74","J","0","img/none_selected_demo.jpg","true","0","80_20_practice","",""
"","bandit","37","325441","0.0-18.0-19.0","99764116","wem/bandit_party_2","A3KWM8WSJMGI45","either","4","561","","","","","","","1","0","0","0.8","","0.5","0.5","","","","","","","0.8","0.2","","","","","","","","","","","","74","J","0","img/none_selected_demo.jpg","true","0","80_20_practice","",""
"","text-replacement","38","331840","0.0-19.0","99764116","wem/bandit_party_2","A3KWM8WSJMGI45","either","4","6396","","","32","","","","","","","","","","","","","","","","","","","","","","","","","","","","","","","","","","","","","",""
"","bandit","39","334973","0.0-20.0-0.0","99764116","wem/bandit_party_2","A3KWM8WSJMGI45","either","4","1625","","","","","","","1","0","0","1","0","","","","","0","1","","","1","0","","","","","","","","","","","","74","J","0","img/none_selected_demo.jpg","true","0","","",""
"","text-replacement","40","336786","0.0-21.0","99764116","wem/bandit_party_2","A3KWM8WSJMGI45","either","4","1809","","","175","","","","","","","","","","","","","","","","","","","","","","","","","","","","","","","","","","","","","",""
"","text-replacement","41","340656","0.0-22.0","99764116","wem/bandit_party_2","A3KWM8WSJMGI45","either","4","3866","","","32","","","","","","","","","","","","","","","","","","","","","","","","","","","","","","","","","","","","","",""
"","text-replacement","42","343626","0.0-23.0","99764116","wem/bandit_party_2","A3KWM8WSJMGI45","either","4","2966","","","32","","","","","","","","","","","","","","","","","","","","","","","","","","","","","","","","","","","","","",""
"","text-replacement","43","344975","0.0-24.0","99764116","wem/bandit_party_2","A3KWM8WSJMGI45","either","4","1346","","","32","","","","","","","","","","","","","","","","","","","","","","","","","","","","","","","","","","","","","",""
"","text-replacement","44","347527","0.0-25.0","99764116","wem/bandit_party_2","A3KWM8WSJMGI45","either","4","2549","","","32","","","","","","","","","","","","","","","","","","","","","","","","","","","","","","","","","","","","","",""
"","text-replacement","45","351836","0.0-26.0","99764116","wem/bandit_party_2","A3KWM8WSJMGI45","either","4","4305","","","32","","","","","","","","","","","","","","","","","","","","","","","","","","","","","","","","","","","","","",""
"","text-replacement","46","356090","0.0-27.0","99764116","wem/bandit_party_2","A3KWM8WSJMGI45","either","4","4252","","","32","","","","","","","","","","","","","","","","","","","","","","","","","","","","","","","","","","","","","",""
"","text-replacement","47","363978","0.0-28.0","99764116","wem/bandit_party_2","A3KWM8WSJMGI45","either","4","7884","","","32","","","","","","","","","","","","","","","","","","","","","","","","","","","","","","","","","","","","","",""
"","text-replacement","48","367590","0.0-29.0","99764116","wem/bandit_party_2","A3KWM8WSJMGI45","either","4","3610","","","32","","","","","","","","","","","","","","","","","","","","","","","","","","","","","","","","","","","","","",""
"","text-replacement","49","370262","0.0-30.0","99764116","wem/bandit_party_2","A3KWM8WSJMGI45","either","4","2669","","","32","","","","","","","","","","","","","","","","","","","","","","","","","","","","","","","","","","","","","",""
"","text-replacement","50","377946","0.0-31.0","99764116","wem/bandit_party_2","A3KWM8WSJMGI45","either","4","7682","","","32","","","","","","","","","","","","","","","","","","","","","","","","","","","","","","","","","","","","","",""
"","bandit","51","390096","0.0-32.0-0.0","99764116","wem/bandit_party_2","A3KWM8WSJMGI45","either","4","10644","","","","","","","1","0","0","0.8","","0.5","0.5","0.5","0.5","","","","","0.8","0.2","0.6","0.2","","","","","","","","","","72","H","0","img/none_selected.jpg","true","0","full_practice","",""
"","bandit","52","392054","0.0-32.0-1.0","99764116","wem/bandit_party_2","A3KWM8WSJMGI45","either","4","450","","","","","","","1","0","0","0.2","","0.5","0.5","0.5","0.5","","","","","0.8","0.2","0.6","0.2","","","","","","","","","","74","J","1","","true","0","full_practice","",""
"","bandit","53","394010","0.0-32.0-2.0","99764116","wem/bandit_party_2","A3KWM8WSJMGI45","either","4","445","","","","","","","1","0","0","0.6","","0.5","0.5","0.5","0.5","","","","","0.8","0.2","0.6","0.2","","","","","","","","","","75","K","2","","true","0","full_practice","",""
"","bandit","54","396146","0.0-32.0-3.0","99764116","wem/bandit_party_2","A3KWM8WSJMGI45","either","4","626","","","","","","","0","0","1","","0.2","0.5","0.5","0.5","0.5","0.8","0.2","0.6","0.2","","","","","","","","","","","","","","76","L","3","","true","0","full_practice","",""
"","bandit","55","399280","0.0-32.0-4.0","99764116","wem/bandit_party_2","A3KWM8WSJMGI45","either","4","1627","","","","","","","1","0","0","0.8","","0.5","0.5","0.5","0.5","","","","","0.8","0.2","0.6","0.2","","","","","","","","","","72","H","0","img/none_selected.jpg","true","0","full_practice","",""
"","bandit","56","401283","0.0-32.0-5.0","99764116","wem/bandit_party_2","A3KWM8WSJMGI45","either","4","485","","","","","","","0","0","1","","0.2","0.5","0.5","0.5","0.5","0.8","0.2","0.6","0.2","","","","","","","","","","","","","","74","J","1","","true","0","full_practice","",""
"","bandit","57","402830","0.0-32.0-6.0","99764116","wem/bandit_party_2","A3KWM8WSJMGI45","either","4","37","","","","","","","0","1","0","","0.8","0.5","0.5","0.5","0.5","0.8","0.2","0.6","0.2","","","","","","","","","","","","","","72","H","0","img/none_selected.jpg","true","0","full_practice","",""
"","bandit","58","404958","0.0-32.0-7.0","99764116","wem/bandit_party_2","A3KWM8WSJMGI45","either","4","619","","","","","","","0","0","1","0.2","","0.5","0.5","0.5","0.5","","","","","0.8","0.2","0.6","0.2","","","","","","","","","","76","L","3","","true","0","full_practice","",""
"","bandit","59","406764","0.0-32.0-8.0","99764116","wem/bandit_party_2","A3KWM8WSJMGI45","either","4","297","","","","","","","0","0","1","","0.2","0.5","0.5","0.5","0.5","0.8","0.2","0.6","0.2","","","","","","","","","","","","","","76","L","3","","true","0","full_practice","",""
"","bandit","60","408727","0.0-32.0-9.0","99764116","wem/bandit_party_2","A3KWM8WSJMGI45","either","4","457","","","","","","","0","0","1","","0.2","0.5","0.5","0.5","0.5","0.8","0.2","0.6","0.2","","","","","","","","","","","","","","74","J","1","","true","0","full_practice","",""
"","bandit","61","410328","0.0-32.0-10.0","99764116","wem/bandit_party_2","A3KWM8WSJMGI45","either","4","89","","","","","","","1","0","0","0.8","","0.5","0.5","0.5","0.5","","","","","0.8","0.2","0.6","0.2","","","","","","","","","","72","H","0","img/none_selected.jpg","true","0","full_practice","",""
"","bandit","62","412416","0.0-32.0-11.0","99764116","wem/bandit_party_2","A3KWM8WSJMGI45","either","4","580","","","","","","","0","0","1","","0.2","0.5","0.5","0.5","0.5","0.8","0.2","0.6","0.2","","","","","","","","","","","","","","76","L","3","","true","0","full_practice","",""
"","bandit","63","414390","0.0-32.0-12.0","99764116","wem/bandit_party_2","A3KWM8WSJMGI45","either","4","469","","","","","","","0","0","1","","0.6","0.5","0.5","0.5","0.5","0.8","0.2","0.6","0.2","","","","","","","","","","","","","","75","K","2","","true","0","full_practice","",""
"","bandit","64","416113","0.0-32.0-13.0","99764116","wem/bandit_party_2","A3KWM8WSJMGI45","either","4","216","","","","","","","1","0","0","0.8","","0.5","0.5","0.5","0.5","","","","","0.8","0.2","0.6","0.2","","","","","","","","","","72","H","0","img/none_selected.jpg","true","0","full_practice","",""
"","bandit","65","417907","0.0-32.0-14.0","99764116","wem/bandit_party_2","A3KWM8WSJMGI45","either","4","282","","","","","","","0","0","1","","0.2","0.5","0.5","0.5","0.5","0.8","0.2","0.6","0.2","","","","","","","","","","","","","","74","J","1","","true","0","full_practice","",""
"","bandit","66","420309","0.0-32.0-15.0","99764116","wem/bandit_party_2","A3KWM8WSJMGI45","either","4","889","","","","","","","1","0","0","0.8","","0.5","0.5","0.5","0.5","","","","","0.8","0.2","0.6","0.2","","","","","","","","","","72","H","0","img/none_selected.jpg","true","0","full_practice","",""
"","bandit","67","422793","0.0-32.0-16.0","99764116","wem/bandit_party_2","A3KWM8WSJMGI45","either","4","974","","","","","","","0","0","1","","0.2","0.5","0.5","0.5","0.5","0.8","0.2","0.6","0.2","","","","","","","","","","","","","","74","J","1","","true","0","full_practice","",""
"","bandit","68","424532","0.0-32.0-17.0","99764116","wem/bandit_party_2","A3KWM8WSJMGI45","either","4","232","","","","","","","0","1","0","","0.6","0.5","0.5","0.5","0.5","0.8","0.2","0.6","0.2","","","","","","","","","","","","","","75","K","2","","true","0","full_practice","",""
"","bandit","69","426103","0.0-32.0-18.0","99764116","wem/bandit_party_2","A3KWM8WSJMGI45","either","4","64","","","","","","","0","0","1","","0.2","0.5","0.5","0.5","0.5","0.8","0.2","0.6","0.2","","","","","","","","","","","","","","76","L","3","","true","0","full_practice","",""
"","bandit","70","428351","0.0-32.0-19.0","99764116","wem/bandit_party_2","A3KWM8WSJMGI45","either","4","735","","","","","","","1","0","0","0.8","","0.5","0.5","0.5","0.5","","","","","0.8","0.2","0.6","0.2","","","","","","","","","","72","H","0","img/none_selected.jpg","true","0","full_practice","",""
"","text","71","430726","0.0-33.0","99764116","wem/bandit_party_2","A3KWM8WSJMGI45","either","4","2357","","","32","","","","","","","","","","","","","","","","","","","","","","","","","","","","","","","","","","","","","",""
"","text-replacement","72","443130","0.0-34.0","99764116","wem/bandit_party_2","A3KWM8WSJMGI45","either","4","11400","","","32","","","","","","","","","","","","","","","","","","","","","","","","","","","","","","","","","","","","","",""
"","text-replacement","73","450986","0.0-35.0","99764116","wem/bandit_party_2","A3KWM8WSJMGI45","either","4","7851","","","32","","","","","","","","","","","","","","","","","","","","","","","","","","","","","","","","","","","","","",""
"","text-replacement","74","455017","0.0-36.0","99764116","wem/bandit_party_2","A3KWM8WSJMGI45","either","4","4024","","","32","","","","","","","","","","","","","","","","","","","","","","","","","","","","","","","","","","","","","",""
"","text-replacement","75","458110","0.0-37.0","99764116","wem/bandit_party_2","A3KWM8WSJMGI45","either","4","3090","","","32","","","","","","","","","","","","","","","","","","","","","","","","","","","","","","","","","","","","","",""
"","text-replacement","76","460866","0.0-38.0","99764116","wem/bandit_party_2","A3KWM8WSJMGI45","either","4","2753","","","32","","","","","","","","","","","","","","","","","","","","","","","","","","","","","","","","","","","","","",""
"","survey-multi-choice-replacement","77","466090","0.0-39.0-0.0","99764116","wem/bandit_party_2","A3KWM8WSJMGI45","either","4","5214","","","","","","","","","","","","","","","","","","","","","","","","Money will be added to the pool for <span style='color:blue;'>DEMOCRATS</span>","","","","","","","attn_check","","","","","","","","","0",""
"","survey-multi-choice-replacement","78","492395","0.0-40.0-0.0","99764116","wem/bandit_party_2","A3KWM8WSJMGI45","either","4","25293","","","","","","","","","","","","","","","","","","","","","","","","Money will be subtracted from the pool for <span style='color:red;'>REPUBLICANS</span>","","","","","","","attn_check","","","","","","","","","1",""
"","instructions","79","494938","0.0-40.0-1.0-0.0","99764116","wem/bandit_party_2","A3KWM8WSJMGI45","either","4","1538","","","","","","","","","","","","","","","","","","","","","","","","","","","","","","","","","","","","","","","","","[{""page_index"":0,""viewing_time"":1538}]"
"","survey-multi-choice-replacement","80","502729","0.0-40.1-0.1","99764116","wem/bandit_party_2","A3KWM8WSJMGI45","either","4","6777","","","","","","","","","","","","","","","","","","","","","","","","No money will be added to either pool","","","","","","","attn_check","","","","","","","","","3",""
"","instructions","81","504706","0.0-40.1-1.1-0.1","99764116","wem/bandit_party_2","A3KWM8WSJMGI45","either","4","971","","","","","","","","","","","","","","","","","","","","","","","","","","","","","","","","","","","","","","","","","[{""page_index"":0,""viewing_time"":971}]"
"","survey-multi-choice-replacement","82","511397","0.0-40.2-0.2","99764116","wem/bandit_party_2","A3KWM8WSJMGI45","either","4","5679","","","","","","","","","","","","","","","","","","","","","","","","Equal amounts of money will be added to the pool for <span style='color:blue;'>DEMOCRATS</span> and subtracted from the pool for <span style='color:red;'>REPUBLICANS</span>","","","","","","","attn_check","","","","","","","","","2",""
"","survey-multi-choice-replacement","83","546875","0.0-41.0-0.0","99764116","wem/bandit_party_2","A3KWM8WSJMGI45","either","4","34464","","","","","","","","","","","","","","","","","","","","","","","","No money will be added to either pool","","","","","","","attn_check","","","","","","","","","3",""
"","bandit","84","552301","0.0-42.0-0.0","99764116","wem/bandit_party_2","A3KWM8WSJMGI45","either","4","2911","","","","","","","1","0","0","0.7267404998","","0.2","0.8","0.6","0.4","","","","","0.7267404998","0.2887693562","0.9858900825","0.8209843215","","","","","","","","","","72","H","0","img/none_selected.jpg","","1","main_expt","",""
"","bandit","85","557698","0.0-43.0-0.0","99764116","wem/bandit_party_2","A3KWM8WSJMGI45","either","4","3883","","","","","","","0","1","0","","0.7034907646","0.2","0.8","0.6","0.4","0.7034907646","0.2986217167","0.9854924354","0.8179122382","","","","","","","","","","","","","","72","H","0","img/none_selected.jpg","","2","main_expt","",""
"","bandit","86","560557","0.0-44.0-0.0","99764116","wem/bandit_party_2","A3KWM8WSJMGI45","either","4","1340","","","","","","","0","1","0","","0.6574847675","0.2","0.8","0.6","0.4","0.6574847675","0.261346942","0.9789624529","0.8301291561","","","","","","","","","","","","","","72","H","0","img/none_selected.jpg","","3","main_expt","",""
"","bandit","87","562546","0.0-45.0-0.0","99764116","wem/bandit_party_2","A3KWM8WSJMGI45","either","4","479","","","","","","","0","1","0","","0.9565345184","0.2","0.8","0.6","0.4","0.5092805277","0.2757740293","0.9565345184","0.8219157537","","","","","","","","","","","","","","75","K","2","","","4","main_expt","",""
"","bandit","88","565876","0.0-46.0-0.0","99764116","wem/bandit_party_2","A3KWM8WSJMGI45","either","4","1819","","","","","","","0","1","0","","0.3329857669","0.2","0.8","0.6","0.4","0.5952926025","0.3329857669","0.941194936","0.7759220463","","","","","","","","","","","","","","74","J","1","","","5","main_expt","",""
"","bandit","89","568321","0.0-47.0-0.0","99764116","wem/bandit_party_2","A3KWM8WSJMGI45","either","4","937","","","","","","","0","1","0","","0.6160758637","0.2","0.8","0.6","0.4","0.6160758637","0.331878758","0.9305219143","0.7495930044","","","","","","","","","","","","","","72","H","0","img/none_selected.jpg","","6","main_expt","",""
"","bandit","90","572976","0.0-48.0-0.0","99764116","wem/bandit_party_2","A3KWM8WSJMGI45","either","4","3145","","","","","","","1","0","0","0.7078030286","","0.2","0.8","0.6","0.4","","","","","0.6381806331","0.3863389794","0.937738562","0.7078030286","","","","","","","","","","76","L","3","","","7","main_expt","",""
"","bandit","91","575854","0.0-49.0-0.0","99764116","wem/bandit_party_2","A3KWM8WSJMGI45","either","4","1367","","","","","","","1","0","0","0.689407674","","0.2","0.8","0.6","0.4","","","","","0.7047831713","0.4242016385","0.8269671957","0.689407674","","","","","","","","","","76","L","3","","","8","main_expt","",""
"","bandit","92","578390","0.0-50.0-0.0","99764116","wem/bandit_party_2","A3KWM8WSJMGI45","either","4","1026","","","","","","","0","1","0","","0.6222923336","0.2","0.8","0.6","0.4","0.6222923336","0.379169242","0.7696709776","0.7848236408","","","","","","","","","","","","","","72","H","0","img/none_selected.jpg","","9","main_expt","",""
"","bandit","93","580267","0.0-51.0-0.0","99764116","wem/bandit_party_2","A3KWM8WSJMGI45","either","4","362","","","","","","","0","1","0","","0.791363481","0.2","0.8","0.6","0.4","0.5629201009","0.40569916","0.7313552403","0.791363481","","","","","","","","","","","","","","76","L","3","","","10","main_expt","",""
"","bandit","94","582842","0.0-52.0-0.0","99764116","wem/bandit_party_2","A3KWM8WSJMGI45","either","4","1067","","","","","","","0","0","1","0.4188021694","","0.2","0.8","0.6","0.4","","","","","0.644159789","0.4188021694","0.8129169819","0.7800632456","","","","","","","","","","74","J","1","","","11","main_expt","",""
"","bandit","95","585421","0.0-53.0-0.0","99764116","wem/bandit_party_2","A3KWM8WSJMGI45","either","4","1071","","","","","","","0","0","1","0.3689559917","","0.2","0.8","0.6","0.4","","","","","0.6840372722","0.3689559917","0.7611571711","0.7559884596","","","","","","","","","","74","J","1","","","12","main_expt","",""
"","bandit","96","587551","0.0-54.0-0.0","99764116","wem/bandit_party_2","A3KWM8WSJMGI45","either","4","616","","","","","","","0","0","1","","0.6236151953","0.2","0.8","0.6","0.4","0.6236151953","0.4584943612","0.7628417147","0.7695577991","","","","","","","","","","","","","","72","H","0","img/none_selected.jpg","","13","main_expt","",""
"","bandit","97","591500","0.0-55.0-0.0","99764116","wem/bandit_party_2","A3KWM8WSJMGI45","either","4","2440","","","","","","","0","1","0","","0.8509931145","0.2","0.8","0.6","0.4","0.5388331182","0.455083938","0.7436451733","0.8509931145","","","","","","","","","","","","","","76","L","3","","","14","main_expt","",""
"","bandit","98","593902","0.0-56.0-0.0","99764116","wem/bandit_party_2","A3KWM8WSJMGI45","either","4","894","","","","","","","0","1","0","","0.8256008488","0.2","0.8","0.6","0.4","0.4802769188","0.5360112786","0.8256008488","0.7745856811","","","","","","","","","","","","","","75","K","2","","","15","main_expt","",""
"","bandit","99","596364","0.0-57.0-0.0","99764116","wem/bandit_party_2","A3KWM8WSJMGI45","either","4","944","","","","","","","0","0","1","0.4791571541","","0.2","0.8","0.6","0.4","","","","","0.4688000192","0.4791571541","0.7683027423","0.7576521113","","","","","","","","","","74","J","1","","","16","main_expt","",""
"","bandit","100","599734","0.0-58.0-0.0","99764116","wem/bandit_party_2","A3KWM8WSJMGI45","either","4","1855","","","","","","","0","0","1","","0.5263630166","0.2","0.8","0.6","0.4","0.6000602573","0.5263630166","0.7857675768","0.8099558365","","","","","","","","","","","","","","74","J","1","","","17","main_expt","",""
"","bandit","101","601718","0.0-59.0-0.0","99764116","wem/bandit_party_2","A3KWM8WSJMGI45","either","4","476","","","","","","","0","0","1","","0.6046592687","0.2","0.8","0.6","0.4","0.6046592687","0.543945959","0.7303419725","0.7535280451","","","","","","","","","","","","","","72","H","0","img/none_selected.jpg","","18","main_expt","",""
"","bandit","102","603495","0.0-60.0-0.0","99764116","wem/bandit_party_2","A3KWM8WSJMGI45","either","4","269","","","","","","","1","0","0","0.7243255268","","0.2","0.8","0.6","0.4","","","","","0.6177236116","0.4579801682","0.7243255268","0.7206444799","","","","","","","","","","75","K","2","","","19","main_expt","",""
"","bandit","103","606743","0.0-61.0-0.0","99764116","wem/bandit_party_2","A3KWM8WSJMGI45","either","4","1734","","","","","","","1","0","0","0.7691283854","","0.2","0.8","0.6","0.4","","","","","0.5484637992","0.5439896582","0.7691283854","0.6388551968","","","","","","","","","","75","K","2","","","20","main_expt","",""
"","bandit","104","609794","0.0-62.0-0.0","99764116","wem/bandit_party_2","A3KWM8WSJMGI45","either","4","1543","","","","","","","0","0","1","0.7068464658","","0.2","0.8","0.6","0.4","","","","","0.6646151354","0.5796019833","0.7068464658","0.4956822649","","","","","","","","","","75","K","2","","","21","main_expt","",""
"","bandit","105","611827","0.0-63.0-0.0","99764116","wem/bandit_party_2","A3KWM8WSJMGI45","either","4","524","","","","","","","0","0","1","","0.4316307404","0.2","0.8","0.6","0.4","0.7223938077","0.5885929095","0.7407239748","0.4316307404","","","","","","","","","","","","","","76","L","3","","","22","main_expt","",""
"","bandit","106","614029","0.0-64.0-0.0","99764116","wem/bandit_party_2","A3KWM8WSJMGI45","either","4","688","","","","","","","0","1","0","","0.7548690184","0.2","0.8","0.6","0.4","0.7548690184","0.4899642796","0.7300920021","0.4158022912","","","","","","","","","","","","","","72","H","0","img/none_selected.jpg","","23","main_expt","",""
"","bandit","107","616092","0.0-65.0-0.0","99764116","wem/bandit_party_2","A3KWM8WSJMGI45","either","4","551","","","","","","","1","0","0","0.4984159311","","0.2","0.8","0.6","0.4","","","","","0.7794954679","0.4984159311","0.7074307303","0.4099928258","","","","","","","","","","74","J","1","","","24","main_expt","",""
"","bandit","108","623193","0.0-66.0-0.0","99764116","wem/bandit_party_2","A3KWM8WSJMGI45","either","4","5593","","","","","","","1","0","0","0.5885503773","","0.2","0.8","0.6","0.4","","","","","0.8029664172","0.5885503773","0.6228099684","0.4303724308","","","","","","","","","","74","J","1","","","25","main_expt","",""
"","bandit","109","694821","0.0-67.0-0.0","99764116","wem/bandit_party_2","A3KWM8WSJMGI45","either","4","70109","","","","","","","0","0","1","","0.6980766755","0.2","0.8","0.6","0.4","0.6980766755","0.6978100054","0.5588879168","0.3291624114","","","","","","","","","","","","","","72","H","0","img/none_selected.jpg","","26","main_expt","",""
"","bandit","110","696900","0.0-68.0-0.0","99764116","wem/bandit_party_2","A3KWM8WSJMGI45","either","4","574","","","","","","","1","0","0","0.6442468271","","0.2","0.8","0.6","0.4","","","","","0.7021498626","0.6442468271","0.5033257713","0.3795789415","","","","","","","","","","74","J","1","","","27","main_expt","",""
"","bandit","111","701602","0.0-69.0-0.0","99764116","wem/bandit_party_2","A3KWM8WSJMGI45","either","4","3193","","","","","","","1","0","0","0.7399213538","","0.2","0.8","0.6","0.4","","","","","0.7802436781","0.7399213538","0.4915102133","0.3208573938","","","","","","","","","","74","J","1","","","28","main_expt","",""
"","bandit","112","705944","0.0-70.0-0.0","99764116","wem/bandit_party_2","A3KWM8WSJMGI45","either","4","2831","","","","","","","1","0","0","0.7520253205","","0.2","0.8","0.6","0.4","","","","","0.6907923131","0.7520253205","0.4291187576","0.3352919619","","","","","","","","","","74","J","1","","","29","main_expt","",""
"","bandit","113","709323","0.0-71.0-0.0","99764116","wem/bandit_party_2","A3KWM8WSJMGI45","either","4","1868","","","","","","","0","0","1","","0.5379907803","0.2","0.8","0.6","0.4","0.6771306444","0.7528469829","0.5379907803","0.3452717309","","","","","","","","","","","","","","75","K","2","","","30","main_expt","",""
"","bandit","114","711594","0.0-72.0-0.0","99764116","wem/bandit_party_2","A3KWM8WSJMGI45","either","4","755","","","","","","","1","0","0","0.7571908429","","0.2","0.8","0.6","0.4","","","","","0.7130915948","0.7571908429","0.646046857","0.2967094522","","","","","","","","","","74","J","1","","","31","main_expt","",""
"","bandit","115","721349","0.0-73.0-0.0","99764116","wem/bandit_party_2","A3KWM8WSJMGI45","either","4","8247","","","","","","","0","1","0","","0.7530934884","0.2","0.8","0.6","0.4","0.6849190202","0.7530934884","0.5608885347","0.255781972","","","","","","","","","","","","","","74","J","1","","","32","main_expt","",""
"","bandit","116","723477","0.0-74.0-0.0","99764116","wem/bandit_party_2","A3KWM8WSJMGI45","either","4","619","","","","","","","0","1","0","","0.5952322697","0.2","0.8","0.6","0.4","0.7392612035","0.7163673585","0.5952322697","0.2703771925","","","","","","","","","","","","","","75","K","2","","","33","main_expt","",""
"","bandit","117","727051","0.0-75.0-0.0","99764116","wem/bandit_party_2","A3KWM8WSJMGI45","either","4","2063","","","","","","","0","1","0","","0.7026009082","0.2","0.8","0.6","0.4","0.7026009082","0.6817248107","0.6206609301","0.3572673824","","","","","","","","","","","","","","72","H","0","img/none_selected.jpg","","34","main_expt","",""
"","bandit","118","729189","0.0-76.0-0.0","99764116","wem/bandit_party_2","A3KWM8WSJMGI45","either","4","621","","","","","","","0","0","1","0.3237575066","","0.2","0.8","0.6","0.4","","","","","0.632003728","0.6903641832","0.6223058769","0.3237575066","","","","","","","","","","76","L","3","","","35","main_expt","",""
"","bandit","119","731370","0.0-77.0-0.0","99764116","wem/bandit_party_2","A3KWM8WSJMGI45","either","4","673","","","","","","","1","0","0","0.6953747248","","0.2","0.8","0.6","0.4","","","","","0.7266912659","0.6953747248","0.7304722347","0.3724209237","","","","","","","","","","74","J","1","","","36","main_expt","",""
"","bandit","120","735176","0.0-78.0-0.0","99764116","wem/bandit_party_2","A3KWM8WSJMGI45","either","4","2297","","","","","","","1","0","0","0.7552078918","","0.2","0.8","0.6","0.4","","","","","0.5512211225","0.7552078918","0.6789706255","0.3848591071","","","","","","","","","","74","J","1","","","37","main_expt","",""
"","bandit","121","738816","0.0-79.0-0.0","99764116","wem/bandit_party_2","A3KWM8WSJMGI45","either","4","2127","","","","","","","1","0","0","0.7095976639","","0.2","0.8","0.6","0.4","","","","","0.5888446875","0.7095976639","0.6758320082","0.4026628424","","","","","","","","","","74","J","1","","","38","main_expt","",""
"","bandit","122","741228","0.0-80.0-0.0","99764116","wem/bandit_party_2","A3KWM8WSJMGI45","either","4","905","","","","","","","0","1","0","","0.753286291","0.2","0.8","0.6","0.4","0.7349010221","0.7813817897","0.753286291","0.460229008","","","","","","","","","","","","","","75","K","2","","","39","main_expt","",""
"","bandit","123","744067","0.0-81.0-0.0","99764116","wem/bandit_party_2","A3KWM8WSJMGI45","either","4","1330","","","","","","","1","0","0","0.7604460558","","0.2","0.8","0.6","0.4","","","","","0.6715391024","0.7604460558","0.7527041006","0.3392787789","","","","","","","","","","74","J","1","","","40","main_expt","",""
"","bandit","124","749323","0.0-82.0-0.0","99764116","wem/bandit_party_2","A3KWM8WSJMGI45","either","4","3742","","","","","","","1","0","0","0.7588214983","","0.2","0.8","0.6","0.4","","","","","0.688235262","0.7588214983","0.7900808451","0.2983701942","","","","","","","","","","74","J","1","","","41","main_expt","",""
"","bandit","125","755095","0.0-83.0-0.0","99764116","wem/bandit_party_2","A3KWM8WSJMGI45","either","4","4258","","","","","","","1","0","0","0.8204813903","","0.2","0.8","0.6","0.4","","","","","0.750516412","0.8204813903","0.7261157662","0.2390858253","","","","","","","","","","74","J","1","","","42","main_expt","",""
"","bandit","126","760234","0.0-84.0-0.0","99764116","wem/bandit_party_2","A3KWM8WSJMGI45","either","4","3627","","","","","","","1","0","0","0.8310219988","","0.2","0.8","0.6","0.4","","","","","0.775378891","0.8310219988","0.772887471","0.1877526289","","","","","","","","","","74","J","1","","","43","main_expt","",""
"","bandit","127","767523","0.0-85.0-0.0","99764116","wem/bandit_party_2","A3KWM8WSJMGI45","either","4","5772","","","","","","","1","0","0","0.8165903167","","0.2","0.8","0.6","0.4","","","","","0.5983035632","0.8165903167","0.7359848823","0.2713877418","","","","","","","","","","74","J","1","","","44","main_expt","",""
"","bandit","128","771446","0.0-86.0-0.0","99764116","wem/bandit_party_2","A3KWM8WSJMGI45","either","4","2407","","","","","","","1","0","0","0.6765015189","","0.2","0.8","0.6","0.4","","","","","0.6453890447","0.6765015189","0.6223954065","0.2600408605","","","","","","","","","","74","J","1","","","45","main_expt","",""
"","bandit","129","774744","0.0-87.0-0.0","99764116","wem/bandit_party_2","A3KWM8WSJMGI45","either","4","1790","","","","","","","0","0","1","0.6613510417","","0.2","0.8","0.6","0.4","","","","","0.4979639723","0.6613510417","0.5963379238","0.2435580982","","","","","","","","","","74","J","1","","","46","main_expt","",""
"","bandit","130","776291","0.0-88.0-0.0","99764116","wem/bandit_party_2","A3KWM8WSJMGI45","either","4","31","","","","","","","0","1","0","","0.6161308884","0.2","0.8","0.6","0.4","0.4475739324","0.7373034573","0.6161308884","0.3258971046","","","","","","","","","","","","","","75","K","2","","","47","main_expt","",""
"","bandit","131","778476","0.0-89.0-0.0","99764116","wem/bandit_party_2","A3KWM8WSJMGI45","either","4","673","","","","","","","0","0","1","","0.2934977076","0.2","0.8","0.6","0.4","0.570942939","0.6580913366","0.6354722558","0.2934977076","","","","","","","","","","","","","","76","L","3","","","48","main_expt","",""
"","bandit","132","780578","0.0-90.0-0.0","99764116","wem/bandit_party_2","A3KWM8WSJMGI45","either","4","586","","","","","","","0","1","0","","0.5943858444","0.2","0.8","0.6","0.4","0.5943858444","0.6518545324","0.5941747261","0.3381222087","","","","","","","","","","","","","","72","H","0","img/none_selected.jpg","","49","main_expt","",""
"","bandit","133","782697","0.0-91.0-0.0","99764116","wem/bandit_party_2","A3KWM8WSJMGI45","either","4","611","","","","","","","0","0","1","","0.6362385309","0.2","0.8","0.6","0.4","0.72156704","0.6362385309","0.5510631732","0.4149653651","","","","","","","","","","","","","","74","J","1","","","50","main_expt","",""
"","bandit","134","784669","0.0-92.0-0.0","99764116","wem/bandit_party_2","A3KWM8WSJMGI45","either","4","463","","","","","","","0","0","1","","0.5580995271","0.2","0.8","0.6","0.4","0.6453884322","0.6673370403","0.5580995271","0.315936401","","","","","","","","","","","","","","75","K","2","","","51","main_expt","",""
"","bandit","135","786732","0.0-93.0-0.0","99764116","wem/bandit_party_2","A3KWM8WSJMGI45","either","4","544","","","","","","","0","0","1","0.34776451","","0.2","0.8","0.6","0.4","","","","","0.635653338","0.6614759556","0.4492126091","0.34776451","","","","","","","","","","76","L","3","","","52","main_expt","",""
"","bandit","136","788632","0.0-94.0-0.0","99764116","wem/bandit_party_2","A3KWM8WSJMGI45","either","4","384","","","","","","","0","0","1","0.5700640027","","0.2","0.8","0.6","0.4","","","","","0.5700640027","0.5099009019","0.4600129001","0.2946288454","","","","","","","","","","72","H","0","img/none_selected.jpg","","53","main_expt","",""
"","bandit","137","790537","0.0-95.0-0.0","99764116","wem/bandit_party_2","A3KWM8WSJMGI45","either","4","397","","","","","","","0","0","1","0.5323874036","","0.2","0.8","0.6","0.4","","","","","0.4535518587","0.5323874036","0.4005354829","0.3757560715","","","","","","","","","","74","J","1","","","54","main_expt","",""
"","bandit","138","792487","0.0-96.0-0.0","99764116","wem/bandit_party_2","A3KWM8WSJMGI45","either","4","441","","","","","","","1","0","0","0.3305694417","","0.2","0.8","0.6","0.4","","","","","0.4271895083","0.5410243768","0.3305694417","0.3258455482","","","","","","","","","","75","K","2","","","55","main_expt","",""
"","bandit","139","800510","0.0-97.0-0.0","99764116","wem/bandit_party_2","A3KWM8WSJMGI45","either","4","6506","","","","","","","1","0","0","0.3443449075","","0.2","0.8","0.6","0.4","","","","","0.3506641683","0.5594159285","0.3443449075","0.4350401219","","","","","","","","","","75","K","2","","","56","main_expt","",""
"","bandit","140","807492","0.0-98.0-0.0","99764116","wem/bandit_party_2","A3KWM8WSJMGI45","either","4","5469","","","","","","","0","0","1","0.3719720486","","0.2","0.8","0.6","0.4","","","","","0.3266461122","0.5057935102","0.3719720486","0.3707313189","","","","","","","","","","75","K","2","","","57","main_expt","",""
"","bandit","141","809606","0.0-99.0-0.0","99764116","wem/bandit_party_2","A3KWM8WSJMGI45","either","4","604","","","","","","","0","1","0","","0.4921421838","0.2","0.8","0.6","0.4","0.3024401834","0.4921421838","0.2230753252","0.5588799977","","","","","","","","","","","","","","74","J","1","","","58","main_expt","",""
"","bandit","142","811779","0.0-100.0-0.0","99764116","wem/bandit_party_2","A3KWM8WSJMGI45","either","4","659","","","","","","","0","0","1","","0.4306619987","0.2","0.8","0.6","0.4","0.4306619987","0.4740341295","0.2255195526","0.6863198467","","","","","","","","","","","","","","72","H","0","img/none_selected.jpg","","59","main_expt","",""
"","bandit","143","815787","0.0-101.0-0.0","99764116","wem/bandit_party_2","A3KWM8WSJMGI45","either","4","2493","","","","","","","0","1","0","","0.6998437478","0.2","0.8","0.6","0.4","0.4710521126","0.4853159436","0.2150487889","0.6998437478","","","","","","","","","","","","","","76","L","3","","","60","main_expt","",""
"","bandit","144","817960","0.0-102.0-0.0","99764116","wem/bandit_party_2","A3KWM8WSJMGI45","either","4","664","","","","","","","0","0","1","0.2670703017","","0.2","0.8","0.6","0.4","","","","","0.4797168847","0.4843563089","0.2670703017","0.7027468204","","","","","","","","","","75","K","2","","","61","main_expt","",""
"","bandit","145","821399","0.0-103.0-0.0","99764116","wem/bandit_party_2","A3KWM8WSJMGI45","either","4","1923","","","","","","","1","0","0","0.4970562682","","0.2","0.8","0.6","0.4","","","","","0.441351191","0.4970562682","0.1622034337","0.7461433662","","","","","","","","","","74","J","1","","","62","main_expt","",""
"","bandit","146","828094","0.0-104.0-0.0","99764116","wem/bandit_party_2","A3KWM8WSJMGI45","either","4","5187","","","","","","","1","0","0","0.6405696824","","0.2","0.8","0.6","0.4","","","","","0.6405696824","0.4870743105","0.1872430185","0.7956877632","","","","","","","","","","72","H","0","img/none_selected.jpg","","63","main_expt","",""
"","bandit","147","835701","0.0-105.0-0.0","99764116","wem/bandit_party_2","A3KWM8WSJMGI45","either","4","6096","","","","","","","0","0","1","0.5297884171","","0.2","0.8","0.6","0.4","","","","","0.5093225209","0.5297884171","0.1921602407","0.7533911137","","","","","","","","","","74","J","1","","","64","main_expt","",""
"","bandit","148","837672","0.0-106.0-0.0","99764116","wem/bandit_party_2","A3KWM8WSJMGI45","either","4","454","","","","","","","1","0","0","0.5190422554","","0.2","0.8","0.6","0.4","","","","","0.5190422554","0.5510281753","0.1747679693","0.8407665504","","","","","","","","","","72","H","0","img/none_selected.jpg","","65","main_expt","",""
"","bandit","149","842201","0.0-107.0-0.0","99764116","wem/bandit_party_2","A3KWM8WSJMGI45","either","4","3021","","","","","","","0","0","1","","0.4367989657","0.2","0.8","0.6","0.4","0.4367989657","0.6548378986","0.149475979","0.8392190168","","","","","","","","","","","","","","72","H","0","img/none_selected.jpg","","66","main_expt","",""
"","bandit","150","844388","0.0-108.0-0.0","99764116","wem/bandit_party_2","A3KWM8WSJMGI45","either","4","672","","","","","","","1","0","0","0.7873643744","","0.2","0.8","0.6","0.4","","","","","0.4515976155","0.7873643744","0.1340316754","0.7998105719","","","","","","","","","","74","J","1","","","67","main_expt","",""
"","bandit","151","848076","0.0-109.0-0.0","99764116","wem/bandit_party_2","A3KWM8WSJMGI45","either","4","2170","","","","","","","1","0","0","0.8374830125","","0.2","0.8","0.6","0.4","","","","","0.4605235732","0.8374830125","0.1635100664","0.8055175736","","","","","","","","","","74","J","1","","","68","main_expt","",""
"","bandit","152","852036","0.0-110.0-0.0","99764116","wem/bandit_party_2","A3KWM8WSJMGI45","either","4","2448","","","","","","","1","0","0","0.7948054761","","0.2","0.8","0.6","0.4","","","","","0.3799115548","0.7948054761","0.1227365859","0.9157616325","","","","","","","","","","74","J","1","","","69","main_expt","",""
"","bandit","153","857428","0.0-111.0-0.0","99764116","wem/bandit_party_2","A3KWM8WSJMGI45","either","4","3873","","","","","","","0","1","0","","0.8257183208","0.2","0.8","0.6","0.4","0.4215965018","0.8257183208","0.1248437045","0.9575411193","","","","","","","","","","","","","","74","J","1","","","70","main_expt","",""
"","bandit","154","859468","0.0-112.0-0.0","99764116","wem/bandit_party_2","A3KWM8WSJMGI45","either","4","533","","","","","","","0","0","1","0.1153860856","","0.2","0.8","0.6","0.4","","","","","0.4069040491","0.7378076352","0.1153860856","0.9604429572","","","","","","","","","","75","K","2","","","71","main_expt","",""
"","bandit","155","861667","0.0-113.0-0.0","99764116","wem/bandit_party_2","A3KWM8WSJMGI45","either","4","685","","","","","","","1","0","0","0.9598545795","","0.2","0.8","0.6","0.4","","","","","0.4396577013","0.7402058239","0.1355011504","0.9598545795","","","","","","","","","","76","L","3","","","72","main_expt","",""
"","bandit","156","868658","0.0-114.0-0.0","99764116","wem/bandit_party_2","A3KWM8WSJMGI45","either","4","5477","","","","","","","0","0","1","","0.6562772762","0.2","0.8","0.6","0.4","0.6562772762","0.6976791507","0.05996807606","0.944667289","","","","","","","","","","","","","","72","H","0","img/none_selected.jpg","","73","main_expt","",""
"","bandit","157","870597","0.0-115.0-0.0","99764116","wem/bandit_party_2","A3KWM8WSJMGI45","either","4","422","","","","","","","1","0","0","0.7918365236","","0.2","0.8","0.6","0.4","","","","","0.6973429816","0.7918365236","0.05405538329","0.9226304804","","","","","","","","","","74","J","1","","","74","main_expt","",""
"","bandit","158","875572","0.0-116.0-0.0","99764116","wem/bandit_party_2","A3KWM8WSJMGI45","either","4","3464","","","","","","","1","0","0","0.7822783488","","0.2","0.8","0.6","0.4","","","","","0.7736122178","0.7822783488","0.02989929625","0.9398646798","","","","","","","","","","74","J","1","","","75","main_expt","",""
"","bandit","159","879427","0.0-117.0-0.0","99764116","wem/bandit_party_2","A3KWM8WSJMGI45","either","4","2345","","","","","","","0","0","1","","0.7290889389","0.2","0.8","0.6","0.4","0.8130420724","0.7290889389","0.0563551135","0.9344412274","","","","","","","","","","","","","","74","J","1","","","76","main_expt","",""
"","bandit","160","881409","0.0-118.0-0.0","99764116","wem/bandit_party_2","A3KWM8WSJMGI45","either","4","468","","","","","","","0","0","1","","0.0510075381","0.2","0.8","0.6","0.4","0.8182773084","0.7903383215","0.0510075381","0.9512527415","","","","","","","","","","","","","","75","K","2","","","77","main_expt","",""
"","bandit","161","883513","0.0-119.0-0.0","99764116","wem/bandit_party_2","A3KWM8WSJMGI45","either","4","594","","","","","","","0","1","0","","0.945324638","0.2","0.8","0.6","0.4","0.910984946","0.8093770606","0.07280641377","0.945324638","","","","","","","","","","","","","","76","L","3","","","78","main_expt","",""
"","bandit","162","886158","0.0-120.0-0.0","99764116","wem/bandit_party_2","A3KWM8WSJMGI45","either","4","1136","","","","","","","1","0","0","0.9303795674","","0.2","0.8","0.6","0.4","","","","","0.9303795674","0.7310189459","0.06591604593","0.9313693401","","","","","","","","","","72","H","0","img/none_selected.jpg","","79","main_expt","",""
"","bandit","163","888636","0.0-121.0-0.0","99764116","wem/bandit_party_2","A3KWM8WSJMGI45","either","4","960","","","","","","","0","1","0","","0.9581515868","0.2","0.8","0.6","0.4","0.9581515868","0.7915113188","0.02790121052","0.9272018461","","","","","","","","","","","","","","72","H","0","img/none_selected.jpg","","80","main_expt","",""
"","bandit","164","891775","0.0-122.0-0.0","99764116","wem/bandit_party_2","A3KWM8WSJMGI45","either","4","1624","","","","","","","0","0","1","0.8463201033","","0.2","0.8","0.6","0.4","","","","","0.9107397581","0.8463201033","0.03997429631","0.9340165544","","","","","","","","","","74","J","1","","","81","main_expt","",""
"","bandit","165","893737","0.0-123.0-0.0","99764116","wem/bandit_party_2","A3KWM8WSJMGI45","either","4","452","","","","","","","0","0","1","","0.03692483048","0.2","0.8","0.6","0.4","0.9531247327","0.9043915002","0.03692483048","0.9778602254","","","","","","","","","","","","","","75","K","2","","","82","main_expt","",""
"","bandit","166","895685","0.0-124.0-0.0","99764116","wem/bandit_party_2","A3KWM8WSJMGI45","either","4","436","","","","","","","1","0","0","0.9593015187","","0.2","0.8","0.6","0.4","","","","","0.91574064","0.922294541","0.04167024954","0.9593015187","","","","","","","","","","76","L","3","","","83","main_expt","",""
"","bandit","167","899881","0.0-125.0-0.0","99764116","wem/bandit_party_2","A3KWM8WSJMGI45","either","4","2677","","","","","","","0","0","1","0.9287460716","","0.2","0.8","0.6","0.4","","","","","0.9287460716","0.9079954767","0.03449326924","0.9398758864","","","","","","","","","","72","H","0","img/none_selected.jpg","","84","main_expt","",""
"","bandit","168","903166","0.0-126.0-0.0","99764116","wem/bandit_party_2","A3KWM8WSJMGI45","either","4","1775","","","","","","","1","0","0","0.92293493","","0.2","0.8","0.6","0.4","","","","","0.9817994773","0.92293493","0.07382848834","0.9256746213","","","","","","","","","","74","J","1","","","85","main_expt","",""
"","bandit","169","905831","0.0-127.0-0.0","99764116","wem/bandit_party_2","A3KWM8WSJMGI45","either","4","1147","","","","","","","1","0","0","0.8831043051","","0.2","0.8","0.6","0.4","","","","","0.9651028603","0.8831043051","0.08839198485","0.8910640916","","","","","","","","","","74","J","1","","","86","main_expt","",""
"","bandit","170","908962","0.0-128.0-0.0","99764116","wem/bandit_party_2","A3KWM8WSJMGI45","either","4","1618","","","","","","","1","0","0","0.876749115","","0.2","0.8","0.6","0.4","","","","","0.9364705545","0.876749115","0.08767612821","0.8729480744","","","","","","","","","","74","J","1","","","87","main_expt","",""
"","bandit","171","911231","0.0-129.0-0.0","99764116","wem/bandit_party_2","A3KWM8WSJMGI45","either","4","758","","","","","","","1","0","0","0.9189432589","","0.2","0.8","0.6","0.4","","","","","0.9235767634","0.9189432589","0.1606359608","0.8780151739","","","","","","","","","","74","J","1","","","88","main_expt","",""
"","bandit","172","913403","0.0-130.0-0.0","99764116","wem/bandit_party_2","A3KWM8WSJMGI45","either","4","651","","","","","","","0","1","0","","0.8770582065","0.2","0.8","0.6","0.4","0.9375107972","0.8770582065","0.2051996915","0.8856980863","","","","","","","","","","","","","","74","J","1","","","89","main_expt","",""
"","bandit","173","915626","0.0-131.0-0.0","99764116","wem/bandit_party_2","A3KWM8WSJMGI45","either","4","705","","","","","","","0","1","0","","0.9201099193","0.2","0.8","0.6","0.4","0.9201099193","0.9303780437","0.1757431166","0.8828292745","","","","","","","","","","","","","","72","H","0","img/none_selected.jpg","","90","main_expt","",""
"","bandit","174","919829","0.0-132.0-0.0","99764116","wem/bandit_party_2","A3KWM8WSJMGI45","either","4","2693","","","","","","","0","1","0","","0.9416722714","0.2","0.8","0.6","0.4","0.9416722714","0.8870296602","0.3470073597","0.9016480115","","","","","","","","","","","","","","72","H","0","img/none_selected.jpg","","91","main_expt","",""
"","bandit","175","921515","0.0-133.0-0.0","99764116","wem/bandit_party_2","A3KWM8WSJMGI45","either","4","167","","","","","","","1","0","0","0.9077272713","","0.2","0.8","0.6","0.4","","","","","0.943817784","0.8466670433","0.4969118024","0.9077272713","","","","","","","","","","76","L","3","","","92","main_expt","",""
"","bandit","176","925501","0.0-134.0-0.0","99764116","wem/bandit_party_2","A3KWM8WSJMGI45","either","4","2467","","","","","","","0","0","1","0.5773598144","","0.2","0.8","0.6","0.4","","","","","0.9078517942","0.850017275","0.5773598144","0.875936713","","","","","","","","","","75","K","2","","","93","main_expt","",""
"","bandit","177","927490","0.0-135.0-0.0","99764116","wem/bandit_party_2","A3KWM8WSJMGI45","either","4","478","","","","","","","1","0","0","0.6893652978","","0.2","0.8","0.6","0.4","","","","","0.8983200186","0.6893652978","0.5513550223","0.8089346838","","","","","","","","","","74","J","1","","","94","main_expt","",""
"","bandit","178","932065","0.0-136.0-0.0","99764116","wem/bandit_party_2","A3KWM8WSJMGI45","either","4","3064","","","","","","","0","0","1","0.6025630118","","0.2","0.8","0.6","0.4","","","","","0.8744309931","0.6025630118","0.5461825447","0.7472177953","","","","","","","","","","74","J","1","","","95","main_expt","",""
"","bandit","179","933765","0.0-137.0-0.0","99764116","wem/bandit_party_2","A3KWM8WSJMGI45","either","4","190","","","","","","","0","1","0","","0.8894212924","0.2","0.8","0.6","0.4","0.8894212924","0.5565182624","0.5564841108","0.631257407","","","","","","","","","","","","","","72","H","0","img/none_selected.jpg","","96","main_expt","",""
"","bandit","180","935923","0.0-138.0-0.0","99764116","wem/bandit_party_2","A3KWM8WSJMGI45","either","4","649","","","","","","","1","0","0","0.4820287155","","0.2","0.8","0.6","0.4","","","","","0.891162681","0.4820287155","0.6513715187","0.7474787878","","","","","","","","","","74","J","1","","","97","main_expt","",""
"","bandit","181","938863","0.0-139.0-0.0","99764116","wem/bandit_party_2","A3KWM8WSJMGI45","either","4","1430","","","","","","","1","0","0","0.4599621431","","0.2","0.8","0.6","0.4","","","","","0.8495400438","0.4599621431","0.7004254565","0.7753317291","","","","","","","","","","74","J","1","","","98","main_expt","",""
"","bandit","182","941430","0.0-140.0-0.0","99764116","wem/bandit_party_2","A3KWM8WSJMGI45","either","4","1060","","","","","","","1","0","0","0.4109144258","","0.2","0.8","0.6","0.4","","","","","0.8671572546","0.4109144258","0.6473310623","0.7088399779","","","","","","","","","","74","J","1","","","99","main_expt","",""
"","bandit","183","944814","0.0-141.0-0.0","99764116","wem/bandit_party_2","A3KWM8WSJMGI45","either","4","1874","","","","","","","0","0","1","0.3466085394","","0.2","0.8","0.6","0.4","","","","","0.8312294914","0.3466085394","0.6160818326","0.7328055719","","","","","","","","","","74","J","1","","","100","main_expt","",""
"","bandit","184","946852","0.0-142.0-0.0","99764116","wem/bandit_party_2","A3KWM8WSJMGI45","either","4","519","","","","","","","0","0","1","","0.6963675268","0.2","0.8","0.6","0.4","0.8135240708","0.3712289037","0.6963675268","0.8183789849","","","","","","","","","","","","","","75","K","2","","","101","main_expt","",""
"","bandit","185","948816","0.0-143.0-0.0","99764116","wem/bandit_party_2","A3KWM8WSJMGI45","either","4","445","","","","","","","1","0","0","0.7854635714","","0.2","0.8","0.6","0.4","","","","","0.8556055773","0.3626324234","0.6339579424","0.7854635714","","","","","","","","","","76","L","3","","","102","main_expt","",""
"","bandit","186","955143","0.0-144.0-0.0","99764116","wem/bandit_party_2","A3KWM8WSJMGI45","either","4","4816","","","","","","","1","0","0","0.2748825764","","0.2","0.8","0.6","0.4","","","","","0.7632006143","0.2748825764","0.6908430899","0.8481411385","","","","","","","","","","74","J","1","","","103","main_expt","",""
"","bandit","187","959441","0.0-145.0-0.0","99764116","wem/bandit_party_2","A3KWM8WSJMGI45","either","4","2782","","","","","","","0","1","0","","0.2381725209","0.2","0.8","0.6","0.4","0.8273213265","0.2381725209","0.6866318891","0.8129446485","","","","","","","","","","","","","","74","J","1","","","104","main_expt","",""
"","bandit","188","961855","0.0-146.0-0.0","99764116","wem/bandit_party_2","A3KWM8WSJMGI45","either","4","902","","","","","","","0","1","0","","0.6749941214","0.2","0.8","0.6","0.4","0.7930501456","0.1939551764","0.6749941214","0.7898688037","","","","","","","","","","","","","","75","K","2","","","105","main_expt","",""
"","bandit","189","963843","0.0-147.0-0.0","99764116","wem/bandit_party_2","A3KWM8WSJMGI45","either","4","474","","","","","","","0","0","1","0.7810744832","","0.2","0.8","0.6","0.4","","","","","0.7186603115","0.1884153881","0.7300347885","0.7810744832","","","","","","","","","","76","L","3","","","106","main_expt","",""
"","bandit","190","966022","0.0-148.0-0.0","99764116","wem/bandit_party_2","A3KWM8WSJMGI45","either","4","663","","","","","","","1","0","0","0.1011451677","","0.2","0.8","0.6","0.4","","","","","0.7155595947","0.1011451677","0.8133516847","0.7837395221","","","","","","","","","","74","J","1","","","107","main_expt","",""
"","bandit","191","970124","0.0-149.0-0.0","99764116","wem/bandit_party_2","A3KWM8WSJMGI45","either","4","2592","","","","","","","0","0","1","0.1500242655","","0.2","0.8","0.6","0.4","","","","","0.7654707556","0.1500242655","0.8009432675","0.787971135","","","","","","","","","","74","J","1","","","108","main_expt","",""
"","bandit","192","973314","0.0-150.0-0.0","99764116","wem/bandit_party_2","A3KWM8WSJMGI45","either","4","1675","","","","","","","1","0","0","0.7379370491","","0.2","0.8","0.6","0.4","","","","","0.6288612937","0.1285750889","0.7379370491","0.6866525704","","","","","","","","","","75","K","2","","","109","main_expt","",""
"","bandit","193","977911","0.0-151.0-0.0","99764116","wem/bandit_party_2","A3KWM8WSJMGI45","either","4","3082","","","","","","","0","0","1","0.7379992527","","0.2","0.8","0.6","0.4","","","","","0.6309058105","0.06279291231","0.7379992527","0.5824748378","","","","","","","","","","75","K","2","","","110","main_expt","",""
"","bandit","194","979978","0.0-152.0-0.0","99764116","wem/bandit_party_2","A3KWM8WSJMGI45","either","4","559","","","","","","","0","0","1","","0.659702805","0.2","0.8","0.6","0.4","0.6218965746","0.07144278273","0.7464430213","0.659702805","","","","","","","","","","","","","","76","L","3","","","111","main_expt","",""
"","bandit","195","981964","0.0-153.0-0.0","99764116","wem/bandit_party_2","A3KWM8WSJMGI45","either","4","466","","","","","","","0","0","1","0.06013221683","","0.2","0.8","0.6","0.4","","","","","0.6741482942","0.06013221683","0.7736339118","0.5111205641","","","","","","","","","","74","J","1","","","112","main_expt","",""
"","bandit","196","983985","0.0-154.0-0.0","99764116","wem/bandit_party_2","A3KWM8WSJMGI45","either","4","496","","","","","","","1","0","0","0.8480767854","","0.2","0.8","0.6","0.4","","","","","0.7405202534","0.1442356489","0.8480767854","0.4852392648","","","","","","","","","","75","K","2","","","113","main_expt","",""
"","bandit","197","989238","0.0-155.0-0.0","99764116","wem/bandit_party_2","A3KWM8WSJMGI45","either","4","3741","","","","","","","1","0","0","0.8016933152","","0.2","0.8","0.6","0.4","","","","","0.743157628","0.1733870882","0.8016933152","0.3531287621","","","","","","","","","","75","K","2","","","114","main_expt","",""
"","bandit","198","991555","0.0-156.0-0.0","99764116","wem/bandit_party_2","A3KWM8WSJMGI45","either","4","796","","","","","","","1","0","0","0.8200260584","","0.2","0.8","0.6","0.4","","","","","0.7732583829","0.2198725907","0.8200260584","0.4090792957","","","","","","","","","","75","K","2","","","115","main_expt","",""
"","bandit","199","997862","0.0-157.0-0.0","99764116","wem/bandit_party_2","A3KWM8WSJMGI45","either","4","4794","","","","","","","1","0","0","0.7761954976","","0.2","0.8","0.6","0.4","","","","","0.6224016225","0.2116870815","0.7761954976","0.4927933112","","","","","","","","","","75","K","2","","","116","main_expt","",""
"","bandit","200","1000053","0.0-158.0-0.0","99764116","wem/bandit_party_2","A3KWM8WSJMGI45","either","4","675","","","","","","","0","0","1","0.7722233998","","0.2","0.8","0.6","0.4","","","","","0.6784399158","0.1293815938","0.7722233998","0.4255499736","","","","","","","","","","75","K","2","","","117","main_expt","",""
"","bandit","201","1002159","0.0-159.0-0.0","99764116","wem/bandit_party_2","A3KWM8WSJMGI45","either","4","594","","","","","","","0","0","1","0.1442073762","","0.2","0.8","0.6","0.4","","","","","0.7499631032","0.1442073762","0.8049831996","0.4073726931","","","","","","","","","","74","J","1","","","118","main_expt","",""
"","bandit","202","1004587","0.0-160.0-0.0","99764116","wem/bandit_party_2","A3KWM8WSJMGI45","either","4","920","","","","","","","0","1","0","","0.5447318884","0.2","0.8","0.6","0.4","0.6258432538","0.2098334931","0.8469405197","0.5447318884","","","","","","","","","","","","","","76","L","3","","","119","main_expt","",""
"","bandit","203","1009012","0.0-161.0-0.0","99764116","wem/bandit_party_2","A3KWM8WSJMGI45","either","4","2912","","","","","","","0","0","1","0.783925966","","0.2","0.8","0.6","0.4","","","","","0.5602994123","0.243218138","0.783925966","0.5336717705","","","","","","","","","","75","K","2","","","120","main_expt","",""
"","bandit","204","1011131","0.0-162.0-0.0","99764116","wem/bandit_party_2","A3KWM8WSJMGI45","either","4","610","","","","","","","1","0","0","0.1595445902","","0.2","0.8","0.6","0.4","","","","","0.5850644561","0.1595445902","0.8031476983","0.5621279662","","","","","","","","","","74","J","1","","","121","main_expt","",""
"","bandit","205","1016161","0.0-163.0-0.0","99764116","wem/bandit_party_2","A3KWM8WSJMGI45","either","4","3514","","","","","","","0","1","0","","0.6205732407","0.2","0.8","0.6","0.4","0.6205732407","0.1939767007","0.776878313","0.5664238538","","","","","","","","","","","","","","72","H","0","img/none_selected.jpg","","122","main_expt","",""
"","bandit","206","1018264","0.0-164.0-0.0","99764116","wem/bandit_party_2","A3KWM8WSJMGI45","either","4","574","","","","","","","0","0","1","0.2265728871","","0.2","0.8","0.6","0.4","","","","","0.7954206102","0.2265728871","0.7695343448","0.6501842916","","","","","","","","","","74","J","1","","","123","main_expt","",""
"","bandit","207","1020378","0.0-165.0-0.0","99764116","wem/bandit_party_2","A3KWM8WSJMGI45","either","4","605","","","","","","","1","0","0","0.6154230174","","0.2","0.8","0.6","0.4","","","","","0.881213352","0.2027469411","0.6154230174","0.5413703051","","","","","","","","","","75","K","2","","","124","main_expt","",""
"","bandit","208","1023134","0.0-166.0-0.0","99764116","wem/bandit_party_2","A3KWM8WSJMGI45","either","4","1245","","","","","","","0","0","1","0.5191338098","","0.2","0.8","0.6","0.4","","","","","0.8598562332","0.1506135949","0.4710930195","0.5191338098","","","","","","","","","","76","L","3","","","125","main_expt","",""
"","bandit","209","1027452","0.0-167.0-0.0","99764116","wem/bandit_party_2","A3KWM8WSJMGI45","either","4","2799","","","","","","","0","1","0","","0.5258886302","0.2","0.8","0.6","0.4","0.867144728","0.1875851228","0.5258886302","0.6232591378","","","","","","","","","","","","","","75","K","2","","","126","main_expt","",""
"","bandit","210","1029615","0.0-168.0-0.0","99764116","wem/bandit_party_2","A3KWM8WSJMGI45","either","4","653","","","","","","","0","0","1","0.2106184636","","0.2","0.8","0.6","0.4","","","","","0.8677917819","0.2106184636","0.3996486754","0.601333273","","","","","","","","","","74","J","1","","","127","main_expt","",""
"","bandit","211","1032923","0.0-169.0-0.0","99764116","wem/bandit_party_2","A3KWM8WSJMGI45","either","4","1794","","","","","","","0","1","0","","0.8194058857","0.2","0.8","0.6","0.4","0.8194058857","0.1276240755","0.3557241191","0.6312294041","","","","","","","","","","","","","","72","H","0","img/none_selected.jpg","","128","main_expt","",""
"","bandit","212","1035110","0.0-170.0-0.0","99764116","wem/bandit_party_2","A3KWM8WSJMGI45","either","4","673","","","","","","","0","0","1","0.2163335705","","0.2","0.8","0.6","0.4","","","","","0.813940224","0.2163335705","0.2432070908","0.6655034733","","","","","","","","","","74","J","1","","","129","main_expt","",""
"","bandit","213","1037312","0.0-171.0-0.0","99764116","wem/bandit_party_2","A3KWM8WSJMGI45","either","4","692","","","","","","","0","0","1","","0.1722843937","0.2","0.8","0.6","0.4","0.7296764962","0.2448863899","0.1722843937","0.6882303755","","","","","","","","","","","","","","75","K","2","","","130","main_expt","",""
"","bandit","214","1039318","0.0-172.0-0.0","99764116","wem/bandit_party_2","A3KWM8WSJMGI45","either","4","496","","","","","","","1","0","0","0.6772884453","","0.2","0.8","0.6","0.4","","","","","0.614258276","0.3447645787","0.1336027919","0.6772884453","","","","","","","","","","76","L","3","","","131","main_expt","",""
"","bandit","215","1041775","0.0-173.0-0.0","99764116","wem/bandit_party_2","A3KWM8WSJMGI45","either","4","937","","","","","","","1","0","0","0.3622527956","","0.2","0.8","0.6","0.4","","","","","0.5349540706","0.3622527956","0.1351629047","0.6773684555","","","","","","","","","","74","J","1","","","132","main_expt","",""
"","bandit","216","1047032","0.0-174.0-0.0","99764116","wem/bandit_party_2","A3KWM8WSJMGI45","either","4","3739","","","","","","","1","0","0","0.2961885878","","0.2","0.8","0.6","0.4","","","","","0.5449090787","0.2961885878","0.2495029","0.7437755928","","","","","","","","","","74","J","1","","","133","main_expt","",""
"","bandit","217","1050334","0.0-175.0-0.0","99764116","wem/bandit_party_2","A3KWM8WSJMGI45","either","4","1781","","","","","","","0","0","1","0.2932126781","","0.2","0.8","0.6","0.4","","","","","0.5037108559","0.2932126781","0.2118512663","0.7423545867","","","","","","","","","","74","J","1","","","134","main_expt","",""
"","bandit","218","1052846","0.0-176.0-0.0","99764116","wem/bandit_party_2","A3KWM8WSJMGI45","either","4","995","","","","","","","1","0","0","0.7462440124","","0.2","0.8","0.6","0.4","","","","","0.5131336393","0.2836439675","0.2474577379","0.7462440124","","","","","","","","","","76","L","3","","","135","main_expt","",""
"","bandit","219","1062870","0.0-177.0-0.0","99764116","wem/bandit_party_2","A3KWM8WSJMGI45","either","4","8514","","","","","","","1","0","0","0.1985775905","","0.2","0.8","0.6","0.4","","","","","0.5847952324","0.1985775905","0.1496333288","0.6372772774","","","","","","","","","","74","J","1","","","136","main_expt","",""
"","bandit","220","1070266","0.0-178.0-0.0","99764116","wem/bandit_party_2","A3KWM8WSJMGI45","either","4","5887","","","","","","","0","0","1","0.2655975","","0.2","0.8","0.6","0.4","","","","","0.5191620222","0.2655975","0.164835495","0.6587707878","","","","","","","","","","74","J","1","","","137","main_expt","",""
"","bandit","221","1072368","0.0-179.0-0.0","99764116","wem/bandit_party_2","A3KWM8WSJMGI45","either","4","591","","","","","","","0","1","0","","0.1629561883","0.2","0.8","0.6","0.4","0.3830682141","0.4066298912","0.1629561883","0.6545472314","","","","","","","","","","","","","","75","K","2","","","138","main_expt","",""
"","bandit","222","1074600","0.0-180.0-0.0","99764116","wem/bandit_party_2","A3KWM8WSJMGI45","either","4","712","","","","","","","0","1","0","","0.5773899651","0.2","0.8","0.6","0.4","0.3036015776","0.4537429859","0.1162724323","0.5773899651","","","","","","","","","","","","","","76","L","3","","","139","main_expt","",""
"","bandit","223","1077480","0.0-181.0-0.0","99764116","wem/bandit_party_2","A3KWM8WSJMGI45","either","4","1362","","","","","","","0","0","1","0.410026376","","0.2","0.8","0.6","0.4","","","","","0.2541790234","0.410026376","0.1262651596","0.5786924042","","","","","","","","","","74","J","1","","","140","main_expt","",""
"","bandit","224","1079374","0.0-182.0-0.0","99764116","wem/bandit_party_2","A3KWM8WSJMGI45","either","4","384","","","","","","","0","0","1","0.3978668086","","0.2","0.8","0.6","0.4","","","","","0.1899663758","0.3978668086","0.1258799353","0.4589731036","","","","","","","","","","74","J","1","","","141","main_expt","",""
"","bandit","225","1082099","0.0-183.0-0.0","99764116","wem/bandit_party_2","A3KWM8WSJMGI45","either","4","1215","","","","","","","0","0","1","","0.214868544","0.2","0.8","0.6","0.4","0.214868544","0.4096738096","0.1220135665","0.3667804619","","","","","","","","","","","","","","72","H","0","img/none_selected.jpg","","142","main_expt","",""
"","bandit","226","1084006","0.0-184.0-0.0","99764116","wem/bandit_party_2","A3KWM8WSJMGI45","either","4","396","","","","","","","0","0","1","0.5422751762","","0.2","0.8","0.6","0.4","","","","","0.1549416237","0.5422751762","0.1600355681","0.3563831379","","","","","","","","","","74","J","1","","","143","main_expt","",""
"","bandit","227","1088228","0.0-185.0-0.0","99764116","wem/bandit_party_2","A3KWM8WSJMGI45","either","4","2702","","","","","","","0","0","1","0.103653669","","0.2","0.8","0.6","0.4","","","","","0.2142728447","0.6045197677","0.103653669","0.3675361202","","","","","","","","","","75","K","2","","","144","main_expt","",""
"","bandit","228","1090283","0.0-186.0-0.0","99764116","wem/bandit_party_2","A3KWM8WSJMGI45","either","4","544","","","","","","","0","0","1","","0.1417267119","0.2","0.8","0.6","0.4","0.2166472609","0.6140727406","0.1417267119","0.3266856562","","","","","","","","","","","","","","75","K","2","","","145","main_expt","",""
"","bandit","229","1092592","0.0-187.0-0.0","99764116","wem/bandit_party_2","A3KWM8WSJMGI45","either","4","793","","","","","","","0","0","1","0.5553742365","","0.2","0.8","0.6","0.4","","","","","0.2446047688","0.5553742365","0.1508894681","0.2815179259","","","","","","","","","","74","J","1","","","146","main_expt","",""
"","bandit","230","1094862","0.0-188.0-0.0","99764116","wem/bandit_party_2","A3KWM8WSJMGI45","either","4","749","","","","","","","1","0","0","0.52787167","","0.2","0.8","0.6","0.4","","","","","0.3011136322","0.52787167","0.1207147728","0.3560244833","","","","","","","","","","74","J","1","","","147","main_expt","",""
"","bandit","231","1099747","0.0-189.0-0.0","99764116","wem/bandit_party_2","A3KWM8WSJMGI45","either","4","3371","","","","","","","0","0","1","0.5053851794","","0.2","0.8","0.6","0.4","","","","","0.2519777133","0.5053851794","0.1362234148","0.3585854149","","","","","","","","","","74","J","1","","","148","main_expt","",""
"","bandit","232","1101705","0.0-190.0-0.0","99764116","wem/bandit_party_2","A3KWM8WSJMGI45","either","4","442","","","","","","","0","1","0","","0.2996109941","0.2","0.8","0.6","0.4","0.2996109941","0.5431256022","0.1244444975","0.284478414","","","","","","","","","","","","","","72","H","0","img/none_selected.jpg","","149","main_expt","",""
"","bandit","233","1103765","0.0-191.0-0.0","99764116","wem/bandit_party_2","A3KWM8WSJMGI45","either","4","542","","","","","","","0","0","1","","0.2617238314","0.2","0.8","0.6","0.4","0.2963563975","0.422574086","0.1109305632","0.2617238314","","","","","","","","","","","","","","76","L","3","","","150","main_expt","",""
"","bandit","234","1105786","0.0-192.0-0.0","99764116","wem/bandit_party_2","A3KWM8WSJMGI45","either","4","511","","","","","","","0","0","1","0.11412436","","0.2","0.8","0.6","0.4","","","","","0.4327396174","0.3907227364","0.11412436","0.2709462114","","","","","","","","","","75","K","2","","","151","main_expt","",""
"","bandit","235","1107758","0.0-193.0-0.0","99764116","wem/bandit_party_2","A3KWM8WSJMGI45","either","4","453","","","","","","","0","0","1","","0.5580814469","0.2","0.8","0.6","0.4","0.4303068123","0.5580814469","0.1469045903","0.2993716907","","","","","","","","","","","","","","74","J","1","","","152","main_expt","",""
"","bandit","236","1109627","0.0-194.0-0.0","99764116","wem/bandit_party_2","A3KWM8WSJMGI45","either","4","351","","","","","","","1","0","0","0.455197397","","0.2","0.8","0.6","0.4","","","","","0.455197397","0.51223936","0.1633028487","0.2733354782","","","","","","","","","","72","H","0","img/none_selected.jpg","","153","main_expt","",""
"","bandit","237","1116528","0.0-195.0-0.0","99764116","wem/bandit_party_2","A3KWM8WSJMGI45","either","4","5380","","","","","","","0","0","1","","0.6184454144","0.2","0.8","0.6","0.4","0.6184454144","0.4811601507","0.1340882311","0.3264007987","","","","","","","","","","","","","","72","H","0","img/none_selected.jpg","","154","main_expt","",""
"","bandit","238","1118625","0.0-196.0-0.0","99764116","wem/bandit_party_2","A3KWM8WSJMGI45","either","4","577","","","","","","","0","0","1","0.575425417","","0.2","0.8","0.6","0.4","","","","","0.5833601464","0.575425417","0.1041462846","0.204433578","","","","","","","","","","74","J","1","","","155","main_expt","",""
"","bandit","239","1120165","0.0-197.0-0.0","99764116","wem/bandit_party_2","A3KWM8WSJMGI45","either","4","18","","","","","","","0","0","1","0.08564190031","","0.2","0.8","0.6","0.4","","","","","0.646897734","0.6109018817","0.08564190031","0.07451572188","","","","","","","","","","75","K","2","","","156","main_expt","",""
"","bandit","240","1122258","0.0-198.0-0.0","99764116","wem/bandit_party_2","A3KWM8WSJMGI45","either","4","582","","","","","","","0","0","1","","0.1251686374","0.2","0.8","0.6","0.4","0.6912470103","0.6812883852","0.06977116317","0.1251686374","","","","","","","","","","","","","","76","L","3","","","157","main_expt","",""
"","bandit","241","1127188","0.0-199.0-0.0","99764116","wem/bandit_party_2","A3KWM8WSJMGI45","either","4","3412","","","","","","","1","0","0","0.7865398282","","0.2","0.8","0.6","0.4","","","","","0.7865398282","0.73777041","0.1504927074","0.1292052795","","","","","","","","","","72","H","0","img/none_selected.jpg","","158","main_expt","",""
"","bandit","242","1133659","0.0-200.0-0.0","99764116","wem/bandit_party_2","A3KWM8WSJMGI45","either","4","4950","","","","","","","0","0","1","0.7220910122","","0.2","0.8","0.6","0.4","","","","","0.7220910122","0.8388849062","0.1429264201","0.1200050714","","","","","","","","","","72","H","0","img/none_selected.jpg","","159","main_expt","",""
"","bandit","243","1135832","0.0-201.0-0.0","99764116","wem/bandit_party_2","A3KWM8WSJMGI45","either","4","646","","","","","","","1","0","0","0.8006667519","","0.2","0.8","0.6","0.4","","","","","0.710563805","0.8006667519","0.1832893837","0.1156014834","","","","","","","","","","74","J","1","","","160","main_expt","",""
"","bandit","244","1143995","0.0-202.0-0.0","99764116","wem/bandit_party_2","A3KWM8WSJMGI45","either","4","6648","","","","","","","0","0","1","","0.2337310763","0.2","0.8","0.6","0.4","0.6205281072","0.7406956812","0.2337310763","0.1425751263","","","","","","","","","","","","","","75","K","2","","","161","main_expt","",""
"","bandit","245","1147822","0.0-203.0-0.0","99764116","wem/bandit_party_2","A3KWM8WSJMGI45","either","4","2315","","","","","","","0","1","0","","0.775259894","0.2","0.8","0.6","0.4","0.5246840185","0.775259894","0.2326198937","0.2108345254","","","","","","","","","","","","","","74","J","1","","","162","main_expt","",""
"","bandit","246","1149998","0.0-204.0-0.0","99764116","wem/bandit_party_2","A3KWM8WSJMGI45","either","4","664","","","","","","","0","0","1","0.569340372","","0.2","0.8","0.6","0.4","","","","","0.569340372","0.6539471222","0.1584290897","0.1664621688","","","","","","","","","","72","H","0","img/none_selected.jpg","","163","main_expt","",""
"","bandit","247","1155230","0.0-205.0-0.0","99764116","wem/bandit_party_2","A3KWM8WSJMGI45","either","4","3713","","","","","","","0","1","0","","0.1741279052","0.2","0.8","0.6","0.4","0.5688323765","0.7914062868","0.1417900361","0.1741279052","","","","","","","","","","","","","","76","L","3","","","164","main_expt","",""
"","bandit","248","1157373","0.0-206.0-0.0","99764116","wem/bandit_party_2","A3KWM8WSJMGI45","either","4","632","","","","","","","0","0","1","0.08849486786","","0.2","0.8","0.6","0.4","","","","","0.5195648955","0.8415061218","0.08849486786","0.1891196979","","","","","","","","","","75","K","2","","","165","main_expt","",""
"","bandit","249","1159687","0.0-207.0-0.0","99764116","wem/bandit_party_2","A3KWM8WSJMGI45","either","4","793","","","","","","","0","1","0","","0.9084068317","0.2","0.8","0.6","0.4","0.536500984","0.9084068317","0.1010416226","0.3016440744","","","","","","","","","","","","","","74","J","1","","","166","main_expt","",""
"","bandit","250","1161735","0.0-208.0-0.0","99764116","wem/bandit_party_2","A3KWM8WSJMGI45","either","4","522","","","","","","","0","0","1","","0.4243381616","0.2","0.8","0.6","0.4","0.4243381616","0.8857506799","0.1506776516","0.3427468607","","","","","","","","","","","","","","72","H","0","img/none_selected.jpg","","167","main_expt","",""
"","bandit","251","1163788","0.0-209.0-0.0","99764116","wem/bandit_party_2","A3KWM8WSJMGI45","either","4","540","","","","","","","0","0","1","","0.3759001064","0.2","0.8","0.6","0.4","0.4877327119","0.9247721234","0.2532220847","0.3759001064","","","","","","","","","","","","","","76","L","3","","","168","main_expt","",""
"","bandit","252","1166104","0.0-210.0-0.0","99764116","wem/bandit_party_2","A3KWM8WSJMGI45","either","4","803","","","","","","","0","0","1","0.2223654062","","0.2","0.8","0.6","0.4","","","","","0.5096331713","0.8870410368","0.2223654062","0.3824832387","","","","","","","","","","75","K","2","","","169","main_expt","",""
"","bandit","253","1168235","0.0-211.0-0.0","99764116","wem/bandit_party_2","A3KWM8WSJMGI45","either","4","608","","","","","","","0","0","1","","0.3257043992","0.2","0.8","0.6","0.4","0.6111595203","0.8782412079","0.2161840498","0.3257043992","","","","","","","","","","","","","","76","L","3","","","170","main_expt","",""
"","bandit","254","1170011","0.0-212.0-0.0","99764116","wem/bandit_party_2","A3KWM8WSJMGI45","either","4","265","","","","","","","0","0","1","","0.5888321224","0.2","0.8","0.6","0.4","0.5888321224","0.7978982074","0.1996440145","0.2943589708","","","","","","","","","","","","","","72","H","0","img/none_selected.jpg","","171","main_expt","",""
"","bandit","255","1171948","0.0-213.0-0.0","99764116","wem/bandit_party_2","A3KWM8WSJMGI45","either","4","425","","","","","","","1","0","0","0.7896885826","","0.2","0.8","0.6","0.4","","","","","0.6295404033","0.7896885826","0.275753823","0.4298537702","","","","","","","","","","74","J","1","","","172","main_expt","",""
"","bandit","256","1175818","0.0-214.0-0.0","99764116","wem/bandit_party_2","A3KWM8WSJMGI45","either","4","2354","","","","","","","1","0","0","0.7771385218","","0.2","0.8","0.6","0.4","","","","","0.5976712981","0.7771385218","0.2850946521","0.4196262671","","","","","","","","","","74","J","1","","","173","main_expt","",""
"","bandit","257","1178047","0.0-215.0-0.0","99764116","wem/bandit_party_2","A3KWM8WSJMGI45","either","4","705","","","","","","","1","0","0","0.8412209493","","0.2","0.8","0.6","0.4","","","","","0.5936331925","0.8412209493","0.2836726952","0.4056978145","","","","","","","","","","74","J","1","","","174","main_expt","",""
"","bandit","258","1180242","0.0-216.0-0.0","99764116","wem/bandit_party_2","A3KWM8WSJMGI45","either","4","669","","","","","","","1","0","0","0.8433491626","","0.2","0.8","0.6","0.4","","","","","0.544145328","0.8433491626","0.27413619","0.3323311207","","","","","","","","","","74","J","1","","","175","main_expt","",""
"","bandit","259","1182902","0.0-217.0-0.0","99764116","wem/bandit_party_2","A3KWM8WSJMGI45","either","4","1148","","","","","","","1","0","0","0.778586436","","0.2","0.8","0.6","0.4","","","","","0.3584947592","0.778586436","0.2369491767","0.3087900888","","","","","","","","","","74","J","1","","","176","main_expt","",""
"","bandit","260","1186389","0.0-218.0-0.0","99764116","wem/bandit_party_2","A3KWM8WSJMGI45","either","4","1963","","","","","","","1","0","0","0.7488794252","","0.2","0.8","0.6","0.4","","","","","0.436171931","0.7488794252","0.3440943848","0.3898613412","","","","","","","","","","74","J","1","","","177","main_expt","",""
"","bandit","261","1189525","0.0-219.0-0.0","99764116","wem/bandit_party_2","A3KWM8WSJMGI45","either","4","1613","","","","","","","1","0","0","0.7738581751","","0.2","0.8","0.6","0.4","","","","","0.5193680035","0.7738581751","0.3529135521","0.5236321052","","","","","","","","","","74","J","1","","","178","main_expt","",""
"","bandit","262","1191834","0.0-220.0-0.0","99764116","wem/bandit_party_2","A3KWM8WSJMGI45","either","4","795","","","","","","","0","0","1","","0.7527820287","0.2","0.8","0.6","0.4","0.3957798075","0.7527820287","0.3787243664","0.2955080601","","","","","","","","","","","","","","74","J","1","","","179","main_expt","",""
"","bandit","263","1193782","0.0-221.0-0.0","99764116","wem/bandit_party_2","A3KWM8WSJMGI45","either","4","425","","","","","","","0","0","1","0.3092677326","","0.2","0.8","0.6","0.4","","","","","0.4249873197","0.8022950929","0.3092677326","0.3174151272","","","","","","","","","","75","K","2","","","180","main_expt","",""
"","bandit","264","1196943","0.0-222.0-0.0","99764116","wem/bandit_party_2","A3KWM8WSJMGI45","either","4","1642","","","","","","","0","0","1","0.3701559146","","0.2","0.8","0.6","0.4","","","","","0.4260342439","0.7505347306","0.3701559146","0.3560995969","","","","","","","","","","75","K","2","","","181","main_expt","",""
"","bandit","265","1199067","0.0-223.0-0.0","99764116","wem/bandit_party_2","A3KWM8WSJMGI45","either","4","609","","","","","","","0","1","0","","0.4649908644","0.2","0.8","0.6","0.4","0.4305619521","0.603349844","0.2672844749","0.4649908644","","","","","","","","","","","","","","76","L","3","","","182","main_expt","",""
"","bandit","266","1201046","0.0-224.0-0.0","99764116","wem/bandit_party_2","A3KWM8WSJMGI45","either","4","454","","","","","","","0","0","1","","0.4638513582","0.2","0.8","0.6","0.4","0.4638513582","0.6464544124","0.3046315644","0.4588174784","","","","","","","","","","","","","","72","H","0","img/none_selected.jpg","","183","main_expt","",""
"","bandit","267","1203445","0.0-225.0-0.0","99764116","wem/bandit_party_2","A3KWM8WSJMGI45","either","4","877","","","","","","","0","1","0","","0.5084330557","0.2","0.8","0.6","0.4","0.5084330557","0.6606024443","0.3507685813","0.509799977","","","","","","","","","","","","","","72","H","0","img/none_selected.jpg","","184","main_expt","",""
"","bandit","268","1206227","0.0-226.0-0.0","99764116","wem/bandit_party_2","A3KWM8WSJMGI45","either","4","1262","","","","","","","1","0","0","0.7034535028","","0.2","0.8","0.6","0.4","","","","","0.5853778332","0.7034535028","0.3250269766","0.4557178443","","","","","","","","","","74","J","1","","","185","main_expt","",""
"","bandit","269","1208595","0.0-227.0-0.0","99764116","wem/bandit_party_2","A3KWM8WSJMGI45","either","4","855","","","","","","","0","1","0","","0.7672503758","0.2","0.8","0.6","0.4","0.5009207633","0.7672503758","0.3636669497","0.3250172706","","","","","","","","","","","","","","74","J","1","","","186","main_expt","",""
"","bandit","270","1210629","0.0-228.0-0.0","99764116","wem/bandit_party_2","A3KWM8WSJMGI45","either","4","512","","","","","","","0","0","1","","0.4095027401","0.2","0.8","0.6","0.4","0.4376492532","0.7505037824","0.4095027401","0.2982192525","","","","","","","","","","","","","","75","K","2","","","187","main_expt","",""
"","bandit","271","1212840","0.0-229.0-0.0","99764116","wem/bandit_party_2","A3KWM8WSJMGI45","either","4","697","","","","","","","0","0","1","0.3356624093","","0.2","0.8","0.6","0.4","","","","","0.317868257","0.7458261356","0.3356624093","0.2647713636","","","","","","","","","","75","K","2","","","188","main_expt","",""
"","bandit","272","1214669","0.0-230.0-0.0","99764116","wem/bandit_party_2","A3KWM8WSJMGI45","either","4","316","","","","","","","0","0","1","0.3700786551","","0.2","0.8","0.6","0.4","","","","","0.3700786551","0.747965221","0.3717951419","0.2798663258","","","","","","","","","","72","H","0","img/none_selected.jpg","","189","main_expt","",""
"","bandit","273","1217985","0.0-231.0-0.0","99764116","wem/bandit_party_2","A3KWM8WSJMGI45","either","4","1804","","","","","","","0","0","1","","0.3423477616","0.2","0.8","0.6","0.4","0.3423477616","0.7459095382","0.3266606931","0.2146362806","","","","","","","","","","","","","","72","H","0","img/none_selected.jpg","","190","main_expt","",""
"","bandit","274","1219847","0.0-232.0-0.0","99764116","wem/bandit_party_2","A3KWM8WSJMGI45","either","4","349","","","","","","","0","0","1","","0.3132783624","0.2","0.8","0.6","0.4","0.2488230813","0.6299055833","0.4206899072","0.3132783624","","","","","","","","","","","","","","76","L","3","","","191","main_expt","",""
"","bandit","275","1221502","0.0-233.0-0.0","99764116","wem/bandit_party_2","A3KWM8WSJMGI45","either","4","132","","","","","","","0","0","1","","0.2193108308","0.2","0.8","0.6","0.4","0.2193108308","0.688533977","0.4982817076","0.2488083766","","","","","","","","","","","","","","72","H","0","img/none_selected.jpg","","192","main_expt","",""
"","bandit","276","1223567","0.0-234.0-0.0","99764116","wem/bandit_party_2","A3KWM8WSJMGI45","either","4","553","","","","","","","0","1","0","","0.7176496952","0.2","0.8","0.6","0.4","0.4057276106","0.7176496952","0.4820211017","0.225611763","","","","","","","","","","","","","","74","J","1","","","193","main_expt","",""
"","bandit","277","1225809","0.0-235.0-0.0","99764116","wem/bandit_party_2","A3KWM8WSJMGI45","either","4","730","","","","","","","0","0","1","","0.3826056333","0.2","0.8","0.6","0.4","0.3826056333","0.746212457","0.5373891537","0.2159393038","","","","","","","","","","","","","","72","H","0","img/none_selected.jpg","","194","main_expt","",""
"","bandit","278","1227838","0.0-236.0-0.0","99764116","wem/bandit_party_2","A3KWM8WSJMGI45","either","4","505","","","","","","","0","0","1","0.3890275207","","0.2","0.8","0.6","0.4","","","","","0.4922935908","0.6800784202","0.3890275207","0.3112228701","","","","","","","","","","75","K","2","","","195","main_expt","",""
"","bandit","279","1230255","0.0-237.0-0.0","99764116","wem/bandit_party_2","A3KWM8WSJMGI45","either","4","890","","","","","","","0","0","1","","0.5475793877","0.2","0.8","0.6","0.4","0.5475793877","0.5986295964","0.4329462643","0.3249051539","","","","","","","","","","","","","","72","H","0","img/none_selected.jpg","","196","main_expt","",""
"","bandit","280","1232833","0.0-238.0-0.0","99764116","wem/bandit_party_2","A3KWM8WSJMGI45","either","4","1064","","","","","","","0","1","0","","0.6069385875","0.2","0.8","0.6","0.4","0.6069385875","0.5323622673","0.416825946","0.2985018541","","","","","","","","","","","","","","72","H","0","img/none_selected.jpg","","197","main_expt","",""
"","bandit","281","1235233","0.0-239.0-0.0","99764116","wem/bandit_party_2","A3KWM8WSJMGI45","either","4","884","","","","","","","0","0","1","0.3109366799","","0.2","0.8","0.6","0.4","","","","","0.4946816555","0.5348043844","0.4063336836","0.3109366799","","","","","","","","","","76","L","3","","","198","main_expt","",""
"","bandit","282","1239679","0.0-240.0-0.0","99764116","wem/bandit_party_2","A3KWM8WSJMGI45","either","4","2924","","","","","","","0","0","1","","0.361264989","0.2","0.8","0.6","0.4","0.479635203","0.4534403339","0.361264989","0.3143364341","","","","","","","","","","","","","","75","K","2","","","199","main_expt","",""
"","bandit","283","1241517","0.0-241.0-0.0","99764116","wem/bandit_party_2","A3KWM8WSJMGI45","either","4","324","","","","","","","1","0","0","0.4185876589","","0.2","0.8","0.6","0.4","","","","","0.4969837249","0.4185876589","0.4700223374","0.3176919365","","","","","","","","","","74","J","1","","","200","main_expt","",""
"","bandit","284","1243597","0.0-242.0-0.0","99764116","wem/bandit_party_2","A3KWM8WSJMGI45","either","4","550","","","","","","","0","0","1","0.3812211227","","0.2","0.8","0.6","0.4","","","","","0.4548125401","0.3812211227","0.4751543938","0.2848283651","","","","","","","","","","74","J","1","","","201","main_expt","",""
"","bandit","285","1245479","0.0-243.0-0.0","99764116","wem/bandit_party_2","A3KWM8WSJMGI45","either","4","362","","","","","","","0","1","0","","0.4414728031","0.2","0.8","0.6","0.4","0.5767771981","0.4414728031","0.4044794657","0.2439676923","","","","","","","","","","","","","","74","J","1","","","202","main_expt","",""
"","bandit","286","1247428","0.0-244.0-0.0","99764116","wem/bandit_party_2","A3KWM8WSJMGI45","either","4","423","","","","","","","0","1","0","","0.6118171827","0.2","0.8","0.6","0.4","0.6118171827","0.3698030662","0.3321077444","0.2582922662","","","","","","","","","","","","","","72","H","0","img/none_selected.jpg","","203","main_expt","",""
"","bandit","287","1249764","0.0-245.0-0.0","99764116","wem/bandit_party_2","A3KWM8WSJMGI45","either","4","823","","","","","","","0","1","0","","0.5373194108","0.2","0.8","0.6","0.4","0.5373194108","0.4899087748","0.3697340749","0.3799793739","","","","","","","","","","","","","","72","H","0","img/none_selected.jpg","","204","main_expt","",""
"","bandit","288","1255415","0.0-246.0-0.0","99764116","wem/bandit_party_2","A3KWM8WSJMGI45","either","4","4138","","","","","","","0","0","1","","0.3998168993","0.2","0.8","0.6","0.4","0.5501461309","0.4310108402","0.3998168993","0.4441528059","","","","","","","","","","","","","","75","K","2","","","205","main_expt","",""
"","bandit","289","1259063","0.0-247.0-0.0","99764116","wem/bandit_party_2","A3KWM8WSJMGI45","either","4","2134","","","","","","","0","1","0","","0.4929909192","0.2","0.8","0.6","0.4","0.5094027242","0.3912115078","0.4929909192","0.4468516792","","","","","","","","","","","","","","75","K","2","","","206","main_expt","",""
"","bandit","290","1261296","0.0-248.0-0.0","99764116","wem/bandit_party_2","A3KWM8WSJMGI45","either","4","718","","","","","","","0","0","1","","0.399366085","0.2","0.8","0.6","0.4","0.6449696869","0.3195818707","0.4960693894","0.399366085","","","","","","","","","","","","","","76","L","3","","","207","main_expt","",""
"","bandit","291","1262964","0.0-249.0-0.0","99764116","wem/bandit_party_2","A3KWM8WSJMGI45","either","4","142","","","","","","","0","0","1","0.2378171997","","0.2","0.8","0.6","0.4","","","","","0.549996868","0.2378171997","0.3912862986","0.4206610772","","","","","","","","","","74","J","1","","","208","main_expt","",""
"","bandit","292","1265339","0.0-250.0-0.0","99764116","wem/bandit_party_2","A3KWM8WSJMGI45","either","4","854","","","","","","","0","0","1","","0.2339104391","0.2","0.8","0.6","0.4","0.5258833792","0.2339104391","0.4218938049","0.5145499259","","","","","","","","","","","","","","74","J","1","","","209","main_expt","",""
"","bandit","293","1267546","0.0-251.0-0.0","99764116","wem/bandit_party_2","A3KWM8WSJMGI45","either","4","694","","","","","","","0","1","0","","0.5453980868","0.2","0.8","0.6","0.4","0.5453980868","0.2506558306","0.6003160005","0.3497539355","","","","","","","","","","","","","","72","H","0","img/none_selected.jpg","","210","main_expt","",""
"","bandit","294","1269664","0.0-252.0-0.0","99764116","wem/bandit_party_2","A3KWM8WSJMGI45","either","4","592","","","","","","","1","0","0","0.3466578502","","0.2","0.8","0.6","0.4","","","","","0.5370950561","0.3466578502","0.5481562991","0.3335821388","","","","","","","","","","74","J","1","","","211","main_expt","",""
"","bandit","295","1275492","0.0-253.0-0.0","99764116","wem/bandit_party_2","A3KWM8WSJMGI45","either","4","4303","","","","","","","1","0","0","0.4162959965","","0.2","0.8","0.6","0.4","","","","","0.5774996514","0.4162959965","0.6210595125","0.2778022227","","","","","","","","","","74","J","1","","","212","main_expt","",""
"","bandit","296","1281379","0.0-254.0-0.0","99764116","wem/bandit_party_2","A3KWM8WSJMGI45","either","4","4364","","","","","","","1","0","0","0.545788555","","0.2","0.8","0.6","0.4","","","","","0.4826056363","0.545788555","0.7732161257","0.2949104287","","","","","","","","","","74","J","1","","","213","main_expt","",""
"","bandit","297","1284995","0.0-255.0-0.0","99764116","wem/bandit_party_2","A3KWM8WSJMGI45","either","4","2104","","","","","","","0","0","1","0.6077749924","","0.2","0.8","0.6","0.4","","","","","0.4913277851","0.6077749924","0.7689771773","0.2443343027","","","","","","","","","","74","J","1","","","214","main_expt","",""
"","bandit","298","1289030","0.0-256.0-0.0","99764116","wem/bandit_party_2","A3KWM8WSJMGI45","either","4","2507","","","","","","","0","1","0","","0.5415006571","0.2","0.8","0.6","0.4","0.5415006571","0.4883429648","0.6841712945","0.2232989174","","","","","","","","","","","","","","72","H","0","img/none_selected.jpg","","215","main_expt","",""
"","bandit","299","1291130","0.0-257.0-0.0","99764116","wem/bandit_party_2","A3KWM8WSJMGI45","either","4","586","","","","","","","0","0","1","0.3309854328","","0.2","0.8","0.6","0.4","","","","","0.5198015267","0.3309854328","0.7019934296","0.2918619336","","","","","","","","","","74","J","1","","","216","main_expt","",""
"","bandit","300","1293635","0.0-258.0-0.0","99764116","wem/bandit_party_2","A3KWM8WSJMGI45","either","4","991","","","","","","","0","0","1","","0.545097872","0.2","0.8","0.6","0.4","0.545097872","0.3310528633","0.7537099884","0.3571058798","","","","","","","","","","","","","","72","H","0","img/none_selected.jpg","","217","main_expt","",""
"","bandit","301","1295747","0.0-259.0-0.0","99764116","wem/bandit_party_2","A3KWM8WSJMGI45","either","4","587","","","","","","","1","0","0","0.4147218791","","0.2","0.8","0.6","0.4","","","","","0.5776025334","0.4147218791","0.8428980993","0.3738303097","","","","","","","","","","74","J","1","","","218","main_expt","",""
"","bandit","302","1301186","0.0-260.0-0.0","99764116","wem/bandit_party_2","A3KWM8WSJMGI45","either","4","3914","","","","","","","0","0","1","","0.3402104323","0.2","0.8","0.6","0.4","0.5616346574","0.3402104323","0.8007326434","0.4832874948","","","","","","","","","","","","","","74","J","1","","","219","main_expt","",""
"","bandit","303","1303276","0.0-261.0-0.0","99764116","wem/bandit_party_2","A3KWM8WSJMGI45","either","4","576","","","","","","","0","1","0","","0.8518850648","0.2","0.8","0.6","0.4","0.6261942659","0.3448871422","0.8518850648","0.475455537","","","","","","","","","","","","","","75","K","2","","","220","main_expt","",""
"","bandit","304","1305300","0.0-262.0-0.0","99764116","wem/bandit_party_2","A3KWM8WSJMGI45","either","4","501","","","","","","","0","0","1","","0.3849790123","0.2","0.8","0.6","0.4","0.6533416475","0.4438284365","0.8488451861","0.3849790123","","","","","","","","","","","","","","76","L","3","","","221","main_expt","",""
"","bandit","305","1307535","0.0-263.0-0.0","99764116","wem/bandit_party_2","A3KWM8WSJMGI45","either","4","708","","","","","","","0","1","0","","0.3768672835","0.2","0.8","0.6","0.4","0.6780524799","0.3768672835","0.8202185963","0.2708628555","","","","","","","","","","","","","","74","J","1","","","222","main_expt","",""
"","bandit","306","1309951","0.0-264.0-0.0","99764116","wem/bandit_party_2","A3KWM8WSJMGI45","either","4","901","","","","","","","0","1","0","","0.839196386","0.2","0.8","0.6","0.4","0.638470603","0.4599748191","0.839196386","0.3886191555","","","","","","","","","","","","","","75","K","2","","","223","main_expt","",""
"","bandit","307","1313282","0.0-265.0-0.0","99764116","wem/bandit_party_2","A3KWM8WSJMGI45","either","4","1815","","","","","","","0","0","1","","0.3352763987","0.2","0.8","0.6","0.4","0.560582988","0.5868274652","0.8340435664","0.3352763987","","","","","","","","","","","","","","76","L","3","","","224","main_expt","",""
"","bandit","308","1320092","0.0-266.0-0.0","99764116","wem/bandit_party_2","A3KWM8WSJMGI45","either","4","5282","","","","","","","0","0","1","","0.5004803289","0.2","0.8","0.6","0.4","0.5004803289","0.510759767","0.8229669419","0.3948846532","","","","","","","","","","","","","","72","H","0","img/none_selected.jpg","","225","main_expt","",""
"","bandit","309","1321614","0.0-267.0-0.0","99764116","wem/bandit_party_2","A3KWM8WSJMGI45","either","4","1","","","","","","","0","1","0","","0.6026028704","0.2","0.8","0.6","0.4","0.5109709899","0.6026028704","0.8326575293","0.385279681","","","","","","","","","","","","","","74","J","1","","","226","main_expt","",""
"","bandit","310","1323608","0.0-268.0-0.0","99764116","wem/bandit_party_2","A3KWM8WSJMGI45","either","4","469","","","","","","","0","0","1","","0.4271661703","0.2","0.8","0.6","0.4","0.4271661703","0.588132951","0.8904476858","0.3296530349","","","","","","","","","","","","","","72","H","0","img/none_selected.jpg","","227","main_expt","",""
"","bandit","311","1325123","0.0-269.0-0.0","99764116","wem/bandit_party_2","A3KWM8WSJMGI45","either","4","0","","","","","","","0","0","1","","0.374673526","0.2","0.8","0.6","0.4","0.374673526","0.5754590721","0.8877596604","0.4227788413","","","","","","","","","","","","","","72","H","0","img/none_selected.jpg","","228","main_expt","",""
"","bandit","312","1327079","0.0-270.0-0.0","99764116","wem/bandit_party_2","A3KWM8WSJMGI45","either","4","442","","","","","","","0","1","0","","0.393435759","0.2","0.8","0.6","0.4","0.393435759","0.6311951266","0.8647697669","0.4470353227","","","","","","","","","","","","","","72","H","0","img/none_selected.jpg","","229","main_expt","",""
"","bandit","313","1329054","0.0-271.0-0.0","99764116","wem/bandit_party_2","A3KWM8WSJMGI45","either","4","459","","","","","","","1","0","0","0.6164228117","","0.2","0.8","0.6","0.4","","","","","0.3299431778","0.6164228117","0.8704214291","0.2986819632","","","","","","","","","","74","J","1","","","230","main_expt","",""
"","bandit","314","1332657","0.0-272.0-0.0","99764116","wem/bandit_party_2","A3KWM8WSJMGI45","either","4","2079","","","","","","","1","0","0","0.5943568022","","0.2","0.8","0.6","0.4","","","","","0.3477061432","0.5943568022","0.8598686354","0.4508866759","","","","","","","","","","74","J","1","","","231","main_expt","",""
