"consent","trial_type","trial_index","time_elapsed","internal_node_id","subjID","study","MID","cond","drift","rt","responses","button_pressed","key_press","like","value","connected","gems","bombs","no_reward","GemPrChosen","BombPrChosen","GainOverPainPr_0","GainOverPainPr_1","GainOverPainPr_2","GainOverPainPr_3","LosePr_0","LosePr_1","LosePr_2","LosePr_3","WinPr_0","WinPr_1","WinPr_2","WinPr_3","Q0","Q1","Q2","gender","age","ethnicity","label","expt_phase","target","respCharCode","respKey","respChoiceNum","respChoice","practice","trial_counter","trial_label","Q0_index","view_history"
"GDM/GDM_behavioral_consent_30min_online.html","consent","0","12357","0.0-0.0","99826542","wem/bandit_party_2","A3H2ZHSMDWLM7Y","either","8","","","","","","","","","","","","","","","","","","","","","","","","","","","","","","","","","","","","","","","","","",""
"","survey-text","1","19714","0.0-1.0","99826542","wem/bandit_party_2","A3H2ZHSMDWLM7Y","either","8","6335","{""Q0"":""A3H2ZHSMDWLM7Y""}","","","","","","","","","","","","","","","","","","","","","","","","","","","","","","","","","","","","","","","",""
"","button-response","2","24013","0.0-2.0","99826542","wem/bandit_party_2","A3H2ZHSMDWLM7Y","either","8","3281","","1","","","","","","","","","","","","","","","","","","","","","","","","","","","","","","","","","","","","","","",""
"","text-replacement","3","36301","0.0-3.0","99826542","wem/bandit_party_2","A3H2ZHSMDWLM7Y","either","8","11275","","","32","","","","","","","","","","","","","","","","","","","","","","","","","","","","","","","","","","","","","",""
"","text-replacement","4","43066","0.0-4.0","99826542","wem/bandit_party_2","A3H2ZHSMDWLM7Y","either","8","6761","","","32","","","","","","","","","","","","","","","","","","","","","","","","","","","","","","","","","","","","","",""
"","identification","5","48202","0.0-6.0-0.0","99826542","wem/bandit_party_2","A3H2ZHSMDWLM7Y","either","8","5096","","","","3","2","1","","","","","","","","","","","","","","","","","","","","","","","","pre","identification_pre","the Republican Party","","","","","","","","",""
"","identification","6","54105","0.0-6.0-1.0","99826542","wem/bandit_party_2","A3H2ZHSMDWLM7Y","either","8","4863","","","","4","3","4","","","","","","","","","","","","","","","","","","","","","","","","pre","identification_pre","the Democratic Party","","","","","","","","",""
"","text-replacement","7","60004","0.0-7.0","99826542","wem/bandit_party_2","A3H2ZHSMDWLM7Y","either","8","4894","","","32","","","","","","","","","","","","","","","","","","","","","","","","","","","","","","","","","","","","","",""
"","text-replacement","8","64496","0.0-8.0","99826542","wem/bandit_party_2","A3H2ZHSMDWLM7Y","either","8","4487","","","32","","","","","","","","","","","","","","","","","","","","","","","","","","","","","","","","","","","","","",""
"","text-replacement","9","70975","0.0-9.0","99826542","wem/bandit_party_2","A3H2ZHSMDWLM7Y","either","8","6473","","","32","","","","","","","","","","","","","","","","","","","","","","","","","","","","","","","","","","","","","",""
"","text-replacement","10","73779","0.0-10.0","99826542","wem/bandit_party_2","A3H2ZHSMDWLM7Y","either","8","2800","","","32","","","","","","","","","","","","","","","","","","","","","","","","","","","","","","","","","","","","","",""
"","text-replacement","11","78253","0.0-11.0","99826542","wem/bandit_party_2","A3H2ZHSMDWLM7Y","either","8","4471","","","32","","","","","","","","","","","","","","","","","","","","","","","","","","","","","","","","","","","","","",""
"","bandit","12","84221","0.0-12.0-0.0","99826542","wem/bandit_party_2","A3H2ZHSMDWLM7Y","either","8","4448","","","","","","","0","0","1","0","0","","","","","0","","","","0","","","","","","","","","","","","","74","J","0","img/none_selected_demo.jpg","true","0","","",""
"","bandit","13","87961","0.0-13.0-0.0","99826542","wem/bandit_party_2","A3H2ZHSMDWLM7Y","either","8","2207","","","","","","","0","0","1","0","0","","","","","0","","","","0","","","","","","","","","","","","","75","K","0","img/none_selected_demo.jpg","true","0","","",""
"","text-replacement","14","98607","0.0-14.0","99826542","wem/bandit_party_2","A3H2ZHSMDWLM7Y","either","8","10642","","","32","","","","","","","","","","","","","","","","","","","","","","","","","","","","","","","","","","","","","",""
"","text-replacement","15","100534","0.0-15.0","99826542","wem/bandit_party_2","A3H2ZHSMDWLM7Y","either","8","1923","","","32","","","","","","","","","","","","","","","","","","","","","","","","","","","","","","","","","","","","","",""
"","text-replacement","16","104029","0.0-16.0","99826542","wem/bandit_party_2","A3H2ZHSMDWLM7Y","either","8","3491","","","32","","","","","","","","","","","","","","","","","","","","","","","","","","","","","","","","","","","","","",""
"","text-replacement","17","106497","0.0-17.0","99826542","wem/bandit_party_2","A3H2ZHSMDWLM7Y","either","8","2465","","","32","","","","","","","","","","","","","","","","","","","","","","","","","","","","","","","","","","","","","",""
"","bandit","18","109948","0.0-18.0-0.0","99826542","wem/bandit_party_2","A3H2ZHSMDWLM7Y","either","8","1925","","","","","","","1","0","0","0.8","","0.5","0.5","","","","","","","0.8","0.2","","","","","","","","","","","","74","J","0","img/none_selected_demo.jpg","true","0","80_20_practice","",""
"","bandit","19","113162","0.0-18.0-1.0","99826542","wem/bandit_party_2","A3H2ZHSMDWLM7Y","either","8","1687","","","","","","","0","0","1","","0.2","0.5","0.5","","","0.8","0.2","","","","","","","","","","","","","","","","75","K","1","","true","0","80_20_practice","",""
"","bandit","20","117508","0.0-18.0-2.0","99826542","wem/bandit_party_2","A3H2ZHSMDWLM7Y","either","8","2812","","","","","","","0","0","1","0.8","","0.5","0.5","","","","","","","0.8","0.2","","","","","","","","","","","","74","J","0","img/none_selected_demo.jpg","true","0","80_20_practice","",""
"","bandit","21","119683","0.0-18.0-3.0","99826542","wem/bandit_party_2","A3H2ZHSMDWLM7Y","either","8","645","","","","","","","0","0","1","0.8","","0.5","0.5","","","","","","","0.8","0.2","","","","","","","","","","","","74","J","0","img/none_selected_demo.jpg","true","0","80_20_practice","",""
"","bandit","22","121545","0.0-18.0-4.0","99826542","wem/bandit_party_2","A3H2ZHSMDWLM7Y","either","8","328","","","","","","","0","0","1","","0.2","0.5","0.5","","","0.8","0.2","","","","","","","","","","","","","","","","75","K","1","","true","0","80_20_practice","",""
"","bandit","23","123567","0.0-18.0-5.0","99826542","wem/bandit_party_2","A3H2ZHSMDWLM7Y","either","8","505","","","","","","","0","1","0","","0.8","0.5","0.5","","","0.8","0.2","","","","","","","","","","","","","","","","74","J","0","img/none_selected_demo.jpg","true","0","80_20_practice","",""
"","bandit","24","125862","0.0-18.0-6.0","99826542","wem/bandit_party_2","A3H2ZHSMDWLM7Y","either","8","765","","","","","","","1","0","0","0.8","","0.5","0.5","","","","","","","0.8","0.2","","","","","","","","","","","","74","J","0","img/none_selected_demo.jpg","true","0","80_20_practice","",""
"","bandit","25","128215","0.0-18.0-7.0","99826542","wem/bandit_party_2","A3H2ZHSMDWLM7Y","either","8","815","","","","","","","1","0","0","0.8","","0.5","0.5","","","","","","","0.8","0.2","","","","","","","","","","","","74","J","0","img/none_selected_demo.jpg","true","0","80_20_practice","",""
"","bandit","26","130381","0.0-18.0-8.0","99826542","wem/bandit_party_2","A3H2ZHSMDWLM7Y","either","8","628","","","","","","","0","0","1","0.2","","0.5","0.5","","","","","","","0.8","0.2","","","","","","","","","","","","75","K","1","","true","0","80_20_practice","",""
"","bandit","27","132645","0.0-18.0-9.0","99826542","wem/bandit_party_2","A3H2ZHSMDWLM7Y","either","8","731","","","","","","","0","1","0","","0.8","0.5","0.5","","","0.8","0.2","","","","","","","","","","","","","","","","74","J","0","img/none_selected_demo.jpg","true","0","80_20_practice","",""
"","bandit","28","134518","0.0-18.0-10.0","99826542","wem/bandit_party_2","A3H2ZHSMDWLM7Y","either","8","336","","","","","","","0","0","1","","0.2","0.5","0.5","","","0.8","0.2","","","","","","","","","","","","","","","","75","K","1","","true","0","80_20_practice","",""
"","bandit","29","136416","0.0-18.0-11.0","99826542","wem/bandit_party_2","A3H2ZHSMDWLM7Y","either","8","359","","","","","","","0","0","1","0.2","","0.5","0.5","","","","","","","0.8","0.2","","","","","","","","","","","","75","K","1","","true","0","80_20_practice","",""
"","bandit","30","138532","0.0-18.0-12.0","99826542","wem/bandit_party_2","A3H2ZHSMDWLM7Y","either","8","577","","","","","","","0","0","1","0.2","","0.5","0.5","","","","","","","0.8","0.2","","","","","","","","","","","","75","K","1","","true","0","80_20_practice","",""
"","bandit","31","140427","0.0-18.0-13.0","99826542","wem/bandit_party_2","A3H2ZHSMDWLM7Y","either","8","357","","","","","","","0","0","1","","0.8","0.5","0.5","","","0.8","0.2","","","","","","","","","","","","","","","","74","J","0","img/none_selected_demo.jpg","true","0","80_20_practice","",""
"","bandit","32","142470","0.0-18.0-14.0","99826542","wem/bandit_party_2","A3H2ZHSMDWLM7Y","either","8","514","","","","","","","0","0","1","0.2","","0.5","0.5","","","","","","","0.8","0.2","","","","","","","","","","","","75","K","1","","true","0","80_20_practice","",""
"","bandit","33","144356","0.0-18.0-15.0","99826542","wem/bandit_party_2","A3H2ZHSMDWLM7Y","either","8","354","","","","","","","1","0","0","0.8","","0.5","0.5","","","","","","","0.8","0.2","","","","","","","","","","","","74","J","0","img/none_selected_demo.jpg","true","0","80_20_practice","",""
"","bandit","34","146452","0.0-18.0-16.0","99826542","wem/bandit_party_2","A3H2ZHSMDWLM7Y","either","8","573","","","","","","","0","1","0","","0.8","0.5","0.5","","","0.8","0.2","","","","","","","","","","","","","","","","74","J","0","img/none_selected_demo.jpg","true","0","80_20_practice","",""
"","bandit","35","148343","0.0-18.0-17.0","99826542","wem/bandit_party_2","A3H2ZHSMDWLM7Y","either","8","349","","","","","","","0","0","1","","0.2","0.5","0.5","","","0.8","0.2","","","","","","","","","","","","","","","","75","K","1","","true","0","80_20_practice","",""
"","bandit","36","150388","0.0-18.0-18.0","99826542","wem/bandit_party_2","A3H2ZHSMDWLM7Y","either","8","502","","","","","","","0","0","1","","0.2","0.5","0.5","","","0.8","0.2","","","","","","","","","","","","","","","","75","K","1","","true","0","80_20_practice","",""
"","bandit","37","152482","0.0-18.0-19.0","99826542","wem/bandit_party_2","A3H2ZHSMDWLM7Y","either","8","560","","","","","","","0","0","1","0.8","","0.5","0.5","","","","","","","0.8","0.2","","","","","","","","","","","","74","J","0","img/none_selected_demo.jpg","true","0","80_20_practice","",""
"","text-replacement","38","159933","0.0-19.0","99826542","wem/bandit_party_2","A3H2ZHSMDWLM7Y","either","8","7446","","","32","","","","","","","","","","","","","","","","","","","","","","","","","","","","","","","","","","","","","",""
"","bandit","39","162872","0.0-20.0-0.0","99826542","wem/bandit_party_2","A3H2ZHSMDWLM7Y","either","8","1404","","","","","","","1","0","0","1","0","","","","","0","1","","","1","0","","","","","","","","","","","","74","J","0","img/none_selected_demo.jpg","true","0","","",""
"","text-replacement","40","165629","0.0-21.0","99826542","wem/bandit_party_2","A3H2ZHSMDWLM7Y","either","8","2751","","","32","","","","","","","","","","","","","","","","","","","","","","","","","","","","","","","","","","","","","",""
"","text-replacement","41","168742","0.0-22.0","99826542","wem/bandit_party_2","A3H2ZHSMDWLM7Y","either","8","3108","","","32","","","","","","","","","","","","","","","","","","","","","","","","","","","","","","","","","","","","","",""
"","text-replacement","42","170918","0.0-23.0","99826542","wem/bandit_party_2","A3H2ZHSMDWLM7Y","either","8","2171","","","32","","","","","","","","","","","","","","","","","","","","","","","","","","","","","","","","","","","","","",""
"","text-replacement","43","175125","0.0-24.0","99826542","wem/bandit_party_2","A3H2ZHSMDWLM7Y","either","8","4203","","","32","","","","","","","","","","","","","","","","","","","","","","","","","","","","","","","","","","","","","",""
"","text-replacement","44","178673","0.0-25.0","99826542","wem/bandit_party_2","A3H2ZHSMDWLM7Y","either","8","3542","","","32","","","","","","","","","","","","","","","","","","","","","","","","","","","","","","","","","","","","","",""
"","text-replacement","45","180854","0.0-26.0","99826542","wem/bandit_party_2","A3H2ZHSMDWLM7Y","either","8","2176","","","32","","","","","","","","","","","","","","","","","","","","","","","","","","","","","","","","","","","","","",""
"","text-replacement","46","183540","0.0-27.0","99826542","wem/bandit_party_2","A3H2ZHSMDWLM7Y","either","8","2681","","","32","","","","","","","","","","","","","","","","","","","","","","","","","","","","","","","","","","","","","",""
"","text-replacement","47","185662","0.0-28.0","99826542","wem/bandit_party_2","A3H2ZHSMDWLM7Y","either","8","2117","","","32","","","","","","","","","","","","","","","","","","","","","","","","","","","","","","","","","","","","","",""
"","text-replacement","48","188216","0.0-29.0","99826542","wem/bandit_party_2","A3H2ZHSMDWLM7Y","either","8","2551","","","32","","","","","","","","","","","","","","","","","","","","","","","","","","","","","","","","","","","","","",""
"","text-replacement","49","189617","0.0-30.0","99826542","wem/bandit_party_2","A3H2ZHSMDWLM7Y","either","8","1396","","","32","","","","","","","","","","","","","","","","","","","","","","","","","","","","","","","","","","","","","",""
"","text-replacement","50","191491","0.0-31.0","99826542","wem/bandit_party_2","A3H2ZHSMDWLM7Y","either","8","1870","","","32","","","","","","","","","","","","","","","","","","","","","","","","","","","","","","","","","","","","","",""
"","bandit","51","194252","0.0-32.0-0.0","99826542","wem/bandit_party_2","A3H2ZHSMDWLM7Y","either","8","1235","","","","","","","0","1","0","","0.8","0.5","0.5","0.5","0.5","0.8","0.2","0.6","0.2","","","","","","","","","","","","","","72","H","0","img/none_selected.jpg","true","0","full_practice","",""
"","bandit","52","196846","0.0-32.0-1.0","99826542","wem/bandit_party_2","A3H2ZHSMDWLM7Y","either","8","1069","","","","","","","0","0","1","","0.2","0.5","0.5","0.5","0.5","0.8","0.2","0.6","0.2","","","","","","","","","","","","","","74","J","1","","true","0","full_practice","",""
"","bandit","53","198696","0.0-32.0-2.0","99826542","wem/bandit_party_2","A3H2ZHSMDWLM7Y","either","8","314","","","","","","","1","0","0","0.6","","0.5","0.5","0.5","0.5","","","","","0.8","0.2","0.6","0.2","","","","","","","","","","75","K","2","","true","0","full_practice","",""
"","bandit","54","200540","0.0-32.0-3.0","99826542","wem/bandit_party_2","A3H2ZHSMDWLM7Y","either","8","307","","","","","","","0","0","1","0.2","","0.5","0.5","0.5","0.5","","","","","0.8","0.2","0.6","0.2","","","","","","","","","","76","L","3","","true","0","full_practice","",""
"","bandit","55","205380","0.0-32.0-4.0","99826542","wem/bandit_party_2","A3H2ZHSMDWLM7Y","either","8","3303","","","","","","","0","1","0","","0.8","0.5","0.5","0.5","0.5","0.8","0.2","0.6","0.2","","","","","","","","","","","","","","72","H","0","img/none_selected.jpg","true","0","full_practice","",""
"","bandit","56","207368","0.0-32.0-5.0","99826542","wem/bandit_party_2","A3H2ZHSMDWLM7Y","either","8","446","","","","","","","0","1","0","","0.2","0.5","0.5","0.5","0.5","0.8","0.2","0.6","0.2","","","","","","","","","","","","","","76","L","3","","true","0","full_practice","",""
"","bandit","57","209150","0.0-32.0-6.0","99826542","wem/bandit_party_2","A3H2ZHSMDWLM7Y","either","8","261","","","","","","","0","1","0","","0.6","0.5","0.5","0.5","0.5","0.8","0.2","0.6","0.2","","","","","","","","","","","","","","75","K","2","","true","0","full_practice","",""
"","bandit","58","210896","0.0-32.0-7.0","99826542","wem/bandit_party_2","A3H2ZHSMDWLM7Y","either","8","232","","","","","","","0","0","1","0.2","","0.5","0.5","0.5","0.5","","","","","0.8","0.2","0.6","0.2","","","","","","","","","","74","J","1","","true","0","full_practice","",""
"","bandit","59","213171","0.0-32.0-8.0","99826542","wem/bandit_party_2","A3H2ZHSMDWLM7Y","either","8","745","","","","","","","0","0","1","","0.2","0.5","0.5","0.5","0.5","0.8","0.2","0.6","0.2","","","","","","","","","","","","","","74","J","1","","true","0","full_practice","",""
"","bandit","60","214928","0.0-32.0-9.0","99826542","wem/bandit_party_2","A3H2ZHSMDWLM7Y","either","8","243","","","","","","","1","0","0","0.6","","0.5","0.5","0.5","0.5","","","","","0.8","0.2","0.6","0.2","","","","","","","","","","75","K","2","","true","0","full_practice","",""
"","bandit","61","216830","0.0-32.0-10.0","99826542","wem/bandit_party_2","A3H2ZHSMDWLM7Y","either","8","365","","","","","","","0","1","0","","0.8","0.5","0.5","0.5","0.5","0.8","0.2","0.6","0.2","","","","","","","","","","","","","","72","H","0","img/none_selected.jpg","true","0","full_practice","",""
"","bandit","62","218792","0.0-32.0-11.0","99826542","wem/bandit_party_2","A3H2ZHSMDWLM7Y","either","8","423","","","","","","","0","0","1","0.2","","0.5","0.5","0.5","0.5","","","","","0.8","0.2","0.6","0.2","","","","","","","","","","76","L","3","","true","0","full_practice","",""
"","bandit","63","220690","0.0-32.0-12.0","99826542","wem/bandit_party_2","A3H2ZHSMDWLM7Y","either","8","366","","","","","","","0","0","1","0.6","","0.5","0.5","0.5","0.5","","","","","0.8","0.2","0.6","0.2","","","","","","","","","","75","K","2","","true","0","full_practice","",""
"","bandit","64","222831","0.0-32.0-13.0","99826542","wem/bandit_party_2","A3H2ZHSMDWLM7Y","either","8","617","","","","","","","0","0","1","0.2","","0.5","0.5","0.5","0.5","","","","","0.8","0.2","0.6","0.2","","","","","","","","","","74","J","1","","true","0","full_practice","",""
"","bandit","65","224724","0.0-32.0-14.0","99826542","wem/bandit_party_2","A3H2ZHSMDWLM7Y","either","8","361","","","","","","","0","0","1","","0.2","0.5","0.5","0.5","0.5","0.8","0.2","0.6","0.2","","","","","","","","","","","","","","76","L","3","","true","0","full_practice","",""
"","bandit","66","226750","0.0-32.0-15.0","99826542","wem/bandit_party_2","A3H2ZHSMDWLM7Y","either","8","497","","","","","","","0","1","0","","0.6","0.5","0.5","0.5","0.5","0.8","0.2","0.6","0.2","","","","","","","","","","","","","","75","K","2","","true","0","full_practice","",""
"","bandit","67","228644","0.0-32.0-16.0","99826542","wem/bandit_party_2","A3H2ZHSMDWLM7Y","either","8","376","","","","","","","0","1","0","","0.8","0.5","0.5","0.5","0.5","0.8","0.2","0.6","0.2","","","","","","","","","","","","","","72","H","0","img/none_selected.jpg","true","0","full_practice","",""
"","bandit","68","230590","0.0-32.0-17.0","99826542","wem/bandit_party_2","A3H2ZHSMDWLM7Y","either","8","408","","","","","","","0","0","1","","0.2","0.5","0.5","0.5","0.5","0.8","0.2","0.6","0.2","","","","","","","","","","","","","","76","L","3","","true","0","full_practice","",""
"","bandit","69","232319","0.0-32.0-18.0","99826542","wem/bandit_party_2","A3H2ZHSMDWLM7Y","either","8","207","","","","","","","0","0","1","0.6","","0.5","0.5","0.5","0.5","","","","","0.8","0.2","0.6","0.2","","","","","","","","","","75","K","2","","true","0","full_practice","",""
"","bandit","70","234223","0.0-32.0-19.0","99826542","wem/bandit_party_2","A3H2ZHSMDWLM7Y","either","8","370","","","","","","","0","0","1","0.2","","0.5","0.5","0.5","0.5","","","","","0.8","0.2","0.6","0.2","","","","","","","","","","74","J","1","","true","0","full_practice","",""
"","text","71","237847","0.0-33.0","99826542","wem/bandit_party_2","A3H2ZHSMDWLM7Y","either","8","3613","","","32","","","","","","","","","","","","","","","","","","","","","","","","","","","","","","","","","","","","","",""
"","text-replacement","72","259749","0.0-34.0","99826542","wem/bandit_party_2","A3H2ZHSMDWLM7Y","either","8","20881","","","32","","","","","","","","","","","","","","","","","","","","","","","","","","","","","","","","","","","","","",""
"","text-replacement","73","267688","0.0-35.0","99826542","wem/bandit_party_2","A3H2ZHSMDWLM7Y","either","8","7934","","","32","","","","","","","","","","","","","","","","","","","","","","","","","","","","","","","","","","","","","",""
"","text-replacement","74","271109","0.0-36.0","99826542","wem/bandit_party_2","A3H2ZHSMDWLM7Y","either","8","3416","","","32","","","","","","","","","","","","","","","","","","","","","","","","","","","","","","","","","","","","","",""
"","text-replacement","75","274432","0.0-37.0","99826542","wem/bandit_party_2","A3H2ZHSMDWLM7Y","either","8","3318","","","32","","","","","","","","","","","","","","","","","","","","","","","","","","","","","","","","","","","","","",""
"","text-replacement","76","276251","0.0-38.0","99826542","wem/bandit_party_2","A3H2ZHSMDWLM7Y","either","8","1812","","","32","","","","","","","","","","","","","","","","","","","","","","","","","","","","","","","","","","","","","",""
"","survey-multi-choice-replacement","77","283451","0.0-39.0-0.0","99826542","wem/bandit_party_2","A3H2ZHSMDWLM7Y","either","8","7178","","","","","","","","","","","","","","","","","","","","","","","","Equal amounts of money will be added to the pool for <span style='color:blue;'>DEMOCRATS</span> and subtracted from the pool for <span style='color:red;'>REPUBLICANS</span>","","","","","","","attn_check","","","","","","","","","2",""
"","instructions","78","285793","0.0-39.0-1.0-0.0","99826542","wem/bandit_party_2","A3H2ZHSMDWLM7Y","either","8","1325","","","","","","","","","","","","","","","","","","","","","","","","","","","","","","","","","","","","","","","","","[{""page_index"":0,""viewing_time"":1324}]"
"","survey-multi-choice-replacement","79","288995","0.0-39.1-0.1","99826542","wem/bandit_party_2","A3H2ZHSMDWLM7Y","either","8","2170","","","","","","","","","","","","","","","","","","","","","","","","Money will be added to the pool for <span style='color:blue;'>DEMOCRATS</span>","","","","","","","attn_check","","","","","","","","","0",""
"","survey-multi-choice-replacement","80","296123","0.0-40.0-0.0","99826542","wem/bandit_party_2","A3H2ZHSMDWLM7Y","either","8","6104","","","","","","","","","","","","","","","","","","","","","","","","No money will be added to either pool","","","","","","","attn_check","","","","","","","","","3",""
"","instructions","81","298400","0.0-40.0-1.0-0.0","99826542","wem/bandit_party_2","A3H2ZHSMDWLM7Y","either","8","1254","","","","","","","","","","","","","","","","","","","","","","","","","","","","","","","","","","","","","","","","","[{""page_index"":0,""viewing_time"":1253}]"
"","survey-multi-choice-replacement","82","305824","0.0-40.1-0.1","99826542","wem/bandit_party_2","A3H2ZHSMDWLM7Y","either","8","6397","","","","","","","","","","","","","","","","","","","","","","","","Money will be subtracted from the pool for <span style='color:red;'>REPUBLICANS</span>","","","","","","","attn_check","","","","","","","","","1",""
"","instructions","83","307852","0.0-40.1-1.1-0.1","99826542","wem/bandit_party_2","A3H2ZHSMDWLM7Y","either","8","1018","","","","","","","","","","","","","","","","","","","","","","","","","","","","","","","","","","","","","","","","","[{""page_index"":0,""viewing_time"":1017}]"
"","survey-multi-choice-replacement","84","314442","0.0-40.2-0.2","99826542","wem/bandit_party_2","A3H2ZHSMDWLM7Y","either","8","5573","","","","","","","","","","","","","","","","","","","","","","","","Equal amounts of money will be added to the pool for <span style='color:blue;'>DEMOCRATS</span> and subtracted from the pool for <span style='color:red;'>REPUBLICANS</span>","","","","","","","attn_check","","","","","","","","","2",""
"","survey-multi-choice-replacement","85","319218","0.0-41.0-0.0","99826542","wem/bandit_party_2","A3H2ZHSMDWLM7Y","either","8","3728","","","","","","","","","","","","","","","","","","","","","","","","No money will be added to either pool","","","","","","","attn_check","","","","","","","","","3",""
"","bandit","86","324532","0.0-42.0-0.0","99826542","wem/bandit_party_2","A3H2ZHSMDWLM7Y","either","8","2773","","","","","","","0","0","1","0.2428949588","","0.6","0.8","0.2","0.4","","","","","0.3040937467","0.2428949588","0.4468950172","0.6337563202","","","","","","","","","","74","J","1","","","1","main_expt","",""
"","bandit","87","327479","0.0-43.0-0.0","99826542","wem/bandit_party_2","A3H2ZHSMDWLM7Y","either","8","1417","","","","","","","0","0","1","0.2687625136","","0.6","0.8","0.2","0.4","","","","","0.2687625136","0.248961424","0.3846124694","0.7380673114","","","","","","","","","","72","H","0","img/none_selected.jpg","","2","main_expt","",""
"","bandit","88","329554","0.0-44.0-0.0","99826542","wem/bandit_party_2","A3H2ZHSMDWLM7Y","either","8","545","","","","","","","0","0","1","","0.3885967974","0.6","0.8","0.2","0.4","0.3017919557","0.1878604038","0.3885967974","0.7715549737","","","","","","","","","","","","","","75","K","2","","","3","main_expt","",""
"","bandit","89","331511","0.0-45.0-0.0","99826542","wem/bandit_party_2","A3H2ZHSMDWLM7Y","either","8","427","","","","","","","1","0","0","0.8257013646","","0.6","0.8","0.2","0.4","","","","","0.3388517529","0.1194049449","0.2891644394","0.8257013646","","","","","","","","","","76","L","3","","","4","main_expt","",""
"","bandit","90","333878","0.0-46.0-0.0","99826542","wem/bandit_party_2","A3H2ZHSMDWLM7Y","either","8","834","","","","","","","1","0","0","0.2654579937","","0.6","0.8","0.2","0.4","","","","","0.389096829","0.197046458","0.2654579937","0.8617886559","","","","","","","","","","75","K","2","","","5","main_expt","",""
"","bandit","91","336371","0.0-47.0-0.0","99826542","wem/bandit_party_2","A3H2ZHSMDWLM7Y","either","8","965","","","","","","","0","0","1","","0.4799636182","0.6","0.8","0.2","0.4","0.4799636182","0.2312720201","0.355160999","0.8452125903","","","","","","","","","","","","","","72","H","0","img/none_selected.jpg","","6","main_expt","",""
"","bandit","92","338478","0.0-48.0-0.0","99826542","wem/bandit_party_2","A3H2ZHSMDWLM7Y","either","8","583","","","","","","","0","0","1","","0.4733904832","0.6","0.8","0.2","0.4","0.5316557606","0.3255591742","0.4733904832","0.8765288384","","","","","","","","","","","","","","75","K","2","","","7","main_expt","",""
"","bandit","93","340321","0.0-49.0-0.0","99826542","wem/bandit_party_2","A3H2ZHSMDWLM7Y","either","8","317","","","","","","","0","0","1","0.8625068071","","0.6","0.8","0.2","0.4","","","","","0.4935712437","0.163151729","0.4900136729","0.8625068071","","","","","","","","","","76","L","3","","","8","main_expt","",""
"","bandit","94","342194","0.0-50.0-0.0","99826542","wem/bandit_party_2","A3H2ZHSMDWLM7Y","either","8","348","","","","","","","1","0","0","0.1671639775","","0.6","0.8","0.2","0.4","","","","","0.5400450001","0.1671639775","0.4543552171","0.8385781597","","","","","","","","","","74","J","1","","","9","main_expt","",""
"","bandit","95","344727","0.0-51.0-0.0","99826542","wem/bandit_party_2","A3H2ZHSMDWLM7Y","either","8","1007","","","","","","","0","1","0","","0.6510952772","0.6","0.8","0.2","0.4","0.6510952772","0.1315225434","0.4523920981","0.833356221","","","","","","","","","","","","","","72","H","0","img/none_selected.jpg","","10","main_expt","",""
"","bandit","96","346821","0.0-52.0-0.0","99826542","wem/bandit_party_2","A3H2ZHSMDWLM7Y","either","8","569","","","","","","","0","0","1","","0.4053083118","0.6","0.8","0.2","0.4","0.6117649901","0.1287002637","0.4053083118","0.9030756702","","","","","","","","","","","","","","75","K","2","","","11","main_expt","",""
"","bandit","97","348917","0.0-53.0-0.0","99826542","wem/bandit_party_2","A3H2ZHSMDWLM7Y","either","8","570","","","","","","","0","1","0","","0.9129290363","0.6","0.8","0.2","0.4","0.6360746298","0.1026596936","0.4059907931","0.9129290363","","","","","","","","","","","","","","76","L","3","","","12","main_expt","",""
"","bandit","98","350921","0.0-54.0-0.0","99826542","wem/bandit_party_2","A3H2ZHSMDWLM7Y","either","8","473","","","","","","","0","0","1","0.1287514256","","0.6","0.8","0.2","0.4","","","","","0.5673960652","0.1287514256","0.2934167972","0.8638417716","","","","","","","","","","74","J","1","","","13","main_expt","",""
"","bandit","99","354076","0.0-55.0-0.0","99826542","wem/bandit_party_2","A3H2ZHSMDWLM7Y","either","8","1634","","","","","","","0","1","0","","0.6747725803","0.6","0.8","0.2","0.4","0.6747725803","0.1786171179","0.3260927596","0.787806988","","","","","","","","","","","","","","72","H","0","img/none_selected.jpg","","14","main_expt","",""
"","bandit","100","357153","0.0-56.0-0.0","99826542","wem/bandit_party_2","A3H2ZHSMDWLM7Y","either","8","1562","","","","","","","0","0","1","","0.3355382734","0.6","0.8","0.2","0.4","0.6277188345","0.1459410532","0.3355382734","0.7254212376","","","","","","","","","","","","","","75","K","2","","","15","main_expt","",""
"","bandit","101","359163","0.0-57.0-0.0","99826542","wem/bandit_party_2","A3H2ZHSMDWLM7Y","either","8","481","","","","","","","0","0","1","","0.2255600906","0.6","0.8","0.2","0.4","0.5435568235","0.2255600906","0.3040928121","0.7238415528","","","","","","","","","","","","","","74","J","1","","","16","main_expt","",""
"","bandit","102","361132","0.0-58.0-0.0","99826542","wem/bandit_party_2","A3H2ZHSMDWLM7Y","either","8","439","","","","","","","0","0","1","","0.7796243455","0.6","0.8","0.2","0.4","0.4180161478","0.2052013943","0.2730366263","0.7796243455","","","","","","","","","","","","","","76","L","3","","","17","main_expt","",""
"","bandit","103","363051","0.0-59.0-0.0","99826542","wem/bandit_party_2","A3H2ZHSMDWLM7Y","either","8","384","","","","","","","0","0","1","0.4961111773","","0.6","0.8","0.2","0.4","","","","","0.4961111773","0.1780354615","0.4105298721","0.6928902724","","","","","","","","","","72","H","0","img/none_selected.jpg","","18","main_expt","",""
"","bandit","104","365302","0.0-60.0-0.0","99826542","wem/bandit_party_2","A3H2ZHSMDWLM7Y","either","8","735","","","","","","","0","0","1","0.3586923344","","0.6","0.8","0.2","0.4","","","","","0.445530788","0.1576496117","0.3586923344","0.7658630901","","","","","","","","","","75","K","2","","","19","main_expt","",""
"","bandit","105","368007","0.0-61.0-0.0","99826542","wem/bandit_party_2","A3H2ZHSMDWLM7Y","either","8","1177","","","","","","","0","0","1","0.1618752313","","0.6","0.8","0.2","0.4","","","","","0.3443163705","0.1618752313","0.3220075653","0.7584200513","","","","","","","","","","74","J","1","","","20","main_expt","",""
"","bandit","106","371789","0.0-62.0-0.0","99826542","wem/bandit_party_2","A3H2ZHSMDWLM7Y","either","8","2262","","","","","","","1","0","0","0.7727038765","","0.6","0.8","0.2","0.4","","","","","0.3012808647","0.2152187387","0.2729660799","0.7727038765","","","","","","","","","","76","L","3","","","21","main_expt","",""
"","bandit","107","374742","0.0-63.0-0.0","99826542","wem/bandit_party_2","A3H2ZHSMDWLM7Y","either","8","1417","","","","","","","0","1","0","","0.8152565923","0.6","0.8","0.2","0.4","0.2882062485","0.3547982299","0.2712352107","0.8152565923","","","","","","","","","","","","","","76","L","3","","","22","main_expt","",""
"","bandit","108","377210","0.0-64.0-0.0","99826542","wem/bandit_party_2","A3H2ZHSMDWLM7Y","either","8","938","","","","","","","0","0","1","","0.3390855774","0.6","0.8","0.2","0.4","0.2113421372","0.323805638","0.3390855774","0.7537075358","","","","","","","","","","","","","","75","K","2","","","23","main_expt","",""
"","bandit","109","379041","0.0-65.0-0.0","99826542","wem/bandit_party_2","A3H2ZHSMDWLM7Y","either","8","295","","","","","","","0","0","1","","0.2201805416","0.6","0.8","0.2","0.4","0.2201805416","0.3588909826","0.3483259141","0.7108822858","","","","","","","","","","","","","","72","H","0","img/none_selected.jpg","","24","main_expt","",""
"","bandit","110","380893","0.0-66.0-0.0","99826542","wem/bandit_party_2","A3H2ZHSMDWLM7Y","either","8","312","","","","","","","0","0","1","","0.3885553436","0.6","0.8","0.2","0.4","0.2580956466","0.3885553436","0.3416976173","0.6930515954","","","","","","","","","","","","","","74","J","1","","","25","main_expt","",""
"","bandit","111","382880","0.0-67.0-0.0","99826542","wem/bandit_party_2","A3H2ZHSMDWLM7Y","either","8","460","","","","","","","0","1","0","","0.4243476322","0.6","0.8","0.2","0.4","0.2153432854","0.4871556374","0.4243476322","0.6905393417","","","","","","","","","","","","","","75","K","2","","","26","main_expt","",""
"","bandit","112","385992","0.0-68.0-0.0","99826542","wem/bandit_party_2","A3H2ZHSMDWLM7Y","either","8","1578","","","","","","","0","1","0","","0.7531652131","0.6","0.8","0.2","0.4","0.1727955236","0.4934119911","0.5257754898","0.7531652131","","","","","","","","","","","","","","76","L","3","","","27","main_expt","",""
"","bandit","113","387818","0.0-69.0-0.0","99826542","wem/bandit_party_2","A3H2ZHSMDWLM7Y","either","8","295","","","","","","","0","0","1","","0.5246232361","0.6","0.8","0.2","0.4","0.1894296703","0.4322092846","0.5246232361","0.8001777041","","","","","","","","","","","","","","75","K","2","","","28","main_expt","",""
"","bandit","114","389741","0.0-70.0-0.0","99826542","wem/bandit_party_2","A3H2ZHSMDWLM7Y","either","8","391","","","","","","","0","0","1","0.3459113699","","0.6","0.8","0.2","0.4","","","","","0.2128919211","0.3459113699","0.375994784","0.8118404327","","","","","","","","","","74","J","1","","","29","main_expt","",""
"","bandit","115","391580","0.0-71.0-0.0","99826542","wem/bandit_party_2","A3H2ZHSMDWLM7Y","either","8","304","","","","","","","0","0","1","","0.206056468","0.6","0.8","0.2","0.4","0.206056468","0.280789843","0.2936890161","0.7839534503","","","","","","","","","","","","","","72","H","0","img/none_selected.jpg","","30","main_expt","",""
"","bandit","116","393391","0.0-72.0-0.0","99826542","wem/bandit_party_2","A3H2ZHSMDWLM7Y","either","8","283","","","","","","","0","0","1","0.2878812258","","0.6","0.8","0.2","0.4","","","","","0.1725623241","0.2613810438","0.2878812258","0.8066372971","","","","","","","","","","75","K","2","","","31","main_expt","",""
"","bandit","117","395196","0.0-73.0-0.0","99826542","wem/bandit_party_2","A3H2ZHSMDWLM7Y","either","8","281","","","","","","","1","0","0","0.8049259064","","0.6","0.8","0.2","0.4","","","","","0.1629883914","0.3821585683","0.2451492808","0.8049259064","","","","","","","","","","76","L","3","","","32","main_expt","",""
"","bandit","118","397528","0.0-74.0-0.0","99826542","wem/bandit_party_2","A3H2ZHSMDWLM7Y","either","8","788","","","","","","","1","0","0","0.2107911223","","0.6","0.8","0.2","0.4","","","","","0.2107911223","0.2714925976","0.2802113289","0.7891664673","","","","","","","","","","72","H","0","img/none_selected.jpg","","33","main_expt","",""
"","bandit","119","399770","0.0-75.0-0.0","99826542","wem/bandit_party_2","A3H2ZHSMDWLM7Y","either","8","701","","","","","","","0","0","1","0.2755575364","","0.6","0.8","0.2","0.4","","","","","0.1025901997","0.2755575364","0.2892342718","0.7854278051","","","","","","","","","","74","J","1","","","34","main_expt","",""
"","bandit","120","401612","0.0-76.0-0.0","99826542","wem/bandit_party_2","A3H2ZHSMDWLM7Y","either","8","308","","","","","","","1","0","0","0.7260182018","","0.6","0.8","0.2","0.4","","","","","0.1289879153","0.2697856654","0.2486893666","0.7260182018","","","","","","","","","","76","L","3","","","35","main_expt","",""
"","bandit","121","404051","0.0-77.0-0.0","99826542","wem/bandit_party_2","A3H2ZHSMDWLM7Y","either","8","907","","","","","","","1","0","0","0.3536408983","","0.6","0.8","0.2","0.4","","","","","0.1645491317","0.2483646443","0.3536408983","0.7910957192","","","","","","","","","","75","K","2","","","36","main_expt","",""
"","bandit","122","405953","0.0-78.0-0.0","99826542","wem/bandit_party_2","A3H2ZHSMDWLM7Y","either","8","374","","","","","","","0","0","1","","0.1698046746","0.6","0.8","0.2","0.4","0.1698046746","0.2103950957","0.2493566902","0.7996551039","","","","","","","","","","","","","","72","H","0","img/none_selected.jpg","","37","main_expt","",""
"","bandit","123","407828","0.0-79.0-0.0","99826542","wem/bandit_party_2","A3H2ZHSMDWLM7Y","either","8","344","","","","","","","0","0","1","0.2128944509","","0.6","0.8","0.2","0.4","","","","","0.2281502886","0.2128944509","0.2948354516","0.6717479894","","","","","","","","","","74","J","1","","","38","main_expt","",""
"","bandit","124","409724","0.0-80.0-0.0","99826542","wem/bandit_party_2","A3H2ZHSMDWLM7Y","either","8","367","","","","","","","0","1","0","","0.3373274679","0.6","0.8","0.2","0.4","0.1561271762","0.2965153327","0.3373274679","0.7121128808","","","","","","","","","","","","","","75","K","2","","","39","main_expt","",""
"","bandit","125","411593","0.0-81.0-0.0","99826542","wem/bandit_party_2","A3H2ZHSMDWLM7Y","either","8","352","","","","","","","0","1","0","","0.7157410044","0.6","0.8","0.2","0.4","0.1543620621","0.4447532253","0.4138768052","0.7157410044","","","","","","","","","","","","","","76","L","3","","","40","main_expt","",""
"","bandit","126","413817","0.0-82.0-0.0","99826542","wem/bandit_party_2","A3H2ZHSMDWLM7Y","either","8","700","","","","","","","0","0","1","","0.438096834","0.6","0.8","0.2","0.4","0.2271499981","0.5330008696","0.438096834","0.681196038","","","","","","","","","","","","","","75","K","2","","","41","main_expt","",""
"","bandit","127","415623","0.0-83.0-0.0","99826542","wem/bandit_party_2","A3H2ZHSMDWLM7Y","either","8","274","","","","","","","0","1","0","","0.2882452936","0.6","0.8","0.2","0.4","0.2882452936","0.573861049","0.4185173612","0.6504320647","","","","","","","","","","","","","","72","H","0","img/none_selected.jpg","","42","main_expt","",""
"","bandit","128","417468","0.0-84.0-0.0","99826542","wem/bandit_party_2","A3H2ZHSMDWLM7Y","either","8","308","","","","","","","0","0","1","0.6654349765","","0.6","0.8","0.2","0.4","","","","","0.298522686","0.6654349765","0.3796335567","0.7369830744","","","","","","","","","","74","J","1","","","43","main_expt","",""
"","bandit","129","419487","0.0-85.0-0.0","99826542","wem/bandit_party_2","A3H2ZHSMDWLM7Y","either","8","491","","","","","","","1","0","0","0.691198465","","0.6","0.8","0.2","0.4","","","","","0.3188886026","0.691198465","0.31766129","0.6797935378","","","","","","","","","","74","J","1","","","44","main_expt","",""
"","bandit","130","421345","0.0-86.0-0.0","99826542","wem/bandit_party_2","A3H2ZHSMDWLM7Y","either","8","332","","","","","","","0","0","1","","0.4047397141","0.6","0.8","0.2","0.4","0.2705760174","0.7652674903","0.4047397141","0.6507473666","","","","","","","","","","","","","","75","K","2","","","45","main_expt","",""
"","bandit","131","423228","0.0-87.0-0.0","99826542","wem/bandit_party_2","A3H2ZHSMDWLM7Y","either","8","338","","","","","","","0","0","1","","0.6334510787","0.6","0.8","0.2","0.4","0.2506880939","0.8065230058","0.4961613307","0.6334510787","","","","","","","","","","","","","","76","L","3","","","46","main_expt","",""
"","bandit","132","425121","0.0-88.0-0.0","99826542","wem/bandit_party_2","A3H2ZHSMDWLM7Y","either","8","366","","","","","","","1","0","0","0.7774474893","","0.6","0.8","0.2","0.4","","","","","0.2491585872","0.7774474893","0.4624468315","0.6143175143","","","","","","","","","","74","J","1","","","47","main_expt","",""
"","bandit","133","426981","0.0-89.0-0.0","99826542","wem/bandit_party_2","A3H2ZHSMDWLM7Y","either","8","340","","","","","","","1","0","0","0.4886537242","","0.6","0.8","0.2","0.4","","","","","0.1997021219","0.7693176975","0.4886537242","0.6404512611","","","","","","","","","","75","K","2","","","48","main_expt","",""
"","bandit","134","429137","0.0-90.0-0.0","99826542","wem/bandit_party_2","A3H2ZHSMDWLM7Y","either","8","630","","","","","","","0","0","1","","0.2119577724","0.6","0.8","0.2","0.4","0.2119577724","0.807419373","0.4270302022","0.6758621215","","","","","","","","","","","","","","72","H","0","img/none_selected.jpg","","49","main_expt","",""
"","bandit","135","431185","0.0-91.0-0.0","99826542","wem/bandit_party_2","A3H2ZHSMDWLM7Y","either","8","507","","","","","","","1","0","0","0.8562769227","","0.6","0.8","0.2","0.4","","","","","0.2615271711","0.8562769227","0.5151345658","0.6873234502","","","","","","","","","","74","J","1","","","50","main_expt","",""
"","bandit","136","433125","0.0-92.0-0.0","99826542","wem/bandit_party_2","A3H2ZHSMDWLM7Y","either","8","413","","","","","","","0","1","0","","0.5134524181","0.6","0.8","0.2","0.4","0.2764427577","0.8705114925","0.5134524181","0.7776044395","","","","","","","","","","","","","","75","K","2","","","51","main_expt","",""
"","bandit","137","435572","0.0-93.0-0.0","99826542","wem/bandit_party_2","A3H2ZHSMDWLM7Y","either","8","910","","","","","","","1","0","0","0.9310361031","","0.6","0.8","0.2","0.4","","","","","0.3833776697","0.9310361031","0.4842684999","0.8403410939","","","","","","","","","","74","J","1","","","52","main_expt","",""
"","bandit","138","437450","0.0-94.0-0.0","99826542","wem/bandit_party_2","A3H2ZHSMDWLM7Y","either","8","345","","","","","","","1","0","0","0.4356502318","","0.6","0.8","0.2","0.4","","","","","0.4356502318","0.905794742","0.4412850773","0.8151983534","","","","","","","","","","72","H","0","img/none_selected.jpg","","53","main_expt","",""
"","bandit","139","439301","0.0-95.0-0.0","99826542","wem/bandit_party_2","A3H2ZHSMDWLM7Y","either","8","329","","","","","","","1","0","0","0.8081222638","","0.6","0.8","0.2","0.4","","","","","0.4120588364","0.9391541593","0.4397693946","0.8081222638","","","","","","","","","","76","L","3","","","54","main_expt","",""
"","bandit","140","441759","0.0-96.0-0.0","99826542","wem/bandit_party_2","A3H2ZHSMDWLM7Y","either","8","941","","","","","","","0","0","1","","0.3928202278","0.6","0.8","0.2","0.4","0.2714296105","0.9596285882","0.3928202278","0.742009976","","","","","","","","","","","","","","75","K","2","","","55","main_expt","",""
"","bandit","141","443614","0.0-97.0-0.0","99826542","wem/bandit_party_2","A3H2ZHSMDWLM7Y","either","8","333","","","","","","","0","1","0","","0.7065076074","0.6","0.8","0.2","0.4","0.2122311877","0.9565658233","0.4593665993","0.7065076074","","","","","","","","","","","","","","76","L","3","","","56","main_expt","",""
"","bandit","142","445472","0.0-98.0-0.0","99826542","wem/bandit_party_2","A3H2ZHSMDWLM7Y","either","8","330","","","","","","","1","0","0","0.9681540372","","0.6","0.8","0.2","0.4","","","","","0.2282278588","0.9681540372","0.4006145211","0.6860695476","","","","","","","","","","74","J","1","","","57","main_expt","",""
"","bandit","143","447873","0.0-99.0-0.0","99826542","wem/bandit_party_2","A3H2ZHSMDWLM7Y","either","8","871","","","","","","","0","1","0","","0.9207083952","0.6","0.8","0.2","0.4","0.1392076118","0.9207083952","0.4597890412","0.742301155","","","","","","","","","","","","","","74","J","1","","","58","main_expt","",""
"","bandit","144","449709","0.0-100.0-0.0","99826542","wem/bandit_party_2","A3H2ZHSMDWLM7Y","either","8","296","","","","","","","0","0","1","","0.1706239206","0.6","0.8","0.2","0.4","0.1706239206","0.9178227258","0.4232266093","0.5291004622","","","","","","","","","","","","","","72","H","0","img/none_selected.jpg","","59","main_expt","",""
"","bandit","145","451617","0.0-101.0-0.0","99826542","wem/bandit_party_2","A3H2ZHSMDWLM7Y","either","8","382","","","","","","","1","0","0","0.3565880291","","0.6","0.8","0.2","0.4","","","","","0.1674269281","0.8951285427","0.3565880291","0.6348838793","","","","","","","","","","75","K","2","","","60","main_expt","",""
"","bandit","146","453600","0.0-102.0-0.0","99826542","wem/bandit_party_2","A3H2ZHSMDWLM7Y","either","8","452","","","","","","","0","1","0","","0.6796423313","0.6","0.8","0.2","0.4","0.2182313474","0.8506814954","0.3663276413","0.6796423313","","","","","","","","","","","","","","76","L","3","","","61","main_expt","",""
"","bandit","147","456226","0.0-103.0-0.0","99826542","wem/bandit_party_2","A3H2ZHSMDWLM7Y","either","8","1104","","","","","","","0","0","1","","0.3193005293","0.6","0.8","0.2","0.4","0.2949218256","0.8513854559","0.3193005293","0.6928172916","","","","","","","","","","","","","","75","K","2","","","62","main_expt","",""
"","bandit","148","458315","0.0-104.0-0.0","99826542","wem/bandit_party_2","A3H2ZHSMDWLM7Y","either","8","546","","","","","","","0","0","1","0.3170222383","","0.6","0.8","0.2","0.4","","","","","0.3170222383","0.8927579502","0.1562068481","0.6996506825","","","","","","","","","","72","H","0","img/none_selected.jpg","","63","main_expt","",""
"","bandit","149","460134","0.0-105.0-0.0","99826542","wem/bandit_party_2","A3H2ZHSMDWLM7Y","either","8","289","","","","","","","1","0","0","0.9217936765","","0.6","0.8","0.2","0.4","","","","","0.3033511374","0.9217936765","0.2300477965","0.7294442249","","","","","","","","","","74","J","1","","","64","main_expt","",""
"","bandit","150","462087","0.0-106.0-0.0","99826542","wem/bandit_party_2","A3H2ZHSMDWLM7Y","either","8","410","","","","","","","0","0","1","","0.2869838185","0.6","0.8","0.2","0.4","0.3973690147","0.9357047413","0.2869838185","0.6605354899","","","","","","","","","","","","","","75","K","2","","","65","main_expt","",""
"","bandit","151","463929","0.0-107.0-0.0","99826542","wem/bandit_party_2","A3H2ZHSMDWLM7Y","either","8","317","","","","","","","0","0","1","","0.6959621059","0.6","0.8","0.2","0.4","0.4320294497","0.910343843","0.3287476356","0.6959621059","","","","","","","","","","","","","","76","L","3","","","66","main_expt","",""
"","bandit","152","466026","0.0-108.0-0.0","99826542","wem/bandit_party_2","A3H2ZHSMDWLM7Y","either","8","564","","","","","","","0","1","0","","0.9022080512","0.6","0.8","0.2","0.4","0.3208465419","0.9022080512","0.3018365728","0.653899752","","","","","","","","","","","","","","74","J","1","","","67","main_expt","",""
"","bandit","153","467880","0.0-109.0-0.0","99826542","wem/bandit_party_2","A3H2ZHSMDWLM7Y","either","8","326","","","","","","","0","0","1","","0.3208616414","0.6","0.8","0.2","0.4","0.3570730799","0.8492414063","0.3208616414","0.6517851336","","","","","","","","","","","","","","75","K","2","","","68","main_expt","",""
"","bandit","154","469730","0.0-110.0-0.0","99826542","wem/bandit_party_2","A3H2ZHSMDWLM7Y","either","8","321","","","","","","","0","0","1","0.7011615004","","0.6","0.8","0.2","0.4","","","","","0.3451514791","0.768219052","0.386863802","0.7011615004","","","","","","","","","","76","L","3","","","69","main_expt","",""
"","bandit","155","471619","0.0-111.0-0.0","99826542","wem/bandit_party_2","A3H2ZHSMDWLM7Y","either","8","346","","","","","","","0","0","1","0.3127714871","","0.6","0.8","0.2","0.4","","","","","0.3127714871","0.7996218848","0.3628244161","0.6278947594","","","","","","","","","","72","H","0","img/none_selected.jpg","","70","main_expt","",""
"","bandit","156","473469","0.0-112.0-0.0","99826542","wem/bandit_party_2","A3H2ZHSMDWLM7Y","either","8","306","","","","","","","1","0","0","0.9130189757","","0.6","0.8","0.2","0.4","","","","","0.3855297895","0.9130189757","0.2969295023","0.688517509","","","","","","","","","","74","J","1","","","71","main_expt","",""
"","bandit","157","475498","0.0-113.0-0.0","99826542","wem/bandit_party_2","A3H2ZHSMDWLM7Y","either","8","486","","","","","","","0","0","1","","0.3512325323","0.6","0.8","0.2","0.4","0.3555010044","0.9016843832","0.3512325323","0.6125440106","","","","","","","","","","","","","","75","K","2","","","72","main_expt","",""
"","bandit","158","477563","0.0-114.0-0.0","99826542","wem/bandit_party_2","A3H2ZHSMDWLM7Y","either","8","547","","","","","","","0","0","1","0.4884410468","","0.6","0.8","0.2","0.4","","","","","0.3278360739","0.9166584401","0.3845321254","0.4884410468","","","","","","","","","","76","L","3","","","73","main_expt","",""
"","bandit","159","480791","0.0-115.0-0.0","99826542","wem/bandit_party_2","A3H2ZHSMDWLM7Y","either","8","1682","","","","","","","0","1","0","","0.5800760741","0.6","0.8","0.2","0.4","0.3275161349","0.8699410266","0.3760614253","0.5800760741","","","","","","","","","","","","","","76","L","3","","","74","main_expt","",""
"","bandit","160","482656","0.0-116.0-0.0","99826542","wem/bandit_party_2","A3H2ZHSMDWLM7Y","either","8","343","","","","","","","0","1","0","","0.3454333807","0.6","0.8","0.2","0.4","0.3454333807","0.8192171788","0.370831352","0.6614390465","","","","","","","","","","","","","","72","H","0","img/none_selected.jpg","","75","main_expt","",""
"","bandit","161","484608","0.0-117.0-0.0","99826542","wem/bandit_party_2","A3H2ZHSMDWLM7Y","either","8","408","","","","","","","1","0","0","0.8990587115","","0.6","0.8","0.2","0.4","","","","","0.4213924804","0.8990587115","0.4008199491","0.6861570843","","","","","","","","","","74","J","1","","","76","main_expt","",""
"","bandit","162","486524","0.0-118.0-0.0","99826542","wem/bandit_party_2","A3H2ZHSMDWLM7Y","either","8","389","","","","","","","1","0","0","0.3928984844","","0.6","0.8","0.2","0.4","","","","","0.439510692","0.9062137116","0.3928984844","0.5980737028","","","","","","","","","","75","K","2","","","77","main_expt","",""
"","bandit","163","488400","0.0-119.0-0.0","99826542","wem/bandit_party_2","A3H2ZHSMDWLM7Y","either","8","335","","","","","","","1","0","0","0.9215914722","","0.6","0.8","0.2","0.4","","","","","0.4419424199","0.9215914722","0.4709058574","0.6754083514","","","","","","","","","","74","J","1","","","78","main_expt","",""
"","bandit","164","490721","0.0-120.0-0.0","99826542","wem/bandit_party_2","A3H2ZHSMDWLM7Y","either","8","786","","","","","","","0","0","1","","0.4971614577","0.6","0.8","0.2","0.4","0.5056762283","0.895443078","0.4971614577","0.7012934339","","","","","","","","","","","","","","75","K","2","","","79","main_expt","",""
"","bandit","165","492550","0.0-121.0-0.0","99826542","wem/bandit_party_2","A3H2ZHSMDWLM7Y","either","8","290","","","","","","","1","0","0","0.7067798052","","0.6","0.8","0.2","0.4","","","","","0.4558190996","0.7789772955","0.4828267768","0.7067798052","","","","","","","","","","76","L","3","","","80","main_expt","",""
"","bandit","166","494498","0.0-122.0-0.0","99826542","wem/bandit_party_2","A3H2ZHSMDWLM7Y","either","8","417","","","","","","","1","0","0","0.4774921548","","0.6","0.8","0.2","0.4","","","","","0.4774921548","0.755426824","0.4280570329","0.7259433061","","","","","","","","","","72","H","0","img/none_selected.jpg","","81","main_expt","",""
"","bandit","167","496575","0.0-123.0-0.0","99826542","wem/bandit_party_2","A3H2ZHSMDWLM7Y","either","8","543","","","","","","","0","1","0","","0.7022130872","0.6","0.8","0.2","0.4","0.3611036613","0.8356426425","0.486136241","0.7022130872","","","","","","","","","","","","","","76","L","3","","","82","main_expt","",""
"","bandit","168","498405","0.0-124.0-0.0","99826542","wem/bandit_party_2","A3H2ZHSMDWLM7Y","either","8","298","","","","","","","0","0","1","0.3539143083","","0.6","0.8","0.2","0.4","","","","","0.3341354767","0.8783145762","0.3539143083","0.75927227","","","","","","","","","","75","K","2","","","83","main_expt","",""
"","bandit","169","500321","0.0-125.0-0.0","99826542","wem/bandit_party_2","A3H2ZHSMDWLM7Y","either","8","376","","","","","","","1","0","0","0.9087743635","","0.6","0.8","0.2","0.4","","","","","0.288479151","0.9087743635","0.374811954","0.8556046088","","","","","","","","","","74","J","1","","","84","main_expt","",""
"","bandit","170","502195","0.0-126.0-0.0","99826542","wem/bandit_party_2","A3H2ZHSMDWLM7Y","either","8","335","","","","","","","0","0","1","0.3061923995","","0.6","0.8","0.2","0.4","","","","","0.3061923995","0.8632011641","0.4518264681","0.7835234447","","","","","","","","","","72","H","0","img/none_selected.jpg","","85","main_expt","",""
"","bandit","171","504703","0.0-127.0-0.0","99826542","wem/bandit_party_2","A3H2ZHSMDWLM7Y","either","8","964","","","","","","","1","0","0","0.3370204437","","0.6","0.8","0.2","0.4","","","","","0.3370204437","0.8341253046","0.461936863","0.7037548709","","","","","","","","","","72","H","0","img/none_selected.jpg","","86","main_expt","",""
"","bandit","172","506673","0.0-128.0-0.0","99826542","wem/bandit_party_2","A3H2ZHSMDWLM7Y","either","8","429","","","","","","","1","0","0","0.8728746981","","0.6","0.8","0.2","0.4","","","","","0.3900809043","0.8728746981","0.3681660755","0.6903674631","","","","","","","","","","74","J","1","","","87","main_expt","",""
"","bandit","173","508639","0.0-129.0-0.0","99826542","wem/bandit_party_2","A3H2ZHSMDWLM7Y","either","8","430","","","","","","","0","0","1","0.3788462328","","0.6","0.8","0.2","0.4","","","","","0.4296615172","0.8408980459","0.3788462328","0.5883284312","","","","","","","","","","75","K","2","","","88","main_expt","",""
"","bandit","174","510504","0.0-130.0-0.0","99826542","wem/bandit_party_2","A3H2ZHSMDWLM7Y","either","8","326","","","","","","","0","0","1","","0.5258490985","0.6","0.8","0.2","0.4","0.4636560077","0.8585781628","0.3316952272","0.5258490985","","","","","","","","","","","","","","76","L","3","","","89","main_expt","",""
"","bandit","175","512388","0.0-131.0-0.0","99826542","wem/bandit_party_2","A3H2ZHSMDWLM7Y","either","8","345","","","","","","","0","1","0","","0.925840658","0.6","0.8","0.2","0.4","0.4463585346","0.925840658","0.438068917","0.6395041767","","","","","","","","","","","","","","74","J","1","","","90","main_expt","",""
"","bandit","176","514283","0.0-132.0-0.0","99826542","wem/bandit_party_2","A3H2ZHSMDWLM7Y","either","8","363","","","","","","","0","0","1","","0.4734463503","0.6","0.8","0.2","0.4","0.4734463503","0.9201841885","0.5158843935","0.6931091445","","","","","","","","","","","","","","72","H","0","img/none_selected.jpg","","91","main_expt","",""
"","bandit","177","515939","0.0-133.0-0.0","99826542","wem/bandit_party_2","A3H2ZHSMDWLM7Y","either","8","125","","","","","","","0","0","1","","0.5182757575","0.6","0.8","0.2","0.4","0.5248255385","0.8508076908","0.5182757575","0.6725373887","","","","","","","","","","","","","","75","K","2","","","92","main_expt","",""
"","bandit","178","519802","0.0-134.0-0.0","99826542","wem/bandit_party_2","A3H2ZHSMDWLM7Y","either","8","2331","","","","","","","0","0","1","","0.5498130742","0.6","0.8","0.2","0.4","0.3386726181","0.8106711147","0.5498130742","0.7388835399","","","","","","","","","","","","","","75","K","2","","","93","main_expt","",""
"","bandit","179","522000","0.0-135.0-0.0","99826542","wem/bandit_party_2","A3H2ZHSMDWLM7Y","either","8","666","","","","","","","0","1","0","","0.697373586","0.6","0.8","0.2","0.4","0.3718894848","0.8543263914","0.6049407638","0.697373586","","","","","","","","","","","","","","76","L","3","","","94","main_expt","",""
"","bandit","180","523997","0.0-136.0-0.0","99826542","wem/bandit_party_2","A3H2ZHSMDWLM7Y","either","8","461","","","","","","","1","0","0","0.8387782901","","0.6","0.8","0.2","0.4","","","","","0.4005278521","0.8387782901","0.6604115927","0.7550322224","","","","","","","","","","74","J","1","","","95","main_expt","",""
"","bandit","181","525894","0.0-137.0-0.0","99826542","wem/bandit_party_2","A3H2ZHSMDWLM7Y","either","8","360","","","","","","","0","0","1","","0.3694595514","0.6","0.8","0.2","0.4","0.3694595514","0.8208071174","0.7003847986","0.6576962358","","","","","","","","","","","","","","72","H","0","img/none_selected.jpg","","96","main_expt","",""
"","bandit","182","528592","0.0-138.0-0.0","99826542","wem/bandit_party_2","A3H2ZHSMDWLM7Y","either","8","1163","","","","","","","0","0","1","","0.6793148949","0.6","0.8","0.2","0.4","0.3186037095","0.765358829","0.6793148949","0.6802484638","","","","","","","","","","","","","","75","K","2","","","97","main_expt","",""
"","bandit","183","530488","0.0-139.0-0.0","99826542","wem/bandit_party_2","A3H2ZHSMDWLM7Y","either","8","365","","","","","","","0","1","0","","0.6204607354","0.6","0.8","0.2","0.4","0.2786717818","0.7823463211","0.6204607354","0.7042077447","","","","","","","","","","","","","","75","K","2","","","98","main_expt","",""
"","bandit","184","532293","0.0-140.0-0.0","99826542","wem/bandit_party_2","A3H2ZHSMDWLM7Y","either","8","279","","","","","","","1","0","0","0.7355617892","","0.6","0.8","0.2","0.4","","","","","0.32929866","0.7523003034","0.6166262367","0.7355617892","","","","","","","","","","76","L","3","","","99","main_expt","",""
"","bandit","185","534121","0.0-141.0-0.0","99826542","wem/bandit_party_2","A3H2ZHSMDWLM7Y","either","8","291","","","","","","","0","0","1","0.7174790615","","0.6","0.8","0.2","0.4","","","","","0.3115323478","0.7174790615","0.5347115766","0.7117411671","","","","","","","","","","74","J","1","","","100","main_expt","",""
"","bandit","186","536067","0.0-142.0-0.0","99826542","wem/bandit_party_2","A3H2ZHSMDWLM7Y","either","8","424","","","","","","","0","0","1","0.4221749579","","0.6","0.8","0.2","0.4","","","","","0.4221749579","0.7660578318","0.3418016043","0.7263903312","","","","","","","","","","72","H","0","img/none_selected.jpg","","101","main_expt","",""
"","bandit","187","537920","0.0-143.0-0.0","99826542","wem/bandit_party_2","A3H2ZHSMDWLM7Y","either","8","322","","","","","","","1","0","0","0.7201180075","","0.6","0.8","0.2","0.4","","","","","0.2718078598","0.7201180075","0.2550922237","0.7357346189","","","","","","","","","","74","J","1","","","102","main_expt","",""
"","bandit","188","540730","0.0-144.0-0.0","99826542","wem/bandit_party_2","A3H2ZHSMDWLM7Y","either","8","1281","","","","","","","0","0","1","","0.3181696353","0.6","0.8","0.2","0.4","0.3011307106","0.8452780714","0.3181696353","0.7026134783","","","","","","","","","","","","","","75","K","2","","","103","main_expt","",""
"","bandit","189","542619","0.0-145.0-0.0","99826542","wem/bandit_party_2","A3H2ZHSMDWLM7Y","either","8","347","","","","","","","0","1","0","","0.8073666152","0.6","0.8","0.2","0.4","0.3659291838","0.7236924273","0.3383579412","0.8073666152","","","","","","","","","","","","","","76","L","3","","","104","main_expt","",""
"","bandit","190","544379","0.0-146.0-0.0","99826542","wem/bandit_party_2","A3H2ZHSMDWLM7Y","either","8","224","","","","","","","0","0","1","","0.2354673658","0.6","0.8","0.2","0.4","0.3499435223","0.743719778","0.2354673658","0.824483439","","","","","","","","","","","","","","75","K","2","","","105","main_expt","",""
"","bandit","191","546110","0.0-147.0-0.0","99826542","wem/bandit_party_2","A3H2ZHSMDWLM7Y","either","8","188","","","","","","","1","0","0","0.7985687284","","0.6","0.8","0.2","0.4","","","","","0.3602262465","0.7985687284","0.159398249","0.9208810438","","","","","","","","","","74","J","1","","","106","main_expt","",""
"","bandit","192","548581","0.0-148.0-0.0","99826542","wem/bandit_party_2","A3H2ZHSMDWLM7Y","either","8","926","","","","","","","0","0","1","","0.1295169146","0.6","0.8","0.2","0.4","0.3252215163","0.799345197","0.1295169146","0.8911910097","","","","","","","","","","","","","","75","K","2","","","107","main_expt","",""
"","bandit","193","550363","0.0-149.0-0.0","99826542","wem/bandit_party_2","A3H2ZHSMDWLM7Y","either","8","240","","","","","","","0","0","1","","0.2812406992","0.6","0.8","0.2","0.4","0.2812406992","0.8681690713","0.07754053308","0.8450149587","","","","","","","","","","","","","","72","H","0","img/none_selected.jpg","","108","main_expt","",""
"","bandit","194","552221","0.0-150.0-0.0","99826542","wem/bandit_party_2","A3H2ZHSMDWLM7Y","either","8","322","","","","","","","0","1","0","","0.868327257","0.6","0.8","0.2","0.4","0.2559497519","0.8556732204","0.06591215473","0.868327257","","","","","","","","","","","","","","76","L","3","","","109","main_expt","",""
"","bandit","195","554390","0.0-151.0-0.0","99826542","wem/bandit_party_2","A3H2ZHSMDWLM7Y","either","8","631","","","","","","","1","0","0","0.8669893864","","0.6","0.8","0.2","0.4","","","","","0.2817400418","0.8669893864","0.1189546392","0.8868335222","","","","","","","","","","74","J","1","","","110","main_expt","",""
"","bandit","196","556164","0.0-152.0-0.0","99826542","wem/bandit_party_2","A3H2ZHSMDWLM7Y","either","8","244","","","","","","","1","0","0","0.2773620367","","0.6","0.8","0.2","0.4","","","","","0.2773620367","0.799383849","0.09523351692","0.8770728171","","","","","","","","","","72","H","0","img/none_selected.jpg","","111","main_expt","",""
"","bandit","197","558063","0.0-153.0-0.0","99826542","wem/bandit_party_2","A3H2ZHSMDWLM7Y","either","8","381","","","","","","","0","0","1","","0.107489667","0.6","0.8","0.2","0.4","0.2833316415","0.859799476","0.107489667","0.8481710002","","","","","","","","","","","","","","75","K","2","","","112","main_expt","",""
"","bandit","198","559969","0.0-154.0-0.0","99826542","wem/bandit_party_2","A3H2ZHSMDWLM7Y","either","8","369","","","","","","","0","1","0","","0.8573528835","0.6","0.8","0.2","0.4","0.3433702059","0.7932436089","0.1026187258","0.8573528835","","","","","","","","","","","","","","76","L","3","","","113","main_expt","",""
"","bandit","199","561793","0.0-155.0-0.0","99826542","wem/bandit_party_2","A3H2ZHSMDWLM7Y","either","8","293","","","","","","","0","0","1","0.4828882278","","0.6","0.8","0.2","0.4","","","","","0.4828882278","0.849407262","0.1044839951","0.8291807482","","","","","","","","","","72","H","0","img/none_selected.jpg","","114","main_expt","",""
"","bandit","200","563489","0.0-156.0-0.0","99826542","wem/bandit_party_2","A3H2ZHSMDWLM7Y","either","8","164","","","","","","","1","0","0","0.8882716547","","0.6","0.8","0.2","0.4","","","","","0.54932579","0.8882716547","0.1213931844","0.761972944","","","","","","","","","","74","J","1","","","115","main_expt","",""
"","bandit","201","565314","0.0-157.0-0.0","99826542","wem/bandit_party_2","A3H2ZHSMDWLM7Y","either","8","292","","","","","","","0","0","1","0.1184144227","","0.6","0.8","0.2","0.4","","","","","0.6971345968","0.8741354715","0.1184144227","0.786197192","","","","","","","","","","75","K","2","","","116","main_expt","",""
"","bandit","202","567401","0.0-158.0-0.0","99826542","wem/bandit_party_2","A3H2ZHSMDWLM7Y","either","8","553","","","","","","","0","0","1","","0.7834453561","0.6","0.8","0.2","0.4","0.5396272374","0.8083823922","0.1983931569","0.7834453561","","","","","","","","","","","","","","76","L","3","","","117","main_expt","",""
"","bandit","203","569262","0.0-159.0-0.0","99826542","wem/bandit_party_2","A3H2ZHSMDWLM7Y","either","8","333","","","","","","","0","0","1","0.5544567993","","0.6","0.8","0.2","0.4","","","","","0.5544567993","0.868525306","0.2840039584","0.6742380839","","","","","","","","","","72","H","0","img/none_selected.jpg","","118","main_expt","",""
"","bandit","204","571185","0.0-160.0-0.0","99826542","wem/bandit_party_2","A3H2ZHSMDWLM7Y","either","8","388","","","","","","","1","0","0","0.8386471998","","0.6","0.8","0.2","0.4","","","","","0.5504896642","0.8386471998","0.3563325119","0.7350700153","","","","","","","","","","74","J","1","","","119","main_expt","",""
"","bandit","205","572984","0.0-161.0-0.0","99826542","wem/bandit_party_2","A3H2ZHSMDWLM7Y","either","8","281","","","","","","","0","0","1","","0.5682387565","0.6","0.8","0.2","0.4","0.5812137135","0.8103559508","0.5682387565","0.70601835","","","","","","","","","","","","","","75","K","2","","","120","main_expt","",""
"","bandit","206","574911","0.0-162.0-0.0","99826542","wem/bandit_party_2","A3H2ZHSMDWLM7Y","either","8","395","","","","","","","1","0","0","0.8193015173","","0.6","0.8","0.2","0.4","","","","","0.6033058466","0.8193015173","0.5189107771","0.7347719752","","","","","","","","","","74","J","1","","","121","main_expt","",""
"","bandit","207","576751","0.0-163.0-0.0","99826542","wem/bandit_party_2","A3H2ZHSMDWLM7Y","either","8","319","","","","","","","1","0","0","0.8270923978","","0.6","0.8","0.2","0.4","","","","","0.6102220397","0.8025146027","0.4428493372","0.8270923978","","","","","","","","","","76","L","3","","","122","main_expt","",""
"","bandit","208","578572","0.0-164.0-0.0","99826542","wem/bandit_party_2","A3H2ZHSMDWLM7Y","either","8","278","","","","","","","1","0","0","0.6108151959","","0.6","0.8","0.2","0.4","","","","","0.6108151959","0.8121847492","0.472724465","0.7980631313","","","","","","","","","","72","H","0","img/none_selected.jpg","","123","main_expt","",""
"","bandit","209","581240","0.0-165.0-0.0","99826542","wem/bandit_party_2","A3H2ZHSMDWLM7Y","either","8","1133","","","","","","","0","1","0","","0.4799585558","0.6","0.8","0.2","0.4","0.7117385939","0.8299418439","0.4799585558","0.7369852887","","","","","","","","","","","","","","75","K","2","","","124","main_expt","",""
"","bandit","210","583045","0.0-166.0-0.0","99826542","wem/bandit_party_2","A3H2ZHSMDWLM7Y","either","8","271","","","","","","","1","0","0","0.7465944313","","0.6","0.8","0.2","0.4","","","","","0.7554186078","0.825688343","0.5080184993","0.7465944313","","","","","","","","","","76","L","3","","","125","main_expt","",""
"","bandit","211","584874","0.0-167.0-0.0","99826542","wem/bandit_party_2","A3H2ZHSMDWLM7Y","either","8","292","","","","","","","1","0","0","0.8372054396","","0.6","0.8","0.2","0.4","","","","","0.8855751833","0.8372054396","0.4555098289","0.7596834852","","","","","","","","","","74","J","1","","","126","main_expt","",""
"","bandit","212","586869","0.0-168.0-0.0","99826542","wem/bandit_party_2","A3H2ZHSMDWLM7Y","either","8","473","","","","","","","0","0","1","","0.8003015049","0.6","0.8","0.2","0.4","0.8003015049","0.7906689898","0.5475411796","0.7398299979","","","","","","","","","","","","","","72","H","0","img/none_selected.jpg","","127","main_expt","",""
"","bandit","213","588694","0.0-169.0-0.0","99826542","wem/bandit_party_2","A3H2ZHSMDWLM7Y","either","8","285","","","","","","","0","1","0","","0.612647382","0.6","0.8","0.2","0.4","0.8403113951","0.8008571507","0.612647382","0.7764866849","","","","","","","","","","","","","","75","K","2","","","128","main_expt","",""
"","bandit","214","590562","0.0-170.0-0.0","99826542","wem/bandit_party_2","A3H2ZHSMDWLM7Y","either","8","326","","","","","","","1","0","0","0.7829297973","","0.6","0.8","0.2","0.4","","","","","0.8826872071","0.7829297973","0.7128970287","0.6435675963","","","","","","","","","","74","J","1","","","129","main_expt","",""
"","bandit","215","592543","0.0-171.0-0.0","99826542","wem/bandit_party_2","A3H2ZHSMDWLM7Y","either","8","444","","","","","","","1","0","0","0.8641000085","","0.6","0.8","0.2","0.4","","","","","0.8641000085","0.6898445721","0.7309911721","0.7030252038","","","","","","","","","","72","H","0","img/none_selected.jpg","","130","main_expt","",""
"","bandit","216","594408","0.0-172.0-0.0","99826542","wem/bandit_party_2","A3H2ZHSMDWLM7Y","either","8","323","","","","","","","1","0","0","0.6829232191","","0.6","0.8","0.2","0.4","","","","","0.8752037592","0.5864867529","0.73180147","0.6829232191","","","","","","","","","","76","L","3","","","131","main_expt","",""
"","bandit","217","596312","0.0-173.0-0.0","99826542","wem/bandit_party_2","A3H2ZHSMDWLM7Y","either","8","359","","","","","","","1","0","0","0.560122833","","0.6","0.8","0.2","0.4","","","","","0.8279556795","0.560122833","0.8467134838","0.7406452387","","","","","","","","","","74","J","1","","","132","main_expt","",""
"","bandit","218","599071","0.0-174.0-0.0","99826542","wem/bandit_party_2","A3H2ZHSMDWLM7Y","either","8","1231","","","","","","","0","0","1","","0.8194722428","0.6","0.8","0.2","0.4","0.8194722428","0.48439517","0.8481264083","0.6666234363","","","","","","","","","","","","","","72","H","0","img/none_selected.jpg","","133","main_expt","",""
"","bandit","219","600886","0.0-175.0-0.0","99826542","wem/bandit_party_2","A3H2ZHSMDWLM7Y","either","8","287","","","","","","","0","1","0","","0.8771050955","0.6","0.8","0.2","0.4","0.8037084922","0.3919863126","0.8771050955","0.680542061","","","","","","","","","","","","","","75","K","2","","","134","main_expt","",""
"","bandit","220","602609","0.0-176.0-0.0","99826542","wem/bandit_party_2","A3H2ZHSMDWLM7Y","either","8","190","","","","","","","1","0","0","0.7006187635","","0.6","0.8","0.2","0.4","","","","","0.8155916457","0.5174750093","0.9103241533","0.7006187635","","","","","","","","","","76","L","3","","","135","main_expt","",""
"","bandit","221","604914","0.0-177.0-0.0","99826542","wem/bandit_party_2","A3H2ZHSMDWLM7Y","either","8","768","","","","","","","1","0","0","0.8281957705","","0.6","0.8","0.2","0.4","","","","","0.8281957705","0.4264762493","0.9126032517","0.6936815578","","","","","","","","","","72","H","0","img/none_selected.jpg","","136","main_expt","",""
"","bandit","222","606641","0.0-178.0-0.0","99826542","wem/bandit_party_2","A3H2ZHSMDWLM7Y","either","8","204","","","","","","","1","0","0","0.8983360858","","0.6","0.8","0.2","0.4","","","","","0.7055403129","0.5351999402","0.8983360858","0.6531428085","","","","","","","","","","75","K","2","","","137","main_expt","",""
"","bandit","223","608492","0.0-179.0-0.0","99826542","wem/bandit_party_2","A3H2ZHSMDWLM7Y","either","8","312","","","","","","","0","1","0","","0.4758748922","0.6","0.8","0.2","0.4","0.6884351598","0.4758748922","0.8851370462","0.6769758131","","","","","","","","","","","","","","74","J","1","","","138","main_expt","",""
"","bandit","224","610587","0.0-180.0-0.0","99826542","wem/bandit_party_2","A3H2ZHSMDWLM7Y","either","8","557","","","","","","","0","0","1","","0.6090423031","0.6","0.8","0.2","0.4","0.6090423031","0.4039793023","0.8662270416","0.7649589049","","","","","","","","","","","","","","72","H","0","img/none_selected.jpg","","139","main_expt","",""
"","bandit","225","612996","0.0-181.0-0.0","99826542","wem/bandit_party_2","A3H2ZHSMDWLM7Y","either","8","873","","","","","","","0","1","0","","0.8345767194","0.6","0.8","0.2","0.4","0.7000077187","0.384774136","0.8345767194","0.7674202191","","","","","","","","","","","","","","75","K","2","","","140","main_expt","",""
"","bandit","226","614657","0.0-182.0-0.0","99826542","wem/bandit_party_2","A3H2ZHSMDWLM7Y","either","8","124","","","","","","","0","0","1","0.327254859","","0.6","0.8","0.2","0.4","","","","","0.6643185619","0.327254859","0.8783670964","0.8575114448","","","","","","","","","","74","J","1","","","141","main_expt","",""
"","bandit","227","616435","0.0-183.0-0.0","99826542","wem/bandit_party_2","A3H2ZHSMDWLM7Y","either","8","256","","","","","","","0","0","1","","0.8134430427","0.6","0.8","0.2","0.4","0.7079845674","0.4536641492","0.8895828315","0.8134430427","","","","","","","","","","","","","","76","L","3","","","142","main_expt","",""
"","bandit","228","619510","0.0-184.0-0.0","99826542","wem/bandit_party_2","A3H2ZHSMDWLM7Y","either","8","1529","","","","","","","0","1","0","","0.9053928798","0.6","0.8","0.2","0.4","0.6624187643","0.4348486293","0.9053928798","0.8345505038","","","","","","","","","","","","","","75","K","2","","","143","main_expt","",""
"","bandit","229","621343","0.0-185.0-0.0","99826542","wem/bandit_party_2","A3H2ZHSMDWLM7Y","either","8","295","","","","","","","1","0","0","0.4086594597","","0.6","0.8","0.2","0.4","","","","","0.6779247185","0.4086594597","0.9033088386","0.7482817554","","","","","","","","","","74","J","1","","","144","main_expt","",""
"","bandit","230","623371","0.0-186.0-0.0","99826542","wem/bandit_party_2","A3H2ZHSMDWLM7Y","either","8","481","","","","","","","0","0","1","","0.7400387939","0.6","0.8","0.2","0.4","0.7216102374","0.4420772456","0.8572864227","0.7400387939","","","","","","","","","","","","","","76","L","3","","","145","main_expt","",""
"","bandit","231","624915","0.0-187.0-0.0","99826542","wem/bandit_party_2","A3H2ZHSMDWLM7Y","either","8","15","","","","","","","1","0","0","0.7837267619","","0.6","0.8","0.2","0.4","","","","","0.7837267619","0.508741462","0.8687508917","0.795971973","","","","","","","","","","72","H","0","img/none_selected.jpg","","146","main_expt","",""
"","bandit","232","627890","0.0-188.0-0.0","99826542","wem/bandit_party_2","A3H2ZHSMDWLM7Y","either","8","1446","","","","","","","0","0","1","0.7503502301","","0.6","0.8","0.2","0.4","","","","","0.7652264833","0.4624398998","0.8657621525","0.7503502301","","","","","","","","","","76","L","3","","","147","main_expt","",""
"","bandit","233","629686","0.0-189.0-0.0","99826542","wem/bandit_party_2","A3H2ZHSMDWLM7Y","either","8","269","","","","","","","0","0","1","","0.7358716413","0.6","0.8","0.2","0.4","0.7358716413","0.4062589849","0.8362891365","0.8200474043","","","","","","","","","","","","","","72","H","0","img/none_selected.jpg","","148","main_expt","",""
"","bandit","234","631564","0.0-190.0-0.0","99826542","wem/bandit_party_2","A3H2ZHSMDWLM7Y","either","8","335","","","","","","","0","1","0","","0.8144386017","0.6","0.8","0.2","0.4","0.7129200786","0.4895331913","0.8144386017","0.8509010271","","","","","","","","","","","","","","75","K","2","","","149","main_expt","",""
"","bandit","235","633722","0.0-191.0-0.0","99826542","wem/bandit_party_2","A3H2ZHSMDWLM7Y","either","8","622","","","","","","","1","0","0","0.4704746919","","0.6","0.8","0.2","0.4","","","","","0.705531668","0.4704746919","0.6948055455","0.8298908313","","","","","","","","","","74","J","1","","","150","main_expt","",""
"","bandit","236","636127","0.0-192.0-0.0","99826542","wem/bandit_party_2","A3H2ZHSMDWLM7Y","either","8","868","","","","","","","1","0","0","0.4725745774","","0.6","0.8","0.2","0.4","","","","","0.5744604188","0.4725745774","0.6231991314","0.7362749002","","","","","","","","","","74","J","1","","","151","main_expt","",""
"","bandit","237","637998","0.0-193.0-0.0","99826542","wem/bandit_party_2","A3H2ZHSMDWLM7Y","either","8","337","","","","","","","0","1","0","","0.7601791643","0.6","0.8","0.2","0.4","0.5372669321","0.4943906398","0.7045057733","0.7601791643","","","","","","","","","","","","","","76","L","3","","","152","main_expt","",""
"","bandit","238","639830","0.0-194.0-0.0","99826542","wem/bandit_party_2","A3H2ZHSMDWLM7Y","either","8","307","","","","","","","0","1","0","","0.5331338622","0.6","0.8","0.2","0.4","0.5447545218","0.4639524782","0.5331338622","0.7590648118","","","","","","","","","","","","","","75","K","2","","","153","main_expt","",""
"","bandit","239","641637","0.0-195.0-0.0","99826542","wem/bandit_party_2","A3H2ZHSMDWLM7Y","either","8","274","","","","","","","0","0","1","0.4191749193","","0.6","0.8","0.2","0.4","","","","","0.4191749193","0.3935792086","0.5096720896","0.7805387907","","","","","","","","","","72","H","0","img/none_selected.jpg","","154","main_expt","",""
"","bandit","240","643454","0.0-196.0-0.0","99826542","wem/bandit_party_2","A3H2ZHSMDWLM7Y","either","8","277","","","","","","","0","0","1","","0.4719011365","0.6","0.8","0.2","0.4","0.4269770229","0.4127348605","0.4719011365","0.8450805748","","","","","","","","","","","","","","75","K","2","","","155","main_expt","",""
"","bandit","241","645112","0.0-197.0-0.0","99826542","wem/bandit_party_2","A3H2ZHSMDWLM7Y","either","8","128","","","","","","","0","0","1","0.4589862704","","0.6","0.8","0.2","0.4","","","","","0.4589862704","0.3697675558","0.5818713095","0.8513110265","","","","","","","","","","72","H","0","img/none_selected.jpg","","156","main_expt","",""
"","bandit","242","646881","0.0-198.0-0.0","99826542","wem/bandit_party_2","A3H2ZHSMDWLM7Y","either","8","218","","","","","","","0","0","1","0.3604398023","","0.6","0.8","0.2","0.4","","","","","0.5370818316","0.3604398023","0.5804022203","0.8226236001","","","","","","","","","","74","J","1","","","157","main_expt","",""
"","bandit","243","648897","0.0-199.0-0.0","99826542","wem/bandit_party_2","A3H2ZHSMDWLM7Y","either","8","485","","","","","","","0","1","0","","0.8843141367","0.6","0.8","0.2","0.4","0.4757376888","0.4061750625","0.4773166223","0.8843141367","","","","","","","","","","","","","","76","L","3","","","158","main_expt","",""
"","bandit","244","650992","0.0-200.0-0.0","99826542","wem/bandit_party_2","A3H2ZHSMDWLM7Y","either","8","569","","","","","","","1","0","0","0.419048585","","0.6","0.8","0.2","0.4","","","","","0.4887287223","0.4696417586","0.419048585","0.8078798749","","","","","","","","","","75","K","2","","","159","main_expt","",""
"","bandit","245","652658","0.0-201.0-0.0","99826542","wem/bandit_party_2","A3H2ZHSMDWLM7Y","either","8","116","","","","","","","0","1","0","","0.4588489809","0.6","0.8","0.2","0.4","0.4588489809","0.4659569923","0.4672574386","0.7689164465","","","","","","","","","","","","","","72","H","0","img/none_selected.jpg","","160","main_expt","",""
"","bandit","246","654352","0.0-202.0-0.0","99826542","wem/bandit_party_2","A3H2ZHSMDWLM7Y","either","8","153","","","","","","","0","0","1","0.3947207546","","0.6","0.8","0.2","0.4","","","","","0.4920004413","0.3947207546","0.5612985374","0.7863156869","","","","","","","","","","74","J","1","","","161","main_expt","",""
"","bandit","247","656395","0.0-203.0-0.0","99826542","wem/bandit_party_2","A3H2ZHSMDWLM7Y","either","8","504","","","","","","","0","0","1","","0.5288680036","0.6","0.8","0.2","0.4","0.5389881207","0.2460097942","0.5288680036","0.8098475403","","","","","","","","","","","","","","75","K","2","","","162","main_expt","",""
"","bandit","248","658269","0.0-204.0-0.0","99826542","wem/bandit_party_2","A3H2ZHSMDWLM7Y","either","8","343","","","","","","","1","0","0","0.8222712862","","0.6","0.8","0.2","0.4","","","","","0.6040136001","0.3603606056","0.6096883849","0.8222712862","","","","","","","","","","76","L","3","","","163","main_expt","",""
"","bandit","249","660153","0.0-205.0-0.0","99826542","wem/bandit_party_2","A3H2ZHSMDWLM7Y","either","8","356","","","","","","","1","0","0","0.2507209727","","0.6","0.8","0.2","0.4","","","","","0.623756827","0.2507209727","0.4868922288","0.7876031225","","","","","","","","","","74","J","1","","","164","main_expt","",""
"","bandit","250","661971","0.0-206.0-0.0","99826542","wem/bandit_party_2","A3H2ZHSMDWLM7Y","either","8","279","","","","","","","0","1","0","","0.7435052823","0.6","0.8","0.2","0.4","0.6164515281","0.2162043423","0.4055552053","0.7435052823","","","","","","","","","","","","","","76","L","3","","","165","main_expt","",""
"","bandit","251","663651","0.0-207.0-0.0","99826542","wem/bandit_party_2","A3H2ZHSMDWLM7Y","either","8","151","","","","","","","0","0","1","","0.4748236382","0.6","0.8","0.2","0.4","0.4660222187","0.2573409732","0.4748236382","0.6545739251","","","","","","","","","","","","","","75","K","2","","","166","main_expt","",""
"","bandit","252","665445","0.0-208.0-0.0","99826542","wem/bandit_party_2","A3H2ZHSMDWLM7Y","either","8","273","","","","","","","0","0","1","0.3336058786","","0.6","0.8","0.2","0.4","","","","","0.3336058786","0.4016088623","0.4725242185","0.6645907447","","","","","","","","","","72","H","0","img/none_selected.jpg","","167","main_expt","",""
"","bandit","253","667329","0.0-209.0-0.0","99826542","wem/bandit_party_2","A3H2ZHSMDWLM7Y","either","8","358","","","","","","","0","1","0","","0.7243751722","0.6","0.8","0.2","0.4","0.2887723434","0.5522858252","0.4775208721","0.7243751722","","","","","","","","","","","","","","76","L","3","","","168","main_expt","",""
"","bandit","254","669188","0.0-210.0-0.0","99826542","wem/bandit_party_2","A3H2ZHSMDWLM7Y","either","8","323","","","","","","","0","0","1","0.5461138513","","0.6","0.8","0.2","0.4","","","","","0.3357056981","0.5461138513","0.4682732781","0.6453105543","","","","","","","","","","74","J","1","","","169","main_expt","",""
"","bandit","255","670976","0.0-211.0-0.0","99826542","wem/bandit_party_2","A3H2ZHSMDWLM7Y","either","8","250","","","","","","","0","0","1","","0.4246621539","0.6","0.8","0.2","0.4","0.4179693295","0.4402798015","0.4246621539","0.5334010147","","","","","","","","","","","","","","75","K","2","","","170","main_expt","",""
"","bandit","256","672994","0.0-212.0-0.0","99826542","wem/bandit_party_2","A3H2ZHSMDWLM7Y","either","8","475","","","","","","","0","0","1","0.3050406521","","0.6","0.8","0.2","0.4","","","","","0.3050406521","0.450294849","0.2843380906","0.498122785","","","","","","","","","","72","H","0","img/none_selected.jpg","","171","main_expt","",""
"","bandit","257","676970","0.0-213.0-0.0","99826542","wem/bandit_party_2","A3H2ZHSMDWLM7Y","either","8","2453","","","","","","","1","0","0","0.6475755847","","0.6","0.8","0.2","0.4","","","","","0.3364500029","0.6475755847","0.2668952485","0.4356988635","","","","","","","","","","74","J","1","","","172","main_expt","",""
"","bandit","258","678803","0.0-214.0-0.0","99826542","wem/bandit_party_2","A3H2ZHSMDWLM7Y","either","8","290","","","","","","","0","0","1","","0.3802819164","0.6","0.8","0.2","0.4","0.421339117","0.6095255177","0.3802819164","0.3964199688","","","","","","","","","","","","","","75","K","2","","","173","main_expt","",""
"","bandit","259","681165","0.0-215.0-0.0","99826542","wem/bandit_party_2","A3H2ZHSMDWLM7Y","either","8","825","","","","","","","0","0","1","","0.3194345802","0.6","0.8","0.2","0.4","0.4913704717","0.5003628493","0.4042455133","0.3194345802","","","","","","","","","","","","","","76","L","3","","","174","main_expt","",""
"","bandit","260","684055","0.0-216.0-0.0","99826542","wem/bandit_party_2","A3H2ZHSMDWLM7Y","either","8","1349","","","","","","","0","1","0","","0.5882611891","0.6","0.8","0.2","0.4","0.5882611891","0.5576212716","0.4393989914","0.2865230234","","","","","","","","","","","","","","72","H","0","img/none_selected.jpg","","175","main_expt","",""
"","bandit","261","686145","0.0-217.0-0.0","99826542","wem/bandit_party_2","A3H2ZHSMDWLM7Y","either","8","560","","","","","","","1","0","0","0.6230679906","","0.6","0.8","0.2","0.4","","","","","0.6313830356","0.6230679906","0.4705173801","0.3352692614","","","","","","","","","","74","J","1","","","176","main_expt","",""
"","bandit","262","688067","0.0-218.0-0.0","99826542","wem/bandit_party_2","A3H2ZHSMDWLM7Y","either","8","385","","","","","","","0","0","1","","0.3389264817","0.6","0.8","0.2","0.4","0.5531265137","0.6501784685","0.4698597734","0.3389264817","","","","","","","","","","","","","","76","L","3","","","177","main_expt","",""
"","bandit","263","691187","0.0-219.0-0.0","99826542","wem/bandit_party_2","A3H2ZHSMDWLM7Y","either","8","1576","","","","","","","0","0","1","","0.3570804947","0.6","0.8","0.2","0.4","0.4621004187","0.6334155083","0.3570804947","0.3709673039","","","","","","","","","","","","","","75","K","2","","","178","main_expt","",""
"","bandit","264","693067","0.0-220.0-0.0","99826542","wem/bandit_party_2","A3H2ZHSMDWLM7Y","either","8","352","","","","","","","1","0","0","0.512884041","","0.6","0.8","0.2","0.4","","","","","0.512884041","0.7548338289","0.3441184995","0.2940579202","","","","","","","","","","72","H","0","img/none_selected.jpg","","179","main_expt","",""
"","bandit","265","695679","0.0-221.0-0.0","99826542","wem/bandit_party_2","A3H2ZHSMDWLM7Y","either","8","1080","","","","","","","1","0","0","0.8074073351","","0.6","0.8","0.2","0.4","","","","","0.506744284","0.8074073351","0.3646136501","0.3218724025","","","","","","","","","","74","J","1","","","180","main_expt","",""
"","bandit","266","697642","0.0-222.0-0.0","99826542","wem/bandit_party_2","A3H2ZHSMDWLM7Y","either","8","427","","","","","","","0","0","1","","0.3777688814","0.6","0.8","0.2","0.4","0.4556494723","0.780721516","0.3777688814","0.3633286182","","","","","","","","","","","","","","75","K","2","","","181","main_expt","",""
"","bandit","267","699868","0.0-223.0-0.0","99826542","wem/bandit_party_2","A3H2ZHSMDWLM7Y","either","8","693","","","","","","","0","0","1","0.3324048704","","0.6","0.8","0.2","0.4","","","","","0.4494525508","0.7647415088","0.4578236703","0.3324048704","","","","","","","","","","76","L","3","","","182","main_expt","",""
"","bandit","268","701873","0.0-224.0-0.0","99826542","wem/bandit_party_2","A3H2ZHSMDWLM7Y","either","8","464","","","","","","","0","0","1","","0.5189143621","0.6","0.8","0.2","0.4","0.5189143621","0.7349307529","0.4244895098","0.3092830871","","","","","","","","","","","","","","72","H","0","img/none_selected.jpg","","183","main_expt","",""
"","bandit","269","704121","0.0-225.0-0.0","99826542","wem/bandit_party_2","A3H2ZHSMDWLM7Y","either","8","721","","","","","","","0","1","0","","0.5167606333","0.6","0.8","0.2","0.4","0.5167606333","0.8298088288","0.3566779322","0.3905692936","","","","","","","","","","","","","","72","H","0","img/none_selected.jpg","","184","main_expt","",""
"","bandit","270","706320","0.0-226.0-0.0","99826542","wem/bandit_party_2","A3H2ZHSMDWLM7Y","either","8","660","","","","","","","1","0","0","0.7894193193","","0.6","0.8","0.2","0.4","","","","","0.5270237034","0.7894193193","0.3737416658","0.4626192444","","","","","","","","","","74","J","1","","","185","main_expt","",""
"","bandit","271","708432","0.0-227.0-0.0","99826542","wem/bandit_party_2","A3H2ZHSMDWLM7Y","either","8","592","","","","","","","0","1","0","","0.5556036571","0.6","0.8","0.2","0.4","0.5556036571","0.7665022487","0.3120176694","0.6061762586","","","","","","","","","","","","","","72","H","0","img/none_selected.jpg","","186","main_expt","",""
"","bandit","272","710299","0.0-228.0-0.0","99826542","wem/bandit_party_2","A3H2ZHSMDWLM7Y","either","8","326","","","","","","","0","0","1","0.4134691065","","0.6","0.8","0.2","0.4","","","","","0.5865134094","0.7394266891","0.4134691065","0.530958695","","","","","","","","","","75","K","2","","","187","main_expt","",""
"","bandit","273","712280","0.0-229.0-0.0","99826542","wem/bandit_party_2","A3H2ZHSMDWLM7Y","either","8","441","","","","","","","0","0","1","0.380024655","","0.6","0.8","0.2","0.4","","","","","0.5034866795","0.6567361442","0.4637770407","0.380024655","","","","","","","","","","76","L","3","","","188","main_expt","",""
"","bandit","274","717275","0.0-230.0-0.0","99826542","wem/bandit_party_2","A3H2ZHSMDWLM7Y","either","8","3446","","","","","","","0","1","0","","0.5739034088","0.6","0.8","0.2","0.4","0.5761715841","0.6572443956","0.5739034088","0.4563575644","","","","","","","","","","","","","","75","K","2","","","189","main_expt","",""
"","bandit","275","719107","0.0-231.0-0.0","99826542","wem/bandit_party_2","A3H2ZHSMDWLM7Y","either","8","286","","","","","","","0","0","1","","0.6735764162","0.6","0.8","0.2","0.4","0.5325489933","0.6735764162","0.5859504021","0.4540853102","","","","","","","","","","","","","","74","J","1","","","190","main_expt","",""
"","bandit","276","720691","0.0-232.0-0.0","99826542","wem/bandit_party_2","A3H2ZHSMDWLM7Y","either","8","43","","","","","","","0","0","1","0.5614919892","","0.6","0.8","0.2","0.4","","","","","0.5614919892","0.5997518312","0.5325822721","0.4328006462","","","","","","","","","","72","H","0","img/none_selected.jpg","","191","main_expt","",""
"","bandit","277","722809","0.0-233.0-0.0","99826542","wem/bandit_party_2","A3H2ZHSMDWLM7Y","either","8","597","","","","","","","0","0","1","0.4979354652","","0.6","0.8","0.2","0.4","","","","","0.5972832049","0.6582178794","0.4622441745","0.4979354652","","","","","","","","","","76","L","3","","","192","main_expt","",""
"","bandit","278","728891","0.0-234.0-0.0","99826542","wem/bandit_party_2","A3H2ZHSMDWLM7Y","either","8","4539","","","","","","","0","0","1","","0.6997951875","0.6","0.8","0.2","0.4","0.6997951875","0.7246172867","0.4765036663","0.4887187701","","","","","","","","","","","","","","72","H","0","img/none_selected.jpg","","193","main_expt","",""
"","bandit","279","730870","0.0-235.0-0.0","99826542","wem/bandit_party_2","A3H2ZHSMDWLM7Y","either","8","441","","","","","","","0","0","1","0.4993882896","","0.6","0.8","0.2","0.4","","","","","0.7511051992","0.7721250451","0.4504155567","0.4993882896","","","","","","","","","","76","L","3","","","194","main_expt","",""
"","bandit","280","732698","0.0-236.0-0.0","99826542","wem/bandit_party_2","A3H2ZHSMDWLM7Y","either","8","302","","","","","","","0","0","1","","0.4354252764","0.6","0.8","0.2","0.4","0.8281457055","0.8366496483","0.4354252764","0.5011331455","","","","","","","","","","","","","","75","K","2","","","195","main_expt","",""
"","bandit","281","734705","0.0-237.0-0.0","99826542","wem/bandit_party_2","A3H2ZHSMDWLM7Y","either","8","451","","","","","","","0","0","1","0.8484646997","","0.6","0.8","0.2","0.4","","","","","0.8248544968","0.8484646997","0.4170899215","0.4487960683","","","","","","","","","","74","J","1","","","196","main_expt","",""
"","bandit","282","736925","0.0-238.0-0.0","99826542","wem/bandit_party_2","A3H2ZHSMDWLM7Y","either","8","690","","","","","","","1","0","0","0.8532714289","","0.6","0.8","0.2","0.4","","","","","0.8532714289","0.8734060335","0.4149059055","0.3975590019","","","","","","","","","","72","H","0","img/none_selected.jpg","","197","main_expt","",""
"","bandit","283","738802","0.0-239.0-0.0","99826542","wem/bandit_party_2","A3H2ZHSMDWLM7Y","either","8","338","","","","","","","1","0","0","0.8515360685","","0.6","0.8","0.2","0.4","","","","","0.7587337752","0.8515360685","0.4737306044","0.4161601929","","","","","","","","","","74","J","1","","","198","main_expt","",""
"","bandit","284","742228","0.0-240.0-0.0","99826542","wem/bandit_party_2","A3H2ZHSMDWLM7Y","either","8","1888","","","","","","","1","0","0","0.4483979408","","0.6","0.8","0.2","0.4","","","","","0.8124408481","0.8805923715","0.4541760911","0.4483979408","","","","","","","","","","76","L","3","","","199","main_expt","",""
"","bandit","285","744122","0.0-241.0-0.0","99826542","wem/bandit_party_2","A3H2ZHSMDWLM7Y","either","8","357","","","","","","","0","1","0","","0.9645818821","0.6","0.8","0.2","0.4","0.7935778268","0.9645818821","0.3964714959","0.5303380975","","","","","","","","","","","","","","74","J","1","","","200","main_expt","",""
"","bandit","286","746156","0.0-242.0-0.0","99826542","wem/bandit_party_2","A3H2ZHSMDWLM7Y","either","8","508","","","","","","","0","1","0","","0.736942723","0.6","0.8","0.2","0.4","0.736942723","0.9689478708","0.3815447649","0.4014045657","","","","","","","","","","","","","","72","H","0","img/none_selected.jpg","","201","main_expt","",""
"","bandit","287","749520","0.0-243.0-0.0","99826542","wem/bandit_party_2","A3H2ZHSMDWLM7Y","either","8","1837","","","","","","","0","0","1","","0.3726367513","0.6","0.8","0.2","0.4","0.7001951276","0.9678291885","0.3726367513","0.5115169607","","","","","","","","","","","","","","75","K","2","","","202","main_expt","",""
"","bandit","288","751718","0.0-244.0-0.0","99826542","wem/bandit_party_2","A3H2ZHSMDWLM7Y","either","8","661","","","","","","","1","0","0","0.9633244117","","0.6","0.8","0.2","0.4","","","","","0.7209300446","0.9633244117","0.3062653216","0.5026191452","","","","","","","","","","74","J","1","","","203","main_expt","",""
"","bandit","289","754098","0.0-245.0-0.0","99826542","wem/bandit_party_2","A3H2ZHSMDWLM7Y","either","8","843","","","","","","","0","1","0","","0.8574132932","0.6","0.8","0.2","0.4","0.8574132932","0.9730812582","0.2848501254","0.4736298566","","","","","","","","","","","","","","72","H","0","img/none_selected.jpg","","204","main_expt","",""
"","bandit","290","755700","0.0-246.0-0.0","99826542","wem/bandit_party_2","A3H2ZHSMDWLM7Y","either","8","69","","","","","","","1","0","0","0.3457586416","","0.6","0.8","0.2","0.4","","","","","0.9038760074","0.9521206422","0.3457586416","0.6121858428","","","","","","","","","","75","K","2","","","205","main_expt","",""
"","bandit","291","757380","0.0-247.0-0.0","99826542","wem/bandit_party_2","A3H2ZHSMDWLM7Y","either","8","147","","","","","","","1","0","0","0.6377028942","","0.6","0.8","0.2","0.4","","","","","0.9273356803","0.9614764056","0.4609097875","0.6377028942","","","","","","","","","","76","L","3","","","206","main_expt","",""
"","bandit","292","759347","0.0-248.0-0.0","99826542","wem/bandit_party_2","A3H2ZHSMDWLM7Y","either","8","428","","","","","","","0","1","0","","0.9625830716","0.6","0.8","0.2","0.4","0.9502037039","0.9625830716","0.4980316736","0.5700483165","","","","","","","","","","","","","","74","J","1","","","207","main_expt","",""
"","bandit","293","761466","0.0-249.0-0.0","99826542","wem/bandit_party_2","A3H2ZHSMDWLM7Y","either","8","580","","","","","","","0","0","1","","0.4537691537","0.6","0.8","0.2","0.4","0.944094639","0.9359306517","0.4537691537","0.624428721","","","","","","","","","","","","","","75","K","2","","","208","main_expt","",""
"","bandit","294","763270","0.0-250.0-0.0","99826542","wem/bandit_party_2","A3H2ZHSMDWLM7Y","either","8","266","","","","","","","0","0","1","","0.4861871301","0.6","0.8","0.2","0.4","0.9070839441","0.9632917203","0.4475842875","0.4861871301","","","","","","","","","","","","","","76","L","3","","","209","main_expt","",""
"","bandit","295","765102","0.0-251.0-0.0","99826542","wem/bandit_party_2","A3H2ZHSMDWLM7Y","either","8","297","","","","","","","0","1","0","","0.8960653589","0.6","0.8","0.2","0.4","0.8960653589","0.9633226214","0.4803454055","0.3956361612","","","","","","","","","","","","","","72","H","0","img/none_selected.jpg","","210","main_expt","",""
"","bandit","296","767187","0.0-252.0-0.0","99826542","wem/bandit_party_2","A3H2ZHSMDWLM7Y","either","8","559","","","","","","","1","0","0","0.9719781217","","0.6","0.8","0.2","0.4","","","","","0.9155455821","0.9719781217","0.4126443349","0.3599204452","","","","","","","","","","74","J","1","","","211","main_expt","",""
"","bandit","297","769256","0.0-253.0-0.0","99826542","wem/bandit_party_2","A3H2ZHSMDWLM7Y","either","8","542","","","","","","","0","1","0","","0.3384802849","0.6","0.8","0.2","0.4","0.9087954588","0.9700781686","0.3384802849","0.3349000901","","","","","","","","","","","","","","75","K","2","","","212","main_expt","",""
"","bandit","298","770911","0.0-254.0-0.0","99826542","wem/bandit_party_2","A3H2ZHSMDWLM7Y","either","8","120","","","","","","","0","0","1","","0.3183344176","0.6","0.8","0.2","0.4","0.8528540962","0.971165811","0.3039242722","0.3183344176","","","","","","","","","","","","","","76","L","3","","","213","main_expt","",""
"","bandit","299","772731","0.0-255.0-0.0","99826542","wem/bandit_party_2","A3H2ZHSMDWLM7Y","either","8","286","","","","","","","0","1","0","","0.9627117","0.6","0.8","0.2","0.4","0.8506041988","0.9627117","0.4541530846","0.2390758011","","","","","","","","","","","","","","74","J","1","","","214","main_expt","",""
"","bandit","300","774847","0.0-256.0-0.0","99826542","wem/bandit_party_2","A3H2ZHSMDWLM7Y","either","8","579","","","","","","","0","1","0","","0.8001829978","0.6","0.8","0.2","0.4","0.8001829978","0.9552130497","0.5101749692","0.1997060473","","","","","","","","","","","","","","72","H","0","img/none_selected.jpg","","215","main_expt","",""
"","bandit","301","776539","0.0-257.0-0.0","99826542","wem/bandit_party_2","A3H2ZHSMDWLM7Y","either","8","149","","","","","","","0","0","1","","0.5580520347","0.6","0.8","0.2","0.4","0.733614842","0.9220350188","0.5580520347","0.2326539104","","","","","","","","","","","","","","75","K","2","","","216","main_expt","",""
"","bandit","302","778243","0.0-258.0-0.0","99826542","wem/bandit_party_2","A3H2ZHSMDWLM7Y","either","8","168","","","","","","","0","1","0","","0.8736667029","0.6","0.8","0.2","0.4","0.7479737912","0.8736667029","0.4368451062","0.2319826337","","","","","","","","","","","","","","74","J","1","","","217","main_expt","",""
"","bandit","303","780045","0.0-259.0-0.0","99826542","wem/bandit_party_2","A3H2ZHSMDWLM7Y","either","8","265","","","","","","","0","0","1","","0.3143382807","0.6","0.8","0.2","0.4","0.7713398237","0.7602784417","0.3963441813","0.3143382807","","","","","","","","","","","","","","76","L","3","","","218","main_expt","",""
"","bandit","304","781854","0.0-260.0-0.0","99826542","wem/bandit_party_2","A3H2ZHSMDWLM7Y","either","8","277","","","","","","","1","0","0","0.8077055691","","0.6","0.8","0.2","0.4","","","","","0.8077055691","0.7643050859","0.4809426617","0.3304972923","","","","","","","","","","72","H","0","img/none_selected.jpg","","219","main_expt","",""
"","bandit","305","783947","0.0-261.0-0.0","99826542","wem/bandit_party_2","A3H2ZHSMDWLM7Y","either","8","555","","","","","","","0","0","1","0.2866104843","","0.6","0.8","0.2","0.4","","","","","0.7778114837","0.7793587236","0.397759556","0.2866104843","","","","","","","","","","76","L","3","","","220","main_expt","",""
"","bandit","306","785572","0.0-262.0-0.0","99826542","wem/bandit_party_2","A3H2ZHSMDWLM7Y","either","8","83","","","","","","","1","0","0","0.82086311","","0.6","0.8","0.2","0.4","","","","","0.7214198583","0.82086311","0.4087677593","0.3602561646","","","","","","","","","","74","J","1","","","221","main_expt","",""
"","bandit","307","787385","0.0-263.0-0.0","99826542","wem/bandit_party_2","A3H2ZHSMDWLM7Y","either","8","278","","","","","","","0","1","0","","0.4561280915","0.6","0.8","0.2","0.4","0.8091526303","0.8543662658","0.4561280915","0.3228749062","","","","","","","","","","","","","","75","K","2","","","222","main_expt","",""
"","bandit","308","789212","0.0-264.0-0.0","99826542","wem/bandit_party_2","A3H2ZHSMDWLM7Y","either","8","279","","","","","","","1","0","0","0.8240838469","","0.6","0.8","0.2","0.4","","","","","0.8240838469","0.8599459829","0.4419858618","0.2549485676","","","","","","","","","","72","H","0","img/none_selected.jpg","","223","main_expt","",""
"","bandit","309","791049","0.0-265.0-0.0","99826542","wem/bandit_party_2","A3H2ZHSMDWLM7Y","either","8","296","","","","","","","0","0","1","","0.494409337","0.6","0.8","0.2","0.4","0.7670685714","0.8747991669","0.494409337","0.2389333491","","","","","","","","","","","","","","75","K","2","","","224","main_expt","",""
"","bandit","310","792851","0.0-266.0-0.0","99826542","wem/bandit_party_2","A3H2ZHSMDWLM7Y","either","8","265","","","","","","","0","1","0","","0.8775689376","0.6","0.8","0.2","0.4","0.8775689376","0.7910409491","0.3713348049","0.1517307125","","","","","","","","","","","","","","72","H","0","img/none_selected.jpg","","225","main_expt","",""
"","bandit","311","794717","0.0-267.0-0.0","99826542","wem/bandit_party_2","A3H2ZHSMDWLM7Y","either","8","313","","","","","","","0","0","1","","0.1002450003","0.6","0.8","0.2","0.4","0.8846504348","0.7212928749","0.4013452417","0.1002450003","","","","","","","","","","","","","","76","L","3","","","226","main_expt","",""
"","bandit","312","796578","0.0-268.0-0.0","99826542","wem/bandit_party_2","A3H2ZHSMDWLM7Y","either","8","312","","","","","","","1","0","0","0.851087938","","0.6","0.8","0.2","0.4","","","","","0.851087938","0.7090989562","0.393451628","0.1049945928","","","","","","","","","","72","H","0","img/none_selected.jpg","","227","main_expt","",""
"","bandit","313","798560","0.0-269.0-0.0","99826542","wem/bandit_party_2","A3H2ZHSMDWLM7Y","either","8","443","","","","","","","1","0","0","0.6606736223","","0.6","0.8","0.2","0.4","","","","","0.9074720337","0.6606736223","0.4175844788","0.03915988122","","","","","","","","","","74","J","1","","","228","main_expt","",""
"","bandit","314","800477","0.0-270.0-0.0","99826542","wem/bandit_party_2","A3H2ZHSMDWLM7Y","either","8","381","","","","","","","0","1","0","","0.408368909","0.6","0.8","0.2","0.4","0.872332114","0.6893924153","0.408368909","0.03767516843","","","","","","","","","","","","","","75","K","2","","","229","main_expt","",""
