"consent","trial_type","trial_index","time_elapsed","internal_node_id","subjID","study","MID","cond","drift","rt","responses","button_pressed","key_press","like","value","connected","gems","bombs","no_reward","GemPrChosen","BombPrChosen","GainOverPainPr_0","GainOverPainPr_1","GainOverPainPr_2","GainOverPainPr_3","LosePr_0","LosePr_1","LosePr_2","LosePr_3","WinPr_0","WinPr_1","WinPr_2","WinPr_3","Q0","Q1","Q2","gender","age","ethnicity","label","expt_phase","target","respCharCode","respKey","respChoiceNum","respChoice","practice","trial_counter","trial_label","Q0_index","view_history"
"GDM/GDM_behavioral_consent_30min_online.html","consent","0","10345","0.0-0.0","99929490","wem/bandit_party_2","A1KAIOBTXQ77A6","either","2","","","","","","","","","","","","","","","","","","","","","","","","","","","","","","","","","","","","","","","","","",""
"","survey-text","1","29643","0.0-1.0","99929490","wem/bandit_party_2","A1KAIOBTXQ77A6","either","2","18288","{""Q0"":""A1KAIOBTXQ77A6""}","","","","","","","","","","","","","","","","","","","","","","","","","","","","","","","","","","","","","","","",""
"","button-response","2","32184","0.0-2.0","99929490","wem/bandit_party_2","A1KAIOBTXQ77A6","either","2","1532","","0","","","","","","","","","","","","","","","","","","","","","","","","","","","","","","","","","","","","","","",""
"","text-replacement","3","1831812","0.0-3.0","99929490","wem/bandit_party_2","A1KAIOBTXQ77A6","either","2","1798622","","","32","","","","","","","","","","","","","","","","","","","","","","","","","","","","","","","","","","","","","",""
"","text-replacement","4","1833596","0.0-4.0","99929490","wem/bandit_party_2","A1KAIOBTXQ77A6","either","2","1779","","","32","","","","","","","","","","","","","","","","","","","","","","","","","","","","","","","","","","","","","",""
"","identification","5","1837543","0.0-6.0-0.0","99929490","wem/bandit_party_2","A1KAIOBTXQ77A6","either","2","3920","","","","3","3","3","","","","","","","","","","","","","","","","","","","","","","","","pre","identification_pre","the Republican Party","","","","","","","","",""
"","identification","6","1841858","0.0-6.0-1.0","99929490","wem/bandit_party_2","A1KAIOBTXQ77A6","either","2","3287","","","","2","2","1","","","","","","","","","","","","","","","","","","","","","","","","pre","identification_pre","the Democratic Party","","","","","","","","",""
"","text-replacement","7","1856534","0.0-7.0","99929490","wem/bandit_party_2","A1KAIOBTXQ77A6","either","2","13670","","","32","","","","","","","","","","","","","","","","","","","","","","","","","","","","","","","","","","","","","",""
"","text-replacement","8","1858771","0.0-8.0","99929490","wem/bandit_party_2","A1KAIOBTXQ77A6","either","2","2234","","","32","","","","","","","","","","","","","","","","","","","","","","","","","","","","","","","","","","","","","",""
"","text-replacement","9","1859475","0.0-9.0","99929490","wem/bandit_party_2","A1KAIOBTXQ77A6","either","2","701","","","32","","","","","","","","","","","","","","","","","","","","","","","","","","","","","","","","","","","","","",""
"","text-replacement","10","1860146","0.0-10.0","99929490","wem/bandit_party_2","A1KAIOBTXQ77A6","either","2","669","","","32","","","","","","","","","","","","","","","","","","","","","","","","","","","","","","","","","","","","","",""
"","text-replacement","11","1860600","0.0-11.0","99929490","wem/bandit_party_2","A1KAIOBTXQ77A6","either","2","452","","","32","","","","","","","","","","","","","","","","","","","","","","","","","","","","","","","","","","","","","",""
"","bandit","12","1863653","0.0-12.0-0.0","99929490","wem/bandit_party_2","A1KAIOBTXQ77A6","either","2","1538","","","","","","","0","0","1","0","0","","","","","0","","","","0","","","","","","","","","","","","","74","J","0","img/none_selected_demo.jpg","true","0","","",""
"","bandit","13","1866019","0.0-13.0-0.0","99929490","wem/bandit_party_2","A1KAIOBTXQ77A6","either","2","854","","","","","","","0","0","1","0","0","","","","","0","","","","0","","","","","","","","","","","","","75","K","0","img/none_selected_demo.jpg","true","0","","",""
"","text-replacement","14","1866991","0.0-14.0","99929490","wem/bandit_party_2","A1KAIOBTXQ77A6","either","2","970","","","32","","","","","","","","","","","","","","","","","","","","","","","","","","","","","","","","","","","","","",""
"","text-replacement","15","1867473","0.0-15.0","99929490","wem/bandit_party_2","A1KAIOBTXQ77A6","either","2","480","","","32","","","","","","","","","","","","","","","","","","","","","","","","","","","","","","","","","","","","","",""
"","text-replacement","16","1867840","0.0-16.0","99929490","wem/bandit_party_2","A1KAIOBTXQ77A6","either","2","364","","","32","","","","","","","","","","","","","","","","","","","","","","","","","","","","","","","","","","","","","",""
"","text-replacement","17","1868178","0.0-17.0","99929490","wem/bandit_party_2","A1KAIOBTXQ77A6","either","2","335","","","32","","","","","","","","","","","","","","","","","","","","","","","","","","","","","","","","","","","","","",""
"","bandit","18","1870530","0.0-18.0-0.0","99929490","wem/bandit_party_2","A1KAIOBTXQ77A6","either","2","837","","","","","","","0","1","0","","0.8","0.5","0.5","","","0.8","0.2","","","","","","","","","","","","","","","","74","J","0","img/none_selected_demo.jpg","true","0","80_20_practice","",""
"","bandit","19","1872445","0.0-18.0-1.0","99929490","wem/bandit_party_2","A1KAIOBTXQ77A6","either","2","401","","","","","","","0","0","1","0.2","","0.5","0.5","","","","","","","0.8","0.2","","","","","","","","","","","","75","K","1","","true","0","80_20_practice","",""
"","bandit","20","1874431","0.0-18.0-2.0","99929490","wem/bandit_party_2","A1KAIOBTXQ77A6","either","2","475","","","","","","","0","0","1","","0.2","0.5","0.5","","","0.8","0.2","","","","","","","","","","","","","","","","75","K","1","","true","0","80_20_practice","",""
"","bandit","21","1876352","0.0-18.0-3.0","99929490","wem/bandit_party_2","A1KAIOBTXQ77A6","either","2","410","","","","","","","0","0","1","0.8","","0.5","0.5","","","","","","","0.8","0.2","","","","","","","","","","","","74","J","0","img/none_selected_demo.jpg","true","0","80_20_practice","",""
"","bandit","22","1877911","0.0-18.0-4.0","99929490","wem/bandit_party_2","A1KAIOBTXQ77A6","either","2","44","","","","","","","1","0","0","0.8","","0.5","0.5","","","","","","","0.8","0.2","","","","","","","","","","","","74","J","0","img/none_selected_demo.jpg","true","0","80_20_practice","",""
"","bandit","23","1879428","0.0-18.0-5.0","99929490","wem/bandit_party_2","A1KAIOBTXQ77A6","either","2","7","","","","","","","0","1","0","","0.8","0.5","0.5","","","0.8","0.2","","","","","","","","","","","","","","","","74","J","0","img/none_selected_demo.jpg","true","0","80_20_practice","",""
"","bandit","24","1880996","0.0-18.0-6.0","99929490","wem/bandit_party_2","A1KAIOBTXQ77A6","either","2","57","","","","","","","0","1","0","","0.8","0.5","0.5","","","0.8","0.2","","","","","","","","","","","","","","","","74","J","0","img/none_selected_demo.jpg","true","0","80_20_practice","",""
"","bandit","25","1882517","0.0-18.0-7.0","99929490","wem/bandit_party_2","A1KAIOBTXQ77A6","either","2","10","","","","","","","0","0","1","","0.2","0.5","0.5","","","0.8","0.2","","","","","","","","","","","","","","","","75","K","1","","true","0","80_20_practice","",""
"","bandit","26","1884125","0.0-18.0-8.0","99929490","wem/bandit_party_2","A1KAIOBTXQ77A6","either","2","98","","","","","","","0","1","0","","0.8","0.5","0.5","","","0.8","0.2","","","","","","","","","","","","","","","","74","J","0","img/none_selected_demo.jpg","true","0","80_20_practice","",""
"","bandit","27","1885730","0.0-18.0-9.0","99929490","wem/bandit_party_2","A1KAIOBTXQ77A6","either","2","89","","","","","","","0","0","1","","0.2","0.5","0.5","","","0.8","0.2","","","","","","","","","","","","","","","","75","K","1","","true","0","80_20_practice","",""
"","bandit","28","1887318","0.0-18.0-10.0","99929490","wem/bandit_party_2","A1KAIOBTXQ77A6","either","2","76","","","","","","","1","0","0","0.2","","0.5","0.5","","","","","","","0.8","0.2","","","","","","","","","","","","75","K","1","","true","0","80_20_practice","",""
"","bandit","29","1888957","0.0-18.0-11.0","99929490","wem/bandit_party_2","A1KAIOBTXQ77A6","either","2","114","","","","","","","0","1","0","","0.2","0.5","0.5","","","0.8","0.2","","","","","","","","","","","","","","","","75","K","1","","true","0","80_20_practice","",""
"","bandit","30","1890512","0.0-18.0-12.0","99929490","wem/bandit_party_2","A1KAIOBTXQ77A6","either","2","45","","","","","","","1","0","0","0.2","","0.5","0.5","","","","","","","0.8","0.2","","","","","","","","","","","","75","K","1","","true","0","80_20_practice","",""
"","bandit","31","1892026","0.0-18.0-13.0","99929490","wem/bandit_party_2","A1KAIOBTXQ77A6","either","2","1","","","","","","","0","0","1","0.2","","0.5","0.5","","","","","","","0.8","0.2","","","","","","","","","","","","75","K","1","","true","0","80_20_practice","",""
"","bandit","32","1893629","0.0-18.0-14.0","99929490","wem/bandit_party_2","A1KAIOBTXQ77A6","either","2","89","","","","","","","1","0","0","0.2","","0.5","0.5","","","","","","","0.8","0.2","","","","","","","","","","","","75","K","1","","true","0","80_20_practice","",""
"","bandit","33","1895144","0.0-18.0-15.0","99929490","wem/bandit_party_2","A1KAIOBTXQ77A6","either","2","2","","","","","","","0","1","0","","0.8","0.5","0.5","","","0.8","0.2","","","","","","","","","","","","","","","","74","J","0","img/none_selected_demo.jpg","true","0","80_20_practice","",""
"","bandit","34","1896711","0.0-18.0-16.0","99929490","wem/bandit_party_2","A1KAIOBTXQ77A6","either","2","55","","","","","","","0","0","1","","0.2","0.5","0.5","","","0.8","0.2","","","","","","","","","","","","","","","","75","K","1","","true","0","80_20_practice","",""
"","bandit","35","1898238","0.0-18.0-17.0","99929490","wem/bandit_party_2","A1KAIOBTXQ77A6","either","2","17","","","","","","","0","0","1","0.8","","0.5","0.5","","","","","","","0.8","0.2","","","","","","","","","","","","74","J","0","img/none_selected_demo.jpg","true","0","80_20_practice","",""
"","bandit","36","1899820","0.0-18.0-18.0","99929490","wem/bandit_party_2","A1KAIOBTXQ77A6","either","2","75","","","","","","","0","0","1","0.2","","0.5","0.5","","","","","","","0.8","0.2","","","","","","","","","","","","75","K","1","","true","0","80_20_practice","",""
"","bandit","37","1901390","0.0-18.0-19.0","99929490","wem/bandit_party_2","A1KAIOBTXQ77A6","either","2","61","","","","","","","0","1","0","","0.8","0.5","0.5","","","0.8","0.2","","","","","","","","","","","","","","","","74","J","0","img/none_selected_demo.jpg","true","0","80_20_practice","",""
"","text-replacement","38","1906141","0.0-19.0","99929490","wem/bandit_party_2","A1KAIOBTXQ77A6","either","2","4745","","","32","","","","","","","","","","","","","","","","","","","","","","","","","","","","","","","","","","","","","",""
"","bandit","39","1908931","0.0-20.0-0.0","99929490","wem/bandit_party_2","A1KAIOBTXQ77A6","either","2","1279","","","","","","","1","0","0","1","0","","","","","0","1","","","1","0","","","","","","","","","","","","74","J","0","img/none_selected_demo.jpg","true","0","","",""
"","text-replacement","40","1908957","0.0-21.0","99929490","wem/bandit_party_2","A1KAIOBTXQ77A6","either","2","24","","","74","","","","","","","","","","","","","","","","","","","","","","","","","","","","","","","","","","","","","",""
"","text-replacement","41","1912257","0.0-22.0","99929490","wem/bandit_party_2","A1KAIOBTXQ77A6","either","2","3296","","","32","","","","","","","","","","","","","","","","","","","","","","","","","","","","","","","","","","","","","",""
"","text-replacement","42","1912812","0.0-23.0","99929490","wem/bandit_party_2","A1KAIOBTXQ77A6","either","2","552","","","32","","","","","","","","","","","","","","","","","","","","","","","","","","","","","","","","","","","","","",""
"","text-replacement","43","1913251","0.0-24.0","99929490","wem/bandit_party_2","A1KAIOBTXQ77A6","either","2","436","","","32","","","","","","","","","","","","","","","","","","","","","","","","","","","","","","","","","","","","","",""
"","text-replacement","44","1913584","0.0-25.0","99929490","wem/bandit_party_2","A1KAIOBTXQ77A6","either","2","327","","","32","","","","","","","","","","","","","","","","","","","","","","","","","","","","","","","","","","","","","",""
"","text-replacement","45","1913857","0.0-26.0","99929490","wem/bandit_party_2","A1KAIOBTXQ77A6","either","2","270","","","32","","","","","","","","","","","","","","","","","","","","","","","","","","","","","","","","","","","","","",""
"","text-replacement","46","1914080","0.0-27.0","99929490","wem/bandit_party_2","A1KAIOBTXQ77A6","either","2","220","","","32","","","","","","","","","","","","","","","","","","","","","","","","","","","","","","","","","","","","","",""
"","text-replacement","47","1914313","0.0-28.0","99929490","wem/bandit_party_2","A1KAIOBTXQ77A6","either","2","229","","","32","","","","","","","","","","","","","","","","","","","","","","","","","","","","","","","","","","","","","",""
"","text-replacement","48","1914538","0.0-29.0","99929490","wem/bandit_party_2","A1KAIOBTXQ77A6","either","2","222","","","32","","","","","","","","","","","","","","","","","","","","","","","","","","","","","","","","","","","","","",""
"","text-replacement","49","1914730","0.0-30.0","99929490","wem/bandit_party_2","A1KAIOBTXQ77A6","either","2","190","","","32","","","","","","","","","","","","","","","","","","","","","","","","","","","","","","","","","","","","","",""
"","text-replacement","50","1914924","0.0-31.0","99929490","wem/bandit_party_2","A1KAIOBTXQ77A6","either","2","191","","","32","","","","","","","","","","","","","","","","","","","","","","","","","","","","","","","","","","","","","",""
"","bandit","51","1917399","0.0-32.0-0.0","99929490","wem/bandit_party_2","A1KAIOBTXQ77A6","either","2","961","","","","","","","1","0","0","0.8","","0.5","0.5","0.5","0.5","","","","","0.8","0.2","0.6","0.2","","","","","","","","","","72","H","0","img/none_selected.jpg","true","0","full_practice","",""
"","bandit","52","1919696","0.0-32.0-1.0","99929490","wem/bandit_party_2","A1KAIOBTXQ77A6","either","2","783","","","","","","","0","0","1","0.6","","0.5","0.5","0.5","0.5","","","","","0.8","0.2","0.6","0.2","","","","","","","","","","75","K","2","","true","0","full_practice","",""
"","bandit","53","1921244","0.0-32.0-2.0","99929490","wem/bandit_party_2","A1KAIOBTXQ77A6","either","2","34","","","","","","","1","0","0","0.6","","0.5","0.5","0.5","0.5","","","","","0.8","0.2","0.6","0.2","","","","","","","","","","75","K","2","","true","0","full_practice","",""
"","bandit","54","1922805","0.0-32.0-3.0","99929490","wem/bandit_party_2","A1KAIOBTXQ77A6","either","2","51","","","","","","","0","0","1","0.6","","0.5","0.5","0.5","0.5","","","","","0.8","0.2","0.6","0.2","","","","","","","","","","75","K","2","","true","0","full_practice","",""
"","bandit","55","1924355","0.0-32.0-4.0","99929490","wem/bandit_party_2","A1KAIOBTXQ77A6","either","2","38","","","","","","","0","0","1","0.2","","0.5","0.5","0.5","0.5","","","","","0.8","0.2","0.6","0.2","","","","","","","","","","76","L","3","","true","0","full_practice","",""
"","bandit","56","1926011","0.0-32.0-5.0","99929490","wem/bandit_party_2","A1KAIOBTXQ77A6","either","2","139","","","","","","","1","0","0","0.6","","0.5","0.5","0.5","0.5","","","","","0.8","0.2","0.6","0.2","","","","","","","","","","75","K","2","","true","0","full_practice","",""
"","bandit","57","1927577","0.0-32.0-6.0","99929490","wem/bandit_party_2","A1KAIOBTXQ77A6","either","2","56","","","","","","","0","1","0","","0.6","0.5","0.5","0.5","0.5","0.8","0.2","0.6","0.2","","","","","","","","","","","","","","75","K","2","","true","0","full_practice","",""
"","bandit","58","1929133","0.0-32.0-7.0","99929490","wem/bandit_party_2","A1KAIOBTXQ77A6","either","2","43","","","","","","","0","1","0","","0.8","0.5","0.5","0.5","0.5","0.8","0.2","0.6","0.2","","","","","","","","","","","","","","72","H","0","img/none_selected.jpg","true","0","full_practice","",""
"","bandit","59","1930659","0.0-32.0-8.0","99929490","wem/bandit_party_2","A1KAIOBTXQ77A6","either","2","10","","","","","","","0","1","0","","0.2","0.5","0.5","0.5","0.5","0.8","0.2","0.6","0.2","","","","","","","","","","","","","","76","L","3","","true","0","full_practice","",""
"","bandit","60","1932227","0.0-32.0-9.0","99929490","wem/bandit_party_2","A1KAIOBTXQ77A6","either","2","58","","","","","","","1","0","0","0.6","","0.5","0.5","0.5","0.5","","","","","0.8","0.2","0.6","0.2","","","","","","","","","","75","K","2","","true","0","full_practice","",""
"","bandit","61","1933828","0.0-32.0-10.0","99929490","wem/bandit_party_2","A1KAIOBTXQ77A6","either","2","90","","","","","","","0","1","0","","0.6","0.5","0.5","0.5","0.5","0.8","0.2","0.6","0.2","","","","","","","","","","","","","","75","K","2","","true","0","full_practice","",""
"","bandit","62","1935432","0.0-32.0-11.0","99929490","wem/bandit_party_2","A1KAIOBTXQ77A6","either","2","90","","","","","","","0","0","1","","0.6","0.5","0.5","0.5","0.5","0.8","0.2","0.6","0.2","","","","","","","","","","","","","","75","K","2","","true","0","full_practice","",""
"","bandit","63","1936959","0.0-32.0-12.0","99929490","wem/bandit_party_2","A1KAIOBTXQ77A6","either","2","2","","","","","","","0","0","1","0.2","","0.5","0.5","0.5","0.5","","","","","0.8","0.2","0.6","0.2","","","","","","","","","","76","L","3","","true","0","full_practice","",""
"","bandit","64","1938538","0.0-32.0-13.0","99929490","wem/bandit_party_2","A1KAIOBTXQ77A6","either","2","61","","","","","","","0","0","1","","0.2","0.5","0.5","0.5","0.5","0.8","0.2","0.6","0.2","","","","","","","","","","","","","","76","L","3","","true","0","full_practice","",""
"","bandit","65","1940175","0.0-32.0-14.0","99929490","wem/bandit_party_2","A1KAIOBTXQ77A6","either","2","125","","","","","","","0","0","1","0.2","","0.5","0.5","0.5","0.5","","","","","0.8","0.2","0.6","0.2","","","","","","","","","","76","L","3","","true","0","full_practice","",""
"","bandit","66","1941713","0.0-32.0-15.0","99929490","wem/bandit_party_2","A1KAIOBTXQ77A6","either","2","23","","","","","","","0","0","1","","0.6","0.5","0.5","0.5","0.5","0.8","0.2","0.6","0.2","","","","","","","","","","","","","","75","K","2","","true","0","full_practice","",""
"","bandit","67","1943263","0.0-32.0-16.0","99929490","wem/bandit_party_2","A1KAIOBTXQ77A6","either","2","35","","","","","","","0","0","1","","0.2","0.5","0.5","0.5","0.5","0.8","0.2","0.6","0.2","","","","","","","","","","","","","","76","L","3","","true","0","full_practice","",""
"","bandit","68","1944916","0.0-32.0-17.0","99929490","wem/bandit_party_2","A1KAIOBTXQ77A6","either","2","142","","","","","","","0","0","1","","0.8","0.5","0.5","0.5","0.5","0.8","0.2","0.6","0.2","","","","","","","","","","","","","","72","H","0","img/none_selected.jpg","true","0","full_practice","",""
"","bandit","69","1946520","0.0-32.0-18.0","99929490","wem/bandit_party_2","A1KAIOBTXQ77A6","either","2","90","","","","","","","0","0","1","","0.2","0.5","0.5","0.5","0.5","0.8","0.2","0.6","0.2","","","","","","","","","","","","","","76","L","3","","true","0","full_practice","",""
"","bandit","70","1948088","0.0-32.0-19.0","99929490","wem/bandit_party_2","A1KAIOBTXQ77A6","either","2","54","","","","","","","1","0","0","0.8","","0.5","0.5","0.5","0.5","","","","","0.8","0.2","0.6","0.2","","","","","","","","","","72","H","0","img/none_selected.jpg","true","0","full_practice","",""
"","text","71","2068458","0.0-33.0","99929490","wem/bandit_party_2","A1KAIOBTXQ77A6","either","2","120360","","","32","","","","","","","","","","","","","","","","","","","","","","","","","","","","","","","","","","","","","",""
"","text-replacement","72","2071608","0.0-34.0","99929490","wem/bandit_party_2","A1KAIOBTXQ77A6","either","2","2141","","","32","","","","","","","","","","","","","","","","","","","","","","","","","","","","","","","","","","","","","",""
"","text-replacement","73","2071922","0.0-35.0","99929490","wem/bandit_party_2","A1KAIOBTXQ77A6","either","2","311","","","32","","","","","","","","","","","","","","","","","","","","","","","","","","","","","","","","","","","","","",""
"","text-replacement","74","2072129","0.0-36.0","99929490","wem/bandit_party_2","A1KAIOBTXQ77A6","either","2","204","","","32","","","","","","","","","","","","","","","","","","","","","","","","","","","","","","","","","","","","","",""
"","text-replacement","75","2072320","0.0-37.0","99929490","wem/bandit_party_2","A1KAIOBTXQ77A6","either","2","188","","","32","","","","","","","","","","","","","","","","","","","","","","","","","","","","","","","","","","","","","",""
"","text-replacement","76","2072536","0.0-38.0","99929490","wem/bandit_party_2","A1KAIOBTXQ77A6","either","2","213","","","32","","","","","","","","","","","","","","","","","","","","","","","","","","","","","","","","","","","","","",""
"","survey-multi-choice-replacement","77","2078113","0.0-39.0-0.0","99929490","wem/bandit_party_2","A1KAIOBTXQ77A6","either","2","5554","","","","","","","","","","","","","","","","","","","","","","","","Money will be added to the pool for <span style='color:red;'>REPUBLICANS</span>","","","","","","","attn_check","","","","","","","","","0",""
"","survey-multi-choice-replacement","78","2081885","0.0-40.0-0.0","99929490","wem/bandit_party_2","A1KAIOBTXQ77A6","either","2","2750","","","","","","","","","","","","","","","","","","","","","","","","Money will be subtracted from the pool for <span style='color:blue;'>DEMOCRATS</span>","","","","","","","attn_check","","","","","","","","","1",""
"","instructions","79","2084101","0.0-40.0-1.0-0.0","99929490","wem/bandit_party_2","A1KAIOBTXQ77A6","either","2","1208","","","","","","","","","","","","","","","","","","","","","","","","","","","","","","","","","","","","","","","","","[{""page_index"":0,""viewing_time"":1207}]"
"","survey-multi-choice-replacement","80","2088114","0.0-40.1-0.1","99929490","wem/bandit_party_2","A1KAIOBTXQ77A6","either","2","2991","","","","","","","","","","","","","","","","","","","","","","","","No money will be added to either pool","","","","","","","attn_check","","","","","","","","","3",""
"","instructions","81","2090101","0.0-40.1-1.1-0.1","99929490","wem/bandit_party_2","A1KAIOBTXQ77A6","either","2","980","","","","","","","","","","","","","","","","","","","","","","","","","","","","","","","","","","","","","","","","","[{""page_index"":0,""viewing_time"":979}]"
"","survey-multi-choice-replacement","82","2092889","0.0-40.2-0.2","99929490","wem/bandit_party_2","A1KAIOBTXQ77A6","either","2","1766","","","","","","","","","","","","","","","","","","","","","","","","Equal amounts of money will be added to the pool for <span style='color:red;'>REPUBLICANS</span> and subtracted from the pool for <span style='color:blue;'>DEMOCRATS</span>","","","","","","","attn_check","","","","","","","","","2",""
"","survey-multi-choice-replacement","83","2097504","0.0-41.0-0.0","99929490","wem/bandit_party_2","A1KAIOBTXQ77A6","either","2","3589","","","","","","","","","","","","","","","","","","","","","","","","No money will be added to either pool","","","","","","","attn_check","","","","","","","","","3",""
"","bandit","84","2102067","0.0-42.0-0.0","99929490","wem/bandit_party_2","A1KAIOBTXQ77A6","either","2","2043","","","","","","","1","0","0","0.7092854079","","0.6","0.2","0.8","0.4","","","","","0.7092854079","0.4841938304","0.9925337928","0.7961415707","","","","","","","","","","72","H","0","img/none_selected.jpg","","1","main_expt","",""
"","bandit","85","2103592","0.0-43.0-0.0","99929490","wem/bandit_party_2","A1KAIOBTXQ77A6","either","2","14","","","","","","","1","0","0","0.7343230146","","0.6","0.2","0.8","0.4","","","","","0.7343230146","0.5300888233","0.9909612399","0.7739630809","","","","","","","","","","72","H","0","img/none_selected.jpg","","2","main_expt","",""
"","bandit","86","2105139","0.0-44.0-0.0","99929490","wem/bandit_party_2","A1KAIOBTXQ77A6","either","2","35","","","","","","","1","0","0","0.9875934203","","0.6","0.2","0.8","0.4","","","","","0.7616266478","0.4747636274","0.9875934203","0.807852523","","","","","","","","","","75","K","2","","","3","main_expt","",""
"","bandit","87","2106773","0.0-45.0-0.0","99929490","wem/bandit_party_2","A1KAIOBTXQ77A6","either","2","119","","","","","","","0","1","0","","0.7922386472","0.6","0.2","0.8","0.4","0.7555889459","0.4841015375","0.9782241123","0.7922386472","","","","","","","","","","","","","","76","L","3","","","4","main_expt","",""
"","bandit","88","2108403","0.0-46.0-0.0","99929490","wem/bandit_party_2","A1KAIOBTXQ77A6","either","2","120","","","","","","","1","0","0","0.9756627961","","0.6","0.2","0.8","0.4","","","","","0.733520678","0.5545204825","0.9756627961","0.865094385","","","","","","","","","","75","K","2","","","5","main_expt","",""
"","bandit","89","2110076","0.0-47.0-0.0","99929490","wem/bandit_party_2","A1KAIOBTXQ77A6","either","2","160","","","","","","","1","0","0","0.800956518","","0.6","0.2","0.8","0.4","","","","","0.6705264102","0.6032406034","0.967089612","0.800956518","","","","","","","","","","76","L","3","","","6","main_expt","",""
"","bandit","90","2111615","0.0-48.0-0.0","99929490","wem/bandit_party_2","A1KAIOBTXQ77A6","either","2","28","","","","","","","0","1","0","","0.826484282","0.6","0.2","0.8","0.4","0.6395389268","0.6629125932","0.9581374084","0.826484282","","","","","","","","","","","","","","76","L","3","","","7","main_expt","",""
"","bandit","91","2113199","0.0-49.0-0.0","99929490","wem/bandit_party_2","A1KAIOBTXQ77A6","either","2","75","","","","","","","1","0","0","0.9470057872","","0.6","0.2","0.8","0.4","","","","","0.6463283336","0.6179372523","0.9470057872","0.8721258401","","","","","","","","","","75","K","2","","","8","main_expt","",""
"","bandit","92","2114895","0.0-50.0-0.0","99929490","wem/bandit_party_2","A1KAIOBTXQ77A6","either","2","185","","","","","","","0","1","0","","0.5257156782","0.6","0.2","0.8","0.4","0.5257156782","0.7126464358","0.9776699295","0.9123847657","","","","","","","","","","","","","","72","H","0","img/none_selected.jpg","","9","main_expt","",""
"","bandit","93","2116514","0.0-51.0-0.0","99929490","wem/bandit_party_2","A1KAIOBTXQ77A6","either","2","108","","","","","","","0","1","0","","0.8996742502","0.6","0.2","0.8","0.4","0.4763364632","0.7356985298","0.9728878591","0.8996742502","","","","","","","","","","","","","","76","L","3","","","10","main_expt","",""
"","bandit","94","2118050","0.0-52.0-0.0","99929490","wem/bandit_party_2","A1KAIOBTXQ77A6","either","2","24","","","","","","","0","0","1","0.9131723876","","0.6","0.2","0.8","0.4","","","","","0.4284616273","0.768711937","0.9593139104","0.9131723876","","","","","","","","","","76","L","3","","","11","main_expt","",""
"","bandit","95","2119748","0.0-53.0-0.0","99929490","wem/bandit_party_2","A1KAIOBTXQ77A6","either","2","183","","","","","","","1","0","0","0.9498917819","","0.6","0.2","0.8","0.4","","","","","0.3846657661","0.775032537","0.9498917819","0.8766857583","","","","","","","","","","75","K","2","","","12","main_expt","",""
"","bandit","96","2121345","0.0-54.0-0.0","99929490","wem/bandit_party_2","A1KAIOBTXQ77A6","either","2","86","","","","","","","0","1","0","","0.8395211377","0.6","0.2","0.8","0.4","0.4534267517","0.8005481332","0.9541602679","0.8395211377","","","","","","","","","","","","","","76","L","3","","","13","main_expt","",""
"","bandit","97","2122923","0.0-55.0-0.0","99929490","wem/bandit_party_2","A1KAIOBTXQ77A6","either","2","64","","","","","","","0","0","1","","0.8716273459","0.6","0.2","0.8","0.4","0.5781166702","0.8437703121","0.9457654821","0.8716273459","","","","","","","","","","","","","","76","L","3","","","14","main_expt","",""
"","bandit","98","2124479","0.0-56.0-0.0","99929490","wem/bandit_party_2","A1KAIOBTXQ77A6","either","2","44","","","","","","","1","0","0","0.961431504","","0.6","0.2","0.8","0.4","","","","","0.6683268695","0.7878475566","0.961431504","0.8884181174","","","","","","","","","","75","K","2","","","15","main_expt","",""
"","bandit","99","2125994","0.0-57.0-0.0","99929490","wem/bandit_party_2","A1KAIOBTXQ77A6","either","2","2","","","","","","","1","0","0","0.9614480804","","0.6","0.2","0.8","0.4","","","","","0.6948649322","0.7873795395","0.9614480804","0.9144873871","","","","","","","","","","75","K","2","","","16","main_expt","",""
"","bandit","100","2127515","0.0-58.0-0.0","99929490","wem/bandit_party_2","A1KAIOBTXQ77A6","either","2","2","","","","","","","0","1","0","","0.7674725463","0.6","0.2","0.8","0.4","0.7674725463","0.8084550093","0.981184269","0.915766025","","","","","","","","","","","","","","72","H","0","img/none_selected.jpg","","17","main_expt","",""
"","bandit","101","2129048","0.0-59.0-0.0","99929490","wem/bandit_party_2","A1KAIOBTXQ77A6","either","2","20","","","","","","","0","1","0","","0.9357816117","0.6","0.2","0.8","0.4","0.7706733977","0.8436933745","0.9861919244","0.9357816117","","","","","","","","","","","","","","76","L","3","","","18","main_expt","",""
"","bandit","102","2131109","0.0-60.0-0.0","99929490","wem/bandit_party_2","A1KAIOBTXQ77A6","either","2","548","","","","","","","0","1","0","","0.8059530903","0.6","0.2","0.8","0.4","0.7396491891","0.8059530903","0.986789567","0.9482019282","","","","","","","","","","","","","","74","J","1","","","19","main_expt","",""
"","bandit","103","2132674","0.0-61.0-0.0","99929490","wem/bandit_party_2","A1KAIOBTXQ77A6","either","2","54","","","","","","","0","0","1","","0.7839513496","0.6","0.2","0.8","0.4","0.6712916173","0.7839513496","0.986183881","0.9433726768","","","","","","","","","","","","","","74","J","1","","","20","main_expt","",""
"","bandit","104","2134265","0.0-62.0-0.0","99929490","wem/bandit_party_2","A1KAIOBTXQ77A6","either","2","78","","","","","","","0","1","0","","0.7841815244","0.6","0.2","0.8","0.4","0.6728887443","0.7841815244","0.9887099493","0.9488284628","","","","","","","","","","","","","","74","J","1","","","21","main_expt","",""
"","bandit","105","2135910","0.0-63.0-0.0","99929490","wem/bandit_party_2","A1KAIOBTXQ77A6","either","2","132","","","","","","","1","0","0","0.992558567","","0.6","0.2","0.8","0.4","","","","","0.7838502077","0.8256278583","0.992558567","0.9500515088","","","","","","","","","","75","K","2","","","22","main_expt","",""
"","bandit","106","2137506","0.0-64.0-0.0","99929490","wem/bandit_party_2","A1KAIOBTXQ77A6","either","2","80","","","","","","","0","0","1","","0.7043778873","0.6","0.2","0.8","0.4","0.8711917965","0.7043778873","0.9906074595","0.9645760881","","","","","","","","","","","","","","74","J","1","","","23","main_expt","",""
"","bandit","107","2139039","0.0-65.0-0.0","99929490","wem/bandit_party_2","A1KAIOBTXQ77A6","either","2","22","","","","","","","1","0","0","0.7662705475","","0.6","0.2","0.8","0.4","","","","","0.861124964","0.7662705475","0.9828703082","0.946785539","","","","","","","","","","74","J","1","","","24","main_expt","",""
"","bandit","108","2140622","0.0-66.0-0.0","99929490","wem/bandit_party_2","A1KAIOBTXQ77A6","either","2","70","","","","","","","0","1","0","","0.984618899","0.6","0.2","0.8","0.4","0.8551403996","0.6915147264","0.984618899","0.9229473608","","","","","","","","","","","","","","75","K","2","","","25","main_expt","",""
"","bandit","109","2142260","0.0-67.0-0.0","99929490","wem/bandit_party_2","A1KAIOBTXQ77A6","either","2","124","","","","","","","1","0","0","0.9780938917","","0.6","0.2","0.8","0.4","","","","","0.8959771014","0.6844606422","0.9780938917","0.8729820127","","","","","","","","","","75","K","2","","","26","main_expt","",""
"","bandit","110","2143794","0.0-68.0-0.0","99929490","wem/bandit_party_2","A1KAIOBTXQ77A6","either","2","23","","","","","","","0","1","0","","0.8786292531","0.6","0.2","0.8","0.4","0.8786292531","0.7953701942","0.9634866904","0.859067388","","","","","","","","","","","","","","72","H","0","img/none_selected.jpg","","27","main_expt","",""
"","bandit","111","2145401","0.0-69.0-0.0","99929490","wem/bandit_party_2","A1KAIOBTXQ77A6","either","2","97","","","","","","","1","0","0","0.946494378","","0.6","0.2","0.8","0.4","","","","","0.8920593834","0.622657036","0.946494378","0.836267867","","","","","","","","","","75","K","2","","","28","main_expt","",""
"","bandit","112","2147002","0.0-70.0-0.0","99929490","wem/bandit_party_2","A1KAIOBTXQ77A6","either","2","89","","","","","","","0","0","1","","0.5757463716","0.6","0.2","0.8","0.4","0.8234517222","0.5757463716","0.9338647731","0.7158546556","","","","","","","","","","","","","","74","J","1","","","29","main_expt","",""
"","bandit","113","2148548","0.0-71.0-0.0","99929490","wem/bandit_party_2","A1KAIOBTXQ77A6","either","2","33","","","","","","","1","0","0","0.6048158844","","0.6","0.2","0.8","0.4","","","","","0.7963444676","0.6048158844","0.9354801528","0.7262950886","","","","","","","","","","74","J","1","","","30","main_expt","",""
"","bandit","114","2150121","0.0-72.0-0.0","99929490","wem/bandit_party_2","A1KAIOBTXQ77A6","either","2","56","","","","","","","0","1","0","","0.4831208743","0.6","0.2","0.8","0.4","0.6847131082","0.4831208743","0.9323861487","0.7049485024","","","","","","","","","","","","","","74","J","1","","","31","main_expt","",""
"","bandit","115","2151692","0.0-73.0-0.0","99929490","wem/bandit_party_2","A1KAIOBTXQ77A6","either","2","61","","","","","","","1","0","0","0.9159531952","","0.6","0.2","0.8","0.4","","","","","0.7745616343","0.4413454117","0.9159531952","0.6294605358","","","","","","","","","","75","K","2","","","32","main_expt","",""
"","bandit","116","2153298","0.0-74.0-0.0","99929490","wem/bandit_party_2","A1KAIOBTXQ77A6","either","2","93","","","","","","","1","0","0","0.9501333659","","0.6","0.2","0.8","0.4","","","","","0.8111568365","0.589686364","0.9501333659","0.7097184707","","","","","","","","","","75","K","2","","","33","main_expt","",""
"","bandit","117","2154887","0.0-75.0-0.0","99929490","wem/bandit_party_2","A1KAIOBTXQ77A6","either","2","74","","","","","","","1","0","0","0.7291364049","","0.6","0.2","0.8","0.4","","","","","0.7291364049","0.5789977489","0.9485118263","0.6324728327","","","","","","","","","","72","H","0","img/none_selected.jpg","","34","main_expt","",""
"","bandit","118","2156431","0.0-76.0-0.0","99929490","wem/bandit_party_2","A1KAIOBTXQ77A6","either","2","29","","","","","","","1","0","0","0.6809104991","","0.6","0.2","0.8","0.4","","","","","0.7920219322","0.5605822786","0.959491173","0.6809104991","","","","","","","","","","76","L","3","","","35","main_expt","",""
"","bandit","119","2158017","0.0-77.0-0.0","99929490","wem/bandit_party_2","A1KAIOBTXQ77A6","either","2","76","","","","","","","0","1","0","","0.7889809596","0.6","0.2","0.8","0.4","0.7889809596","0.3330948712","0.9523687656","0.5745256001","","","","","","","","","","","","","","72","H","0","img/none_selected.jpg","","36","main_expt","",""
"","bandit","120","2159531","0.0-78.0-0.0","99929490","wem/bandit_party_2","A1KAIOBTXQ77A6","either","2","1","","","","","","","0","1","0","","0.8060385269","0.6","0.2","0.8","0.4","0.8060385269","0.2430176499","0.9504344127","0.6249275122","","","","","","","","","","","","","","72","H","0","img/none_selected.jpg","","37","main_expt","",""
"","bandit","121","2161068","0.0-79.0-0.0","99929490","wem/bandit_party_2","A1KAIOBTXQ77A6","either","2","26","","","","","","","1","0","0","0.7188782676","","0.6","0.2","0.8","0.4","","","","","0.7188782676","0.3106083343","0.9321408283","0.5582777804","","","","","","","","","","72","H","0","img/none_selected.jpg","","38","main_expt","",""
"","bandit","122","2162726","0.0-80.0-0.0","99929490","wem/bandit_party_2","A1KAIOBTXQ77A6","either","2","147","","","","","","","0","0","1","","0.3239447463","0.6","0.2","0.8","0.4","0.7387945131","0.3239447463","0.9135525369","0.6619895395","","","","","","","","","","","","","","74","J","1","","","39","main_expt","",""
"","bandit","123","2164302","0.0-81.0-0.0","99929490","wem/bandit_party_2","A1KAIOBTXQ77A6","either","2","64","","","","","","","0","1","0","","0.2946631509","0.6","0.2","0.8","0.4","0.7478035428","0.2946631509","0.8840916364","0.6522152691","","","","","","","","","","","","","","74","J","1","","","40","main_expt","",""
"","bandit","124","2165928","0.0-82.0-0.0","99929490","wem/bandit_party_2","A1KAIOBTXQ77A6","either","2","111","","","","","","","0","0","1","","0.193597671","0.6","0.2","0.8","0.4","0.7802386085","0.193597671","0.8747037504","0.6714070371","","","","","","","","","","","","","","74","J","1","","","41","main_expt","",""
"","bandit","125","2167444","0.0-83.0-0.0","99929490","wem/bandit_party_2","A1KAIOBTXQ77A6","either","2","0","","","","","","","1","0","0","0.826315498","","0.6","0.2","0.8","0.4","","","","","0.7994277013","0.1834529884","0.826315498","0.6390104416","","","","","","","","","","75","K","2","","","42","main_expt","",""
"","bandit","126","2168984","0.0-84.0-0.0","99929490","wem/bandit_party_2","A1KAIOBTXQ77A6","either","2","28","","","","","","","0","0","1","0.7681371561","","0.6","0.2","0.8","0.4","","","","","0.8718069658","0.1558663495","0.7681371561","0.6318841448","","","","","","","","","","75","K","2","","","43","main_expt","",""
"","bandit","127","2170590","0.0-85.0-0.0","99929490","wem/bandit_party_2","A1KAIOBTXQ77A6","either","2","96","","","","","","","1","0","0","0.7584360225","","0.6","0.2","0.8","0.4","","","","","0.7725207311","0.1573065196","0.7584360225","0.5708139437","","","","","","","","","","75","K","2","","","44","main_expt","",""
"","bandit","128","2172181","0.0-86.0-0.0","99929490","wem/bandit_party_2","A1KAIOBTXQ77A6","either","2","74","","","","","","","0","0","1","0.1743203636","","0.6","0.2","0.8","0.4","","","","","0.8399140445","0.1743203636","0.816959585","0.5703812278","","","","","","","","","","74","J","1","","","45","main_expt","",""
"","bandit","129","2173777","0.0-87.0-0.0","99929490","wem/bandit_party_2","A1KAIOBTXQ77A6","either","2","84","","","","","","","0","1","0","","0.4520700595","0.6","0.2","0.8","0.4","0.7830678696","0.1234040722","0.7571269921","0.4520700595","","","","","","","","","","","","","","76","L","3","","","46","main_expt","",""
"","bandit","130","2175397","0.0-88.0-0.0","99929490","wem/bandit_party_2","A1KAIOBTXQ77A6","either","2","109","","","","","","","0","1","0","","0.1592846429","0.6","0.2","0.8","0.4","0.8255209912","0.1592846429","0.7086567283","0.4953600952","","","","","","","","","","","","","","74","J","1","","","47","main_expt","",""
"","bandit","131","2177127","0.0-89.0-0.0","99929490","wem/bandit_party_2","A1KAIOBTXQ77A6","either","2","217","","","","","","","0","0","1","0.1880090658","","0.6","0.2","0.8","0.4","","","","","0.7728754614","0.1880090658","0.6428227569","0.4912921637","","","","","","","","","","74","J","1","","","48","main_expt","",""
"","bandit","132","2178723","0.0-90.0-0.0","99929490","wem/bandit_party_2","A1KAIOBTXQ77A6","either","2","84","","","","","","","0","1","0","","0.7004196772","0.6","0.2","0.8","0.4","0.8607162984","0.3190576765","0.7004196772","0.4694413912","","","","","","","","","","","","","","75","K","2","","","49","main_expt","",""
"","bandit","133","2180364","0.0-91.0-0.0","99929490","wem/bandit_party_2","A1KAIOBTXQ77A6","either","2","123","","","","","","","0","0","1","","0.5835687148","0.6","0.2","0.8","0.4","0.8526113732","0.277770718","0.6418514465","0.5835687148","","","","","","","","","","","","","","76","L","3","","","50","main_expt","",""
"","bandit","134","2181951","0.0-92.0-0.0","99929490","wem/bandit_party_2","A1KAIOBTXQ77A6","either","2","73","","","","","","","0","0","1","","0.6322169777","0.6","0.2","0.8","0.4","0.8630835666","0.3304163056","0.6322169777","0.581499138","","","","","","","","","","","","","","75","K","2","","","51","main_expt","",""
"","bandit","135","2183527","0.0-93.0-0.0","99929490","wem/bandit_party_2","A1KAIOBTXQ77A6","either","2","65","","","","","","","0","0","1","0.6521379128","","0.6","0.2","0.8","0.4","","","","","0.8689990829","0.3074301744","0.6160259873","0.6521379128","","","","","","","","","","76","L","3","","","52","main_expt","",""
"","bandit","136","2185173","0.0-94.0-0.0","99929490","wem/bandit_party_2","A1KAIOBTXQ77A6","either","2","132","","","","","","","0","0","1","","0.6635838846","0.6","0.2","0.8","0.4","0.8829627288","0.3292402402","0.6635838846","0.5743957808","","","","","","","","","","","","","","75","K","2","","","53","main_expt","",""
"","bandit","137","2186872","0.0-95.0-0.0","99929490","wem/bandit_party_2","A1KAIOBTXQ77A6","either","2","184","","","","","","","0","0","1","0.7334380463","","0.6","0.2","0.8","0.4","","","","","0.8577096669","0.3701383524","0.7334380463","0.4765250731","","","","","","","","","","75","K","2","","","54","main_expt","",""
"","bandit","138","2188447","0.0-96.0-0.0","99929490","wem/bandit_party_2","A1KAIOBTXQ77A6","either","2","65","","","","","","","0","0","1","0.7951355038","","0.6","0.2","0.8","0.4","","","","","0.7951355038","0.4023440482","0.6625049704","0.472038817","","","","","","","","","","72","H","0","img/none_selected.jpg","","55","main_expt","",""
"","bandit","139","2190032","0.0-97.0-0.0","99929490","wem/bandit_party_2","A1KAIOBTXQ77A6","either","2","67","","","","","","","0","0","1","0.6244126183","","0.6","0.2","0.8","0.4","","","","","0.7832403428","0.3320470731","0.6244126183","0.6060805283","","","","","","","","","","75","K","2","","","56","main_expt","",""
"","bandit","140","2191631","0.0-98.0-0.0","99929490","wem/bandit_party_2","A1KAIOBTXQ77A6","either","2","90","","","","","","","0","0","1","","0.5733746242","0.6","0.2","0.8","0.4","0.7165346004","0.3398704556","0.693445159","0.5733746242","","","","","","","","","","","","","","76","L","3","","","57","main_expt","",""
"","bandit","141","2193301","0.0-99.0-0.0","99929490","wem/bandit_party_2","A1KAIOBTXQ77A6","either","2","160","","","","","","","0","1","0","","0.7840704931","0.6","0.2","0.8","0.4","0.7840704931","0.3171476707","0.6603141298","0.5268086549","","","","","","","","","","","","","","72","H","0","img/none_selected.jpg","","58","main_expt","",""
"","bandit","142","2194823","0.0-100.0-0.0","99929490","wem/bandit_party_2","A1KAIOBTXQ77A6","either","2","8","","","","","","","1","0","0","0.6435133917","","0.6","0.2","0.8","0.4","","","","","0.7166558068","0.1868584885","0.6435133917","0.5298916697","","","","","","","","","","75","K","2","","","59","main_expt","",""
"","bandit","143","2196435","0.0-101.0-0.0","99929490","wem/bandit_party_2","A1KAIOBTXQ77A6","either","2","101","","","","","","","0","0","1","0.5547432704","","0.6","0.2","0.8","0.4","","","","","0.6505055492","0.2163153633","0.6720075741","0.5547432704","","","","","","","","","","76","L","3","","","60","main_expt","",""
"","bandit","144","2197950","0.0-102.0-0.0","99929490","wem/bandit_party_2","A1KAIOBTXQ77A6","either","2","1","","","","","","","0","0","1","","0.5407031957","0.6","0.2","0.8","0.4","0.6465946667","0.2086512551","0.6703611074","0.5407031957","","","","","","","","","","","","","","76","L","3","","","61","main_expt","",""
"","bandit","145","2199514","0.0-103.0-0.0","99929490","wem/bandit_party_2","A1KAIOBTXQ77A6","either","2","48","","","","","","","1","0","0","0.64477312","","0.6","0.2","0.8","0.4","","","","","0.709990362","0.2250062338","0.64477312","0.6993449034","","","","","","","","","","75","K","2","","","62","main_expt","",""
"","bandit","146","2201037","0.0-104.0-0.0","99929490","wem/bandit_party_2","A1KAIOBTXQ77A6","either","2","9","","","","","","","0","0","1","0.6342967703","","0.6","0.2","0.8","0.4","","","","","0.7542168012","0.2739380208","0.509049177","0.6342967703","","","","","","","","","","76","L","3","","","63","main_expt","",""
"","bandit","147","2202556","0.0-105.0-0.0","99929490","wem/bandit_party_2","A1KAIOBTXQ77A6","either","2","4","","","","","","","0","1","0","","0.5961490325","0.6","0.2","0.8","0.4","0.7660604158","0.3449536465","0.5535424332","0.5961490325","","","","","","","","","","","","","","76","L","3","","","64","main_expt","",""
"","bandit","148","2204339","0.0-106.0-0.0","99929490","wem/bandit_party_2","A1KAIOBTXQ77A6","either","2","273","","","","","","","1","0","0","0.6608621899","","0.6","0.2","0.8","0.4","","","","","0.7572602099","0.34640195","0.6608621899","0.5771190674","","","","","","","","","","75","K","2","","","65","main_expt","",""
"","bandit","149","2205872","0.0-107.0-0.0","99929490","wem/bandit_party_2","A1KAIOBTXQ77A6","either","2","23","","","","","","","1","0","0","0.686926195","","0.6","0.2","0.8","0.4","","","","","0.686926195","0.5266288285","0.6535341977","0.4765921407","","","","","","","","","","72","H","0","img/none_selected.jpg","","66","main_expt","",""
"","bandit","150","2210124","0.0-108.0-0.0","99929490","wem/bandit_party_2","A1KAIOBTXQ77A6","either","2","2743","","","","","","","0","0","1","","0.5714361875","0.6","0.2","0.8","0.4","0.7334195653","0.5588671697","0.6592628399","0.5714361875","","","","","","","","","","","","","","76","L","3","","","67","main_expt","",""
"","bandit","151","2211691","0.0-109.0-0.0","99929490","wem/bandit_party_2","A1KAIOBTXQ77A6","either","2","54","","","","","","","1","0","0","0.6114245881","","0.6","0.2","0.8","0.4","","","","","0.6114245881","0.6097536784","0.6735013879","0.6231829193","","","","","","","","","","72","H","0","img/none_selected.jpg","","68","main_expt","",""
"","bandit","152","2213311","0.0-110.0-0.0","99929490","wem/bandit_party_2","A1KAIOBTXQ77A6","either","2","101","","","","","","","0","0","1","","0.533457584","0.6","0.2","0.8","0.4","0.6460921668","0.533457584","0.7209687993","0.5130256365","","","","","","","","","","","","","","74","J","1","","","69","main_expt","",""
"","bandit","153","2214858","0.0-111.0-0.0","99929490","wem/bandit_party_2","A1KAIOBTXQ77A6","either","2","34","","","","","","","0","1","0","","0.6700702736","0.6","0.2","0.8","0.4","0.6700702736","0.4124750721","0.690528825","0.5167166","","","","","","","","","","","","","","72","H","0","img/none_selected.jpg","","70","main_expt","",""
"","bandit","154","2216475","0.0-112.0-0.0","99929490","wem/bandit_party_2","A1KAIOBTXQ77A6","either","2","103","","","","","","","1","0","0","0.6448170737","","0.6","0.2","0.8","0.4","","","","","0.6388012411","0.4486526525","0.6453310316","0.6448170737","","","","","","","","","","76","L","3","","","71","main_expt","",""
"","bandit","155","2218083","0.0-113.0-0.0","99929490","wem/bandit_party_2","A1KAIOBTXQ77A6","either","2","91","","","","","","","0","1","0","","0.6046900378","0.6","0.2","0.8","0.4","0.6046900378","0.4313602212","0.8140348339","0.5640434706","","","","","","","","","","","","","","72","H","0","img/none_selected.jpg","","72","main_expt","",""
"","bandit","156","2219893","0.0-114.0-0.0","99929490","wem/bandit_party_2","A1KAIOBTXQ77A6","either","2","300","","","","","","","0","0","1","","0.3639072561","0.6","0.2","0.8","0.4","0.6062428704","0.3639072561","0.820931829","0.6296110197","","","","","","","","","","","","","","74","J","1","","","73","main_expt","",""
"","bandit","157","2221408","0.0-115.0-0.0","99929490","wem/bandit_party_2","A1KAIOBTXQ77A6","either","2","2","","","","","","","0","1","0","","0.2882181569","0.6","0.2","0.8","0.4","0.6237194739","0.2882181569","0.8096233945","0.6730210969","","","","","","","","","","","","","","74","J","1","","","74","main_expt","",""
"","bandit","158","2222927","0.0-116.0-0.0","99929490","wem/bandit_party_2","A1KAIOBTXQ77A6","either","2","2","","","","","","","0","1","0","","0.5720403827","0.6","0.2","0.8","0.4","0.5971007372","0.3561187133","0.7615001707","0.5720403827","","","","","","","","","","","","","","76","L","3","","","75","main_expt","",""
"","bandit","159","2224444","0.0-117.0-0.0","99929490","wem/bandit_party_2","A1KAIOBTXQ77A6","either","2","2","","","","","","","0","0","1","","0.6303512149","0.6","0.2","0.8","0.4","0.5810032438","0.4480894403","0.8147365981","0.6303512149","","","","","","","","","","","","","","76","L","3","","","76","main_expt","",""
"","bandit","160","2225968","0.0-118.0-0.0","99929490","wem/bandit_party_2","A1KAIOBTXQ77A6","either","2","11","","","","","","","0","0","1","0.5531797874","","0.6","0.2","0.8","0.4","","","","","0.5792233978","0.3220850356","0.8926338818","0.5531797874","","","","","","","","","","76","L","3","","","77","main_expt","",""
"","bandit","161","2227487","0.0-119.0-0.0","99929490","wem/bandit_party_2","A1KAIOBTXQ77A6","either","2","1","","","","","","","0","1","0","","0.692511921","0.6","0.2","0.8","0.4","0.692511921","0.3281133775","0.8669072201","0.5449672882","","","","","","","","","","","","","","72","H","0","img/none_selected.jpg","","78","main_expt","",""
"","bandit","162","2229060","0.0-120.0-0.0","99929490","wem/bandit_party_2","A1KAIOBTXQ77A6","either","2","59","","","","","","","0","0","1","","0.3814329202","0.6","0.2","0.8","0.4","0.7019625083","0.3814329202","0.9114006046","0.4484013318","","","","","","","","","","","","","","74","J","1","","","79","main_expt","",""
"","bandit","163","2230610","0.0-121.0-0.0","99929490","wem/bandit_party_2","A1KAIOBTXQ77A6","either","2","36","","","","","","","1","0","0","0.6785675641","","0.6","0.2","0.8","0.4","","","","","0.6785675641","0.3512572076","0.9268398106","0.5041425745","","","","","","","","","","72","H","0","img/none_selected.jpg","","80","main_expt","",""
"","bandit","164","2232126","0.0-122.0-0.0","99929490","wem/bandit_party_2","A1KAIOBTXQ77A6","either","2","2","","","","","","","0","1","0","","0.3624285329","0.6","0.2","0.8","0.4","0.7101061672","0.3624285329","0.9582858862","0.3462078978","","","","","","","","","","","","","","74","J","1","","","81","main_expt","",""
"","bandit","165","2233681","0.0-123.0-0.0","99929490","wem/bandit_party_2","A1KAIOBTXQ77A6","either","2","42","","","","","","","0","0","1","","0.3111883408","0.6","0.2","0.8","0.4","0.7217376576","0.3111883408","0.9590071975","0.3226795418","","","","","","","","","","","","","","74","J","1","","","82","main_expt","",""
"","bandit","166","2235229","0.0-124.0-0.0","99929490","wem/bandit_party_2","A1KAIOBTXQ77A6","either","2","38","","","","","","","0","1","0","","0.3023868023","0.6","0.2","0.8","0.4","0.6437777395","0.243162563","0.9379973093","0.3023868023","","","","","","","","","","","","","","76","L","3","","","83","main_expt","",""
"","bandit","167","2236774","0.0-125.0-0.0","99929490","wem/bandit_party_2","A1KAIOBTXQ77A6","either","2","31","","","","","","","1","0","0","0.6533183273","","0.6","0.2","0.8","0.4","","","","","0.6533183273","0.347146949","0.9411979228","0.4040419094","","","","","","","","","","72","H","0","img/none_selected.jpg","","84","main_expt","",""
"","bandit","168","2238293","0.0-126.0-0.0","99929490","wem/bandit_party_2","A1KAIOBTXQ77A6","either","2","5","","","","","","","1","0","0","0.7469548387","","0.6","0.2","0.8","0.4","","","","","0.7469548387","0.4416309426","0.9441700551","0.4716136817","","","","","","","","","","72","H","0","img/none_selected.jpg","","85","main_expt","",""
"","bandit","169","2239880","0.0-127.0-0.0","99929490","wem/bandit_party_2","A1KAIOBTXQ77A6","either","2","77","","","","","","","1","0","0","0.7366570046","","0.6","0.2","0.8","0.4","","","","","0.7366570046","0.4523797492","0.9323605113","0.4455883603","","","","","","","","","","72","H","0","img/none_selected.jpg","","86","main_expt","",""
"","bandit","170","2241466","0.0-128.0-0.0","99929490","wem/bandit_party_2","A1KAIOBTXQ77A6","either","2","72","","","","","","","0","0","1","","0.5952575165","0.6","0.2","0.8","0.4","0.7142428019","0.4621103264","0.8871332711","0.5952575165","","","","","","","","","","","","","","76","L","3","","","87","main_expt","",""
"","bandit","171","2243039","0.0-129.0-0.0","99929490","wem/bandit_party_2","A1KAIOBTXQ77A6","either","2","59","","","","","","","0","1","0","","0.3800084876","0.6","0.2","0.8","0.4","0.7057172343","0.3800084876","0.8520973281","0.5333825583","","","","","","","","","","","","","","74","J","1","","","88","main_expt","",""
"","bandit","172","2244598","0.0-130.0-0.0","99929490","wem/bandit_party_2","A1KAIOBTXQ77A6","either","2","50","","","","","","","1","0","0","0.7882210871","","0.6","0.2","0.8","0.4","","","","","0.7289934888","0.2354372355","0.7882210871","0.4583166828","","","","","","","","","","75","K","2","","","89","main_expt","",""
"","bandit","173","2246226","0.0-131.0-0.0","99929490","wem/bandit_party_2","A1KAIOBTXQ77A6","either","2","114","","","","","","","0","0","1","","0.2978482647","0.6","0.2","0.8","0.4","0.7475354559","0.2978482647","0.720110267","0.4782349553","","","","","","","","","","","","","","74","J","1","","","90","main_expt","",""
"","bandit","174","2247805","0.0-132.0-0.0","99929490","wem/bandit_party_2","A1KAIOBTXQ77A6","either","2","65","","","","","","","1","0","0","0.6316706059","","0.6","0.2","0.8","0.4","","","","","0.6316706059","0.3723871884","0.7390342074","0.464138054","","","","","","","","","","72","H","0","img/none_selected.jpg","","91","main_expt","",""
"","bandit","175","2249524","0.0-133.0-0.0","99929490","wem/bandit_party_2","A1KAIOBTXQ77A6","either","2","203","","","","","","","0","1","0","","0.5400298203","0.6","0.2","0.8","0.4","0.6957908828","0.5400298203","0.8135224625","0.5084128334","","","","","","","","","","","","","","74","J","1","","","92","main_expt","",""
"","bandit","176","2251091","0.0-134.0-0.0","99929490","wem/bandit_party_2","A1KAIOBTXQ77A6","either","2","56","","","","","","","0","0","1","0.5211356389","","0.6","0.2","0.8","0.4","","","","","0.6812665662","0.5134744583","0.7814404678","0.5211356389","","","","","","","","","","76","L","3","","","93","main_expt","",""
"","bandit","177","2252624","0.0-135.0-0.0","99929490","wem/bandit_party_2","A1KAIOBTXQ77A6","either","2","17","","","","","","","0","0","1","0.6412933588","","0.6","0.2","0.8","0.4","","","","","0.6412933588","0.4101580275","0.7672416568","0.4554037602","","","","","","","","","","72","H","0","img/none_selected.jpg","","94","main_expt","",""
"","bandit","178","2254174","0.0-136.0-0.0","99929490","wem/bandit_party_2","A1KAIOBTXQ77A6","either","2","36","","","","","","","1","0","0","0.7573973965","","0.6","0.2","0.8","0.4","","","","","0.5696630174","0.2995167601","0.7573973965","0.4195046205","","","","","","","","","","75","K","2","","","95","main_expt","",""
"","bandit","179","2255770","0.0-137.0-0.0","99929490","wem/bandit_party_2","A1KAIOBTXQ77A6","either","2","81","","","","","","","1","0","0","0.6076398096","","0.6","0.2","0.8","0.4","","","","","0.6076398096","0.2934894425","0.8177369732","0.3638478563","","","","","","","","","","72","H","0","img/none_selected.jpg","","96","main_expt","",""
"","bandit","180","2257297","0.0-138.0-0.0","99929490","wem/bandit_party_2","A1KAIOBTXQ77A6","either","2","17","","","","","","","0","1","0","","0.2802715202","0.6","0.2","0.8","0.4","0.5551612935","0.2802715202","0.8124666872","0.2839735208","","","","","","","","","","","","","","74","J","1","","","97","main_expt","",""
"","bandit","181","2258810","0.0-139.0-0.0","99929490","wem/bandit_party_2","A1KAIOBTXQ77A6","either","2","2","","","","","","","1","0","0","0.6354974245","","0.6","0.2","0.8","0.4","","","","","0.6354974245","0.2703087955","0.881496875","0.2109275999","","","","","","","","","","72","H","0","img/none_selected.jpg","","98","main_expt","",""
"","bandit","182","2260338","0.0-140.0-0.0","99929490","wem/bandit_party_2","A1KAIOBTXQ77A6","either","2","15","","","","","","","1","0","0","0.8785981907","","0.6","0.2","0.8","0.4","","","","","0.5945745664","0.3027543159","0.8785981907","0.1531506719","","","","","","","","","","75","K","2","","","99","main_expt","",""
"","bandit","183","2261852","0.0-141.0-0.0","99929490","wem/bandit_party_2","A1KAIOBTXQ77A6","either","2","3","","","","","","","0","0","1","0.3645318829","","0.6","0.2","0.8","0.4","","","","","0.5679097985","0.3645318829","0.8494581726","0.1262108991","","","","","","","","","","74","J","1","","","100","main_expt","",""
"","bandit","184","2263369","0.0-142.0-0.0","99929490","wem/bandit_party_2","A1KAIOBTXQ77A6","either","2","0","","","","","","","1","0","0","0.6430580454","","0.6","0.2","0.8","0.4","","","","","0.6430580454","0.4315832637","0.7754784616","0.1340220502","","","","","","","","","","72","H","0","img/none_selected.jpg","","101","main_expt","",""
"","bandit","185","2264923","0.0-143.0-0.0","99929490","wem/bandit_party_2","A1KAIOBTXQ77A6","either","2","42","","","","","","","0","1","0","","0.6340200926","0.6","0.2","0.8","0.4","0.6340200926","0.3608531129","0.7626736499","0.2167126086","","","","","","","","","","","","","","72","H","0","img/none_selected.jpg","","102","main_expt","",""
"","bandit","186","2266574","0.0-144.0-0.0","99929490","wem/bandit_party_2","A1KAIOBTXQ77A6","either","2","135","","","","","","","0","0","1","0.2796352144","","0.6","0.2","0.8","0.4","","","","","0.6377668076","0.3688981903","0.7329996306","0.2796352144","","","","","","","","","","76","L","3","","","103","main_expt","",""
"","bandit","187","2268095","0.0-145.0-0.0","99929490","wem/bandit_party_2","A1KAIOBTXQ77A6","either","2","8","","","","","","","1","0","0","0.7467689404","","0.6","0.2","0.8","0.4","","","","","0.6578341575","0.3758155051","0.7467689404","0.3556406549","","","","","","","","","","75","K","2","","","104","main_expt","",""
"","bandit","188","2269668","0.0-146.0-0.0","99929490","wem/bandit_party_2","A1KAIOBTXQ77A6","either","2","57","","","","","","","0","0","1","","0.4508947075","0.6","0.2","0.8","0.4","0.6727034752","0.4508947075","0.737018723","0.3233911601","","","","","","","","","","","","","","74","J","1","","","105","main_expt","",""
"","bandit","189","2271206","0.0-147.0-0.0","99929490","wem/bandit_party_2","A1KAIOBTXQ77A6","either","2","24","","","","","","","0","0","1","0.655194185","","0.6","0.2","0.8","0.4","","","","","0.6386482702","0.4132181144","0.655194185","0.2024631506","","","","","","","","","","75","K","2","","","106","main_expt","",""
"","bandit","190","2272861","0.0-148.0-0.0","99929490","wem/bandit_party_2","A1KAIOBTXQ77A6","either","2","139","","","","","","","1","0","0","0.6788938686","","0.6","0.2","0.8","0.4","","","","","0.6788938686","0.4393512677","0.7122819559","0.2290393164","","","","","","","","","","72","H","0","img/none_selected.jpg","","107","main_expt","",""
"","bandit","191","2274434","0.0-149.0-0.0","99929490","wem/bandit_party_2","A1KAIOBTXQ77A6","either","2","58","","","","","","","0","1","0","","0.7076498576","0.6","0.2","0.8","0.4","0.7076498576","0.4964319729","0.7326995505","0.2217712157","","","","","","","","","","","","","","72","H","0","img/none_selected.jpg","","108","main_expt","",""
"","bandit","192","2275966","0.0-150.0-0.0","99929490","wem/bandit_party_2","A1KAIOBTXQ77A6","either","2","12","","","","","","","0","0","1","","0.1566860935","0.6","0.2","0.8","0.4","0.6932550908","0.4790921069","0.7165499475","0.1566860935","","","","","","","","","","","","","","76","L","3","","","109","main_expt","",""
"","bandit","193","2277493","0.0-151.0-0.0","99929490","wem/bandit_party_2","A1KAIOBTXQ77A6","either","2","11","","","","","","","0","0","1","","0.5856434505","0.6","0.2","0.8","0.4","0.7436061547","0.5856434505","0.6058017554","0.1083987113","","","","","","","","","","","","","","74","J","1","","","110","main_expt","",""
"","bandit","194","2279061","0.0-152.0-0.0","99929490","wem/bandit_party_2","A1KAIOBTXQ77A6","either","2","54","","","","","","","0","1","0","","0.6444230696","0.6","0.2","0.8","0.4","0.657194241","0.6444230696","0.5476823758","0.217828795","","","","","","","","","","","","","","74","J","1","","","111","main_expt","",""
"","bandit","195","2280578","0.0-153.0-0.0","99929490","wem/bandit_party_2","A1KAIOBTXQ77A6","either","2","4","","","","","","","0","0","1","0.2212119155","","0.6","0.2","0.8","0.4","","","","","0.6317228327","0.603417252","0.5688313193","0.2212119155","","","","","","","","","","76","L","3","","","112","main_expt","",""
"","bandit","196","2282138","0.0-154.0-0.0","99929490","wem/bandit_party_2","A1KAIOBTXQ77A6","either","2","44","","","","","","","0","0","1","","0.2374112476","0.6","0.2","0.8","0.4","0.4985892417","0.420613871","0.50852785","0.2374112476","","","","","","","","","","","","","","76","L","3","","","113","main_expt","",""
"","bandit","197","2283751","0.0-155.0-0.0","99929490","wem/bandit_party_2","A1KAIOBTXQ77A6","either","2","99","","","","","","","0","1","0","","0.2703699348","0.6","0.2","0.8","0.4","0.579071345","0.2851569533","0.5711084253","0.2703699348","","","","","","","","","","","","","","76","L","3","","","114","main_expt","",""
"","bandit","198","2285328","0.0-156.0-0.0","99929490","wem/bandit_party_2","A1KAIOBTXQ77A6","either","2","63","","","","","","","0","0","1","","0.3166589884","0.6","0.2","0.8","0.4","0.4595939904","0.3166589884","0.4177754351","0.1928485376","","","","","","","","","","","","","","74","J","1","","","115","main_expt","",""
"","bandit","199","2286872","0.0-157.0-0.0","99929490","wem/bandit_party_2","A1KAIOBTXQ77A6","either","2","31","","","","","","","0","0","1","0.3744567546","","0.6","0.2","0.8","0.4","","","","","0.3744567546","0.3928451607","0.387840809","0.136356343","","","","","","","","","","72","H","0","img/none_selected.jpg","","116","main_expt","",""
"","bandit","200","2288442","0.0-158.0-0.0","99929490","wem/bandit_party_2","A1KAIOBTXQ77A6","either","2","56","","","","","","","1","0","0","0.4456731606","","0.6","0.2","0.8","0.4","","","","","0.302145019","0.560845346","0.4456731606","0.2193113504","","","","","","","","","","75","K","2","","","117","main_expt","",""
"","bandit","201","2289960","0.0-159.0-0.0","99929490","wem/bandit_party_2","A1KAIOBTXQ77A6","either","2","4","","","","","","","1","0","0","0.3045880574","","0.6","0.2","0.8","0.4","","","","","0.3522466686","0.5536818424","0.3045880574","0.2686792008","","","","","","","","","","75","K","2","","","118","main_expt","",""
"","bandit","202","2291530","0.0-160.0-0.0","99929490","wem/bandit_party_2","A1KAIOBTXQ77A6","either","2","51","","","","","","","0","0","1","0.3617659687","","0.6","0.2","0.8","0.4","","","","","0.4425542362","0.3617659687","0.3994134075","0.2668270476","","","","","","","","","","74","J","1","","","119","main_expt","",""
"","bandit","203","2293069","0.0-161.0-0.0","99929490","wem/bandit_party_2","A1KAIOBTXQ77A6","either","2","21","","","","","","","1","0","0","0.3377532805","","0.6","0.2","0.8","0.4","","","","","0.3377532805","0.3454740543","0.351449483","0.3723992114","","","","","","","","","","72","H","0","img/none_selected.jpg","","120","main_expt","",""
"","bandit","204","2294605","0.0-162.0-0.0","99929490","wem/bandit_party_2","A1KAIOBTXQ77A6","either","2","21","","","","","","","0","0","1","0.2929504356","","0.6","0.2","0.8","0.4","","","","","0.2929504356","0.2798257893","0.3641911367","0.4001238515","","","","","","","","","","72","H","0","img/none_selected.jpg","","121","main_expt","",""
"","bandit","205","2296122","0.0-163.0-0.0","99929490","wem/bandit_party_2","A1KAIOBTXQ77A6","either","2","2","","","","","","","0","0","1","0.2673706252","","0.6","0.2","0.8","0.4","","","","","0.2504028886","0.2261540995","0.2673706252","0.4090120715","","","","","","","","","","75","K","2","","","122","main_expt","",""
"","bandit","206","2297673","0.0-164.0-0.0","99929490","wem/bandit_party_2","A1KAIOBTXQ77A6","either","2","34","","","","","","","0","0","1","","0.2766663047","0.6","0.2","0.8","0.4","0.2414849785","0.2766663047","0.3455372181","0.4746108064","","","","","","","","","","","","","","74","J","1","","","123","main_expt","",""
"","bandit","207","2299222","0.0-165.0-0.0","99929490","wem/bandit_party_2","A1KAIOBTXQ77A6","either","2","32","","","","","","","0","0","1","0.1791255979","","0.6","0.2","0.8","0.4","","","","","0.1791255979","0.3126864395","0.3524137631","0.453231646","","","","","","","","","","72","H","0","img/none_selected.jpg","","124","main_expt","",""
"","bandit","208","2300796","0.0-166.0-0.0","99929490","wem/bandit_party_2","A1KAIOBTXQ77A6","either","2","55","","","","","","","0","0","1","","0.1952456852","0.6","0.2","0.8","0.4","0.1952456852","0.2772507379","0.3680881866","0.4888945922","","","","","","","","","","","","","","72","H","0","img/none_selected.jpg","","125","main_expt","",""
"","bandit","209","2302351","0.0-167.0-0.0","99929490","wem/bandit_party_2","A1KAIOBTXQ77A6","either","2","42","","","","","","","0","0","1","","0.2441417391","0.6","0.2","0.8","0.4","0.2614303707","0.2441417391","0.2884444508","0.396932523","","","","","","","","","","","","","","74","J","1","","","126","main_expt","",""
"","bandit","210","2303895","0.0-168.0-0.0","99929490","wem/bandit_party_2","A1KAIOBTXQ77A6","either","2","31","","","","","","","1","0","0","0.267511235","","0.6","0.2","0.8","0.4","","","","","0.267511235","0.2304038214","0.2931854252","0.4026562496","","","","","","","","","","72","H","0","img/none_selected.jpg","","127","main_expt","",""
"","bandit","211","2305469","0.0-169.0-0.0","99929490","wem/bandit_party_2","A1KAIOBTXQ77A6","either","2","59","","","","","","","0","0","1","0.2582460394","","0.6","0.2","0.8","0.4","","","","","0.2582460394","0.2463692943","0.3115494401","0.3072143153","","","","","","","","","","72","H","0","img/none_selected.jpg","","128","main_expt","",""
"","bandit","212","2307303","0.0-170.0-0.0","99929490","wem/bandit_party_2","A1KAIOBTXQ77A6","either","2","315","","","","","","","0","0","1","0.287093163","","0.6","0.2","0.8","0.4","","","","","0.249100023","0.262841392","0.287093163","0.3024431642","","","","","","","","","","75","K","2","","","129","main_expt","",""
"","bandit","213","2313860","0.0-171.0-0.0","99929490","wem/bandit_party_2","A1KAIOBTXQ77A6","either","2","5041","","","","","","","0","0","1","0.242368994","","0.6","0.2","0.8","0.4","","","","","0.2014680341","0.3044503748","0.242368994","0.383823705","","","","","","","","","","75","K","2","","","130","main_expt","",""
"","bandit","214","2318807","0.0-172.0-0.0","99929490","wem/bandit_party_2","A1KAIOBTXQ77A6","either","2","3436","","","","","","","0","0","1","0.3141093292","","0.6","0.2","0.8","0.4","","","","","0.2514612397","0.2231782293","0.3141093292","0.5448185218","","","","","","","","","","75","K","2","","","131","main_expt","",""
"","bandit","215","2320376","0.0-173.0-0.0","99929490","wem/bandit_party_2","A1KAIOBTXQ77A6","either","2","55","","","","","","","0","0","1","","0.265126842","0.6","0.2","0.8","0.4","0.1719215191","0.265126842","0.3186943837","0.5741986762","","","","","","","","","","","","","","74","J","1","","","132","main_expt","",""
"","bandit","216","2321915","0.0-174.0-0.0","99929490","wem/bandit_party_2","A1KAIOBTXQ77A6","either","2","20","","","","","","","1","0","0","0.3218599317","","0.6","0.2","0.8","0.4","","","","","0.151851594","0.1996467811","0.3218599317","0.54298015","","","","","","","","","","75","K","2","","","133","main_expt","",""
"","bandit","217","2324446","0.0-175.0-0.0","99929490","wem/bandit_party_2","A1KAIOBTXQ77A6","either","2","1021","","","","","","","0","0","1","","0.1900899503","0.6","0.2","0.8","0.4","0.1693242304","0.1900899503","0.3372263261","0.5504084981","","","","","","","","","","","","","","74","J","1","","","134","main_expt","",""
"","bandit","218","2325991","0.0-176.0-0.0","99929490","wem/bandit_party_2","A1KAIOBTXQ77A6","either","2","29","","","","","","","0","0","1","0.3515125386","","0.6","0.2","0.8","0.4","","","","","0.1541174352","0.172295534","0.3515125386","0.4874659601","","","","","","","","","","75","K","2","","","135","main_expt","",""
"","bandit","219","2327616","0.0-177.0-0.0","99929490","wem/bandit_party_2","A1KAIOBTXQ77A6","either","2","112","","","","","","","0","0","1","","0.3677382912","0.6","0.2","0.8","0.4","0.1374012581","0.1171098277","0.2312583875","0.3677382912","","","","","","","","","","","","","","76","L","3","","","136","main_expt","",""
"","bandit","220","2329159","0.0-178.0-0.0","99929490","wem/bandit_party_2","A1KAIOBTXQ77A6","either","2","30","","","","","","","0","1","0","","0.2944012193","0.6","0.2","0.8","0.4","0.2889288236","0.1390909791","0.3496768842","0.2944012193","","","","","","","","","","","","","","76","L","3","","","137","main_expt","",""
"","bandit","221","2330752","0.0-179.0-0.0","99929490","wem/bandit_party_2","A1KAIOBTXQ77A6","either","2","76","","","","","","","1","0","0","0.4217982028","","0.6","0.2","0.8","0.4","","","","","0.2177367931","0.1209370274","0.4217982028","0.3020033879","","","","","","","","","","75","K","2","","","138","main_expt","",""
"","bandit","222","2332283","0.0-180.0-0.0","99929490","wem/bandit_party_2","A1KAIOBTXQ77A6","either","2","14","","","","","","","0","0","1","0.1704259453","","0.6","0.2","0.8","0.4","","","","","0.1704259453","0.1441291996","0.5123523738","0.2908104057","","","","","","","","","","72","H","0","img/none_selected.jpg","","139","main_expt","",""
"","bandit","223","2333797","0.0-181.0-0.0","99929490","wem/bandit_party_2","A1KAIOBTXQ77A6","either","2","3","","","","","","","0","0","1","0.1827322183","","0.6","0.2","0.8","0.4","","","","","0.1827322183","0.1380406349","0.3892042576","0.2738290205","","","","","","","","","","72","H","0","img/none_selected.jpg","","140","main_expt","",""
"","bandit","224","2335375","0.0-182.0-0.0","99929490","wem/bandit_party_2","A1KAIOBTXQ77A6","either","2","65","","","","","","","1","0","0","0.4680147771","","0.6","0.2","0.8","0.4","","","","","0.2030288612","0.1312769784","0.4680147771","0.3865798498","","","","","","","","","","75","K","2","","","141","main_expt","",""
"","bandit","225","2336928","0.0-183.0-0.0","99929490","wem/bandit_party_2","A1KAIOBTXQ77A6","either","2","38","","","","","","","0","1","0","","0.3507917403","0.6","0.2","0.8","0.4","0.1760536641","0.1880730553","0.3970866904","0.3507917403","","","","","","","","","","","","","","76","L","3","","","142","main_expt","",""
"","bandit","226","2338551","0.0-184.0-0.0","99929490","wem/bandit_party_2","A1KAIOBTXQ77A6","either","2","105","","","","","","","0","0","1","","0.2787839286","0.6","0.2","0.8","0.4","0.1428921374","0.1798266991","0.3609481858","0.2787839286","","","","","","","","","","","","","","76","L","3","","","143","main_expt","",""
"","bandit","227","2340173","0.0-185.0-0.0","99929490","wem/bandit_party_2","A1KAIOBTXQ77A6","either","2","109","","","","","","","0","0","1","0.3701270871","","0.6","0.2","0.8","0.4","","","","","0.1260474704","0.1881666754","0.3701270871","0.2106619402","","","","","","","","","","75","K","2","","","144","main_expt","",""
"","bandit","228","2341746","0.0-186.0-0.0","99929490","wem/bandit_party_2","A1KAIOBTXQ77A6","either","2","56","","","","","","","0","0","1","","0.151337539","0.6","0.2","0.8","0.4","0.151337539","0.1683386122","0.3110645609","0.3211677341","","","","","","","","","","","","","","72","H","0","img/none_selected.jpg","","145","main_expt","",""
"","bandit","229","2343928","0.0-187.0-0.0","99929490","wem/bandit_party_2","A1KAIOBTXQ77A6","either","2","671","","","","","","","0","0","1","0.356964637","","0.6","0.2","0.8","0.4","","","","","0.1600114734","0.2609121533","0.356964637","0.4417580917","","","","","","","","","","75","K","2","","","146","main_expt","",""
"","bandit","230","2345564","0.0-188.0-0.0","99929490","wem/bandit_party_2","A1KAIOBTXQ77A6","either","2","118","","","","","","","0","0","1","0.1262446547","","0.6","0.2","0.8","0.4","","","","","0.1262446547","0.280259565","0.5143633813","0.278611551","","","","","","","","","","72","H","0","img/none_selected.jpg","","147","main_expt","",""
"","bandit","231","2347893","0.0-189.0-0.0","99929490","wem/bandit_party_2","A1KAIOBTXQ77A6","either","2","818","","","","","","","0","0","1","","0.1030311585","0.6","0.2","0.8","0.4","0.1030311585","0.2972918914","0.5086187798","0.2811332351","","","","","","","","","","","","","","72","H","0","img/none_selected.jpg","","148","main_expt","",""
"","bandit","232","2349513","0.0-190.0-0.0","99929490","wem/bandit_party_2","A1KAIOBTXQ77A6","either","2","105","","","","","","","1","0","0","0.4676315778","","0.6","0.2","0.8","0.4","","","","","0.123834606","0.3284309668","0.4676315778","0.2606345315","","","","","","","","","","75","K","2","","","149","main_expt","",""
"","bandit","233","2351347","0.0-191.0-0.0","99929490","wem/bandit_party_2","A1KAIOBTXQ77A6","either","2","321","","","","","","","0","0","1","0.06566206942","","0.6","0.2","0.8","0.4","","","","","0.06566206942","0.3186890608","0.4737351686","0.260677327","","","","","","","","","","72","H","0","img/none_selected.jpg","","150","main_expt","",""
"","bandit","234","2368950","0.0-192.0-0.0","99929490","wem/bandit_party_2","A1KAIOBTXQ77A6","either","2","16087","","","","","","","0","1","0","","0.3331747037","0.6","0.2","0.8","0.4","0.06342121736","0.3331747037","0.5387476985","0.2579624968","","","","","","","","","","","","","","74","J","1","","","151","main_expt","",""
"","bandit","235","2370476","0.0-193.0-0.0","99929490","wem/bandit_party_2","A1KAIOBTXQ77A6","either","2","8","","","","","","","0","0","1","","0.364096089","0.6","0.2","0.8","0.4","0.1162046696","0.364096089","0.5065138565","0.2536911072","","","","","","","","","","","","","","74","J","1","","","152","main_expt","",""
"","bandit","236","2372041","0.0-194.0-0.0","99929490","wem/bandit_party_2","A1KAIOBTXQ77A6","either","2","54","","","","","","","1","0","0","0.3189440566","","0.6","0.2","0.8","0.4","","","","","0.1388943584","0.3189440566","0.5190676077","0.1427943183","","","","","","","","","","74","J","1","","","153","main_expt","",""
"","bandit","237","2375756","0.0-195.0-0.0","99929490","wem/bandit_party_2","A1KAIOBTXQ77A6","either","2","2201","","","","","","","0","0","1","0.1188489222","","0.6","0.2","0.8","0.4","","","","","0.1188489222","0.486858514","0.4944482457","0.08934943386","","","","","","","","","","72","H","0","img/none_selected.jpg","","154","main_expt","",""
"","bandit","238","2377312","0.0-196.0-0.0","99929490","wem/bandit_party_2","A1KAIOBTXQ77A6","either","2","41","","","","","","","1","0","0","0.4987902374","","0.6","0.2","0.8","0.4","","","","","0.1255079792","0.398958755","0.4987902374","0.1048919666","","","","","","","","","","75","K","2","","","155","main_expt","",""
"","bandit","239","2378966","0.0-197.0-0.0","99929490","wem/bandit_party_2","A1KAIOBTXQ77A6","either","2","130","","","","","","","0","0","1","","0.4151199053","0.6","0.2","0.8","0.4","0.1705129017","0.3508932217","0.4151199053","0.1348874752","","","","","","","","","","","","","","75","K","2","","","156","main_expt","",""
"","bandit","240","2381453","0.0-198.0-0.0","99929490","wem/bandit_party_2","A1KAIOBTXQ77A6","either","2","977","","","","","","","0","0","1","","0.1892203872","0.6","0.2","0.8","0.4","0.1892203872","0.3736640956","0.4215128153","0.1197456909","","","","","","","","","","","","","","72","H","0","img/none_selected.jpg","","157","main_expt","",""
"","bandit","241","2383009","0.0-199.0-0.0","99929490","wem/bandit_party_2","A1KAIOBTXQ77A6","either","2","39","","","","","","","0","0","1","","0.3666899102","0.6","0.2","0.8","0.4","0.1589595026","0.3215678611","0.3666899102","0.1343935597","","","","","","","","","","","","","","75","K","2","","","158","main_expt","",""
"","bandit","242","2384565","0.0-200.0-0.0","99929490","wem/bandit_party_2","A1KAIOBTXQ77A6","either","2","43","","","","","","","0","0","1","0.2732838962","","0.6","0.2","0.8","0.4","","","","","0.1426383857","0.2732838962","0.3906786657","0.04604274909","","","","","","","","","","74","J","1","","","159","main_expt","",""
"","bandit","243","2386202","0.0-201.0-0.0","99929490","wem/bandit_party_2","A1KAIOBTXQ77A6","either","2","121","","","","","","","0","0","1","0.4769972016","","0.6","0.2","0.8","0.4","","","","","0.2747613825","0.2323229575","0.4769972016","0.08927965808","","","","","","","","","","75","K","2","","","160","main_expt","",""
"","bandit","244","2387976","0.0-202.0-0.0","99929490","wem/bandit_party_2","A1KAIOBTXQ77A6","either","2","258","","","","","","","0","1","0","","0.399022808","0.6","0.2","0.8","0.4","0.2046882866","0.399022808","0.4405879513","0.1038156196","","","","","","","","","","","","","","74","J","1","","","161","main_expt","",""
"","bandit","245","2389564","0.0-203.0-0.0","99929490","wem/bandit_party_2","A1KAIOBTXQ77A6","either","2","78","","","","","","","1","0","0","0.1715152701","","0.6","0.2","0.8","0.4","","","","","0.1715152701","0.4967313539","0.44055992","0.1470739062","","","","","","","","","","72","H","0","img/none_selected.jpg","","162","main_expt","",""
"","bandit","246","2391141","0.0-204.0-0.0","99929490","wem/bandit_party_2","A1KAIOBTXQ77A6","either","2","64","","","","","","","0","0","1","0.3434222481","","0.6","0.2","0.8","0.4","","","","","0.2396687428","0.5245029489","0.3434222481","0.1214264794","","","","","","","","","","75","K","2","","","163","main_expt","",""
"","bandit","247","2392785","0.0-205.0-0.0","99929490","wem/bandit_party_2","A1KAIOBTXQ77A6","either","2","123","","","","","","","0","0","1","","0.1563758897","0.6","0.2","0.8","0.4","0.3359744524","0.5808119749","0.3862652833","0.1563758897","","","","","","","","","","","","","","76","L","3","","","164","main_expt","",""
"","bandit","248","2394324","0.0-206.0-0.0","99929490","wem/bandit_party_2","A1KAIOBTXQ77A6","either","2","22","","","","","","","0","0","1","","0.4940159592","0.6","0.2","0.8","0.4","0.4940159592","0.6473032069","0.4270444342","0.1311500467","","","","","","","","","","","","","","72","H","0","img/none_selected.jpg","","165","main_expt","",""
"","bandit","249","2395914","0.0-207.0-0.0","99929490","wem/bandit_party_2","A1KAIOBTXQ77A6","either","2","70","","","","","","","0","0","1","0.5922229292","","0.6","0.2","0.8","0.4","","","","","0.5922229292","0.6790689848","0.5073102058","0.1419689761","","","","","","","","","","72","H","0","img/none_selected.jpg","","166","main_expt","",""
"","bandit","250","2397464","0.0-208.0-0.0","99929490","wem/bandit_party_2","A1KAIOBTXQ77A6","either","2","35","","","","","","","0","0","1","","0.5417092253","0.6","0.2","0.8","0.4","0.5562626425","0.5959653185","0.5417092253","0.150246256","","","","","","","","","","","","","","75","K","2","","","167","main_expt","",""
"","bandit","251","2399049","0.0-209.0-0.0","99929490","wem/bandit_party_2","A1KAIOBTXQ77A6","either","2","71","","","","","","","0","0","1","","0.2070971521","0.6","0.2","0.8","0.4","0.6489587791","0.361841396","0.6505471885","0.2070971521","","","","","","","","","","","","","","76","L","3","","","168","main_expt","",""
"","bandit","252","2400706","0.0-210.0-0.0","99929490","wem/bandit_party_2","A1KAIOBTXQ77A6","either","2","143","","","","","","","0","0","1","","0.2594844845","0.6","0.2","0.8","0.4","0.5652428614","0.2594844845","0.6226729341","0.2564452127","","","","","","","","","","","","","","74","J","1","","","169","main_expt","",""
"","bandit","253","2402396","0.0-211.0-0.0","99929490","wem/bandit_party_2","A1KAIOBTXQ77A6","either","2","176","","","","","","","0","1","0","","0.5344749526","0.6","0.2","0.8","0.4","0.5344749526","0.1987556041","0.7574543886","0.2845729388","","","","","","","","","","","","","","72","H","0","img/none_selected.jpg","","170","main_expt","",""
"","bandit","254","2404082","0.0-212.0-0.0","99929490","wem/bandit_party_2","A1KAIOBTXQ77A6","either","2","168","","","","","","","0","0","1","0.2360657399","","0.6","0.2","0.8","0.4","","","","","0.6364900983","0.1583585206","0.774201251","0.2360657399","","","","","","","","","","76","L","3","","","171","main_expt","",""
"","bandit","255","2405702","0.0-213.0-0.0","99929490","wem/bandit_party_2","A1KAIOBTXQ77A6","either","2","104","","","","","","","0","0","1","0.5516193693","","0.6","0.2","0.8","0.4","","","","","0.5516193693","0.1494938987","0.7739789177","0.3453554921","","","","","","","","","","72","H","0","img/none_selected.jpg","","172","main_expt","",""
"","bandit","256","2407325","0.0-214.0-0.0","99929490","wem/bandit_party_2","A1KAIOBTXQ77A6","either","2","107","","","","","","","0","0","1","","0.1996494969","0.6","0.2","0.8","0.4","0.5081608063","0.1996494969","0.7146420849","0.2909261263","","","","","","","","","","","","","","74","J","1","","","173","main_expt","",""
"","bandit","257","2408970","0.0-215.0-0.0","99929490","wem/bandit_party_2","A1KAIOBTXQ77A6","either","2","128","","","","","","","0","0","1","","0.2200767262","0.6","0.2","0.8","0.4","0.5247340446","0.2200767262","0.683245412","0.3807546558","","","","","","","","","","","","","","74","J","1","","","174","main_expt","",""
"","bandit","258","2410532","0.0-216.0-0.0","99929490","wem/bandit_party_2","A1KAIOBTXQ77A6","either","2","46","","","","","","","1","0","0","0.5823110366","","0.6","0.2","0.8","0.4","","","","","0.5823110366","0.1929710708","0.7163731774","0.3889518003","","","","","","","","","","72","H","0","img/none_selected.jpg","","175","main_expt","",""
"","bandit","259","2412125","0.0-217.0-0.0","99929490","wem/bandit_party_2","A1KAIOBTXQ77A6","either","2","78","","","","","","","0","0","1","","0.6676116703","0.6","0.2","0.8","0.4","0.7693722391","0.1756556012","0.6676116703","0.3662842853","","","","","","","","","","","","","","75","K","2","","","176","main_expt","",""
"","bandit","260","2413719","0.0-218.0-0.0","99929490","wem/bandit_party_2","A1KAIOBTXQ77A6","either","2","73","","","","","","","0","0","1","0.3102656016","","0.6","0.2","0.8","0.4","","","","","0.8048595062","0.2404611203","0.711116056","0.3102656016","","","","","","","","","","76","L","3","","","177","main_expt","",""
"","bandit","261","2415315","0.0-219.0-0.0","99929490","wem/bandit_party_2","A1KAIOBTXQ77A6","either","2","77","","","","","","","1","0","0","0.6541247318","","0.6","0.2","0.8","0.4","","","","","0.8147320782","0.1651874793","0.6541247318","0.3272385177","","","","","","","","","","75","K","2","","","178","main_expt","",""
"","bandit","262","2417072","0.0-220.0-0.0","99929490","wem/bandit_party_2","A1KAIOBTXQ77A6","either","2","244","","","","","","","0","1","0","","0.3185807274","0.6","0.2","0.8","0.4","0.7755432213","0.1297692321","0.600925469","0.3185807274","","","","","","","","","","","","","","76","L","3","","","179","main_expt","",""
"","bandit","263","2418595","0.0-221.0-0.0","99929490","wem/bandit_party_2","A1KAIOBTXQ77A6","either","2","5","","","","","","","1","0","0","0.7309951384","","0.6","0.2","0.8","0.4","","","","","0.7309951384","0.1311169289","0.6321701674","0.3896265469","","","","","","","","","","72","H","0","img/none_selected.jpg","","180","main_expt","",""
"","bandit","264","2420157","0.0-222.0-0.0","99929490","wem/bandit_party_2","A1KAIOBTXQ77A6","either","2","47","","","","","","","1","0","0","0.8068071681","","0.6","0.2","0.8","0.4","","","","","0.8068071681","0.2184653543","0.7040606398","0.4381139349","","","","","","","","","","72","H","0","img/none_selected.jpg","","181","main_expt","",""
"","bandit","265","2421718","0.0-223.0-0.0","99929490","wem/bandit_party_2","A1KAIOBTXQ77A6","either","2","46","","","","","","","0","0","1","0.156745214","","0.6","0.2","0.8","0.4","","","","","0.8096694819","0.156745214","0.6551517927","0.4339703771","","","","","","","","","","74","J","1","","","182","main_expt","",""
"","bandit","266","2423285","0.0-224.0-0.0","99929490","wem/bandit_party_2","A1KAIOBTXQ77A6","either","2","48","","","","","","","0","0","1","","0.07710569088","0.6","0.2","0.8","0.4","0.8522040983","0.07710569088","0.7709035389","0.5270594011","","","","","","","","","","","","","","74","J","1","","","183","main_expt","",""
"","bandit","267","2424967","0.0-225.0-0.0","99929490","wem/bandit_party_2","A1KAIOBTXQ77A6","either","2","64","","","","","","","0","0","1","","0.07901501252","0.6","0.2","0.8","0.4","0.8636776132","0.07901501252","0.7869666122","0.4791569234","","","","","","","","","","","","","","74","J","1","","","184","main_expt","",""
"","bandit","268","2427831","0.0-226.0-0.0","99929490","wem/bandit_party_2","A1KAIOBTXQ77A6","either","2","1348","","","","","","","0","0","1","","0.05695362571","0.6","0.2","0.8","0.4","0.8605951951","0.05695362571","0.804571828","0.464074867","","","","","","","","","","","","","","74","J","1","","","185","main_expt","",""
"","bandit","269","2429457","0.0-227.0-0.0","99929490","wem/bandit_party_2","A1KAIOBTXQ77A6","either","2","107","","","","","","","1","0","0","0.7866627628","","0.6","0.2","0.8","0.4","","","","","0.8578427848","0.03796608352","0.7866627628","0.4654947356","","","","","","","","","","75","K","2","","","186","main_expt","",""
"","bandit","270","2430973","0.0-228.0-0.0","99929490","wem/bandit_party_2","A1KAIOBTXQ77A6","either","2","1","","","","","","","1","0","0","0.8006736442","","0.6","0.2","0.8","0.4","","","","","0.8253306036","0.05986429342","0.8006736442","0.4338668179","","","","","","","","","","75","K","2","","","187","main_expt","",""
"","bandit","271","2432516","0.0-229.0-0.0","99929490","wem/bandit_party_2","A1KAIOBTXQ77A6","either","2","27","","","","","","","0","1","0","","0.7687627789","0.6","0.2","0.8","0.4","0.8118593573","0.05827831728","0.7687627789","0.4679469354","","","","","","","","","","","","","","75","K","2","","","188","main_expt","",""
"","bandit","272","2434147","0.0-230.0-0.0","99929490","wem/bandit_party_2","A1KAIOBTXQ77A6","either","2","116","","","","","","","1","0","0","0.7009429779","","0.6","0.2","0.8","0.4","","","","","0.8319104568","0.06499387038","0.7009429779","0.4645116859","","","","","","","","","","75","K","2","","","189","main_expt","",""
"","bandit","273","2435837","0.0-231.0-0.0","99929490","wem/bandit_party_2","A1KAIOBTXQ77A6","either","2","172","","","","","","","1","0","0","0.7531121838","","0.6","0.2","0.8","0.4","","","","","0.8949986836","0.0878029059","0.7531121838","0.4260553166","","","","","","","","","","75","K","2","","","190","main_expt","",""
"","bandit","274","2437367","0.0-232.0-0.0","99929490","wem/bandit_party_2","A1KAIOBTXQ77A6","either","2","18","","","","","","","0","0","1","","0.5323747461","0.6","0.2","0.8","0.4","0.9258368343","0.1101088583","0.6174616994","0.5323747461","","","","","","","","","","","","","","76","L","3","","","191","main_expt","",""
"","bandit","275","2439030","0.0-233.0-0.0","99929490","wem/bandit_party_2","A1KAIOBTXQ77A6","either","2","146","","","","","","","0","0","1","","0.1559643099","0.6","0.2","0.8","0.4","0.9221438833","0.1559643099","0.6331996982","0.6013900654","","","","","","","","","","","","","","74","J","1","","","192","main_expt","",""
"","bandit","276","2440687","0.0-234.0-0.0","99929490","wem/bandit_party_2","A1KAIOBTXQ77A6","either","2","140","","","","","","","0","0","1","0.5596167322","","0.6","0.2","0.8","0.4","","","","","0.878376231","0.1348882638","0.5596167322","0.5332063066","","","","","","","","","","75","K","2","","","193","main_expt","",""
"","bandit","277","2442205","0.0-235.0-0.0","99929490","wem/bandit_party_2","A1KAIOBTXQ77A6","either","2","1","","","","","","","1","0","0","0.7914694382","","0.6","0.2","0.8","0.4","","","","","0.7914694382","0.243093686","0.5887018809","0.5499496643","","","","","","","","","","72","H","0","img/none_selected.jpg","","194","main_expt","",""
"","bandit","278","2443767","0.0-236.0-0.0","99929490","wem/bandit_party_2","A1KAIOBTXQ77A6","either","2","43","","","","","","","0","0","1","","0.2792315856","0.6","0.2","0.8","0.4","0.7843027812","0.2792315856","0.561552955","0.4170732774","","","","","","","","","","","","","","74","J","1","","","195","main_expt","",""
"","bandit","279","2445340","0.0-237.0-0.0","99929490","wem/bandit_party_2","A1KAIOBTXQ77A6","either","2","53","","","","","","","1","0","0","0.7888241066","","0.6","0.2","0.8","0.4","","","","","0.7888241066","0.2075419965","0.6199522587","0.4050854298","","","","","","","","","","72","H","0","img/none_selected.jpg","","196","main_expt","",""
"","bandit","280","2446925","0.0-238.0-0.0","99929490","wem/bandit_party_2","A1KAIOBTXQ77A6","either","2","67","","","","","","","0","1","0","","0.4522405917","0.6","0.2","0.8","0.4","0.8145025162","0.1899284635","0.6886125155","0.4522405917","","","","","","","","","","","","","","76","L","3","","","197","main_expt","",""
"","bandit","281","2448463","0.0-239.0-0.0","99929490","wem/bandit_party_2","A1KAIOBTXQ77A6","either","2","21","","","","","","","0","1","0","","0.4547961131","0.6","0.2","0.8","0.4","0.8795467387","0.1632143895","0.6468609917","0.4547961131","","","","","","","","","","","","","","76","L","3","","","198","main_expt","",""
"","bandit","282","2449984","0.0-240.0-0.0","99929490","wem/bandit_party_2","A1KAIOBTXQ77A6","either","2","1","","","","","","","0","0","1","","0.456709553","0.6","0.2","0.8","0.4","0.8716255916","0.1580048483","0.7134983028","0.456709553","","","","","","","","","","","","","","76","L","3","","","199","main_expt","",""
"","bandit","283","2451610","0.0-241.0-0.0","99929490","wem/bandit_party_2","A1KAIOBTXQ77A6","either","2","112","","","","","","","1","0","0","0.6545285445","","0.6","0.2","0.8","0.4","","","","","0.8596876402","0.1815025648","0.6545285445","0.4197111003","","","","","","","","","","75","K","2","","","200","main_expt","",""
"","bandit","284","2453142","0.0-242.0-0.0","99929490","wem/bandit_party_2","A1KAIOBTXQ77A6","either","2","14","","","","","","","0","1","0","","0.8714244785","0.6","0.2","0.8","0.4","0.8714244785","0.1453003075","0.6827561938","0.4468864226","","","","","","","","","","","","","","72","H","0","img/none_selected.jpg","","201","main_expt","",""
"","bandit","285","2454901","0.0-243.0-0.0","99929490","wem/bandit_party_2","A1KAIOBTXQ77A6","either","2","242","","","","","","","0","0","1","","0.1061510446","0.6","0.2","0.8","0.4","0.8679491409","0.1061510446","0.6590680519","0.3852152277","","","","","","","","","","","","","","74","J","1","","","202","main_expt","",""
"","bandit","286","2456632","0.0-244.0-0.0","99929490","wem/bandit_party_2","A1KAIOBTXQ77A6","either","2","220","","","","","","","0","1","0","","0.8421855008","0.6","0.2","0.8","0.4","0.8421855008","0.09667757311","0.67998256","0.3481501846","","","","","","","","","","","","","","72","H","0","img/none_selected.jpg","","203","main_expt","",""
"","bandit","287","2458303","0.0-245.0-0.0","99929490","wem/bandit_party_2","A1KAIOBTXQ77A6","either","2","154","","","","","","","0","0","1","","0.109576977","0.6","0.2","0.8","0.4","0.8741547355","0.109576977","0.7157802034","0.3688904748","","","","","","","","","","","","","","74","J","1","","","204","main_expt","",""
"","bandit","288","2459853","0.0-246.0-0.0","99929490","wem/bandit_party_2","A1KAIOBTXQ77A6","either","2","31","","","","","","","0","0","1","","0.1370524017","0.6","0.2","0.8","0.4","0.8589537271","0.1370524017","0.6750594522","0.4196025605","","","","","","","","","","","","","","74","J","1","","","205","main_expt","",""
"","bandit","289","2461431","0.0-247.0-0.0","99929490","wem/bandit_party_2","A1KAIOBTXQ77A6","either","2","60","","","","","","","0","1","0","","0.8009191088","0.6","0.2","0.8","0.4","0.8009191088","0.1005848846","0.7170784861","0.3558717694","","","","","","","","","","","","","","72","H","0","img/none_selected.jpg","","206","main_expt","",""
"","bandit","290","2463110","0.0-248.0-0.0","99929490","wem/bandit_party_2","A1KAIOBTXQ77A6","either","2","160","","","","","","","0","0","1","","0.1100528349","0.6","0.2","0.8","0.4","0.8146279372","0.1100528349","0.6886550294","0.3978287694","","","","","","","","","","","","","","74","J","1","","","207","main_expt","",""
"","bandit","291","2464642","0.0-249.0-0.0","99929490","wem/bandit_party_2","A1KAIOBTXQ77A6","either","2","13","","","","","","","1","0","0","0.7498886323","","0.6","0.2","0.8","0.4","","","","","0.7498886323","0.1165568201","0.7340041914","0.3647175361","","","","","","","","","","72","H","0","img/none_selected.jpg","","208","main_expt","",""
"","bandit","292","2466169","0.0-250.0-0.0","99929490","wem/bandit_party_2","A1KAIOBTXQ77A6","either","2","6","","","","","","","0","1","0","","0.1607141963","0.6","0.2","0.8","0.4","0.781298432","0.1607141963","0.7108339061","0.2942091963","","","","","","","","","","","","","","74","J","1","","","209","main_expt","",""
"","bandit","293","2467713","0.0-251.0-0.0","99929490","wem/bandit_party_2","A1KAIOBTXQ77A6","either","2","27","","","","","","","0","0","1","","0.2005879304","0.6","0.2","0.8","0.4","0.8374694261","0.2005879304","0.7322658343","0.3228874634","","","","","","","","","","","","","","74","J","1","","","210","main_expt","",""
"","bandit","294","2469367","0.0-252.0-0.0","99929490","wem/bandit_party_2","A1KAIOBTXQ77A6","either","2","138","","","","","","","0","0","1","","0.1999716741","0.6","0.2","0.8","0.4","0.7461264045","0.1999716741","0.6220956771","0.3300931135","","","","","","","","","","","","","","74","J","1","","","211","main_expt","",""
"","bandit","295","2471022","0.0-253.0-0.0","99929490","wem/bandit_party_2","A1KAIOBTXQ77A6","either","2","138","","","","","","","0","0","1","","0.2135957141","0.6","0.2","0.8","0.4","0.7267359419","0.2135957141","0.5400145011","0.4044608811","","","","","","","","","","","","","","74","J","1","","","212","main_expt","",""
"","bandit","296","2472543","0.0-254.0-0.0","99929490","wem/bandit_party_2","A1KAIOBTXQ77A6","either","2","2","","","","","","","0","0","1","0.6529835343","","0.6","0.2","0.8","0.4","","","","","0.6529835343","0.2041793084","0.5419994818","0.4916994921","","","","","","","","","","72","H","0","img/none_selected.jpg","","213","main_expt","",""
"","bandit","297","2474122","0.0-255.0-0.0","99929490","wem/bandit_party_2","A1KAIOBTXQ77A6","either","2","59","","","","","","","0","0","1","","0.2563089198","0.6","0.2","0.8","0.4","0.5734554779","0.2563089198","0.6195319152","0.5387088508","","","","","","","","","","","","","","74","J","1","","","214","main_expt","",""
"","bandit","298","2475655","0.0-256.0-0.0","99929490","wem/bandit_party_2","A1KAIOBTXQ77A6","either","2","14","","","","","","","0","0","1","0.7405966814","","0.6","0.2","0.8","0.4","","","","","0.7056003711","0.2870699064","0.7405966814","0.567041903","","","","","","","","","","75","K","2","","","215","main_expt","",""
"","bandit","299","2477226","0.0-257.0-0.0","99929490","wem/bandit_party_2","A1KAIOBTXQ77A6","either","2","54","","","","","","","0","0","1","0.8005734678","","0.6","0.2","0.8","0.4","","","","","0.7717913507","0.2715554895","0.8005734678","0.539749723","","","","","","","","","","75","K","2","","","216","main_expt","",""
"","bandit","300","2478824","0.0-258.0-0.0","99929490","wem/bandit_party_2","A1KAIOBTXQ77A6","either","2","80","","","","","","","0","0","1","","0.2027777883","0.6","0.2","0.8","0.4","0.834894728","0.2027777883","0.8392159132","0.3803352486","","","","","","","","","","","","","","74","J","1","","","217","main_expt","",""
"","bandit","301","2480427","0.0-259.0-0.0","99929490","wem/bandit_party_2","A1KAIOBTXQ77A6","either","2","86","","","","","","","0","0","1","","0.2169787163","0.6","0.2","0.8","0.4","0.868580258","0.2169787163","0.7445585264","0.3236333655","","","","","","","","","","","","","","74","J","1","","","218","main_expt","",""
"","bandit","302","2481942","0.0-260.0-0.0","99929490","wem/bandit_party_2","A1KAIOBTXQ77A6","either","2","0","","","","","","","1","0","0","0.7174829008","","0.6","0.2","0.8","0.4","","","","","0.8236231074","0.2292932202","0.7174829008","0.2612589469","","","","","","","","","","75","K","2","","","219","main_expt","",""
"","bandit","303","2483591","0.0-261.0-0.0","99929490","wem/bandit_party_2","A1KAIOBTXQ77A6","either","2","130","","","","","","","0","1","0","","0.6601767392","0.6","0.2","0.8","0.4","0.7719294443","0.2829053382","0.6601767392","0.2228319794","","","","","","","","","","","","","","75","K","2","","","220","main_expt","",""
"","bandit","304","2485117","0.0-262.0-0.0","99929490","wem/bandit_party_2","A1KAIOBTXQ77A6","either","2","12","","","","","","","0","0","1","","0.2691731019","0.6","0.2","0.8","0.4","0.7609360252","0.2691731019","0.703996204","0.2204856404","","","","","","","","","","","","","","74","J","1","","","221","main_expt","",""
"","bandit","305","2486797","0.0-263.0-0.0","99929490","wem/bandit_party_2","A1KAIOBTXQ77A6","either","2","161","","","","","","","0","0","1","0.2269951902","","0.6","0.2","0.8","0.4","","","","","0.7319851961","0.1974112065","0.6188024556","0.2269951902","","","","","","","","","","76","L","3","","","222","main_expt","",""
"","bandit","306","2488362","0.0-264.0-0.0","99929490","wem/bandit_party_2","A1KAIOBTXQ77A6","either","2","49","","","","","","","0","0","1","","0.08486155027","0.6","0.2","0.8","0.4","0.6994646324","0.08486155027","0.5695888615","0.3417830843","","","","","","","","","","","","","","74","J","1","","","223","main_expt","",""
"","bandit","307","2490226","0.0-265.0-0.0","99929490","wem/bandit_party_2","A1KAIOBTXQ77A6","either","2","343","","","","","","","0","0","1","","0.1930609847","0.6","0.2","0.8","0.4","0.6817307813","0.1930609847","0.6590173842","0.4057490183","","","","","","","","","","","","","","74","J","1","","","224","main_expt","",""
"","bandit","308","2491936","0.0-266.0-0.0","99929490","wem/bandit_party_2","A1KAIOBTXQ77A6","either","2","189","","","","","","","0","0","1","0.4266979185","","0.6","0.2","0.8","0.4","","","","","0.67394888","0.2026087193","0.6779124893","0.4266979185","","","","","","","","","","76","L","3","","","225","main_expt","",""
"","bandit","309","2493581","0.0-267.0-0.0","99929490","wem/bandit_party_2","A1KAIOBTXQ77A6","either","2","124","","","","","","","0","1","0","","0.6433757785","0.6","0.2","0.8","0.4","0.6520670614","0.1295559036","0.6433757785","0.4723095555","","","","","","","","","","","","","","75","K","2","","","226","main_expt","",""
"","bandit","310","2495193","0.0-268.0-0.0","99929490","wem/bandit_party_2","A1KAIOBTXQ77A6","either","2","97","","","","","","","1","0","0","0.6050090536","","0.6","0.2","0.8","0.4","","","","","0.6598054912","0.1014701128","0.6050090536","0.4396274322","","","","","","","","","","75","K","2","","","227","main_expt","",""
"","bandit","311","2496844","0.0-269.0-0.0","99929490","wem/bandit_party_2","A1KAIOBTXQ77A6","either","2","134","","","","","","","0","0","1","","0.1374428951","0.6","0.2","0.8","0.4","0.7313296172","0.1374428951","0.5614220587","0.4581465293","","","","","","","","","","","","","","74","J","1","","","228","main_expt","",""
"","bandit","312","2498481","0.0-270.0-0.0","99929490","wem/bandit_party_2","A1KAIOBTXQ77A6","either","2","116","","","","","","","0","0","1","","0.2147377822","0.6","0.2","0.8","0.4","0.5771612872","0.2147377822","0.536938762","0.3635076811","","","","","","","","","","","","","","74","J","1","","","229","main_expt","",""
"","bandit","313","2500135","0.0-271.0-0.0","99929490","wem/bandit_party_2","A1KAIOBTXQ77A6","either","2","134","","","","","","","1","0","0","0.6474737632","","0.6","0.2","0.8","0.4","","","","","0.6474737632","0.2128984172","0.4691369301","0.4109812081","","","","","","","","","","72","H","0","img/none_selected.jpg","","230","main_expt","",""
"","bandit","314","2501799","0.0-272.0-0.0","99929490","wem/bandit_party_2","A1KAIOBTXQ77A6","either","2","149","","","","","","","0","0","1","","0.2566260117","0.6","0.2","0.8","0.4","0.77083729","0.2566260117","0.3801843724","0.3769467169","","","","","","","","","","","","","","74","J","1","","","231","main_expt","",""
