"rt","responses","trial_type","trial_index","time_elapsed","internal_node_id","subjID","study","MID","cond","drift","key_press","expt_phase","target","like","value","connected","gems","bombs","no_reward","GemPrChosen","BombPrChosen","GainOverPainPr_0","GainOverPainPr_1","GainOverPainPr_2","GainOverPainPr_3","LosePr_0","LosePr_1","LosePr_2","LosePr_3","WinPr_0","WinPr_1","WinPr_2","WinPr_3","Q0","Q1","Q2","gender","age","ethnicity","respCharCode","respKey","respChoiceNum","respChoice","practice","trial_counter","trial_label"
"3451","{""Q0"":""A1IOJ2LGMGISYM""}","survey-text","0","3457","0.0-0.0","00392341","wem/bandit_either","A1IOJ2LGMGISYM","either","2","","","","","","","","","","","","","","","","","","","","","","","","","","","","","","","","","","","",""
"9003","","text","1","13464","0.0-1.0","00392341","wem/bandit_either","A1IOJ2LGMGISYM","either","2","32","","","","","","","","","","","","","","","","","","","","","","","","","","","","","","","","","","",""
"4532","","text","2","17998","0.0-2.0","00392341","wem/bandit_either","A1IOJ2LGMGISYM","either","2","32","","","","","","","","","","","","","","","","","","","","","","","","","","","","","","","","","","",""
"14102","","text","3","32102","0.0-3.0","00392341","wem/bandit_either","A1IOJ2LGMGISYM","either","2","32","","","","","","","","","","","","","","","","","","","","","","","","","","","","","","","","","","",""
"8782","","text","4","40885","0.0-4.0","00392341","wem/bandit_either","A1IOJ2LGMGISYM","either","2","32","","","","","","","","","","","","","","","","","","","","","","","","","","","","","","","","","","",""
"9255","","text","5","50142","0.0-5.0","00392341","wem/bandit_either","A1IOJ2LGMGISYM","either","2","32","","","","","","","","","","","","","","","","","","","","","","","","","","","","","","","","","","",""
"4814","","text","6","54958","0.0-6.0","00392341","wem/bandit_either","A1IOJ2LGMGISYM","either","2","32","","","","","","","","","","","","","","","","","","","","","","","","","","","","","","","","","","",""
"2094","","text","7","57054","0.0-7.0","00392341","wem/bandit_either","A1IOJ2LGMGISYM","either","2","32","","","","","","","","","","","","","","","","","","","","","","","","","","","","","","","","","","",""
"8987","","identification","8","66067","0.0-8.0-0.0","00392341","wem/bandit_either","A1IOJ2LGMGISYM","either","2","","identification_pre","the village of Zur","","","","","","","","","","","","","","","","","","","","","","","","","","","","","","","","",""
"4963","","identification","9","72049","0.0-8.0-1.0","00392341","wem/bandit_either","A1IOJ2LGMGISYM","either","2","","identification_pre","the village of Nyx","","","","","","","","","","","","","","","","","","","","","","","","","","","","","","","","",""
"3971","","text","10","77022","0.0-9.0","00392341","wem/bandit_either","A1IOJ2LGMGISYM","either","2","32","","","","","","","","","","","","","","","","","","","","","","","","","","","","","","","","","","",""
"2470","","text","11","79494","0.0-10.0","00392341","wem/bandit_either","A1IOJ2LGMGISYM","either","2","32","","","","","","","","","","","","","","","","","","","","","","","","","","","","","","","","","","",""
"1479","","text","12","80974","0.0-11.0","00392341","wem/bandit_either","A1IOJ2LGMGISYM","either","2","32","","","","","","","","","","","","","","","","","","","","","","","","","","","","","","","","","","",""
"3429","","text","13","84405","0.0-12.0","00392341","wem/bandit_either","A1IOJ2LGMGISYM","either","2","32","","","","","","","","","","","","","","","","","","","","","","","","","","","","","","","","","","",""
"3117","","bandit","14","89030","0.0-13.0-0.0","00392341","wem/bandit_either","A1IOJ2LGMGISYM","either","2","","","","","","","0","0","1","0","0","","","","","0","","","","0","","","","","","","","","","74","J","0","img/none_selected_demo.jpg","true","0",""
"2174","","bandit","15","92710","0.0-14.0-0.0","00392341","wem/bandit_either","A1IOJ2LGMGISYM","either","2","","","","","","","0","0","1","0","0","","","","","0","","","","0","","","","","","","","","","75","K","0","img/none_selected_demo.jpg","true","0",""
"2119","","text","16","94830","0.0-15.0","00392341","wem/bandit_either","A1IOJ2LGMGISYM","either","2","32","","","","","","","","","","","","","","","","","","","","","","","","","","","","","","","","","","",""
"22934","","text","17","117765","0.0-16.0","00392341","wem/bandit_either","A1IOJ2LGMGISYM","either","2","32","","","","","","","","","","","","","","","","","","","","","","","","","","","","","","","","","","",""
"6712","","text","18","124480","0.0-17.0","00392341","wem/bandit_either","A1IOJ2LGMGISYM","either","2","32","","","","","","","","","","","","","","","","","","","","","","","","","","","","","","","","","","",""
"1317","","text","19","125798","0.0-18.0","00392341","wem/bandit_either","A1IOJ2LGMGISYM","either","2","32","","","","","","","","","","","","","","","","","","","","","","","","","","","","","","","","","","",""
"806","","bandit","20","128110","0.0-19.0-0.0","00392341","wem/bandit_either","A1IOJ2LGMGISYM","either","2","","","","","","","0","1","0","","0.2","0.5","0.5","","","0.8","0.2","","","","","","","","","","","","","75","K","1","","true","0","80_20_practice"
"1035","","bandit","21","130652","0.0-19.0-1.0","00392341","wem/bandit_either","A1IOJ2LGMGISYM","either","2","","","","","","","0","0","1","","0.8","0.5","0.5","","","0.8","0.2","","","","","","","","","","","","","74","J","0","img/none_selected_demo.jpg","true","0","80_20_practice"
"703","","bandit","22","132860","0.0-19.0-2.0","00392341","wem/bandit_either","A1IOJ2LGMGISYM","either","2","","","","","","","0","1","0","","0.2","0.5","0.5","","","0.8","0.2","","","","","","","","","","","","","75","K","1","","true","0","80_20_practice"
"288","","bandit","23","134654","0.0-19.0-3.0","00392341","wem/bandit_either","A1IOJ2LGMGISYM","either","2","","","","","","","0","1","0","","0.8","0.5","0.5","","","0.8","0.2","","","","","","","","","","","","","74","J","0","img/none_selected_demo.jpg","true","0","80_20_practice"
"172","","bandit","24","136333","0.0-19.0-4.0","00392341","wem/bandit_either","A1IOJ2LGMGISYM","either","2","","","","","","","0","1","0","","0.8","0.5","0.5","","","0.8","0.2","","","","","","","","","","","","","74","J","0","img/none_selected_demo.jpg","true","0","80_20_practice"
"359","","bandit","25","138196","0.0-19.0-5.0","00392341","wem/bandit_either","A1IOJ2LGMGISYM","either","2","","","","","","","0","1","0","","0.8","0.5","0.5","","","0.8","0.2","","","","","","","","","","","","","74","J","0","img/none_selected_demo.jpg","true","0","80_20_practice"
"310","","bandit","26","140015","0.0-19.0-6.0","00392341","wem/bandit_either","A1IOJ2LGMGISYM","either","2","","","","","","","0","0","1","0.2","","0.5","0.5","","","","","","","0.8","0.2","","","","","","","","","75","K","1","","true","0","80_20_practice"
"412","","bandit","27","141932","0.0-19.0-7.0","00392341","wem/bandit_either","A1IOJ2LGMGISYM","either","2","","","","","","","0","0","1","","0.2","0.5","0.5","","","0.8","0.2","","","","","","","","","","","","","75","K","1","","true","0","80_20_practice"
"359","","bandit","28","143796","0.0-19.0-8.0","00392341","wem/bandit_either","A1IOJ2LGMGISYM","either","2","","","","","","","0","0","1","","0.2","0.5","0.5","","","0.8","0.2","","","","","","","","","","","","","75","K","1","","true","0","80_20_practice"
"318","","bandit","29","145621","0.0-19.0-9.0","00392341","wem/bandit_either","A1IOJ2LGMGISYM","either","2","","","","","","","0","1","0","","0.8","0.5","0.5","","","0.8","0.2","","","","","","","","","","","","","74","J","0","img/none_selected_demo.jpg","true","0","80_20_practice"
"287","","bandit","30","147413","0.0-19.0-10.0","00392341","wem/bandit_either","A1IOJ2LGMGISYM","either","2","","","","","","","0","1","0","","0.8","0.5","0.5","","","0.8","0.2","","","","","","","","","","","","","74","J","0","img/none_selected_demo.jpg","true","0","80_20_practice"
"374","","bandit","31","149294","0.0-19.0-11.0","00392341","wem/bandit_either","A1IOJ2LGMGISYM","either","2","","","","","","","0","1","0","","0.8","0.5","0.5","","","0.8","0.2","","","","","","","","","","","","","74","J","0","img/none_selected_demo.jpg","true","0","80_20_practice"
"301","","bandit","32","151101","0.0-19.0-12.0","00392341","wem/bandit_either","A1IOJ2LGMGISYM","either","2","","","","","","","0","0","1","0.8","","0.5","0.5","","","","","","","0.8","0.2","","","","","","","","","74","J","0","img/none_selected_demo.jpg","true","0","80_20_practice"
"263","","bandit","33","152869","0.0-19.0-13.0","00392341","wem/bandit_either","A1IOJ2LGMGISYM","either","2","","","","","","","0","0","1","","0.2","0.5","0.5","","","0.8","0.2","","","","","","","","","","","","","75","K","1","","true","0","80_20_practice"
"990","","bandit","34","155365","0.0-19.0-14.0","00392341","wem/bandit_either","A1IOJ2LGMGISYM","either","2","","","","","","","0","0","1","0.2","","0.5","0.5","","","","","","","0.8","0.2","","","","","","","","","75","K","1","","true","0","80_20_practice"
"350","","bandit","35","157221","0.0-19.0-15.0","00392341","wem/bandit_either","A1IOJ2LGMGISYM","either","2","","","","","","","0","0","1","","0.2","0.5","0.5","","","0.8","0.2","","","","","","","","","","","","","75","K","1","","true","0","80_20_practice"
"254","","bandit","36","158981","0.0-19.0-16.0","00392341","wem/bandit_either","A1IOJ2LGMGISYM","either","2","","","","","","","0","0","1","0.2","","0.5","0.5","","","","","","","0.8","0.2","","","","","","","","","75","K","1","","true","0","80_20_practice"
"490","","bandit","37","160977","0.0-19.0-17.0","00392341","wem/bandit_either","A1IOJ2LGMGISYM","either","2","","","","","","","0","0","1","0.2","","0.5","0.5","","","","","","","0.8","0.2","","","","","","","","","75","K","1","","true","0","80_20_practice"
"42","","bandit","38","162525","0.0-19.0-18.0","00392341","wem/bandit_either","A1IOJ2LGMGISYM","either","2","","","","","","","0","0","1","0.2","","0.5","0.5","","","","","","","0.8","0.2","","","","","","","","","75","K","1","","true","0","80_20_practice"
"462","","bandit","39","164492","0.0-19.0-19.0","00392341","wem/bandit_either","A1IOJ2LGMGISYM","either","2","","","","","","","1","0","0","0.8","","0.5","0.5","","","","","","","0.8","0.2","","","","","","","","","74","J","0","img/none_selected_demo.jpg","true","0","80_20_practice"
"5017","","text","40","169510","0.0-20.0","00392341","wem/bandit_either","A1IOJ2LGMGISYM","either","2","32","","","","","","","","","","","","","","","","","","","","","","","","","","","","","","","","","","",""
"669","","bandit","41","171684","0.0-21.0-0.0","00392341","wem/bandit_either","A1IOJ2LGMGISYM","either","2","","","","","","","1","0","0","1","0","","","","","0","1","","","1","0","","","","","","","","","74","J","0","img/none_selected_demo.jpg","true","0",""
"4462","","text","42","176150","0.0-22.0","00392341","wem/bandit_either","A1IOJ2LGMGISYM","either","2","32","","","","","","","","","","","","","","","","","","","","","","","","","","","","","","","","","","",""
"4213","","text","43","180365","0.0-23.0","00392341","wem/bandit_either","A1IOJ2LGMGISYM","either","2","32","","","","","","","","","","","","","","","","","","","","","","","","","","","","","","","","","","",""
"2030","","text","44","182397","0.0-24.0","00392341","wem/bandit_either","A1IOJ2LGMGISYM","either","2","32","","","","","","","","","","","","","","","","","","","","","","","","","","","","","","","","","","",""
"1999","","text","45","184398","0.0-25.0","00392341","wem/bandit_either","A1IOJ2LGMGISYM","either","2","32","","","","","","","","","","","","","","","","","","","","","","","","","","","","","","","","","","",""
"1485","","text","46","185885","0.0-26.0","00392341","wem/bandit_either","A1IOJ2LGMGISYM","either","2","32","","","","","","","","","","","","","","","","","","","","","","","","","","","","","","","","","","",""
"3167","","text","47","189054","0.0-27.0","00392341","wem/bandit_either","A1IOJ2LGMGISYM","either","2","32","","","","","","","","","","","","","","","","","","","","","","","","","","","","","","","","","","",""
"1438","","text","48","190494","0.0-28.0","00392341","wem/bandit_either","A1IOJ2LGMGISYM","either","2","32","","","","","","","","","","","","","","","","","","","","","","","","","","","","","","","","","","",""
"2119","","text","49","192614","0.0-29.0","00392341","wem/bandit_either","A1IOJ2LGMGISYM","either","2","32","","","","","","","","","","","","","","","","","","","","","","","","","","","","","","","","","","",""
"2941","","text","50","195557","0.0-30.0","00392341","wem/bandit_either","A1IOJ2LGMGISYM","either","2","32","","","","","","","","","","","","","","","","","","","","","","","","","","","","","","","","","","",""
"1191","","text","51","196749","0.0-31.0","00392341","wem/bandit_either","A1IOJ2LGMGISYM","either","2","32","","","","","","","","","","","","","","","","","","","","","","","","","","","","","","","","","","",""
"3519","","text","52","200269","0.0-32.0","00392341","wem/bandit_either","A1IOJ2LGMGISYM","either","2","32","","","","","","","","","","","","","","","","","","","","","","","","","","","","","","","","","","",""
"571","","bandit","53","202348","0.0-33.0-0.0","00392341","wem/bandit_either","A1IOJ2LGMGISYM","either","2","","","","","","","1","0","0","0.8","","0.5","0.5","0.5","0.5","","","","","0.8","0.2","0.6","0.2","","","","","","","72","H","0","img/none_selected.jpg","true","0","full_practice"
"708","","bandit","54","204564","0.0-33.0-1.0","00392341","wem/bandit_either","A1IOJ2LGMGISYM","either","2","","","","","","","0","0","1","0.2","","0.5","0.5","0.5","0.5","","","","","0.8","0.2","0.6","0.2","","","","","","","74","J","1","","true","0","full_practice"
"431","","bandit","55","206500","0.0-33.0-2.0","00392341","wem/bandit_either","A1IOJ2LGMGISYM","either","2","","","","","","","0","1","0","","0.6","0.5","0.5","0.5","0.5","0.8","0.2","0.6","0.2","","","","","","","","","","","75","K","2","","true","0","full_practice"
"222","","bandit","56","208229","0.0-33.0-3.0","00392341","wem/bandit_either","A1IOJ2LGMGISYM","either","2","","","","","","","0","0","1","0.2","","0.5","0.5","0.5","0.5","","","","","0.8","0.2","0.6","0.2","","","","","","","76","L","3","","true","0","full_practice"
"150","","bandit","57","209885","0.0-33.0-4.0","00392341","wem/bandit_either","A1IOJ2LGMGISYM","either","2","","","","","","","1","0","0","0.8","","0.5","0.5","0.5","0.5","","","","","0.8","0.2","0.6","0.2","","","","","","","72","H","0","img/none_selected.jpg","true","0","full_practice"
"230","","bandit","58","211621","0.0-33.0-5.0","00392341","wem/bandit_either","A1IOJ2LGMGISYM","either","2","","","","","","","0","1","0","","0.8","0.5","0.5","0.5","0.5","0.8","0.2","0.6","0.2","","","","","","","","","","","72","H","0","img/none_selected.jpg","true","0","full_practice"
"214","","bandit","59","213341","0.0-33.0-6.0","00392341","wem/bandit_either","A1IOJ2LGMGISYM","either","2","","","","","","","0","0","1","","0.8","0.5","0.5","0.5","0.5","0.8","0.2","0.6","0.2","","","","","","","","","","","72","H","0","img/none_selected.jpg","true","0","full_practice"
"598","","bandit","60","215445","0.0-33.0-7.0","00392341","wem/bandit_either","A1IOJ2LGMGISYM","either","2","","","","","","","0","0","1","0.8","","0.5","0.5","0.5","0.5","","","","","0.8","0.2","0.6","0.2","","","","","","","72","H","0","img/none_selected.jpg","true","0","full_practice"
"4","","bandit","61","216955","0.0-33.0-8.0","00392341","wem/bandit_either","A1IOJ2LGMGISYM","either","2","","","","","","","0","0","1","0.8","","0.5","0.5","0.5","0.5","","","","","0.8","0.2","0.6","0.2","","","","","","","72","H","0","img/none_selected.jpg","true","0","full_practice"
"344","","bandit","62","218805","0.0-33.0-9.0","00392341","wem/bandit_either","A1IOJ2LGMGISYM","either","2","","","","","","","0","0","1","0.2","","0.5","0.5","0.5","0.5","","","","","0.8","0.2","0.6","0.2","","","","","","","74","J","1","","true","0","full_practice"
"182","","bandit","63","220492","0.0-33.0-10.0","00392341","wem/bandit_either","A1IOJ2LGMGISYM","either","2","","","","","","","0","0","1","","0.6","0.5","0.5","0.5","0.5","0.8","0.2","0.6","0.2","","","","","","","","","","","75","K","2","","true","0","full_practice"
"254","","bandit","64","222252","0.0-33.0-11.0","00392341","wem/bandit_either","A1IOJ2LGMGISYM","either","2","","","","","","","0","0","1","0.2","","0.5","0.5","0.5","0.5","","","","","0.8","0.2","0.6","0.2","","","","","","","76","L","3","","true","0","full_practice"
"94","","bandit","65","223853","0.0-33.0-12.0","00392341","wem/bandit_either","A1IOJ2LGMGISYM","either","2","","","","","","","0","1","0","","0.8","0.5","0.5","0.5","0.5","0.8","0.2","0.6","0.2","","","","","","","","","","","72","H","0","img/none_selected.jpg","true","0","full_practice"
"636","","bandit","66","225995","0.0-33.0-13.0","00392341","wem/bandit_either","A1IOJ2LGMGISYM","either","2","","","","","","","1","0","0","0.2","","0.5","0.5","0.5","0.5","","","","","0.8","0.2","0.6","0.2","","","","","","","76","L","3","","true","0","full_practice"
"294","","bandit","67","227796","0.0-33.0-14.0","00392341","wem/bandit_either","A1IOJ2LGMGISYM","either","2","","","","","","","0","1","0","","0.2","0.5","0.5","0.5","0.5","0.8","0.2","0.6","0.2","","","","","","","","","","","76","L","3","","true","0","full_practice"
"270","","bandit","68","229573","0.0-33.0-15.0","00392341","wem/bandit_either","A1IOJ2LGMGISYM","either","2","","","","","","","0","0","1","0.2","","0.5","0.5","0.5","0.5","","","","","0.8","0.2","0.6","0.2","","","","","","","76","L","3","","true","0","full_practice"
"165","","bandit","69","231245","0.0-33.0-16.0","00392341","wem/bandit_either","A1IOJ2LGMGISYM","either","2","","","","","","","1","0","0","0.2","","0.5","0.5","0.5","0.5","","","","","0.8","0.2","0.6","0.2","","","","","","","76","L","3","","true","0","full_practice"
"189","","bandit","70","232941","0.0-33.0-17.0","00392341","wem/bandit_either","A1IOJ2LGMGISYM","either","2","","","","","","","0","0","1","0.2","","0.5","0.5","0.5","0.5","","","","","0.8","0.2","0.6","0.2","","","","","","","76","L","3","","true","0","full_practice"
"278","","bandit","71","234725","0.0-33.0-18.0","00392341","wem/bandit_either","A1IOJ2LGMGISYM","either","2","","","","","","","0","0","1","","0.2","0.5","0.5","0.5","0.5","0.8","0.2","0.6","0.2","","","","","","","","","","","76","L","3","","true","0","full_practice"
"196","","bandit","72","236429","0.0-33.0-19.0","00392341","wem/bandit_either","A1IOJ2LGMGISYM","either","2","","","","","","","0","0","1","","0.2","0.5","0.5","0.5","0.5","0.8","0.2","0.6","0.2","","","","","","","","","","","76","L","3","","true","0","full_practice"
"2796","","text","73","239230","0.0-34.0","00392341","wem/bandit_either","A1IOJ2LGMGISYM","either","2","32","","","","","","","","","","","","","","","","","","","","","","","","","","","","","","","","","","",""
"10133","","text","74","250366","0.0-35.0","00392341","wem/bandit_either","A1IOJ2LGMGISYM","either","2","32","","","","","","","","","","","","","","","","","","","","","","","","","","","","","","","","","","",""
"3710","","text","75","254077","0.0-36.0","00392341","wem/bandit_either","A1IOJ2LGMGISYM","either","2","32","","","","","","","","","","","","","","","","","","","","","","","","","","","","","","","","","","",""
"1637","","text","76","255717","0.0-37.0","00392341","wem/bandit_either","A1IOJ2LGMGISYM","either","2","32","","","","","","","","","","","","","","","","","","","","","","","","","","","","","","","","","","",""
"6174","","text","77","261894","0.0-38.0","00392341","wem/bandit_either","A1IOJ2LGMGISYM","either","2","32","","","","","","","","","","","","","","","","","","","","","","","","","","","","","","","","","","",""
"6613","","text","78","268509","0.0-39.0","00392341","wem/bandit_either","A1IOJ2LGMGISYM","either","2","32","","","","","","","","","","","","","","","","","","","","","","","","","","","","","","","","","","",""
"757","","bandit","79","270772","0.0-40.0-0.0","00392341","wem/bandit_either","A1IOJ2LGMGISYM","either","2","","","","","","","0","0","1","0.326135308","","0.4","0.8","0.6","0.2","","","","","0.326135308","0.362799796","0.4781977867","0.3653736811","","","","","","","72","H","0","img/none_selected.jpg","","1","main_expt"
"302","","bandit","80","272580","0.0-41.0-0.0","00392341","wem/bandit_either","A1IOJ2LGMGISYM","either","2","","","","","","","0","1","0","","0.3891507205","0.4","0.8","0.6","0.2","0.3564958201","0.3891507205","0.4765481994","0.3999069229","","","","","","","","","","","74","J","1","","","2","main_expt"
"831","","bandit","81","274917","0.0-42.0-0.0","00392341","wem/bandit_either","A1IOJ2LGMGISYM","either","2","","","","","","","0","0","1","","0.4722158263","0.4","0.8","0.6","0.2","0.3309056029","0.3151339382","0.4722158263","0.4363582421","","","","","","","","","","","75","K","2","","","3","main_expt"
"117","","bandit","82","276540","0.0-43.0-0.0","00392341","wem/bandit_either","A1IOJ2LGMGISYM","either","2","","","","","","","0","0","1","0.4609570051","","0.4","0.8","0.6","0.2","","","","","0.308467875","0.250648122","0.4609570051","0.4300921111","","","","","","","75","K","2","","","4","main_expt"
"141","","bandit","83","278187","0.0-44.0-0.0","00392341","wem/bandit_either","A1IOJ2LGMGISYM","either","2","","","","","","","0","1","0","","0.3863220662","0.4","0.8","0.6","0.2","0.3349995635","0.2382585344","0.4707799186","0.3863220662","","","","","","","","","","","76","L","3","","","5","main_expt"
"48","","bandit","84","279741","0.0-45.0-0.0","00392341","wem/bandit_either","A1IOJ2LGMGISYM","either","2","","","","","","","0","0","1","0.3743101545","","0.4","0.8","0.6","0.2","","","","","0.3743101545","0.2088101903","0.4676743975","0.4192648028","","","","","","","72","H","0","img/none_selected.jpg","","6","main_expt"
"372","","bandit","85","281620","0.0-46.0-0.0","00392341","wem/bandit_either","A1IOJ2LGMGISYM","either","2","","","","","","","0","0","1","0.1884279889","","0.4","0.8","0.6","0.2","","","","","0.377506125","0.1884279889","0.4767364015","0.4218548145","","","","","","","74","J","1","","","7","main_expt"
"29","","bandit","86","283157","0.0-47.0-0.0","00392341","wem/bandit_either","A1IOJ2LGMGISYM","either","2","","","","","","","0","0","1","0.4837409877","","0.4","0.8","0.6","0.2","","","","","0.3452849142","0.2297930851","0.4837409877","0.4298914749","","","","","","","75","K","2","","","8","main_expt"
"373","","bandit","87","285036","0.0-48.0-0.0","00392341","wem/bandit_either","A1IOJ2LGMGISYM","either","2","","","","","","","0","1","0","","0.4215440671","0.4","0.8","0.6","0.2","0.2713567333","0.2219539873","0.4825212187","0.4215440671","","","","","","","","","","","76","L","3","","","9","main_expt"
"454","","bandit","88","286997","0.0-49.0-0.0","00392341","wem/bandit_either","A1IOJ2LGMGISYM","either","2","","","","","","","0","1","0","","0.3991616263","0.4","0.8","0.6","0.2","0.2712708503","0.2398128751","0.4791264729","0.3991616263","","","","","","","","","","","76","L","3","","","10","main_expt"
"260","","bandit","89","288765","0.0-50.0-0.0","00392341","wem/bandit_either","A1IOJ2LGMGISYM","either","2","","","","","","","0","0","1","0.4002673883","","0.4","0.8","0.6","0.2","","","","","0.2635531688","0.2551733424","0.4762013833","0.4002673883","","","","","","","76","L","3","","","11","main_expt"
"174","","bandit","90","290444","0.0-51.0-0.0","00392341","wem/bandit_either","A1IOJ2LGMGISYM","either","2","","","","","","","0","1","0","","0.4729837645","0.4","0.8","0.6","0.2","0.2669056975","0.2593424883","0.4729837645","0.368629831","","","","","","","","","","","75","K","2","","","12","main_expt"
"310","","bandit","91","292261","0.0-52.0-0.0","00392341","wem/bandit_either","A1IOJ2LGMGISYM","either","2","","","","","","","1","0","0","0.4749786695","","0.4","0.8","0.6","0.2","","","","","0.3204456557","0.2493591627","0.4749786695","0.4189726289","","","","","","","75","K","2","","","13","main_expt"
"37","","bandit","92","293806","0.0-53.0-0.0","00392341","wem/bandit_either","A1IOJ2LGMGISYM","either","2","","","","","","","0","0","1","0.4810115094","","0.4","0.8","0.6","0.2","","","","","0.3466526728","0.2686446846","0.4810115094","0.4352425359","","","","","","","75","K","2","","","14","main_expt"
"141","","bandit","93","295452","0.0-54.0-0.0","00392341","wem/bandit_either","A1IOJ2LGMGISYM","either","2","","","","","","","1","0","0","0.4705329286","","0.4","0.8","0.6","0.2","","","","","0.3736671224","0.2690169042","0.4705329286","0.3819090161","","","","","","","75","K","2","","","15","main_expt"
"213","","bandit","94","297172","0.0-55.0-0.0","00392341","wem/bandit_either","A1IOJ2LGMGISYM","either","2","","","","","","","0","0","1","","0.4687419894","0.4","0.8","0.6","0.2","0.3778143907","0.2518303543","0.4687419894","0.3737760256","","","","","","","","","","","75","K","2","","","16","main_expt"
"167","","bandit","95","298844","0.0-56.0-0.0","00392341","wem/bandit_either","A1IOJ2LGMGISYM","either","2","","","","","","","1","0","0","0.4594180265","","0.4","0.8","0.6","0.2","","","","","0.3845750066","0.2406549936","0.4594180265","0.4151791473","","","","","","","75","K","2","","","17","main_expt"
"309","","bandit","96","300659","0.0-57.0-0.0","00392341","wem/bandit_either","A1IOJ2LGMGISYM","either","2","","","","","","","0","0","1","","0.425397146","0.4","0.8","0.6","0.2","0.4041286345","0.2670149403","0.425397146","0.4137363134","","","","","","","","","","","75","K","2","","","18","main_expt"
"863","","bandit","97","303028","0.0-58.0-0.0","00392341","wem/bandit_either","A1IOJ2LGMGISYM","either","2","","","","","","","1","0","0","0.4201246927","","0.4","0.8","0.6","0.2","","","","","0.4127350431","0.2658482338","0.4201246927","0.4084056464","","","","","","","75","K","2","","","19","main_expt"
"213","","bandit","98","304748","0.0-59.0-0.0","00392341","wem/bandit_either","A1IOJ2LGMGISYM","either","2","","","","","","","0","0","1","0.3954271328","","0.4","0.8","0.6","0.2","","","","","0.4107359536","0.2452433766","0.3954271328","0.4129175496","","","","","","","75","K","2","","","20","main_expt"
"13","","bandit","99","306267","0.0-60.0-0.0","00392341","wem/bandit_either","A1IOJ2LGMGISYM","either","2","","","","","","","0","0","1","","0.4196431029","0.4","0.8","0.6","0.2","0.3954861765","0.2298761452","0.4196431029","0.3888488162","","","","","","","","","","","75","K","2","","","21","main_expt"
"87","","bandit","100","307860","0.0-61.0-0.0","00392341","wem/bandit_either","A1IOJ2LGMGISYM","either","2","","","","","","","0","0","1","0.3843335182","","0.4","0.8","0.6","0.2","","","","","0.3805979297","0.266827693","0.3843335182","0.3873149631","","","","","","","75","K","2","","","22","main_expt"
"374","","bandit","101","309741","0.0-62.0-0.0","00392341","wem/bandit_either","A1IOJ2LGMGISYM","either","2","","","","","","","0","0","1","0.3839977458","","0.4","0.8","0.6","0.2","","","","","0.425451992","0.2519769849","0.3839977458","0.3659772031","","","","","","","75","K","2","","","23","main_expt"
"253","","bandit","102","311500","0.0-63.0-0.0","00392341","wem/bandit_either","A1IOJ2LGMGISYM","either","2","","","","","","","0","0","1","0.4699447661","","0.4","0.8","0.6","0.2","","","","","0.4699447661","0.2447613107","0.3338939571","0.3594327093","","","","","","","72","H","0","img/none_selected.jpg","","24","main_expt"
"590","","bandit","103","313597","0.0-64.0-0.0","00392341","wem/bandit_either","A1IOJ2LGMGISYM","either","2","","","","","","","1","0","0","0.4484050393","","0.4","0.8","0.6","0.2","","","","","0.4484050393","0.2350413847","0.324486952","0.3719143394","","","","","","","72","H","0","img/none_selected.jpg","","25","main_expt"
"4","","bandit","104","315108","0.0-65.0-0.0","00392341","wem/bandit_either","A1IOJ2LGMGISYM","either","2","","","","","","","1","0","0","0.4190234423","","0.4","0.8","0.6","0.2","","","","","0.4190234423","0.207774486","0.3095710384","0.3690014044","","","","","","","72","H","0","img/none_selected.jpg","","26","main_expt"
"206","","bandit","105","316821","0.0-66.0-0.0","00392341","wem/bandit_either","A1IOJ2LGMGISYM","either","2","","","","","","","0","0","1","","0.4251478254","0.4","0.8","0.6","0.2","0.4251478254","0.2164182795","0.3355629191","0.3940030818","","","","","","","","","","","72","H","0","img/none_selected.jpg","","27","main_expt"
"317","","bandit","106","318646","0.0-67.0-0.0","00392341","wem/bandit_either","A1IOJ2LGMGISYM","either","2","","","","","","","0","0","1","","0.4287328697","0.4","0.8","0.6","0.2","0.4287328697","0.2164031865","0.3668681485","0.4111080327","","","","","","","","","","","72","H","0","img/none_selected.jpg","","28","main_expt"
"180","","bandit","107","320334","0.0-68.0-0.0","00392341","wem/bandit_either","A1IOJ2LGMGISYM","either","2","","","","","","","0","0","1","0.4106025245","","0.4","0.8","0.6","0.2","","","","","0.4106025245","0.2770000278","0.343198694","0.41290056","","","","","","","72","H","0","img/none_selected.jpg","","29","main_expt"
"61","","bandit","108","321900","0.0-69.0-0.0","00392341","wem/bandit_either","A1IOJ2LGMGISYM","either","2","","","","","","","0","0","1","","0.3942494676","0.4","0.8","0.6","0.2","0.3942494676","0.2354797847","0.326069126","0.3937480262","","","","","","","","","","","72","H","0","img/none_selected.jpg","","30","main_expt"
"477","","bandit","109","323884","0.0-70.0-0.0","00392341","wem/bandit_either","A1IOJ2LGMGISYM","either","2","","","","","","","0","0","1","","0.4285056211","0.4","0.8","0.6","0.2","0.4285056211","0.2692030882","0.3390127419","0.3997016236","","","","","","","","","","","72","H","0","img/none_selected.jpg","","31","main_expt"
"460","","bandit","110","325854","0.0-71.0-0.0","00392341","wem/bandit_either","A1IOJ2LGMGISYM","either","2","","","","","","","0","0","1","0.2471118655","","0.4","0.8","0.6","0.2","","","","","0.4249454459","0.2471118655","0.3360649894","0.3574295763","","","","","","","74","J","1","","","32","main_expt"
"405","","bandit","111","327765","0.0-72.0-0.0","00392341","wem/bandit_either","A1IOJ2LGMGISYM","either","2","","","","","","","0","0","1","","0.3052602024","0.4","0.8","0.6","0.2","0.416417765","0.2879199001","0.3052602024","0.3877818659","","","","","","","","","","","75","K","2","","","33","main_expt"
"660","","bandit","112","329932","0.0-73.0-0.0","00392341","wem/bandit_either","A1IOJ2LGMGISYM","either","2","","","","","","","0","1","0","","0.3594788954","0.4","0.8","0.6","0.2","0.4623714429","0.3180115212","0.3594788954","0.3799496232","","","","","","","","","","","75","K","2","","","34","main_expt"
"374","","bandit","113","331813","0.0-74.0-0.0","00392341","wem/bandit_either","A1IOJ2LGMGISYM","either","2","","","","","","","0","1","0","","0.380235832","0.4","0.8","0.6","0.2","0.4591977302","0.2524306687","0.380235832","0.3577573403","","","","","","","","","","","75","K","2","","","35","main_expt"
"563","","bandit","114","333884","0.0-75.0-0.0","00392341","wem/bandit_either","A1IOJ2LGMGISYM","either","2","","","","","","","0","1","0","","0.3895375856","0.4","0.8","0.6","0.2","0.4686235256","0.2351869563","0.3459989602","0.3895375856","","","","","","","","","","","76","L","3","","","36","main_expt"
"94","","bandit","115","335486","0.0-76.0-0.0","00392341","wem/bandit_either","A1IOJ2LGMGISYM","either","2","","","","","","","0","0","1","0.3783527007","","0.4","0.8","0.6","0.2","","","","","0.4571547709","0.2629170466","0.3320905149","0.3783527007","","","","","","","76","L","3","","","37","main_expt"
"868","","bandit","116","337861","0.0-77.0-0.0","00392341","wem/bandit_either","A1IOJ2LGMGISYM","either","2","","","","","","","0","0","1","0.4688430709","","0.4","0.8","0.6","0.2","","","","","0.4688430709","0.3090194305","0.3471020919","0.284076782","","","","","","","72","H","0","img/none_selected.jpg","","38","main_expt"
"285","","bandit","117","339653","0.0-78.0-0.0","00392341","wem/bandit_either","A1IOJ2LGMGISYM","either","2","","","","","","","0","0","1","0.4612923778","","0.4","0.8","0.6","0.2","","","","","0.4612923778","0.2845371228","0.3401763967","0.3388972186","","","","","","","72","H","0","img/none_selected.jpg","","39","main_expt"
"1268","","bandit","118","342428","0.0-79.0-0.0","00392341","wem/bandit_either","A1IOJ2LGMGISYM","either","2","","","","","","","1","0","0","0.4576194683","","0.4","0.8","0.6","0.2","","","","","0.4576194683","0.3076259244","0.3260487483","0.2663655232","","","","","","","72","H","0","img/none_selected.jpg","","40","main_expt"
"552","","bandit","119","344486","0.0-80.0-0.0","00392341","wem/bandit_either","A1IOJ2LGMGISYM","either","2","","","","","","","1","0","0","0.4473921051","","0.4","0.8","0.6","0.2","","","","","0.4473921051","0.2888769276","0.3390218734","0.2608266697","","","","","","","72","H","0","img/none_selected.jpg","","41","main_expt"
"131","","bandit","120","346124","0.0-81.0-0.0","00392341","wem/bandit_either","A1IOJ2LGMGISYM","either","2","","","","","","","0","1","0","","0.425470286","0.4","0.8","0.6","0.2","0.425470286","0.2639198141","0.2889680017","0.2287676803","","","","","","","","","","","72","H","0","img/none_selected.jpg","","42","main_expt"
"173","","bandit","121","347804","0.0-82.0-0.0","00392341","wem/bandit_either","A1IOJ2LGMGISYM","either","2","","","","","","","0","1","0","","0.4030522017","0.4","0.8","0.6","0.2","0.4030522017","0.2255441472","0.2784828801","0.2043112358","","","","","","","","","","","72","H","0","img/none_selected.jpg","","43","main_expt"
"53","","bandit","122","349364","0.0-83.0-0.0","00392341","wem/bandit_either","A1IOJ2LGMGISYM","either","2","","","","","","","0","1","0","","0.4106315797","0.4","0.8","0.6","0.2","0.4106315797","0.2050272072","0.2805729819","0.1957049551","","","","","","","","","","","72","H","0","img/none_selected.jpg","","44","main_expt"
"374","","bandit","123","351244","0.0-84.0-0.0","00392341","wem/bandit_either","A1IOJ2LGMGISYM","either","2","","","","","","","0","0","1","0.239455925","","0.4","0.8","0.6","0.2","","","","","0.4258527362","0.239455925","0.2195119073","0.2207366272","","","","","","","74","J","1","","","45","main_expt"
"0","","bandit","124","352750","0.0-85.0-0.0","00392341","wem/bandit_either","A1IOJ2LGMGISYM","either","2","","","","","","","1","0","0","0.2414778298","","0.4","0.8","0.6","0.2","","","","","0.4425966235","0.2414778298","0.2657932304","0.1727988076","","","","","","","74","J","1","","","46","main_expt"
"386","","bandit","125","354644","0.0-86.0-0.0","00392341","wem/bandit_either","A1IOJ2LGMGISYM","either","2","","","","","","","0","0","1","0.1884211613","","0.4","0.8","0.6","0.2","","","","","0.4428977597","0.1884211613","0.2678398397","0.1446735631","","","","","","","74","J","1","","","47","main_expt"
"317","","bandit","126","356467","0.0-87.0-0.0","00392341","wem/bandit_either","A1IOJ2LGMGISYM","either","2","","","","","","","0","0","1","0.1755274282","","0.4","0.8","0.6","0.2","","","","","0.4479964269","0.1755274282","0.2866904938","0.1681765936","","","","","","","74","J","1","","","48","main_expt"
"278","","bandit","127","358251","0.0-88.0-0.0","00392341","wem/bandit_either","A1IOJ2LGMGISYM","either","2","","","","","","","0","0","1","0.1646396384","","0.4","0.8","0.6","0.2","","","","","0.4660387519","0.1646396384","0.2803848884","0.1473883531","","","","","","","74","J","1","","","49","main_expt"
"278","","bandit","128","360037","0.0-89.0-0.0","00392341","wem/bandit_either","A1IOJ2LGMGISYM","either","2","","","","","","","0","0","1","","0.1378170987","0.4","0.8","0.6","0.2","0.4345757832","0.2024226619","0.2587411269","0.1378170987","","","","","","","","","","","76","L","3","","","50","main_expt"
"357","","bandit","129","361900","0.0-90.0-0.0","00392341","wem/bandit_either","A1IOJ2LGMGISYM","either","2","","","","","","","0","0","1","","0.1430360168","0.4","0.8","0.6","0.2","0.4450950844","0.1976760068","0.2212901065","0.1430360168","","","","","","","","","","","76","L","3","","","51","main_expt"
"1037","","bandit","130","364445","0.0-91.0-0.0","00392341","wem/bandit_either","A1IOJ2LGMGISYM","either","2","","","","","","","0","0","1","0.1731798725","","0.4","0.8","0.6","0.2","","","","","0.4475354499","0.1796352224","0.236006857","0.1731798725","","","","","","","76","L","3","","","52","main_expt"
"67","","bandit","131","366020","0.0-92.0-0.0","00392341","wem/bandit_either","A1IOJ2LGMGISYM","either","2","","","","","","","0","0","1","","0.1312409056","0.4","0.8","0.6","0.2","0.4627294295","0.2451732725","0.2660825342","0.1312409056","","","","","","","","","","","76","L","3","","","53","main_expt"
"947","","bandit","132","368476","0.0-93.0-0.0","00392341","wem/bandit_either","A1IOJ2LGMGISYM","either","2","","","","","","","0","0","1","0.2458345041","","0.4","0.8","0.6","0.2","","","","","0.44829207","0.2621482643","0.2458345041","0.1862053218","","","","","","","75","K","2","","","54","main_expt"
"0","","bandit","133","369984","0.0-94.0-0.0","00392341","wem/bandit_either","A1IOJ2LGMGISYM","either","2","","","","","","","0","0","1","","0.2265690781","0.4","0.8","0.6","0.2","0.4505537928","0.2441780383","0.2265690781","0.1733563037","","","","","","","","","","","75","K","2","","","55","main_expt"
"538","","bandit","134","372029","0.0-95.0-0.0","00392341","wem/bandit_either","A1IOJ2LGMGISYM","either","2","","","","","","","1","0","0","0.2741820357","","0.4","0.8","0.6","0.2","","","","","0.4686400132","0.199729785","0.2741820357","0.1728369204","","","","","","","75","K","2","","","56","main_expt"
"298","","bandit","135","373836","0.0-96.0-0.0","00392341","wem/bandit_either","A1IOJ2LGMGISYM","either","2","","","","","","","0","0","1","","0.2937641054","0.4","0.8","0.6","0.2","0.4572679106","0.1945085845","0.2937641054","0.09176359954","","","","","","","","","","","75","K","2","","","57","main_expt"
"311","","bandit","136","375654","0.0-97.0-0.0","00392341","wem/bandit_either","A1IOJ2LGMGISYM","either","2","","","","","","","0","0","1","","0.2949827607","0.4","0.8","0.6","0.2","0.4300169527","0.2614759052","0.2949827607","0.04991422033","","","","","","","","","","","75","K","2","","","58","main_expt"
"240","","bandit","137","377403","0.0-98.0-0.0","00392341","wem/bandit_either","A1IOJ2LGMGISYM","either","2","","","","","","","0","0","1","0.2710075273","","0.4","0.8","0.6","0.2","","","","","0.4050829606","0.2426118991","0.2710075273","0.053239915","","","","","","","75","K","2","","","59","main_expt"
"104","","bandit","138","379013","0.0-99.0-0.0","00392341","wem/bandit_either","A1IOJ2LGMGISYM","either","2","","","","","","","0","0","1","0.2766623035","","0.4","0.8","0.6","0.2","","","","","0.4070720156","0.2623750897","0.2766623035","0.06994226662","","","","","","","75","K","2","","","60","main_expt"
"314","","bandit","139","380835","0.0-100.0-0.0","00392341","wem/bandit_either","A1IOJ2LGMGISYM","either","2","","","","","","","0","0","1","0.2139103784","","0.4","0.8","0.6","0.2","","","","","0.3895400789","0.2139103784","0.2574592035","0.07064832373","","","","","","","74","J","1","","","61","main_expt"
"391","","bandit","140","382732","0.0-101.0-0.0","00392341","wem/bandit_either","A1IOJ2LGMGISYM","either","2","","","","","","","1","0","0","0.2566580444","","0.4","0.8","0.6","0.2","","","","","0.4050708951","0.2566580444","0.2425209234","0.08925217872","","","","","","","74","J","1","","","62","main_expt"
"44","","bandit","141","384283","0.0-102.0-0.0","00392341","wem/bandit_either","A1IOJ2LGMGISYM","either","2","","","","","","","0","0","1","0.2393402704","","0.4","0.8","0.6","0.2","","","","","0.3765761212","0.2393402704","0.2294211584","0.08505035955","","","","","","","74","J","1","","","63","main_expt"
"853","","bandit","142","386646","0.0-103.0-0.0","00392341","wem/bandit_either","A1IOJ2LGMGISYM","either","2","","","","","","","1","0","0","0.300105392","","0.4","0.8","0.6","0.2","","","","","0.3859881554","0.300105392","0.2350173232","0.09892528285","","","","","","","74","J","1","","","64","main_expt"
"142","","bandit","143","388296","0.0-104.0-0.0","00392341","wem/bandit_either","A1IOJ2LGMGISYM","either","2","","","","","","","0","0","1","0.2584268813","","0.4","0.8","0.6","0.2","","","","","0.3817039273","0.2584268813","0.2775473173","0.1428545766","","","","","","","74","J","1","","","65","main_expt"
"290","","bandit","144","390092","0.0-105.0-0.0","00392341","wem/bandit_either","A1IOJ2LGMGISYM","either","2","","","","","","","0","0","1","","0.2536378703","0.4","0.8","0.6","0.2","0.3622232449","0.2536378703","0.298861572","0.120440259","","","","","","","","","","","74","J","1","","","66","main_expt"
"333","","bandit","145","391931","0.0-106.0-0.0","00392341","wem/bandit_either","A1IOJ2LGMGISYM","either","2","","","","","","","0","0","1","0.2548884231","","0.4","0.8","0.6","0.2","","","","","0.3768721334","0.2548884231","0.3043747659","0.2019700983","","","","","","","74","J","1","","","67","main_expt"
"309","","bandit","146","393748","0.0-107.0-0.0","00392341","wem/bandit_either","A1IOJ2LGMGISYM","either","2","","","","","","","0","0","1","","0.2105458193","0.4","0.8","0.6","0.2","0.3826604183","0.2105458193","0.2533072519","0.1467862533","","","","","","","","","","","74","J","1","","","68","main_expt"
"317","","bandit","147","395573","0.0-108.0-0.0","00392341","wem/bandit_either","A1IOJ2LGMGISYM","either","2","","","","","","","1","0","0","0.2901666962","","0.4","0.8","0.6","0.2","","","","","0.3981811202","0.2901666962","0.2451677402","0.09022805221","","","","","","","74","J","1","","","69","main_expt"
"228","","bandit","148","397308","0.0-109.0-0.0","00392341","wem/bandit_either","A1IOJ2LGMGISYM","either","2","","","","","","","0","0","1","0.2973761433","","0.4","0.8","0.6","0.2","","","","","0.3936557204","0.2973761433","0.2403061491","0.1128827508","","","","","","","74","J","1","","","70","main_expt"
"868","","bandit","149","399685","0.0-110.0-0.0","00392341","wem/bandit_either","A1IOJ2LGMGISYM","either","2","","","","","","","0","0","1","0.2737706179","","0.4","0.8","0.6","0.2","","","","","0.3949471057","0.2737706179","0.1917576795","0.1184182172","","","","","","","74","J","1","","","71","main_expt"
"788","","bandit","150","401980","0.0-111.0-0.0","00392341","wem/bandit_either","A1IOJ2LGMGISYM","either","2","","","","","","","0","0","1","0.1894079546","","0.4","0.8","0.6","0.2","","","","","0.3888869603","0.3005227265","0.1894079546","0.1038133506","","","","","","","75","K","2","","","72","main_expt"
"101","","bandit","151","403588","0.0-112.0-0.0","00392341","wem/bandit_either","A1IOJ2LGMGISYM","either","2","","","","","","","0","1","0","","0.235909594","0.4","0.8","0.6","0.2","0.4015056825","0.3205676235","0.235909594","0.07830871569","","","","","","","","","","","75","K","2","","","73","main_expt"
"221","","bandit","152","405317","0.0-113.0-0.0","00392341","wem/bandit_either","A1IOJ2LGMGISYM","either","2","","","","","","","0","0","1","","0.2772030277","0.4","0.8","0.6","0.2","0.4200542591","0.3040473008","0.2772030277","0.09226686474","","","","","","","","","","","75","K","2","","","74","main_expt"
"434","","bandit","153","407260","0.0-114.0-0.0","00392341","wem/bandit_either","A1IOJ2LGMGISYM","either","2","","","","","","","0","0","1","","0.07948082514","0.4","0.8","0.6","0.2","0.4353174817","0.2686744794","0.2237268092","0.07948082514","","","","","","","","","","","76","L","3","","","75","main_expt"
"557","","bandit","154","409324","0.0-115.0-0.0","00392341","wem/bandit_either","A1IOJ2LGMGISYM","either","2","","","","","","","0","0","1","","0.1279570505","0.4","0.8","0.6","0.2","0.4196821318","0.258707356","0.1739375455","0.1279570505","","","","","","","","","","","76","L","3","","","76","main_expt"
"236","","bandit","155","411066","0.0-116.0-0.0","00392341","wem/bandit_either","A1IOJ2LGMGISYM","either","2","","","","","","","0","1","0","","0.3787369199","0.4","0.8","0.6","0.2","0.3787369199","0.3010070056","0.1648796623","0.1202820049","","","","","","","","","","","72","H","0","img/none_selected.jpg","","77","main_expt"
"254","","bandit","156","412829","0.0-117.0-0.0","00392341","wem/bandit_either","A1IOJ2LGMGISYM","either","2","","","","","","","0","1","0","","0.4314930014","0.4","0.8","0.6","0.2","0.4314930014","0.2648586626","0.1637798684","0.1054071572","","","","","","","","","","","72","H","0","img/none_selected.jpg","","78","main_expt"
"435","","bandit","157","414773","0.0-118.0-0.0","00392341","wem/bandit_either","A1IOJ2LGMGISYM","either","2","","","","","","","0","0","1","","0.4155078174","0.4","0.8","0.6","0.2","0.4155078174","0.1984114041","0.1490076182","0.1403095361","","","","","","","","","","","72","H","0","img/none_selected.jpg","","79","main_expt"
"348","","bandit","158","416629","0.0-119.0-0.0","00392341","wem/bandit_either","A1IOJ2LGMGISYM","either","2","","","","","","","0","1","0","","0.4226243671","0.4","0.8","0.6","0.2","0.4226243671","0.180325551","0.1093198388","0.1891235553","","","","","","","","","","","72","H","0","img/none_selected.jpg","","80","main_expt"
"123","","bandit","159","418260","0.0-120.0-0.0","00392341","wem/bandit_either","A1IOJ2LGMGISYM","either","2","","","","","","","0","0","1","","0.4474166549","0.4","0.8","0.6","0.2","0.4474166549","0.224531153","0.08868186825","0.1858030354","","","","","","","","","","","72","H","0","img/none_selected.jpg","","81","main_expt"
"444","","bandit","160","420213","0.0-121.0-0.0","00392341","wem/bandit_either","A1IOJ2LGMGISYM","either","2","","","","","","","1","0","0","0.4636297045","","0.4","0.8","0.6","0.2","","","","","0.4636297045","0.221125015","0.1073880826","0.2476542501","","","","","","","72","H","0","img/none_selected.jpg","","82","main_expt"
"180","","bandit","161","421900","0.0-122.0-0.0","00392341","wem/bandit_either","A1IOJ2LGMGISYM","either","2","","","","","","","0","1","0","","0.467509749","0.4","0.8","0.6","0.2","0.467509749","0.2143237207","0.1022587498","0.2188241074","","","","","","","","","","","72","H","0","img/none_selected.jpg","","83","main_expt"
"291","","bandit","162","423700","0.0-123.0-0.0","00392341","wem/bandit_either","A1IOJ2LGMGISYM","either","2","","","","","","","0","0","1","","0.2097367537","0.4","0.8","0.6","0.2","0.4551111531","0.2097367537","0.1085807699","0.2754771977","","","","","","","","","","","74","J","1","","","84","main_expt"
"333","","bandit","163","425540","0.0-124.0-0.0","00392341","wem/bandit_either","A1IOJ2LGMGISYM","either","2","","","","","","","0","0","1","","0.1263918358","0.4","0.8","0.6","0.2","0.4621419017","0.1661536269","0.1263918358","0.2965575968","","","","","","","","","","","75","K","2","","","85","main_expt"
"340","","bandit","164","427389","0.0-125.0-0.0","00392341","wem/bandit_either","A1IOJ2LGMGISYM","either","2","","","","","","","0","0","1","0.1481941301","","0.4","0.8","0.6","0.2","","","","","0.4612050897","0.1364458955","0.1481941301","0.257129161","","","","","","","75","K","2","","","86","main_expt"
"397","","bandit","165","429294","0.0-126.0-0.0","00392341","wem/bandit_either","A1IOJ2LGMGISYM","either","2","","","","","","","0","0","1","","0.2338967043","0.4","0.8","0.6","0.2","0.4334675206","0.08235553135","0.1447872846","0.2338967043","","","","","","","","","","","76","L","3","","","87","main_expt"
"59","","bandit","166","430860","0.0-127.0-0.0","00392341","wem/bandit_either","A1IOJ2LGMGISYM","either","2","","","","","","","0","0","1","","0.2161535794","0.4","0.8","0.6","0.2","0.4397617206","0.0754832669","0.1391637727","0.2161535794","","","","","","","","","","","76","L","3","","","88","main_expt"
"195","","bandit","167","432565","0.0-128.0-0.0","00392341","wem/bandit_either","A1IOJ2LGMGISYM","either","2","","","","","","","0","0","1","","0.2043146745","0.4","0.8","0.6","0.2","0.4635478967","0.109361408","0.1476089376","0.2043146745","","","","","","","","","","","76","L","3","","","89","main_expt"
"348","","bandit","168","434420","0.0-129.0-0.0","00392341","wem/bandit_either","A1IOJ2LGMGISYM","either","2","","","","","","","0","0","1","0.2081489191","","0.4","0.8","0.6","0.2","","","","","0.4234969579","0.07391079866","0.2081489191","0.2346009907","","","","","","","75","K","2","","","90","main_expt"
"100","","bandit","169","436027","0.0-130.0-0.0","00392341","wem/bandit_either","A1IOJ2LGMGISYM","either","2","","","","","","","0","0","1","0.1834039029","","0.4","0.8","0.6","0.2","","","","","0.4267507071","0.1164594673","0.1834039029","0.2333967219","","","","","","","75","K","2","","","91","main_expt"
"100","","bandit","170","437635","0.0-131.0-0.0","00392341","wem/bandit_either","A1IOJ2LGMGISYM","either","2","","","","","","","0","1","0","","0.113043345","0.4","0.8","0.6","0.2","0.4089505196","0.113043345","0.2027314649","0.2150480475","","","","","","","","","","","74","J","1","","","92","main_expt"
"518","","bandit","171","439661","0.0-132.0-0.0","00392341","wem/bandit_either","A1IOJ2LGMGISYM","either","2","","","","","","","0","0","1","0.1714352716","","0.4","0.8","0.6","0.2","","","","","0.4112501448","0.1714352716","0.1738894496","0.2588080464","","","","","","","74","J","1","","","93","main_expt"
"411","","bandit","172","441579","0.0-133.0-0.0","00392341","wem/bandit_either","A1IOJ2LGMGISYM","either","2","","","","","","","0","0","1","0.1253024032","","0.4","0.8","0.6","0.2","","","","","0.452415855","0.1253024032","0.2484708832","0.2748849181","","","","","","","74","J","1","","","94","main_expt"
"340","","bandit","173","443427","0.0-134.0-0.0","00392341","wem/bandit_either","A1IOJ2LGMGISYM","either","2","","","","","","","0","1","0","","0.4589197587","0.4","0.8","0.6","0.2","0.4589197587","0.1401284447","0.2914685715","0.2791739054","","","","","","","","","","","72","H","0","img/none_selected.jpg","","95","main_expt"
"572","","bandit","174","445507","0.0-135.0-0.0","00392341","wem/bandit_either","A1IOJ2LGMGISYM","either","2","","","","","","","0","0","1","","0.4481870348","0.4","0.8","0.6","0.2","0.4481870348","0.1320491369","0.2417524935","0.3149564315","","","","","","","","","","","72","H","0","img/none_selected.jpg","","96","main_expt"
"685","","bandit","175","447701","0.0-136.0-0.0","00392341","wem/bandit_either","A1IOJ2LGMGISYM","either","2","","","","","","","0","0","1","0.4597072186","","0.4","0.8","0.6","0.2","","","","","0.4597072186","0.1518453759","0.2492821404","0.372564007","","","","","","","72","H","0","img/none_selected.jpg","","97","main_expt"
"117","","bandit","176","449325","0.0-137.0-0.0","00392341","wem/bandit_either","A1IOJ2LGMGISYM","either","2","","","","","","","1","0","0","0.4705619112","","0.4","0.8","0.6","0.2","","","","","0.4705619112","0.2173959583","0.3002958449","0.393328365","","","","","","","72","H","0","img/none_selected.jpg","","98","main_expt"
"139","","bandit","177","450972","0.0-138.0-0.0","00392341","wem/bandit_either","A1IOJ2LGMGISYM","either","2","","","","","","","1","0","0","0.4800968761","","0.4","0.8","0.6","0.2","","","","","0.4800968761","0.2618725657","0.3544832656","0.421239771","","","","","","","72","H","0","img/none_selected.jpg","","99","main_expt"
"172","","bandit","178","452653","0.0-139.0-0.0","00392341","wem/bandit_either","A1IOJ2LGMGISYM","either","2","","","","","","","0","0","1","","0.4780143146","0.4","0.8","0.6","0.2","0.4780143146","0.2487788848","0.3810954338","0.4130759476","","","","","","","","","","","72","H","0","img/none_selected.jpg","","100","main_expt"
"347","","bandit","179","454508","0.0-140.0-0.0","00392341","wem/bandit_either","A1IOJ2LGMGISYM","either","2","","","","","","","0","0","1","0.4849002763","","0.4","0.8","0.6","0.2","","","","","0.4849002763","0.2890792313","0.4042362267","0.4089462913","","","","","","","72","H","0","img/none_selected.jpg","","101","main_expt"
"426","","bandit","180","456445","0.0-141.0-0.0","00392341","wem/bandit_either","A1IOJ2LGMGISYM","either","2","","","","","","","0","0","1","","0.4886078379","0.4","0.8","0.6","0.2","0.4886078379","0.3136369757","0.4594696392","0.370330464","","","","","","","","","","","72","H","0","img/none_selected.jpg","","102","main_expt"
"221","","bandit","181","458172","0.0-142.0-0.0","00392341","wem/bandit_either","A1IOJ2LGMGISYM","either","2","","","","","","","0","0","1","","0.47121906","0.4","0.8","0.6","0.2","0.47121906","0.2364671533","0.4588766667","0.3306315663","","","","","","","","","","","72","H","0","img/none_selected.jpg","","103","main_expt"
"99","","bandit","182","459780","0.0-143.0-0.0","00392341","wem/bandit_either","A1IOJ2LGMGISYM","either","2","","","","","","","0","0","1","0.2202486688","","0.4","0.8","0.6","0.2","","","","","0.4760763377","0.2202486688","0.4372785745","0.354634178","","","","","","","74","J","1","","","104","main_expt"
"0","","bandit","183","461287","0.0-144.0-0.0","00392341","wem/bandit_either","A1IOJ2LGMGISYM","either","2","","","","","","","0","0","1","0.4063887309","","0.4","0.8","0.6","0.2","","","","","0.4701389446","0.1854418088","0.4063887309","0.3896605338","","","","","","","75","K","2","","","105","main_expt"
"208","","bandit","184","463004","0.0-145.0-0.0","00392341","wem/bandit_either","A1IOJ2LGMGISYM","either","2","","","","","","","0","0","1","","0.414339711","0.4","0.8","0.6","0.2","0.471324938","0.1596754559","0.3778019321","0.414339711","","","","","","","","","","","76","L","3","","","106","main_expt"
"349","","bandit","185","464862","0.0-146.0-0.0","00392341","wem/bandit_either","A1IOJ2LGMGISYM","either","2","","","","","","","0","1","0","","0.4164239898","0.4","0.8","0.6","0.2","0.4786694594","0.137099288","0.3614143111","0.4164239898","","","","","","","","","","","76","L","3","","","107","main_expt"
"562","","bandit","186","466931","0.0-147.0-0.0","00392341","wem/bandit_either","A1IOJ2LGMGISYM","either","2","","","","","","","1","0","0","0.3836571442","","0.4","0.8","0.6","0.2","","","","","0.4810065258","0.1443984823","0.3681250399","0.3836571442","","","","","","","76","L","3","","","108","main_expt"
"382","","bandit","187","468820","0.0-148.0-0.0","00392341","wem/bandit_either","A1IOJ2LGMGISYM","either","2","","","","","","","1","0","0","0.3881214568","","0.4","0.8","0.6","0.2","","","","","0.4816764674","0.1409511773","0.3446081275","0.3881214568","","","","","","","76","L","3","","","109","main_expt"
"268","","bandit","188","470597","0.0-149.0-0.0","00392341","wem/bandit_either","A1IOJ2LGMGISYM","either","2","","","","","","","0","0","1","","0.4266873791","0.4","0.8","0.6","0.2","0.4882082215","0.1787750665","0.3681270965","0.4266873791","","","","","","","","","","","76","L","3","","","110","main_expt"
"401","","bandit","189","472506","0.0-150.0-0.0","00392341","wem/bandit_either","A1IOJ2LGMGISYM","either","2","","","","","","","0","0","1","0.4475699482","","0.4","0.8","0.6","0.2","","","","","0.478642168","0.1862786225","0.391379093","0.4475699482","","","","","","","76","L","3","","","111","main_expt"
"469","","bandit","190","474484","0.0-151.0-0.0","00392341","wem/bandit_either","A1IOJ2LGMGISYM","either","2","","","","","","","0","0","1","","0.4190314983","0.4","0.8","0.6","0.2","0.4841415165","0.1654620982","0.4131544452","0.4190314983","","","","","","","","","","","76","L","3","","","112","main_expt"
"61","","bandit","191","476052","0.0-152.0-0.0","00392341","wem/bandit_either","A1IOJ2LGMGISYM","either","2","","","","","","","0","0","1","","0.3666128881","0.4","0.8","0.6","0.2","0.4883212127","0.1582981878","0.3963985948","0.3666128881","","","","","","","","","","","76","L","3","","","113","main_expt"
"177","","bandit","192","477740","0.0-153.0-0.0","00392341","wem/bandit_either","A1IOJ2LGMGISYM","either","2","","","","","","","0","0","1","0.3866259854","","0.4","0.8","0.6","0.2","","","","","0.4883790739","0.1922757069","0.4117985871","0.3866259854","","","","","","","76","L","3","","","114","main_expt"
"43","","bandit","193","479293","0.0-154.0-0.0","00392341","wem/bandit_either","A1IOJ2LGMGISYM","either","2","","","","","","","0","0","1","","0.394381103","0.4","0.8","0.6","0.2","0.4902011966","0.185618385","0.394381103","0.354161152","","","","","","","","","","","75","K","2","","","115","main_expt"
"25","","bandit","194","480828","0.0-155.0-0.0","00392341","wem/bandit_either","A1IOJ2LGMGISYM","either","2","","","","","","","0","0","1","0.3762408663","","0.4","0.8","0.6","0.2","","","","","0.4844723045","0.2057277395","0.3762408663","0.3170745426","","","","","","","75","K","2","","","116","main_expt"
"309","","bandit","195","482645","0.0-156.0-0.0","00392341","wem/bandit_either","A1IOJ2LGMGISYM","either","2","","","","","","","1","0","0","0.2288411079","","0.4","0.8","0.6","0.2","","","","","0.4895589844","0.2288411079","0.3823674378","0.304536318","","","","","","","74","J","1","","","117","main_expt"
"378","","bandit","196","484533","0.0-157.0-0.0","00392341","wem/bandit_either","A1IOJ2LGMGISYM","either","2","","","","","","","0","0","1","0.2207517482","","0.4","0.8","0.6","0.2","","","","","0.4899729034","0.2207517482","0.4050195855","0.3411026949","","","","","","","74","J","1","","","118","main_expt"
"459","","bandit","197","486501","0.0-158.0-0.0","00392341","wem/bandit_either","A1IOJ2LGMGISYM","either","2","","","","","","","1","0","0","0.1955286499","","0.4","0.8","0.6","0.2","","","","","0.4947041593","0.1955286499","0.4227562767","0.3447942488","","","","","","","74","J","1","","","119","main_expt"
"116","","bandit","198","488125","0.0-159.0-0.0","00392341","wem/bandit_either","A1IOJ2LGMGISYM","either","2","","","","","","","0","0","1","","0.2427950695","0.4","0.8","0.6","0.2","0.4916865355","0.2427950695","0.4163810796","0.3686185352","","","","","","","","","","","74","J","1","","","120","main_expt"
"362","","bandit","199","489998","0.0-160.0-0.0","00392341","wem/bandit_either","A1IOJ2LGMGISYM","either","2","","","","","","","0","0","1","0.2479682904","","0.4","0.8","0.6","0.2","","","","","0.4860386064","0.2479682904","0.406821829","0.3547669752","","","","","","","74","J","1","","","121","main_expt"
"336","","bandit","200","491843","0.0-161.0-0.0","00392341","wem/bandit_either","A1IOJ2LGMGISYM","either","2","","","","","","","0","1","0","","0.483083859","0.4","0.8","0.6","0.2","0.483083859","0.3081985406","0.3999449125","0.365994073","","","","","","","","","","","72","H","0","img/none_selected.jpg","","122","main_expt"
"445","","bandit","201","493795","0.0-162.0-0.0","00392341","wem/bandit_either","A1IOJ2LGMGISYM","either","2","","","","","","","0","0","1","0.4791491275","","0.4","0.8","0.6","0.2","","","","","0.4791491275","0.3089359708","0.366626489","0.3120596142","","","","","","","72","H","0","img/none_selected.jpg","","123","main_expt"
"389","","bandit","202","495692","0.0-163.0-0.0","00392341","wem/bandit_either","A1IOJ2LGMGISYM","either","2","","","","","","","0","0","1","0.4776777384","","0.4","0.8","0.6","0.2","","","","","0.4776777384","0.3298338218","0.3706278578","0.302161917","","","","","","","72","H","0","img/none_selected.jpg","","124","main_expt"
"348","","bandit","203","497547","0.0-164.0-0.0","00392341","wem/bandit_either","A1IOJ2LGMGISYM","either","2","","","","","","","0","0","1","0.478983255","","0.4","0.8","0.6","0.2","","","","","0.478983255","0.2795250441","0.3545504723","0.2794370347","","","","","","","72","H","0","img/none_selected.jpg","","125","main_expt"
"48","","bandit","204","499107","0.0-165.0-0.0","00392341","wem/bandit_either","A1IOJ2LGMGISYM","either","2","","","","","","","0","0","1","0.4724726719","","0.4","0.8","0.6","0.2","","","","","0.4724726719","0.2184127205","0.3106298006","0.2466154908","","","","","","","72","H","0","img/none_selected.jpg","","126","main_expt"
"276","","bandit","205","500892","0.0-166.0-0.0","00392341","wem/bandit_either","A1IOJ2LGMGISYM","either","2","","","","","","","0","0","1","0.2488858907","","0.4","0.8","0.6","0.2","","","","","0.4796244369","0.2488858907","0.3351405197","0.2712823261","","","","","","","74","J","1","","","127","main_expt"
"36","","bandit","206","502435","0.0-167.0-0.0","00392341","wem/bandit_either","A1IOJ2LGMGISYM","either","2","","","","","","","0","0","1","0.2850827173","","0.4","0.8","0.6","0.2","","","","","0.4825212971","0.2850827173","0.2984422464","0.2095517986","","","","","","","74","J","1","","","128","main_expt"
"179","","bandit","207","504123","0.0-168.0-0.0","00392341","wem/bandit_either","A1IOJ2LGMGISYM","either","2","","","","","","","0","1","0","","0.2867242009","0.4","0.8","0.6","0.2","0.4877535013","0.2867242009","0.2027892291","0.1986866195","","","","","","","","","","","74","J","1","","","129","main_expt"
"372","","bandit","208","506003","0.0-169.0-0.0","00392341","wem/bandit_either","A1IOJ2LGMGISYM","either","2","","","","","","","0","0","1","0.2509552002","","0.4","0.8","0.6","0.2","","","","","0.4833646461","0.2509552002","0.13768179","0.172959111","","","","","","","74","J","1","","","130","main_expt"
"333","","bandit","209","507846","0.0-170.0-0.0","00392341","wem/bandit_either","A1IOJ2LGMGISYM","either","2","","","","","","","0","0","1","0.1352832961","","0.4","0.8","0.6","0.2","","","","","0.4790990265","0.2172434631","0.1352832961","0.163172462","","","","","","","75","K","2","","","131","main_expt"
"58","","bandit","210","509411","0.0-171.0-0.0","00392341","wem/bandit_either","A1IOJ2LGMGISYM","either","2","","","","","","","0","0","1","","0.08660982753","0.4","0.8","0.6","0.2","0.4882311922","0.158295755","0.08660982753","0.161148659","","","","","","","","","","","75","K","2","","","132","main_expt"
"1220","","bandit","211","512140","0.0-172.0-0.0","00392341","wem/bandit_either","A1IOJ2LGMGISYM","either","2","","","","","","","0","0","1","0.1020907376","","0.4","0.8","0.6","0.2","","","","","0.4889625365","0.185310911","0.1020907376","0.1735641072","","","","","","","75","K","2","","","133","main_expt"
"203","","bandit","212","513852","0.0-173.0-0.0","00392341","wem/bandit_either","A1IOJ2LGMGISYM","either","2","","","","","","","0","0","1","","0.1231499397","0.4","0.8","0.6","0.2","0.4916783795","0.1966535246","0.1231499397","0.1597390633","","","","","","","","","","","75","K","2","","","134","main_expt"
"483","","bandit","213","515843","0.0-174.0-0.0","00392341","wem/bandit_either","A1IOJ2LGMGISYM","either","2","","","","","","","0","0","1","0.1524236556","","0.4","0.8","0.6","0.2","","","","","0.4904315354","0.2290191974","0.1524236556","0.1460070414","","","","","","","75","K","2","","","135","main_expt"
"147","","bandit","214","517499","0.0-175.0-0.0","00392341","wem/bandit_either","A1IOJ2LGMGISYM","either","2","","","","","","","0","0","1","","0.105474526","0.4","0.8","0.6","0.2","0.491666595","0.2929229053","0.1954247664","0.105474526","","","","","","","","","","","76","L","3","","","136","main_expt"
"428","","bandit","215","519436","0.0-176.0-0.0","00392341","wem/bandit_either","A1IOJ2LGMGISYM","either","2","","","","","","","0","0","1","0.08835118593","","0.4","0.8","0.6","0.2","","","","","0.4917142499","0.2780805385","0.1833989084","0.08835118593","","","","","","","76","L","3","","","137","main_expt"
"140","","bandit","216","521084","0.0-177.0-0.0","00392341","wem/bandit_either","A1IOJ2LGMGISYM","either","2","","","","","","","0","0","1","","0.06418360449","0.4","0.8","0.6","0.2","0.4870170403","0.217224157","0.1490533902","0.06418360449","","","","","","","","","","","76","L","3","","","138","main_expt"
"458","","bandit","217","523050","0.0-178.0-0.0","00392341","wem/bandit_either","A1IOJ2LGMGISYM","either","2","","","","","","","0","0","1","","0.03554325754","0.4","0.8","0.6","0.2","0.4834992155","0.2323391466","0.1318817547","0.03554325754","","","","","","","","","","","76","L","3","","","139","main_expt"
"219","","bandit","218","524779","0.0-179.0-0.0","00392341","wem/bandit_either","A1IOJ2LGMGISYM","either","2","","","","","","","0","0","1","","0.04477370895","0.4","0.8","0.6","0.2","0.4927392517","0.244475209","0.1877412345","0.04477370895","","","","","","","","","","","76","L","3","","","140","main_expt"
"60","","bandit","219","526347","0.0-180.0-0.0","00392341","wem/bandit_either","A1IOJ2LGMGISYM","either","2","","","","","","","0","0","1","","0.03780119019","0.4","0.8","0.6","0.2","0.4872377518","0.232604034","0.2363671377","0.03780119019","","","","","","","","","","","76","L","3","","","141","main_expt"
"68","","bandit","220","527924","0.0-181.0-0.0","00392341","wem/bandit_either","A1IOJ2LGMGISYM","either","2","","","","","","","1","0","0","0.2546402356","","0.4","0.8","0.6","0.2","","","","","0.4846254936","0.2447345556","0.2546402356","0.03149913875","","","","","","","75","K","2","","","142","main_expt"
"306","","bandit","221","529739","0.0-182.0-0.0","00392341","wem/bandit_either","A1IOJ2LGMGISYM","either","2","","","","","","","0","0","1","0.2825544685","","0.4","0.8","0.6","0.2","","","","","0.4815328815","0.26413271","0.2825544685","0.04191513266","","","","","","","75","K","2","","","143","main_expt"
"323","","bandit","222","531572","0.0-183.0-0.0","00392341","wem/bandit_either","A1IOJ2LGMGISYM","either","2","","","","","","","0","0","1","0.2731230023","","0.4","0.8","0.6","0.2","","","","","0.4854048375","0.1988203511","0.2731230023","0.05613120157","","","","","","","75","K","2","","","144","main_expt"
"34","","bandit","223","533117","0.0-184.0-0.0","00392341","wem/bandit_either","A1IOJ2LGMGISYM","either","2","","","","","","","0","0","1","","0.2943814715","0.4","0.8","0.6","0.2","0.4813029389","0.217822638","0.2943814715","0.03827589539","","","","","","","","","","","75","K","2","","","145","main_expt"
"331","","bandit","224","534955","0.0-185.0-0.0","00392341","wem/bandit_either","A1IOJ2LGMGISYM","either","2","","","","","","","0","0","1","","0.2009042904","0.4","0.8","0.6","0.2","0.4884824202","0.2009042904","0.328634005","0.02861175853","","","","","","","","","","","74","J","1","","","146","main_expt"
"371","","bandit","225","536837","0.0-186.0-0.0","00392341","wem/bandit_either","A1IOJ2LGMGISYM","either","2","","","","","","","0","0","1","0.2080446297","","0.4","0.8","0.6","0.2","","","","","0.4835291327","0.2080446297","0.3511209141","0.02140640811","","","","","","","74","J","1","","","147","main_expt"
"546","","bandit","226","538891","0.0-187.0-0.0","00392341","wem/bandit_either","A1IOJ2LGMGISYM","either","2","","","","","","","0","0","1","0.1536700415","","0.4","0.8","0.6","0.2","","","","","0.4716003481","0.1536700415","0.3874996206","0.0202041473","","","","","","","74","J","1","","","148","main_expt"
"339","","bandit","227","540740","0.0-188.0-0.0","00392341","wem/bandit_either","A1IOJ2LGMGISYM","either","2","","","","","","","0","0","1","0.1593661633","","0.4","0.8","0.6","0.2","","","","","0.4341886607","0.1593661633","0.3476646045","0.01154190459","","","","","","","74","J","1","","","149","main_expt"
"331","","bandit","228","542582","0.0-189.0-0.0","00392341","wem/bandit_either","A1IOJ2LGMGISYM","either","2","","","","","","","0","0","1","","0.144955896","0.4","0.8","0.6","0.2","0.4014438172","0.144955896","0.3323010919","0.01291237021","","","","","","","","","","","74","J","1","","","150","main_expt"
"345","","bandit","229","544436","0.0-190.0-0.0","00392341","wem/bandit_either","A1IOJ2LGMGISYM","either","2","","","","","","","0","0","1","","0.3980713407","0.4","0.8","0.6","0.2","0.3980713407","0.2123564028","0.3954477196","0.0137789916","","","","","","","","","","","72","H","0","img/none_selected.jpg","","151","main_expt"
"243","","bandit","230","546188","0.0-191.0-0.0","00392341","wem/bandit_either","A1IOJ2LGMGISYM","either","2","","","","","","","1","0","0","0.4002357887","","0.4","0.8","0.6","0.2","","","","","0.4002357887","0.2301890466","0.4186327087","0.01985271471","","","","","","","72","H","0","img/none_selected.jpg","","152","main_expt"
"324","","bandit","231","548021","0.0-192.0-0.0","00392341","wem/bandit_either","A1IOJ2LGMGISYM","either","2","","","","","","","0","0","1","","0.388677987","0.4","0.8","0.6","0.2","0.388677987","0.2295153641","0.4029566754","0.02951100453","","","","","","","","","","","72","H","0","img/none_selected.jpg","","153","main_expt"
"320","","bandit","232","549852","0.0-193.0-0.0","00392341","wem/bandit_either","A1IOJ2LGMGISYM","either","2","","","","","","","0","0","1","0.3817747688","","0.4","0.8","0.6","0.2","","","","","0.3817747688","0.2163321136","0.4037751878","0.02325572033","","","","","","","72","H","0","img/none_selected.jpg","","154","main_expt"
"811","","bandit","233","552172","0.0-194.0-0.0","00392341","wem/bandit_either","A1IOJ2LGMGISYM","either","2","","","","","","","0","0","1","0.327727533","","0.4","0.8","0.6","0.2","","","","","0.327727533","0.2257858177","0.4078727314","0.03925092562","","","","","","","72","H","0","img/none_selected.jpg","","155","main_expt"
"843","","bandit","234","554523","0.0-195.0-0.0","00392341","wem/bandit_either","A1IOJ2LGMGISYM","either","2","","","","","","","0","0","1","","0.2821504166","0.4","0.8","0.6","0.2","0.2821504166","0.2077891775","0.3941681487","0.05532081832","","","","","","","","","","","72","H","0","img/none_selected.jpg","","156","main_expt"
"316","","bandit","235","556347","0.0-196.0-0.0","00392341","wem/bandit_either","A1IOJ2LGMGISYM","either","2","","","","","","","0","0","1","0.2784527126","","0.4","0.8","0.6","0.2","","","","","0.2784527126","0.1742908387","0.3417147062","0.05983660039","","","","","","","72","H","0","img/none_selected.jpg","","157","main_expt"
"422","","bandit","236","558277","0.0-197.0-0.0","00392341","wem/bandit_either","A1IOJ2LGMGISYM","either","2","","","","","","","0","0","1","","0.2857058734","0.4","0.8","0.6","0.2","0.2857058734","0.162057643","0.2963220618","0.09347744845","","","","","","","","","","","72","H","0","img/none_selected.jpg","","158","main_expt"
"465","","bandit","237","560252","0.0-198.0-0.0","00392341","wem/bandit_either","A1IOJ2LGMGISYM","either","2","","","","","","","0","0","1","0.1805514511","","0.4","0.8","0.6","0.2","","","","","0.2349295223","0.1805514511","0.2961528309","0.09649648717","","","","","","","74","J","1","","","159","main_expt"
"348","","bandit","238","562108","0.0-199.0-0.0","00392341","wem/bandit_either","A1IOJ2LGMGISYM","either","2","","","","","","","0","0","1","0.2842772575","","0.4","0.8","0.6","0.2","","","","","0.2275717407","0.1724629995","0.2842772575","0.08382429791","","","","","","","75","K","2","","","160","main_expt"
"476","","bandit","239","564093","0.0-200.0-0.0","00392341","wem/bandit_either","A1IOJ2LGMGISYM","either","2","","","","","","","0","0","1","0.1466352983","","0.4","0.8","0.6","0.2","","","","","0.2559884592","0.1660992999","0.2747674873","0.1466352983","","","","","","","76","L","3","","","161","main_expt"
"643","","bandit","240","566244","0.0-201.0-0.0","00392341","wem/bandit_either","A1IOJ2LGMGISYM","either","2","","","","","","","0","0","1","","0.2993190406","0.4","0.8","0.6","0.2","0.2670526618","0.2281832109","0.2993190406","0.1569467617","","","","","","","","","","","75","K","2","","","162","main_expt"
"370","","bandit","241","568123","0.0-202.0-0.0","00392341","wem/bandit_either","A1IOJ2LGMGISYM","either","2","","","","","","","0","0","1","0.2144285545","","0.4","0.8","0.6","0.2","","","","","0.2618894379","0.2144285545","0.3102408377","0.1437935099","","","","","","","74","J","1","","","163","main_expt"
"116","","bandit","242","569747","0.0-203.0-0.0","00392341","wem/bandit_either","A1IOJ2LGMGISYM","either","2","","","","","","","0","0","1","","0.2977476978","0.4","0.8","0.6","0.2","0.2977476978","0.2131293933","0.2607878409","0.1503677763","","","","","","","","","","","72","H","0","img/none_selected.jpg","","164","main_expt"
"228","","bandit","243","571483","0.0-204.0-0.0","00392341","wem/bandit_either","A1IOJ2LGMGISYM","either","2","","","","","","","1","0","0","0.251698227","","0.4","0.8","0.6","0.2","","","","","0.3138636066","0.251698227","0.2470054868","0.1574825995","","","","","","","74","J","1","","","165","main_expt"
"469","","bandit","244","573460","0.0-205.0-0.0","00392341","wem/bandit_either","A1IOJ2LGMGISYM","either","2","","","","","","","0","0","1","0.2831539445","","0.4","0.8","0.6","0.2","","","","","0.3204338644","0.2831539445","0.2629624785","0.1500633275","","","","","","","74","J","1","","","166","main_expt"
"67","","bandit","245","575037","0.0-206.0-0.0","00392341","wem/bandit_either","A1IOJ2LGMGISYM","either","2","","","","","","","0","0","1","0.2496169508","","0.4","0.8","0.6","0.2","","","","","0.3600517585","0.2496169508","0.2745713682","0.1137242654","","","","","","","74","J","1","","","167","main_expt"
"306","","bandit","246","576852","0.0-207.0-0.0","00392341","wem/bandit_either","A1IOJ2LGMGISYM","either","2","","","","","","","0","0","1","0.2315540067","","0.4","0.8","0.6","0.2","","","","","0.3678373827","0.2315540067","0.2557249153","0.145192941","","","","","","","74","J","1","","","168","main_expt"
"298","","bandit","247","578659","0.0-208.0-0.0","00392341","wem/bandit_either","A1IOJ2LGMGISYM","either","2","","","","","","","0","0","1","","0.1825517174","0.4","0.8","0.6","0.2","0.3421512568","0.1825517174","0.2016321063","0.1863479632","","","","","","","","","","","74","J","1","","","169","main_expt"
"316","","bandit","248","580483","0.0-209.0-0.0","00392341","wem/bandit_either","A1IOJ2LGMGISYM","either","2","","","","","","","0","0","1","0.2535959064","","0.4","0.8","0.6","0.2","","","","","0.3917895485","0.2535959064","0.2210696627","0.142304713","","","","","","","74","J","1","","","170","main_expt"
"226","","bandit","249","582219","0.0-210.0-0.0","00392341","wem/bandit_either","A1IOJ2LGMGISYM","either","2","","","","","","","1","0","0","0.1627904758","","0.4","0.8","0.6","0.2","","","","","0.3206692194","0.3004284576","0.1627904758","0.1739768979","","","","","","","75","K","2","","","171","main_expt"
"299","","bandit","250","584027","0.0-211.0-0.0","00392341","wem/bandit_either","A1IOJ2LGMGISYM","either","2","","","","","","","0","0","1","0.1421076649","","0.4","0.8","0.6","0.2","","","","","0.3198600846","0.2716191145","0.1421076649","0.2172659048","","","","","","","75","K","2","","","172","main_expt"
"539","","bandit","251","586076","0.0-212.0-0.0","00392341","wem/bandit_either","A1IOJ2LGMGISYM","either","2","","","","","","","0","0","1","0.165050165","","0.4","0.8","0.6","0.2","","","","","0.2641483633","0.3253138029","0.165050165","0.2419731025","","","","","","","75","K","2","","","173","main_expt"
"268","","bandit","252","587852","0.0-213.0-0.0","00392341","wem/bandit_either","A1IOJ2LGMGISYM","either","2","","","","","","","0","0","1","","0.1406738207","0.4","0.8","0.6","0.2","0.2248062597","0.3419591401","0.1406738207","0.2239571331","","","","","","","","","","","75","K","2","","","174","main_expt"
"355","","bandit","253","589717","0.0-214.0-0.0","00392341","wem/bandit_either","A1IOJ2LGMGISYM","either","2","","","","","","","0","0","1","0.138310495","","0.4","0.8","0.6","0.2","","","","","0.2370379408","0.3442692367","0.138310495","0.2311410243","","","","","","","75","K","2","","","175","main_expt"
"188","","bandit","254","591412","0.0-215.0-0.0","00392341","wem/bandit_either","A1IOJ2LGMGISYM","either","2","","","","","","","0","0","1","0.2610077479","","0.4","0.8","0.6","0.2","","","","","0.2157433706","0.3397266539","0.1675243642","0.2610077479","","","","","","","76","L","3","","","176","main_expt"
"106","","bandit","255","593027","0.0-216.0-0.0","00392341","wem/bandit_either","A1IOJ2LGMGISYM","either","2","","","","","","","0","1","0","","0.2780938204","0.4","0.8","0.6","0.2","0.2014791824","0.2997078274","0.1919885971","0.2780938204","","","","","","","","","","","76","L","3","","","177","main_expt"
"267","","bandit","256","594803","0.0-217.0-0.0","00392341","wem/bandit_either","A1IOJ2LGMGISYM","either","2","","","","","","","0","0","1","","0.3151752793","0.4","0.8","0.6","0.2","0.1913564418","0.3064007527","0.2365392944","0.3151752793","","","","","","","","","","","76","L","3","","","178","main_expt"
"147","","bandit","257","596459","0.0-218.0-0.0","00392341","wem/bandit_either","A1IOJ2LGMGISYM","either","2","","","","","","","0","1","0","","0.2799621139","0.4","0.8","0.6","0.2","0.1980728016","0.3533432679","0.2509455726","0.2799621139","","","","","","","","","","","76","L","3","","","179","main_expt"
"244","","bandit","258","598212","0.0-219.0-0.0","00392341","wem/bandit_either","A1IOJ2LGMGISYM","either","2","","","","","","","0","0","1","","0.3170936092","0.4","0.8","0.6","0.2","0.1833491223","0.3652522579","0.2767223981","0.3170936092","","","","","","","","","","","76","L","3","","","180","main_expt"
"315","","bandit","259","600036","0.0-220.0-0.0","00392341","wem/bandit_either","A1IOJ2LGMGISYM","either","2","","","","","","","0","1","0","","0.28101752","0.4","0.8","0.6","0.2","0.1342686697","0.3383156657","0.314600373","0.28101752","","","","","","","","","","","76","L","3","","","181","main_expt"
"211","","bandit","260","601756","0.0-221.0-0.0","00392341","wem/bandit_either","A1IOJ2LGMGISYM","either","2","","","","","","","0","0","1","","0.3043342224","0.4","0.8","0.6","0.2","0.1636660304","0.2902116232","0.3943610609","0.3043342224","","","","","","","","","","","76","L","3","","","182","main_expt"
"210","","bandit","261","603476","0.0-222.0-0.0","00392341","wem/bandit_either","A1IOJ2LGMGISYM","either","2","","","","","","","0","1","0","","0.3192524042","0.4","0.8","0.6","0.2","0.136761637","0.3026157476","0.3586422101","0.3192524042","","","","","","","","","","","76","L","3","","","183","main_expt"
"163","","bandit","262","605146","0.0-223.0-0.0","00392341","wem/bandit_either","A1IOJ2LGMGISYM","either","2","","","","","","","0","0","1","0.3332516821","","0.4","0.8","0.6","0.2","","","","","0.1685989701","0.3360229169","0.3879999062","0.3332516821","","","","","","","76","L","3","","","184","main_expt"
"171","","bandit","263","606827","0.0-224.0-0.0","00392341","wem/bandit_either","A1IOJ2LGMGISYM","either","2","","","","","","","0","1","0","","0.3228184693","0.4","0.8","0.6","0.2","0.1663529744","0.3336456265","0.3831340227","0.3228184693","","","","","","","","","","","76","L","3","","","185","main_expt"
"180","","bandit","264","608516","0.0-225.0-0.0","00392341","wem/bandit_either","A1IOJ2LGMGISYM","either","2","","","","","","","0","1","0","","0.3111703144","0.4","0.8","0.6","0.2","0.1916836285","0.3308881938","0.3999004662","0.3111703144","","","","","","","","","","","76","L","3","","","186","main_expt"
"193","","bandit","265","610219","0.0-226.0-0.0","00392341","wem/bandit_either","A1IOJ2LGMGISYM","either","2","","","","","","","0","0","1","","0.3353611299","0.4","0.8","0.6","0.2","0.1686829448","0.325530054","0.3875363153","0.3353611299","","","","","","","","","","","76","L","3","","","187","main_expt"
"227","","bandit","266","611958","0.0-227.0-0.0","00392341","wem/bandit_either","A1IOJ2LGMGISYM","either","2","","","","","","","0","0","1","","0.3646937268","0.4","0.8","0.6","0.2","0.1461675531","0.3055482451","0.3875691392","0.3646937268","","","","","","","","","","","76","L","3","","","188","main_expt"
"353","","bandit","267","613820","0.0-228.0-0.0","00392341","wem/bandit_either","A1IOJ2LGMGISYM","either","2","","","","","","","0","0","1","0.3002345065","","0.4","0.8","0.6","0.2","","","","","0.1382971047","0.3002345065","0.4166866882","0.3891323825","","","","","","","74","J","1","","","189","main_expt"
"763","","bandit","268","616092","0.0-229.0-0.0","00392341","wem/bandit_either","A1IOJ2LGMGISYM","either","2","","","","","","","0","0","1","","0.1898135375","0.4","0.8","0.6","0.2","0.1898135375","0.2693931213","0.4124474499","0.3860741766","","","","","","","","","","","72","H","0","img/none_selected.jpg","","190","main_expt"
"297","","bandit","269","617899","0.0-230.0-0.0","00392341","wem/bandit_either","A1IOJ2LGMGISYM","either","2","","","","","","","0","0","1","","0.1264917812","0.4","0.8","0.6","0.2","0.1264917812","0.3009284261","0.3638199534","0.3864243721","","","","","","","","","","","72","H","0","img/none_selected.jpg","","191","main_expt"
"284","","bandit","270","619691","0.0-231.0-0.0","00392341","wem/bandit_either","A1IOJ2LGMGISYM","either","2","","","","","","","0","0","1","","0.1185409567","0.4","0.8","0.6","0.2","0.1185409567","0.3157917784","0.3711146034","0.400448014","","","","","","","","","","","72","H","0","img/none_selected.jpg","","192","main_expt"
"274","","bandit","271","621475","0.0-232.0-0.0","00392341","wem/bandit_either","A1IOJ2LGMGISYM","either","2","","","","","","","0","0","1","0.2999212614","","0.4","0.8","0.6","0.2","","","","","0.09837948322","0.2999212614","0.3654165885","0.3895367297","","","","","","","74","J","1","","","193","main_expt"
"44","","bandit","272","623026","0.0-233.0-0.0","00392341","wem/bandit_either","A1IOJ2LGMGISYM","either","2","","","","","","","0","0","1","0.3287494418","","0.4","0.8","0.6","0.2","","","","","0.137690802","0.3287494418","0.3537818584","0.4032313792","","","","","","","74","J","1","","","194","main_expt"
"299","","bandit","273","624836","0.0-234.0-0.0","00392341","wem/bandit_either","A1IOJ2LGMGISYM","either","2","","","","","","","0","0","1","","0.3597494918","0.4","0.8","0.6","0.2","0.1683354775","0.3031978913","0.3597494918","0.337234763","","","","","","","","","","","75","K","2","","","195","main_expt"
"115","","bandit","274","626459","0.0-235.0-0.0","00392341","wem/bandit_either","A1IOJ2LGMGISYM","either","2","","","","","","","0","0","1","0.3479121901","","0.4","0.8","0.6","0.2","","","","","0.1561951964","0.2901303692","0.3479121901","0.3950764453","","","","","","","75","K","2","","","196","main_expt"
"250","","bandit","275","628219","0.0-236.0-0.0","00392341","wem/bandit_either","A1IOJ2LGMGISYM","either","2","","","","","","","0","0","1","","0.3596292454","0.4","0.8","0.6","0.2","0.1329868482","0.2444781728","0.3596292454","0.4193743727","","","","","","","","","","","75","K","2","","","197","main_expt"
"99","","bandit","276","629826","0.0-237.0-0.0","00392341","wem/bandit_either","A1IOJ2LGMGISYM","either","2","","","","","","","0","1","0","","0.4375347816","0.4","0.8","0.6","0.2","0.1730826789","0.2140047665","0.3555371828","0.4375347816","","","","","","","","","","","76","L","3","","","198","main_expt"
"124","","bandit","277","631460","0.0-238.0-0.0","00392341","wem/bandit_either","A1IOJ2LGMGISYM","either","2","","","","","","","0","0","1","","0.4315030007","0.4","0.8","0.6","0.2","0.1385649096","0.2077842613","0.4016486285","0.4315030007","","","","","","","","","","","76","L","3","","","199","main_expt"
"115","","bandit","278","633084","0.0-239.0-0.0","00392341","wem/bandit_either","A1IOJ2LGMGISYM","either","2","","","","","","","0","1","0","","0.4340108373","0.4","0.8","0.6","0.2","0.1941139053","0.180488049","0.3871107612","0.4340108373","","","","","","","","","","","76","L","3","","","200","main_expt"
"265","","bandit","279","634859","0.0-240.0-0.0","00392341","wem/bandit_either","A1IOJ2LGMGISYM","either","2","","","","","","","1","0","0","0.3856539452","","0.4","0.8","0.6","0.2","","","","","0.1825013029","0.2084987087","0.3856539452","0.441078118","","","","","","","75","K","2","","","201","main_expt"
"532","","bandit","280","636900","0.0-241.0-0.0","00392341","wem/bandit_either","A1IOJ2LGMGISYM","either","2","","","","","","","1","0","0","0.358588673","","0.4","0.8","0.6","0.2","","","","","0.162440572","0.1869669721","0.358588673","0.4143682719","","","","","","","75","K","2","","","202","main_expt"
"657","","bandit","281","639068","0.0-242.0-0.0","00392341","wem/bandit_either","A1IOJ2LGMGISYM","either","2","","","","","","","1","0","0","0.3460881607","","0.4","0.8","0.6","0.2","","","","","0.1914238456","0.1383076553","0.3460881607","0.4280720422","","","","","","","75","K","2","","","203","main_expt"
"91","","bandit","282","640669","0.0-243.0-0.0","00392341","wem/bandit_either","A1IOJ2LGMGISYM","either","2","","","","","","","1","0","0","0.3091432968","","0.4","0.8","0.6","0.2","","","","","0.1849793247","0.1656187697","0.3091432968","0.4113524858","","","","","","","75","K","2","","","204","main_expt"
"344","","bandit","283","642524","0.0-244.0-0.0","00392341","wem/bandit_either","A1IOJ2LGMGISYM","either","2","","","","","","","0","0","1","0.3016396897","","0.4","0.8","0.6","0.2","","","","","0.1722293799","0.1699285253","0.3016396897","0.4151465815","","","","","","","75","K","2","","","205","main_expt"
"123","","bandit","284","644155","0.0-245.0-0.0","00392341","wem/bandit_either","A1IOJ2LGMGISYM","either","2","","","","","","","0","0","1","0.3300702997","","0.4","0.8","0.6","0.2","","","","","0.1625694713","0.161732949","0.3300702997","0.4002359997","","","","","","","75","K","2","","","206","main_expt"
"1210","","bandit","285","646875","0.0-246.0-0.0","00392341","wem/bandit_either","A1IOJ2LGMGISYM","either","2","","","","","","","0","0","1","0.1699017951","","0.4","0.8","0.6","0.2","","","","","0.1079769143","0.1699017951","0.2648848683","0.3692387261","","","","","","","74","J","1","","","207","main_expt"
"219","","bandit","286","648605","0.0-247.0-0.0","00392341","wem/bandit_either","A1IOJ2LGMGISYM","either","2","","","","","","","0","0","1","0.1592107695","","0.4","0.8","0.6","0.2","","","","","0.1380178959","0.1592107695","0.2502792914","0.3283471685","","","","","","","74","J","1","","","208","main_expt"
"992","","bandit","287","651106","0.0-248.0-0.0","00392341","wem/bandit_either","A1IOJ2LGMGISYM","either","2","","","","","","","0","0","1","","0.1538506734","0.4","0.8","0.6","0.2","0.1538506734","0.1659907122","0.2770073026","0.2924758898","","","","","","","","","","","72","H","0","img/none_selected.jpg","","209","main_expt"
"412","","bandit","288","653027","0.0-249.0-0.0","00392341","wem/bandit_either","A1IOJ2LGMGISYM","either","2","","","","","","","0","0","1","","0.1406222791","0.4","0.8","0.6","0.2","0.1406222791","0.229525517","0.3451435735","0.2279470939","","","","","","","","","","","72","H","0","img/none_selected.jpg","","210","main_expt"
"250","","bandit","289","654788","0.0-250.0-0.0","00392341","wem/bandit_either","A1IOJ2LGMGISYM","either","2","","","","","","","0","0","1","","0.08987887408","0.4","0.8","0.6","0.2","0.08987887408","0.2434605193","0.3514478275","0.2131844406","","","","","","","","","","","72","H","0","img/none_selected.jpg","","211","main_expt"
"74","","bandit","290","656371","0.0-251.0-0.0","00392341","wem/bandit_either","A1IOJ2LGMGISYM","either","2","","","","","","","0","0","1","","0.1601793481","0.4","0.8","0.6","0.2","0.1277875359","0.1633214123","0.3579324364","0.1601793481","","","","","","","","","","","76","L","3","","","212","main_expt"
"604","","bandit","291","658484","0.0-252.0-0.0","00392341","wem/bandit_either","A1IOJ2LGMGISYM","either","2","","","","","","","0","0","1","","0.1354109392","0.4","0.8","0.6","0.2","0.134271297","0.1014835246","0.3231243524","0.1354109392","","","","","","","","","","","76","L","3","","","213","main_expt"
"281","","bandit","292","660275","0.0-253.0-0.0","00392341","wem/bandit_either","A1IOJ2LGMGISYM","either","2","","","","","","","0","1","0","","0.1142105534","0.4","0.8","0.6","0.2","0.1385204111","0.09587264096","0.2798540136","0.1142105534","","","","","","","","","","","76","L","3","","","214","main_expt"
"499","","bandit","293","662285","0.0-254.0-0.0","00392341","wem/bandit_either","A1IOJ2LGMGISYM","either","2","","","","","","","0","0","1","0.1031311673","","0.4","0.8","0.6","0.2","","","","","0.1089132689","0.08342689115","0.2469391402","0.1031311673","","","","","","","76","L","3","","","215","main_expt"
"314","","bandit","294","664107","0.0-255.0-0.0","00392341","wem/bandit_either","A1IOJ2LGMGISYM","either","2","","","","","","","0","0","1","","0.1031732366","0.4","0.8","0.6","0.2","0.1299508563","0.05361264496","0.3211823944","0.1031732366","","","","","","","","","","","76","L","3","","","216","main_expt"
"579","","bandit","295","666196","0.0-256.0-0.0","00392341","wem/bandit_either","A1IOJ2LGMGISYM","either","2","","","","","","","0","1","0","","0.3545519007","0.4","0.8","0.6","0.2","0.131109262","0.09912420903","0.3545519007","0.1188097379","","","","","","","","","","","75","K","2","","","217","main_expt"
"282","","bandit","296","667990","0.0-257.0-0.0","00392341","wem/bandit_either","A1IOJ2LGMGISYM","either","2","","","","","","","1","0","0","0.3781539282","","0.4","0.8","0.6","0.2","","","","","0.1039495344","0.1021137889","0.3781539282","0.1096623481","","","","","","","75","K","2","","","218","main_expt"
"10","","bandit","297","669509","0.0-258.0-0.0","00392341","wem/bandit_either","A1IOJ2LGMGISYM","either","2","","","","","","","1","0","0","0.3674409598","","0.4","0.8","0.6","0.2","","","","","0.09488552944","0.1025207236","0.3674409598","0.08679630722","","","","","","","75","K","2","","","219","main_expt"
"2673","","bandit","298","673692","0.0-259.0-0.0","00392341","wem/bandit_either","A1IOJ2LGMGISYM","either","2","","","","","","","0","0","1","0.315237632","","0.4","0.8","0.6","0.2","","","","","0.1311925698","0.1049734862","0.315237632","0.1482089448","","","","","","","75","K","2","","","220","main_expt"
"336","","bandit","299","675540","0.0-260.0-0.0","00392341","wem/bandit_either","A1IOJ2LGMGISYM","either","2","","","","","","","0","0","1","0.3572442142","","0.4","0.8","0.6","0.2","","","","","0.08224132258","0.08244295151","0.3572442142","0.217172314","","","","","","","75","K","2","","","221","main_expt"
"379","","bandit","300","677428","0.0-261.0-0.0","00392341","wem/bandit_either","A1IOJ2LGMGISYM","either","2","","","","","","","1","0","0","0.2796125419","","0.4","0.8","0.6","0.2","","","","","0.06870998364","0.09815111748","0.2796125419","0.2227738938","","","","","","","75","K","2","","","222","main_expt"
"426","","bandit","301","679364","0.0-262.0-0.0","00392341","wem/bandit_either","A1IOJ2LGMGISYM","either","2","","","","","","","0","0","1","0.2265565182","","0.4","0.8","0.6","0.2","","","","","0.111762886","0.09925351505","0.2265565182","0.2768694491","","","","","","","75","K","2","","","223","main_expt"
"59","","bandit","302","680932","0.0-263.0-0.0","00392341","wem/bandit_either","A1IOJ2LGMGISYM","either","2","","","","","","","0","0","1","0.1727872262","","0.4","0.8","0.6","0.2","","","","","0.09652303785","0.07842644678","0.1727872262","0.2895694018","","","","","","","75","K","2","","","224","main_expt"
"152","","bandit","303","682596","0.0-264.0-0.0","00392341","wem/bandit_either","A1IOJ2LGMGISYM","either","2","","","","","","","0","0","1","0.1580797834","","0.4","0.8","0.6","0.2","","","","","0.09424892582","0.05284632075","0.1580797834","0.3515154126","","","","","","","75","K","2","","","225","main_expt"
"81","","bandit","304","684188","0.0-265.0-0.0","00392341","wem/bandit_either","A1IOJ2LGMGISYM","either","2","","","","","","","0","0","1","0.1206031336","","0.4","0.8","0.6","0.2","","","","","0.1094697254","0.06788221328","0.1206031336","0.3960872924","","","","","","","75","K","2","","","226","main_expt"
"554","","bandit","305","686253","0.0-266.0-0.0","00392341","wem/bandit_either","A1IOJ2LGMGISYM","either","2","","","","","","","0","0","1","0.04226868229","","0.4","0.8","0.6","0.2","","","","","0.1055794081","0.04226868229","0.1218099769","0.3301105445","","","","","","","74","J","1","","","227","main_expt"
"471","","bandit","306","688236","0.0-267.0-0.0","00392341","wem/bandit_either","A1IOJ2LGMGISYM","either","2","","","","","","","0","0","1","0.06174471126","","0.4","0.8","0.6","0.2","","","","","0.1210232629","0.06174471126","0.08458740206","0.3679650562","","","","","","","74","J","1","","","228","main_expt"
"434","","bandit","307","690179","0.0-268.0-0.0","00392341","wem/bandit_either","A1IOJ2LGMGISYM","either","2","","","","","","","0","0","1","","0.1249199002","0.4","0.8","0.6","0.2","0.1249199002","0.06122033102","0.06311990622","0.3413725311","","","","","","","","","","","72","H","0","img/none_selected.jpg","","229","main_expt"
"522","","bandit","308","692212","0.0-269.0-0.0","00392341","wem/bandit_either","A1IOJ2LGMGISYM","either","2","","","","","","","0","0","1","","0.1423167866","0.4","0.8","0.6","0.2","0.1423167866","0.09369367087","0.04674316758","0.3652503211","","","","","","","","","","","72","H","0","img/none_selected.jpg","","230","main_expt"
"305","","bandit","309","694026","0.0-270.0-0.0","00392341","wem/bandit_either","A1IOJ2LGMGISYM","either","2","","","","","","","0","0","1","0.1378364932","","0.4","0.8","0.6","0.2","","","","","0.1441411413","0.1378364932","0.06697327866","0.3774172636","","","","","","","74","J","1","","","231","main_expt"
"59","","bandit","310","695595","0.0-271.0-0.0","00392341","wem/bandit_either","A1IOJ2LGMGISYM","either","2","","","","","","","0","0","1","0.1138343256","","0.4","0.8","0.6","0.2","","","","","0.1132866493","0.1138343256","0.08617656909","0.3507397895","","","","","","","74","J","1","","","232","main_expt"
"514","","bandit","311","697619","0.0-272.0-0.0","00392341","wem/bandit_either","A1IOJ2LGMGISYM","either","2","","","","","","","0","0","1","","0.07587191469","0.4","0.8","0.6","0.2","0.07587191469","0.1602674987","0.08388286328","0.3228668676","","","","","","","","","","","72","H","0","img/none_selected.jpg","","233","main_expt"
"90","","bandit","312","699220","0.0-273.0-0.0","00392341","wem/bandit_either","A1IOJ2LGMGISYM","either","2","","","","","","","0","0","1","0.08303297831","","0.4","0.8","0.6","0.2","","","","","0.08330376307","0.1399599793","0.08303297831","0.3219168209","","","","","","","75","K","2","","","234","main_expt"
"336","","bandit","313","701068","0.0-274.0-0.0","00392341","wem/bandit_either","A1IOJ2LGMGISYM","either","2","","","","","","","0","1","0","","0.2907257894","0.4","0.8","0.6","0.2","0.07960395758","0.1577883936","0.08228619446","0.2907257894","","","","","","","","","","","76","L","3","","","235","main_expt"
"328","","bandit","314","702907","0.0-275.0-0.0","00392341","wem/bandit_either","A1IOJ2LGMGISYM","either","2","","","","","","","0","0","1","0.2879125653","","0.4","0.8","0.6","0.2","","","","","0.06703487678","0.1206463377","0.07856112713","0.2879125653","","","","","","","76","L","3","","","236","main_expt"
"227","","bandit","315","704644","0.0-276.0-0.0","00392341","wem/bandit_either","A1IOJ2LGMGISYM","either","2","","","","","","","0","0","1","","0.3055933028","0.4","0.8","0.6","0.2","0.07970276757","0.1224948263","0.09394336493","0.3055933028","","","","","","","","","","","76","L","3","","","237","main_expt"
"762","","bandit","316","706917","0.0-277.0-0.0","00392341","wem/bandit_either","A1IOJ2LGMGISYM","either","2","","","","","","","0","0","1","","0.3197806133","0.4","0.8","0.6","0.2","0.05589422377","0.1163601633","0.1044036833","0.3197806133","","","","","","","","","","","76","L","3","","","238","main_expt"
"159","","bandit","317","708588","0.0-278.0-0.0","00392341","wem/bandit_either","A1IOJ2LGMGISYM","either","2","","","","","","","0","1","0","","0.2699970134","0.4","0.8","0.6","0.2","0.07304711058","0.09302868556","0.1010835707","0.2699970134","","","","","","","","","","","76","L","3","","","239","main_expt"
"208","","bandit","318","710307","0.0-279.0-0.0","00392341","wem/bandit_either","A1IOJ2LGMGISYM","either","2","","","","","","","0","0","1","","0.2594796501","0.4","0.8","0.6","0.2","0.05193691484","0.1142909623","0.1196592177","0.2594796501","","","","","","","","","","","76","L","3","","","240","main_expt"
"409","","bandit","319","712227","0.0-280.0-0.0","00392341","wem/bandit_either","A1IOJ2LGMGISYM","either","2","","","","","","","0","0","1","","0.252227353","0.4","0.8","0.6","0.2","0.06844812817","0.1694552561","0.127320561","0.252227353","","","","","","","","","","","76","L","3","","","241","main_expt"
"640","","bandit","320","714379","0.0-281.0-0.0","00392341","wem/bandit_either","A1IOJ2LGMGISYM","either","2","","","","","","","0","0","1","","0.301231011","0.4","0.8","0.6","0.2","0.07869989264","0.1828807391","0.10641745","0.301231011","","","","","","","","","","","76","L","3","","","242","main_expt"
"897","","bandit","321","716787","0.0-282.0-0.0","00392341","wem/bandit_either","A1IOJ2LGMGISYM","either","2","","","","","","","0","0","1","","0.131785075","0.4","0.8","0.6","0.2","0.06084245892","0.1236361748","0.131785075","0.2903867436","","","","","","","","","","","75","K","2","","","243","main_expt"
"386","","bandit","322","718684","0.0-283.0-0.0","00392341","wem/bandit_either","A1IOJ2LGMGISYM","either","2","","","","","","","1","0","0","0.1150513838","","0.4","0.8","0.6","0.2","","","","","0.04982625113","0.1131162958","0.1150513838","0.2659167858","","","","","","","75","K","2","","","244","main_expt"
"345","","bandit","323","720539","0.0-284.0-0.0","00392341","wem/bandit_either","A1IOJ2LGMGISYM","either","2","","","","","","","0","0","1","0.1651966394","","0.4","0.8","0.6","0.2","","","","","0.04708965441","0.08611006768","0.1651966394","0.254087564","","","","","","","75","K","2","","","245","main_expt"
"130","","bandit","324","722181","0.0-285.0-0.0","00392341","wem/bandit_either","A1IOJ2LGMGISYM","either","2","","","","","","","0","0","1","0.1555796254","","0.4","0.8","0.6","0.2","","","","","0.0280961865","0.1123216353","0.1555796254","0.2551799517","","","","","","","75","K","2","","","246","main_expt"
"25","","bandit","325","723718","0.0-286.0-0.0","00392341","wem/bandit_either","A1IOJ2LGMGISYM","either","2","","","","","","","0","0","1","0.1703980626","","0.4","0.8","0.6","0.2","","","","","0.04499456282","0.09475638668","0.1703980626","0.2629335529","","","","","","","75","K","2","","","247","main_expt"
"1095","","bandit","326","726325","0.0-287.0-0.0","00392341","wem/bandit_either","A1IOJ2LGMGISYM","either","2","","","","","","","0","0","1","0.08309477664","","0.4","0.8","0.6","0.2","","","","","0.03910304398","0.08309477664","0.1502680902","0.2393496224","","","","","","","74","J","1","","","248","main_expt"
"90","","bandit","327","727925","0.0-288.0-0.0","00392341","wem/bandit_either","A1IOJ2LGMGISYM","either","2","","","","","","","0","0","1","0.09118761135","","0.4","0.8","0.6","0.2","","","","","0.02658952892","0.09118761135","0.1515252412","0.2612635012","","","","","","","74","J","1","","","249","main_expt"
"681","","bandit","328","730115","0.0-289.0-0.0","00392341","wem/bandit_either","A1IOJ2LGMGISYM","either","2","","","","","","","0","0","1","0.1173751119","","0.4","0.8","0.6","0.2","","","","","0.02715120894","0.1173751119","0.164479444","0.2729339083","","","","","","","74","J","1","","","250","main_expt"
"384","","bandit","329","732010","0.0-290.0-0.0","00392341","wem/bandit_either","A1IOJ2LGMGISYM","either","2","","","","","","","0","0","1","0.10167128","","0.4","0.8","0.6","0.2","","","","","0.02468122838","0.10167128","0.1036013708","0.2394547858","","","","","","","74","J","1","","","251","main_expt"
"130","","bandit","330","733651","0.0-291.0-0.0","00392341","wem/bandit_either","A1IOJ2LGMGISYM","either","2","","","","","","","0","0","1","0.1297907712","","0.4","0.8","0.6","0.2","","","","","0.01934001153","0.1297907712","0.1206404305","0.1971678968","","","","","","","74","J","1","","","252","main_expt"
"290","","bandit","331","735453","0.0-292.0-0.0","00392341","wem/bandit_either","A1IOJ2LGMGISYM","either","2","","","","","","","0","0","1","","0.01552303999","0.4","0.8","0.6","0.2","0.01552303999","0.08555329314","0.144481093","0.2194815642","","","","","","","","","","","72","H","0","img/none_selected.jpg","","253","main_expt"
"536","","bandit","332","737500","0.0-293.0-0.0","00392341","wem/bandit_either","A1IOJ2LGMGISYM","either","2","","","","","","","0","0","1","","0.02294208798","0.4","0.8","0.6","0.2","0.02294208798","0.05661737176","0.1495858552","0.2365987297","","","","","","","","","","","72","H","0","img/none_selected.jpg","","254","main_expt"
