"rt","responses","trial_type","trial_index","time_elapsed","internal_node_id","subjID","study","MID","cond","drift","key_press","expt_phase","target","like","value","connected","gems","bombs","no_reward","GemPrChosen","BombPrChosen","GainOverPainPr_0","GainOverPainPr_1","GainOverPainPr_2","GainOverPainPr_3","LosePr_0","LosePr_1","LosePr_2","LosePr_3","WinPr_0","WinPr_1","WinPr_2","WinPr_3","Q0","Q1","Q2","gender","age","ethnicity","respCharCode","respKey","respChoiceNum","respChoice","practice","trial_counter","trial_label"
"4809","{""Q0"":""A3TQD8CNO16IZK""}","survey-text","0","4818","0.0-0.0","01591765","wem/bandit_either","A3TQD8CNO16IZK","either","5","","","","","","","","","","","","","","","","","","","","","","","","","","","","","","","","","","","",""
"6634","","text","1","12460","0.0-1.0","01591765","wem/bandit_either","A3TQD8CNO16IZK","either","5","32","","","","","","","","","","","","","","","","","","","","","","","","","","","","","","","","","","",""
"7435","","text","2","19898","0.0-2.0","01591765","wem/bandit_either","A3TQD8CNO16IZK","either","5","32","","","","","","","","","","","","","","","","","","","","","","","","","","","","","","","","","","",""
"19809","","text","3","39711","0.0-3.0","01591765","wem/bandit_either","A3TQD8CNO16IZK","either","5","32","","","","","","","","","","","","","","","","","","","","","","","","","","","","","","","","","","",""
"18312","","text","4","58025","0.0-4.0","01591765","wem/bandit_either","A3TQD8CNO16IZK","either","5","32","","","","","","","","","","","","","","","","","","","","","","","","","","","","","","","","","","",""
"18425","","text","5","76452","0.0-5.0","01591765","wem/bandit_either","A3TQD8CNO16IZK","either","5","32","","","","","","","","","","","","","","","","","","","","","","","","","","","","","","","","","","",""
"7575","","text","6","84029","0.0-6.0","01591765","wem/bandit_either","A3TQD8CNO16IZK","either","5","32","","","","","","","","","","","","","","","","","","","","","","","","","","","","","","","","","","",""
"2974","","text","7","87005","0.0-7.0","01591765","wem/bandit_either","A3TQD8CNO16IZK","either","5","32","","","","","","","","","","","","","","","","","","","","","","","","","","","","","","","","","","",""
"7425","","identification","8","94467","0.0-8.0-0.0","01591765","wem/bandit_either","A3TQD8CNO16IZK","either","5","","identification_pre","the village of Zur","","","","","","","","","","","","","","","","","","","","","","","","","","","","","","","","",""
"6849","","identification","9","102342","0.0-8.0-1.0","01591765","wem/bandit_either","A3TQD8CNO16IZK","either","5","","identification_pre","the village of Nyx","","","","","","","","","","","","","","","","","","","","","","","","","","","","","","","","",""
"9814","","text","10","113160","0.0-9.0","01591765","wem/bandit_either","A3TQD8CNO16IZK","either","5","32","","","","","","","","","","","","","","","","","","","","","","","","","","","","","","","","","","",""
"2165","","text","11","115329","0.0-10.0","01591765","wem/bandit_either","A3TQD8CNO16IZK","either","5","32","","","","","","","","","","","","","","","","","","","","","","","","","","","","","","","","","","",""
"1292","","text","12","116623","0.0-11.0","01591765","wem/bandit_either","A3TQD8CNO16IZK","either","5","32","","","","","","","","","","","","","","","","","","","","","","","","","","","","","","","","","","",""
"4363","","text","13","120991","0.0-12.0","01591765","wem/bandit_either","A3TQD8CNO16IZK","either","5","32","","","","","","","","","","","","","","","","","","","","","","","","","","","","","","","","","","",""
"1811","","bandit","14","124317","0.0-13.0-0.0","01591765","wem/bandit_either","A3TQD8CNO16IZK","either","5","","","","","","","0","0","1","0","0","","","","","0","","","","0","","","","","","","","","","74","J","0","img/none_selected_demo.jpg","true","0",""
"1241","","bandit","15","127069","0.0-14.0-0.0","01591765","wem/bandit_either","A3TQD8CNO16IZK","either","5","","","","","","","0","0","1","0","0","","","","","0","","","","0","","","","","","","","","","75","K","0","img/none_selected_demo.jpg","true","0",""
"7425","","text","16","134499","0.0-15.0","01591765","wem/bandit_either","A3TQD8CNO16IZK","either","5","32","","","","","","","","","","","","","","","","","","","","","","","","","","","","","","","","","","",""
"9659","","text","17","144160","0.0-16.0","01591765","wem/bandit_either","A3TQD8CNO16IZK","either","5","32","","","","","","","","","","","","","","","","","","","","","","","","","","","","","","","","","","",""
"9062","","text","18","153225","0.0-17.0","01591765","wem/bandit_either","A3TQD8CNO16IZK","either","5","32","","","","","","","","","","","","","","","","","","","","","","","","","","","","","","","","","","",""
"4506","","text","19","157733","0.0-18.0","01591765","wem/bandit_either","A3TQD8CNO16IZK","either","5","32","","","","","","","","","","","","","","","","","","","","","","","","","","","","","","","","","","",""
"2023","","bandit","20","161267","0.0-19.0-0.0","01591765","wem/bandit_either","A3TQD8CNO16IZK","either","5","","","","","","","1","0","0","0.8","","0.5","0.5","","","","","","","0.8","0.2","","","","","","","","","74","J","0","img/none_selected_demo.jpg","true","0","80_20_practice"
"801","","bandit","21","163582","0.0-19.0-1.0","01591765","wem/bandit_either","A3TQD8CNO16IZK","either","5","","","","","","","1","0","0","0.8","","0.5","0.5","","","","","","","0.8","0.2","","","","","","","","","74","J","0","img/none_selected_demo.jpg","true","0","80_20_practice"
"931","","bandit","22","166025","0.0-19.0-2.0","01591765","wem/bandit_either","A3TQD8CNO16IZK","either","5","","","","","","","0","1","0","","0.8","0.5","0.5","","","0.8","0.2","","","","","","","","","","","","","74","J","0","img/none_selected_demo.jpg","true","0","80_20_practice"
"577","","bandit","23","168113","0.0-19.0-3.0","01591765","wem/bandit_either","A3TQD8CNO16IZK","either","5","","","","","","","0","1","0","","0.8","0.5","0.5","","","0.8","0.2","","","","","","","","","","","","","74","J","0","img/none_selected_demo.jpg","true","0","80_20_practice"
"707","","bandit","24","170328","0.0-19.0-4.0","01591765","wem/bandit_either","A3TQD8CNO16IZK","either","5","","","","","","","0","1","0","","0.8","0.5","0.5","","","0.8","0.2","","","","","","","","","","","","","74","J","0","img/none_selected_demo.jpg","true","0","80_20_practice"
"871","","bandit","25","172710","0.0-19.0-5.0","01591765","wem/bandit_either","A3TQD8CNO16IZK","either","5","","","","","","","0","0","1","","0.2","0.5","0.5","","","0.8","0.2","","","","","","","","","","","","","75","K","1","","true","0","80_20_practice"
"332","","bandit","26","174553","0.0-19.0-6.0","01591765","wem/bandit_either","A3TQD8CNO16IZK","either","5","","","","","","","0","0","1","0.2","","0.5","0.5","","","","","","","0.8","0.2","","","","","","","","","75","K","1","","true","0","80_20_practice"
"357","","bandit","27","176418","0.0-19.0-7.0","01591765","wem/bandit_either","A3TQD8CNO16IZK","either","5","","","","","","","0","0","1","","0.2","0.5","0.5","","","0.8","0.2","","","","","","","","","","","","","75","K","1","","true","0","80_20_practice"
"3154","","bandit","28","181086","0.0-19.0-8.0","01591765","wem/bandit_either","A3TQD8CNO16IZK","either","5","","","","","","","0","0","1","0.2","","0.5","0.5","","","","","","","0.8","0.2","","","","","","","","","75","K","1","","true","0","80_20_practice"
"401","","bandit","29","183001","0.0-19.0-9.0","01591765","wem/bandit_either","A3TQD8CNO16IZK","either","5","","","","","","","1","0","0","0.8","","0.5","0.5","","","","","","","0.8","0.2","","","","","","","","","74","J","0","img/none_selected_demo.jpg","true","0","80_20_practice"
"695","","bandit","30","185207","0.0-19.0-10.0","01591765","wem/bandit_either","A3TQD8CNO16IZK","either","5","","","","","","","1","0","0","0.8","","0.5","0.5","","","","","","","0.8","0.2","","","","","","","","","74","J","0","img/none_selected_demo.jpg","true","0","80_20_practice"
"506","","bandit","31","187227","0.0-19.0-11.0","01591765","wem/bandit_either","A3TQD8CNO16IZK","either","5","","","","","","","0","0","1","0.8","","0.5","0.5","","","","","","","0.8","0.2","","","","","","","","","74","J","0","img/none_selected_demo.jpg","true","0","80_20_practice"
"391","","bandit","32","189132","0.0-19.0-12.0","01591765","wem/bandit_either","A3TQD8CNO16IZK","either","5","","","","","","","0","1","0","","0.8","0.5","0.5","","","0.8","0.2","","","","","","","","","","","","","74","J","0","img/none_selected_demo.jpg","true","0","80_20_practice"
"2785","","bandit","33","193433","0.0-19.0-13.0","01591765","wem/bandit_either","A3TQD8CNO16IZK","either","5","","","","","","","1","0","0","0.2","","0.5","0.5","","","","","","","0.8","0.2","","","","","","","","","75","K","1","","true","0","80_20_practice"
"304","","bandit","34","195251","0.0-19.0-14.0","01591765","wem/bandit_either","A3TQD8CNO16IZK","either","5","","","","","","","0","0","1","","0.2","0.5","0.5","","","0.8","0.2","","","","","","","","","","","","","75","K","1","","true","0","80_20_practice"
"298","","bandit","35","197062","0.0-19.0-15.0","01591765","wem/bandit_either","A3TQD8CNO16IZK","either","5","","","","","","","0","0","1","0.2","","0.5","0.5","","","","","","","0.8","0.2","","","","","","","","","75","K","1","","true","0","80_20_practice"
"297","","bandit","36","198870","0.0-19.0-16.0","01591765","wem/bandit_either","A3TQD8CNO16IZK","either","5","","","","","","","0","0","1","0.2","","0.5","0.5","","","","","","","0.8","0.2","","","","","","","","","75","K","1","","true","0","80_20_practice"
"275","","bandit","37","200657","0.0-19.0-17.0","01591765","wem/bandit_either","A3TQD8CNO16IZK","either","5","","","","","","","0","0","1","","0.2","0.5","0.5","","","0.8","0.2","","","","","","","","","","","","","75","K","1","","true","0","80_20_practice"
"472","","bandit","38","202642","0.0-19.0-18.0","01591765","wem/bandit_either","A3TQD8CNO16IZK","either","5","","","","","","","0","0","1","","0.2","0.5","0.5","","","0.8","0.2","","","","","","","","","","","","","75","K","1","","true","0","80_20_practice"
"364","","bandit","39","204519","0.0-19.0-19.0","01591765","wem/bandit_either","A3TQD8CNO16IZK","either","5","","","","","","","1","0","0","0.8","","0.5","0.5","","","","","","","0.8","0.2","","","","","","","","","74","J","0","img/none_selected_demo.jpg","true","0","80_20_practice"
"2780","","text","40","207303","0.0-20.0","01591765","wem/bandit_either","A3TQD8CNO16IZK","either","5","32","","","","","","","","","","","","","","","","","","","","","","","","","","","","","","","","","","",""
"1291","","bandit","41","210105","0.0-21.0-0.0","01591765","wem/bandit_either","A3TQD8CNO16IZK","either","5","","","","","","","1","0","0","1","0","","","","","0","1","","","1","0","","","","","","","","","74","J","0","img/none_selected_demo.jpg","true","0",""
"4651","","text","42","214765","0.0-22.0","01591765","wem/bandit_either","A3TQD8CNO16IZK","either","5","32","","","","","","","","","","","","","","","","","","","","","","","","","","","","","","","","","","",""
"2786","","text","43","217554","0.0-23.0","01591765","wem/bandit_either","A3TQD8CNO16IZK","either","5","32","","","","","","","","","","","","","","","","","","","","","","","","","","","","","","","","","","",""
"2146","","text","44","219706","0.0-24.0","01591765","wem/bandit_either","A3TQD8CNO16IZK","either","5","32","","","","","","","","","","","","","","","","","","","","","","","","","","","","","","","","","","",""
"2586","","text","45","222295","0.0-25.0","01591765","wem/bandit_either","A3TQD8CNO16IZK","either","5","32","","","","","","","","","","","","","","","","","","","","","","","","","","","","","","","","","","",""
"9312","","text","46","231611","0.0-26.0","01591765","wem/bandit_either","A3TQD8CNO16IZK","either","5","32","","","","","","","","","","","","","","","","","","","","","","","","","","","","","","","","","","",""
"2757","","text","47","234373","0.0-27.0","01591765","wem/bandit_either","A3TQD8CNO16IZK","either","5","32","","","","","","","","","","","","","","","","","","","","","","","","","","","","","","","","","","",""
"3262","","text","48","237638","0.0-28.0","01591765","wem/bandit_either","A3TQD8CNO16IZK","either","5","32","","","","","","","","","","","","","","","","","","","","","","","","","","","","","","","","","","",""
"3246","","text","49","240887","0.0-29.0","01591765","wem/bandit_either","A3TQD8CNO16IZK","either","5","32","","","","","","","","","","","","","","","","","","","","","","","","","","","","","","","","","","",""
"4616","","text","50","245507","0.0-30.0","01591765","wem/bandit_either","A3TQD8CNO16IZK","either","5","32","","","","","","","","","","","","","","","","","","","","","","","","","","","","","","","","","","",""
"3725","","text","51","249236","0.0-31.0","01591765","wem/bandit_either","A3TQD8CNO16IZK","either","5","32","","","","","","","","","","","","","","","","","","","","","","","","","","","","","","","","","","",""
"7493","","text","52","256734","0.0-32.0","01591765","wem/bandit_either","A3TQD8CNO16IZK","either","5","32","","","","","","","","","","","","","","","","","","","","","","","","","","","","","","","","","","",""
"1635","","bandit","53","259882","0.0-33.0-0.0","01591765","wem/bandit_either","A3TQD8CNO16IZK","either","5","","","","","","","0","1","0","","0.8","0.5","0.5","0.5","0.5","0.8","0.2","0.6","0.2","","","","","","","","","","","72","H","0","img/none_selected.jpg","true","0","full_practice"
"752","","bandit","54","262149","0.0-33.0-1.0","01591765","wem/bandit_either","A3TQD8CNO16IZK","either","5","","","","","","","0","0","1","","0.2","0.5","0.5","0.5","0.5","0.8","0.2","0.6","0.2","","","","","","","","","","","74","J","1","","true","0","full_practice"
"374","","bandit","55","264035","0.0-33.0-2.0","01591765","wem/bandit_either","A3TQD8CNO16IZK","either","5","","","","","","","1","0","0","0.8","","0.5","0.5","0.5","0.5","","","","","0.8","0.2","0.6","0.2","","","","","","","72","H","0","img/none_selected.jpg","true","0","full_practice"
"378","","bandit","56","265927","0.0-33.0-3.0","01591765","wem/bandit_either","A3TQD8CNO16IZK","either","5","","","","","","","0","1","0","","0.8","0.5","0.5","0.5","0.5","0.8","0.2","0.6","0.2","","","","","","","","","","","72","H","0","img/none_selected.jpg","true","0","full_practice"
"356","","bandit","57","267797","0.0-33.0-4.0","01591765","wem/bandit_either","A3TQD8CNO16IZK","either","5","","","","","","","1","0","0","0.8","","0.5","0.5","0.5","0.5","","","","","0.8","0.2","0.6","0.2","","","","","","","72","H","0","img/none_selected.jpg","true","0","full_practice"
"515","","bandit","58","269825","0.0-33.0-5.0","01591765","wem/bandit_either","A3TQD8CNO16IZK","either","5","","","","","","","1","0","0","0.6","","0.5","0.5","0.5","0.5","","","","","0.8","0.2","0.6","0.2","","","","","","","75","K","2","","true","0","full_practice"
"377","","bandit","59","271714","0.0-33.0-6.0","01591765","wem/bandit_either","A3TQD8CNO16IZK","either","5","","","","","","","1","0","0","0.2","","0.5","0.5","0.5","0.5","","","","","0.8","0.2","0.6","0.2","","","","","","","76","L","3","","true","0","full_practice"
"342","","bandit","60","273571","0.0-33.0-7.0","01591765","wem/bandit_either","A3TQD8CNO16IZK","either","5","","","","","","","1","0","0","0.6","","0.5","0.5","0.5","0.5","","","","","0.8","0.2","0.6","0.2","","","","","","","75","K","2","","true","0","full_practice"
"348","","bandit","61","275434","0.0-33.0-8.0","01591765","wem/bandit_either","A3TQD8CNO16IZK","either","5","","","","","","","0","0","1","0.2","","0.5","0.5","0.5","0.5","","","","","0.8","0.2","0.6","0.2","","","","","","","76","L","3","","true","0","full_practice"
"468","","bandit","62","277417","0.0-33.0-9.0","01591765","wem/bandit_either","A3TQD8CNO16IZK","either","5","","","","","","","0","1","0","","0.6","0.5","0.5","0.5","0.5","0.8","0.2","0.6","0.2","","","","","","","","","","","75","K","2","","true","0","full_practice"
"421","","bandit","63","279351","0.0-33.0-10.0","01591765","wem/bandit_either","A3TQD8CNO16IZK","either","5","","","","","","","0","1","0","","0.8","0.5","0.5","0.5","0.5","0.8","0.2","0.6","0.2","","","","","","","","","","","72","H","0","img/none_selected.jpg","true","0","full_practice"
"339","","bandit","64","281205","0.0-33.0-11.0","01591765","wem/bandit_either","A3TQD8CNO16IZK","either","5","","","","","","","1","0","0","0.8","","0.5","0.5","0.5","0.5","","","","","0.8","0.2","0.6","0.2","","","","","","","72","H","0","img/none_selected.jpg","true","0","full_practice"
"340","","bandit","65","283058","0.0-33.0-12.0","01591765","wem/bandit_either","A3TQD8CNO16IZK","either","5","","","","","","","0","1","0","","0.8","0.5","0.5","0.5","0.5","0.8","0.2","0.6","0.2","","","","","","","","","","","72","H","0","img/none_selected.jpg","true","0","full_practice"
"325","","bandit","66","284898","0.0-33.0-13.0","01591765","wem/bandit_either","A3TQD8CNO16IZK","either","5","","","","","","","1","0","0","0.8","","0.5","0.5","0.5","0.5","","","","","0.8","0.2","0.6","0.2","","","","","","","72","H","0","img/none_selected.jpg","true","0","full_practice"
"337","","bandit","67","286749","0.0-33.0-14.0","01591765","wem/bandit_either","A3TQD8CNO16IZK","either","5","","","","","","","1","0","0","0.8","","0.5","0.5","0.5","0.5","","","","","0.8","0.2","0.6","0.2","","","","","","","72","H","0","img/none_selected.jpg","true","0","full_practice"
"306","","bandit","68","288572","0.0-33.0-15.0","01591765","wem/bandit_either","A3TQD8CNO16IZK","either","5","","","","","","","0","1","0","","0.6","0.5","0.5","0.5","0.5","0.8","0.2","0.6","0.2","","","","","","","","","","","75","K","2","","true","0","full_practice"
"308","","bandit","69","290394","0.0-33.0-16.0","01591765","wem/bandit_either","A3TQD8CNO16IZK","either","5","","","","","","","1","0","0","0.8","","0.5","0.5","0.5","0.5","","","","","0.8","0.2","0.6","0.2","","","","","","","72","H","0","img/none_selected.jpg","true","0","full_practice"
"320","","bandit","70","292230","0.0-33.0-17.0","01591765","wem/bandit_either","A3TQD8CNO16IZK","either","5","","","","","","","0","1","0","","0.8","0.5","0.5","0.5","0.5","0.8","0.2","0.6","0.2","","","","","","","","","","","72","H","0","img/none_selected.jpg","true","0","full_practice"
"315","","bandit","71","294060","0.0-33.0-18.0","01591765","wem/bandit_either","A3TQD8CNO16IZK","either","5","","","","","","","0","0","1","0.8","","0.5","0.5","0.5","0.5","","","","","0.8","0.2","0.6","0.2","","","","","","","72","H","0","img/none_selected.jpg","true","0","full_practice"
"362","","bandit","72","295938","0.0-33.0-19.0","01591765","wem/bandit_either","A3TQD8CNO16IZK","either","5","","","","","","","1","0","0","0.6","","0.5","0.5","0.5","0.5","","","","","0.8","0.2","0.6","0.2","","","","","","","75","K","2","","true","0","full_practice"
"2751","","text","73","298705","0.0-34.0","01591765","wem/bandit_either","A3TQD8CNO16IZK","either","5","32","","","","","","","","","","","","","","","","","","","","","","","","","","","","","","","","","","",""
"11347","","text","74","311058","0.0-35.0","01591765","wem/bandit_either","A3TQD8CNO16IZK","either","5","32","","","","","","","","","","","","","","","","","","","","","","","","","","","","","","","","","","",""
"9239","","text","75","320302","0.0-36.0","01591765","wem/bandit_either","A3TQD8CNO16IZK","either","5","32","","","","","","","","","","","","","","","","","","","","","","","","","","","","","","","","","","",""
"4560","","text","76","324867","0.0-37.0","01591765","wem/bandit_either","A3TQD8CNO16IZK","either","5","32","","","","","","","","","","","","","","","","","","","","","","","","","","","","","","","","","","",""
"5714","","text","77","330588","0.0-38.0","01591765","wem/bandit_either","A3TQD8CNO16IZK","either","5","32","","","","","","","","","","","","","","","","","","","","","","","","","","","","","","","","","","",""
"3181","","text","78","333774","0.0-39.0","01591765","wem/bandit_either","A3TQD8CNO16IZK","either","5","32","","","","","","","","","","","","","","","","","","","","","","","","","","","","","","","","","","",""
"1440","","bandit","79","336726","0.0-40.0-0.0","01591765","wem/bandit_either","A3TQD8CNO16IZK","either","5","","","","","","","0","1","0","","0.3340388524","0.2","0.6","0.8","0.4","0.3340388524","0.3897275569","0.4265570961","0.1165465043","","","","","","","","","","","72","H","0","img/none_selected.jpg","","1","main_expt"
"454","","bandit","80","338693","0.0-41.0-0.0","01591765","wem/bandit_either","A3TQD8CNO16IZK","either","5","","","","","","","0","1","0","","0.3223834482","0.2","0.6","0.8","0.4","0.3223834482","0.3911966266","0.4177099958","0.08371899021","","","","","","","","","","","72","H","0","img/none_selected.jpg","","2","main_expt"
"426","","bandit","81","340636","0.0-42.0-0.0","01591765","wem/bandit_either","A3TQD8CNO16IZK","either","5","","","","","","","0","1","0","","0.3585509001","0.2","0.6","0.8","0.4","0.3585509001","0.4074861021","0.4192185534","0.04339790364","","","","","","","","","","","72","H","0","img/none_selected.jpg","","3","main_expt"
"703","","bandit","82","342859","0.0-43.0-0.0","01591765","wem/bandit_either","A3TQD8CNO16IZK","either","5","","","","","","","1","0","0","0.3965638453","","0.2","0.6","0.8","0.4","","","","","0.3416436242","0.3965638453","0.4241610434","0.04073472785","","","","","","","74","J","1","","","4","main_expt"
"379","","bandit","83","344753","0.0-44.0-0.0","01591765","wem/bandit_either","A3TQD8CNO16IZK","either","5","","","","","","","0","0","1","0.3688269119","","0.2","0.6","0.8","0.4","","","","","0.3444758892","0.3688269119","0.4284837315","0.04731773769","","","","","","","74","J","1","","","5","main_expt"
"646","","bandit","84","346917","0.0-45.0-0.0","01591765","wem/bandit_either","A3TQD8CNO16IZK","either","5","","","","","","","0","0","1","","0.3574177426","0.2","0.6","0.8","0.4","0.3574177426","0.3865867917","0.4328708062","0.05617088868","","","","","","","","","","","72","H","0","img/none_selected.jpg","","6","main_expt"
"623","","bandit","85","349054","0.0-46.0-0.0","01591765","wem/bandit_either","A3TQD8CNO16IZK","either","5","","","","","","","1","0","0","0.4176545671","","0.2","0.6","0.8","0.4","","","","","0.3634052143","0.4294719924","0.4176545671","0.05606577856","","","","","","","75","K","2","","","7","main_expt"
"346","","bandit","86","350916","0.0-47.0-0.0","01591765","wem/bandit_either","A3TQD8CNO16IZK","either","5","","","","","","","0","1","0","","0.4022395488","0.2","0.6","0.8","0.4","0.3675420607","0.4210378118","0.4022395488","0.09244853328","","","","","","","","","","","75","K","2","","","8","main_expt"
"336","","bandit","87","352770","0.0-48.0-0.0","01591765","wem/bandit_either","A3TQD8CNO16IZK","either","5","","","","","","","0","0","1","0.3929004949","","0.2","0.6","0.8","0.4","","","","","0.3921196104","0.4502112583","0.3929004949","0.1271341085","","","","","","","75","K","2","","","9","main_expt"
"491","","bandit","88","354778","0.0-49.0-0.0","01591765","wem/bandit_either","A3TQD8CNO16IZK","either","5","","","","","","","1","0","0","0.1370717255","","0.2","0.6","0.8","0.4","","","","","0.4026182126","0.4452653155","0.3863711448","0.1370717255","","","","","","","76","L","3","","","10","main_expt"
"402","","bandit","89","356696","0.0-50.0-0.0","01591765","wem/bandit_either","A3TQD8CNO16IZK","either","5","","","","","","","0","0","1","0.1275050207","","0.2","0.6","0.8","0.4","","","","","0.3543069494","0.4352349267","0.4205849279","0.1275050207","","","","","","","76","L","3","","","11","main_expt"
"422","","bandit","90","358635","0.0-51.0-0.0","01591765","wem/bandit_either","A3TQD8CNO16IZK","either","5","","","","","","","0","1","0","","0.3504097904","0.2","0.6","0.8","0.4","0.3504097904","0.4029030639","0.4525069231","0.122317004","","","","","","","","","","","72","H","0","img/none_selected.jpg","","12","main_expt"
"340","","bandit","91","360488","0.0-52.0-0.0","01591765","wem/bandit_either","A3TQD8CNO16IZK","either","5","","","","","","","0","0","1","","0.2787441393","0.2","0.6","0.8","0.4","0.2787441393","0.4198147105","0.4485799753","0.1251711411","","","","","","","","","","","72","H","0","img/none_selected.jpg","","13","main_expt"
"495","","bandit","92","362498","0.0-53.0-0.0","01591765","wem/bandit_either","A3TQD8CNO16IZK","either","5","","","","","","","0","0","1","","0.2723245106","0.2","0.6","0.8","0.4","0.2723245106","0.3761312174","0.4504049656","0.1380641988","","","","","","","","","","","72","H","0","img/none_selected.jpg","","14","main_expt"
"374","","bandit","93","364389","0.0-54.0-0.0","01591765","wem/bandit_either","A3TQD8CNO16IZK","either","5","","","","","","","0","1","0","","0.4017507227","0.2","0.6","0.8","0.4","0.3687644442","0.4017507227","0.4281165459","0.2010812313","","","","","","","","","","","74","J","1","","","15","main_expt"
"399","","bandit","94","366302","0.0-55.0-0.0","01591765","wem/bandit_either","A3TQD8CNO16IZK","either","5","","","","","","","0","0","1","","0.3859888637","0.2","0.6","0.8","0.4","0.3992289848","0.3859888637","0.4035101098","0.1747275657","","","","","","","","","","","74","J","1","","","16","main_expt"
"393","","bandit","95","368213","0.0-56.0-0.0","01591765","wem/bandit_either","A3TQD8CNO16IZK","either","5","","","","","","","0","0","1","0.3706978481","","0.2","0.6","0.8","0.4","","","","","0.4067061876","0.3706978481","0.4063691663","0.1816524112","","","","","","","74","J","1","","","17","main_expt"
"461","","bandit","96","370197","0.0-57.0-0.0","01591765","wem/bandit_either","A3TQD8CNO16IZK","either","5","","","","","","","0","1","0","","0.4201618032","0.2","0.6","0.8","0.4","0.3969002131","0.3323991027","0.4201618032","0.1700798448","","","","","","","","","","","75","K","2","","","18","main_expt"
"345","","bandit","97","372060","0.0-58.0-0.0","01591765","wem/bandit_either","A3TQD8CNO16IZK","either","5","","","","","","","0","0","1","","0.3868389751","0.2","0.6","0.8","0.4","0.3930099592","0.3301718366","0.3868389751","0.1998500639","","","","","","","","","","","75","K","2","","","19","main_expt"
"352","","bandit","98","373927","0.0-59.0-0.0","01591765","wem/bandit_either","A3TQD8CNO16IZK","either","5","","","","","","","0","0","1","0.3868875991","","0.2","0.6","0.8","0.4","","","","","0.3791602553","0.3714618997","0.3868875991","0.2418808817","","","","","","","75","K","2","","","20","main_expt"
"510","","bandit","99","375954","0.0-60.0-0.0","01591765","wem/bandit_either","A3TQD8CNO16IZK","either","5","","","","","","","1","0","0","0.4253770554","","0.2","0.6","0.8","0.4","","","","","0.4127515201","0.3621694591","0.4253770554","0.2293341009","","","","","","","75","K","2","","","21","main_expt"
"419","","bandit","100","377888","0.0-61.0-0.0","01591765","wem/bandit_either","A3TQD8CNO16IZK","either","5","","","","","","","1","0","0","0.4285762007","","0.2","0.6","0.8","0.4","","","","","0.4164833055","0.3648829928","0.4285762007","0.2074184163","","","","","","","75","K","2","","","22","main_expt"
"393","","bandit","101","379797","0.0-62.0-0.0","01591765","wem/bandit_either","A3TQD8CNO16IZK","either","5","","","","","","","1","0","0","0.4082522222","","0.2","0.6","0.8","0.4","","","","","0.4143027846","0.2856994719","0.4082522222","0.1832507358","","","","","","","75","K","2","","","23","main_expt"
"449","","bandit","102","381762","0.0-63.0-0.0","01591765","wem/bandit_either","A3TQD8CNO16IZK","either","5","","","","","","","0","0","1","0.4027270218","","0.2","0.6","0.8","0.4","","","","","0.3649270698","0.3152516524","0.4027270218","0.1469425149","","","","","","","75","K","2","","","24","main_expt"
"382","","bandit","103","383659","0.0-64.0-0.0","01591765","wem/bandit_either","A3TQD8CNO16IZK","either","5","","","","","","","1","0","0","0.4100212433","","0.2","0.6","0.8","0.4","","","","","0.392676409","0.2778145345","0.4100212433","0.102794739","","","","","","","75","K","2","","","25","main_expt"
"438","","bandit","104","385614","0.0-65.0-0.0","01591765","wem/bandit_either","A3TQD8CNO16IZK","either","5","","","","","","","0","0","1","0.4190791169","","0.2","0.6","0.8","0.4","","","","","0.4031565401","0.3170506137","0.4190791169","0.1173732637","","","","","","","75","K","2","","","26","main_expt"
"337","","bandit","105","387466","0.0-66.0-0.0","01591765","wem/bandit_either","A3TQD8CNO16IZK","either","5","","","","","","","0","0","1","0.4527212376","","0.2","0.6","0.8","0.4","","","","","0.4245959001","0.3223143746","0.4527212376","0.08835016803","","","","","","","75","K","2","","","27","main_expt"
"319","","bandit","106","389300","0.0-67.0-0.0","01591765","wem/bandit_either","A3TQD8CNO16IZK","either","5","","","","","","","0","0","1","","0.4480998813","0.2","0.6","0.8","0.4","0.4232885055","0.3234472479","0.4480998813","0.1134440288","","","","","","","","","","","75","K","2","","","28","main_expt"
"363","","bandit","107","391179","0.0-68.0-0.0","01591765","wem/bandit_either","A3TQD8CNO16IZK","either","5","","","","","","","0","0","1","","0.4628669208","0.2","0.6","0.8","0.4","0.4495512981","0.2881425904","0.4628669208","0.1982905849","","","","","","","","","","","75","K","2","","","29","main_expt"
"388","","bandit","108","393083","0.0-69.0-0.0","01591765","wem/bandit_either","A3TQD8CNO16IZK","either","5","","","","","","","0","0","1","0.2366655967","","0.2","0.6","0.8","0.4","","","","","0.4485299892","0.2326555855","0.4565655028","0.2366655967","","","","","","","76","L","3","","","30","main_expt"
"367","","bandit","109","394966","0.0-70.0-0.0","01591765","wem/bandit_either","A3TQD8CNO16IZK","either","5","","","","","","","0","0","1","0.4686031056","","0.2","0.6","0.8","0.4","","","","","0.4599237238","0.2364604256","0.4686031056","0.1622470467","","","","","","","75","K","2","","","31","main_expt"
"451","","bandit","110","396934","0.0-71.0-0.0","01591765","wem/bandit_either","A3TQD8CNO16IZK","either","5","","","","","","","0","0","1","","0.4508116693","0.2","0.6","0.8","0.4","0.4508116693","0.2451982598","0.4659582456","0.1771911602","","","","","","","","","","","72","H","0","img/none_selected.jpg","","32","main_expt"
"378","","bandit","111","398826","0.0-72.0-0.0","01591765","wem/bandit_either","A3TQD8CNO16IZK","either","5","","","","","","","0","0","1","0.2360369815","","0.2","0.6","0.8","0.4","","","","","0.45101727","0.2360369815","0.4810757035","0.1622836308","","","","","","","74","J","1","","","33","main_expt"
"398","","bandit","112","400740","0.0-73.0-0.0","01591765","wem/bandit_either","A3TQD8CNO16IZK","either","5","","","","","","","0","0","1","","0.4842727378","0.2","0.6","0.8","0.4","0.4340174653","0.2317763892","0.4842727378","0.1655985557","","","","","","","","","","","75","K","2","","","34","main_expt"
"704","","bandit","113","402960","0.0-74.0-0.0","01591765","wem/bandit_either","A3TQD8CNO16IZK","either","5","","","","","","","0","0","1","","0.1492797185","0.2","0.6","0.8","0.4","0.4040147441","0.2527891731","0.4745470136","0.1492797185","","","","","","","","","","","76","L","3","","","35","main_expt"
"393","","bandit","114","404870","0.0-75.0-0.0","01591765","wem/bandit_either","A3TQD8CNO16IZK","either","5","","","","","","","0","0","1","","0.4268829696","0.2","0.6","0.8","0.4","0.4268829696","0.2641283143","0.4440965139","0.1504543003","","","","","","","","","","","72","H","0","img/none_selected.jpg","","36","main_expt"
"330","","bandit","115","406718","0.0-76.0-0.0","01591765","wem/bandit_either","A3TQD8CNO16IZK","either","5","","","","","","","0","0","1","0.2309310423","","0.2","0.6","0.8","0.4","","","","","0.4562327564","0.2309310423","0.4544425755","0.1064249526","","","","","","","74","J","1","","","37","main_expt"
"387","","bandit","116","408620","0.0-77.0-0.0","01591765","wem/bandit_either","A3TQD8CNO16IZK","either","5","","","","","","","0","0","1","","0.4700138218","0.2","0.6","0.8","0.4","0.4481627861","0.2093170459","0.4700138218","0.1346530267","","","","","","","","","","","75","K","2","","","38","main_expt"
"346","","bandit","117","410483","0.0-78.0-0.0","01591765","wem/bandit_either","A3TQD8CNO16IZK","either","5","","","","","","","0","0","1","0.1303494481","","0.2","0.6","0.8","0.4","","","","","0.4475890948","0.1398625959","0.466948448","0.1303494481","","","","","","","76","L","3","","","39","main_expt"
"399","","bandit","118","412397","0.0-79.0-0.0","01591765","wem/bandit_either","A3TQD8CNO16IZK","either","5","","","","","","","0","0","1","0.4501575696","","0.2","0.6","0.8","0.4","","","","","0.4501575696","0.09690087606","0.4679256248","0.1492074344","","","","","","","72","H","0","img/none_selected.jpg","","40","main_expt"
"322","","bandit","119","414236","0.0-80.0-0.0","01591765","wem/bandit_either","A3TQD8CNO16IZK","either","5","","","","","","","0","0","1","","0.4121884666","0.2","0.6","0.8","0.4","0.4121884666","0.1129569356","0.445537573","0.1370672299","","","","","","","","","","","72","H","0","img/none_selected.jpg","","41","main_expt"
"357","","bandit","120","416110","0.0-81.0-0.0","01591765","wem/bandit_either","A3TQD8CNO16IZK","either","5","","","","","","","0","0","1","0.1227033228","","0.2","0.6","0.8","0.4","","","","","0.4379939247","0.1227033228","0.4521531226","0.08144147181","","","","","","","74","J","1","","","42","main_expt"
"362","","bandit","121","417987","0.0-82.0-0.0","01591765","wem/bandit_either","A3TQD8CNO16IZK","either","5","","","","","","","0","1","0","","0.08393287497","0.2","0.6","0.8","0.4","0.4271747655","0.08393287497","0.4695072217","0.06793865388","","","","","","","","","","","74","J","1","","","43","main_expt"
"369","","bandit","122","419874","0.0-83.0-0.0","01591765","wem/bandit_either","A3TQD8CNO16IZK","either","5","","","","","","","0","0","1","","0.06260074275","0.2","0.6","0.8","0.4","0.4480494518","0.06260074275","0.4807409838","0.05295344446","","","","","","","","","","","74","J","1","","","44","main_expt"
"321","","bandit","123","421711","0.0-84.0-0.0","01591765","wem/bandit_either","A3TQD8CNO16IZK","either","5","","","","","","","0","0","1","","0.08062123592","0.2","0.6","0.8","0.4","0.4269729589","0.08062123592","0.4507048108","0.02744239742","","","","","","","","","","","74","J","1","","","45","main_expt"
"430","","bandit","124","423659","0.0-85.0-0.0","01591765","wem/bandit_either","A3TQD8CNO16IZK","either","5","","","","","","","0","0","1","0.4382321206","","0.2","0.6","0.8","0.4","","","","","0.4475746277","0.1110847749","0.4382321206","0.02347437243","","","","","","","75","K","2","","","46","main_expt"
"339","","bandit","125","425515","0.0-86.0-0.0","01591765","wem/bandit_either","A3TQD8CNO16IZK","either","5","","","","","","","1","0","0","0.4393937913","","0.2","0.6","0.8","0.4","","","","","0.4295618238","0.05346849493","0.4393937913","0.02418160198","","","","","","","75","K","2","","","47","main_expt"
"394","","bandit","126","427427","0.0-87.0-0.0","01591765","wem/bandit_either","A3TQD8CNO16IZK","either","5","","","","","","","1","0","0","0.440318131","","0.2","0.6","0.8","0.4","","","","","0.4431907244","0.04499733497","0.440318131","0.01182676654","","","","","","","75","K","2","","","48","main_expt"
"398","","bandit","127","429341","0.0-88.0-0.0","01591765","wem/bandit_either","A3TQD8CNO16IZK","either","5","","","","","","","0","0","1","0.4362102412","","0.2","0.6","0.8","0.4","","","","","0.4187732916","0.07378534534","0.4362102412","0.0186287842","","","","","","","75","K","2","","","49","main_expt"
"382","","bandit","128","431239","0.0-89.0-0.0","01591765","wem/bandit_either","A3TQD8CNO16IZK","either","5","","","","","","","0","0","1","","0.44488671","0.2","0.6","0.8","0.4","0.356579213","0.06168845619","0.44488671","0.02550629551","","","","","","","","","","","75","K","2","","","50","main_expt"
"366","","bandit","129","433123","0.0-90.0-0.0","01591765","wem/bandit_either","A3TQD8CNO16IZK","either","5","","","","","","","1","0","0","0.4633405548","","0.2","0.6","0.8","0.4","","","","","0.2629404955","0.1062028567","0.4633405548","0.04366809707","","","","","","","75","K","2","","","51","main_expt"
"448","","bandit","130","435089","0.0-91.0-0.0","01591765","wem/bandit_either","A3TQD8CNO16IZK","either","5","","","","","","","1","0","0","0.4528043762","","0.2","0.6","0.8","0.4","","","","","0.2919747068","0.1379608546","0.4528043762","0.04357168116","","","","","","","75","K","2","","","52","main_expt"
"543","","bandit","131","437148","0.0-92.0-0.0","01591765","wem/bandit_either","A3TQD8CNO16IZK","either","5","","","","","","","0","0","1","0.4390431751","","0.2","0.6","0.8","0.4","","","","","0.3809901122","0.1356826849","0.4390431751","0.03899227154","","","","","","","75","K","2","","","53","main_expt"
"397","","bandit","132","439065","0.0-93.0-0.0","01591765","wem/bandit_either","A3TQD8CNO16IZK","either","5","","","","","","","0","0","1","","0.4549270822","0.2","0.6","0.8","0.4","0.3452518694","0.1038772241","0.4549270822","0.04009146386","","","","","","","","","","","75","K","2","","","54","main_expt"
"443","","bandit","133","441024","0.0-94.0-0.0","01591765","wem/bandit_either","A3TQD8CNO16IZK","either","5","","","","","","","1","0","0","0.4710341864","","0.2","0.6","0.8","0.4","","","","","0.3263112327","0.1689791829","0.4710341864","0.0155768565","","","","","","","75","K","2","","","55","main_expt"
"808","","bandit","134","443351","0.0-95.0-0.0","01591765","wem/bandit_either","A3TQD8CNO16IZK","either","5","","","","","","","0","0","1","0.4745834276","","0.2","0.6","0.8","0.4","","","","","0.3308963945","0.1108888145","0.4745834276","0.02112461672","","","","","","","75","K","2","","","56","main_expt"
"334","","bandit","135","445205","0.0-96.0-0.0","01591765","wem/bandit_either","A3TQD8CNO16IZK","either","5","","","","","","","1","0","0","0.489318572","","0.2","0.6","0.8","0.4","","","","","0.3150326571","0.1206542402","0.489318572","0.0126553198","","","","","","","75","K","2","","","57","main_expt"
"413","","bandit","136","447137","0.0-97.0-0.0","01591765","wem/bandit_either","A3TQD8CNO16IZK","either","5","","","","","","","0","0","1","","0.480037986","0.2","0.6","0.8","0.4","0.3049116772","0.09707343937","0.480037986","0.01131359515","","","","","","","","","","","75","K","2","","","58","main_expt"
"416","","bandit","137","449070","0.0-98.0-0.0","01591765","wem/bandit_either","A3TQD8CNO16IZK","either","5","","","","","","","1","0","0","0.4593461039","","0.2","0.6","0.8","0.4","","","","","0.3050987947","0.1044384952","0.4593461039","0.01030075821","","","","","","","75","K","2","","","59","main_expt"
"359","","bandit","138","450948","0.0-99.0-0.0","01591765","wem/bandit_either","A3TQD8CNO16IZK","either","5","","","","","","","1","0","0","0.446051488","","0.2","0.6","0.8","0.4","","","","","0.3274009355","0.08890369623","0.446051488","0.005868957973","","","","","","","75","K","2","","","60","main_expt"
"373","","bandit","139","452840","0.0-100.0-0.0","01591765","wem/bandit_either","A3TQD8CNO16IZK","either","5","","","","","","","0","0","1","","0.4391285327","0.2","0.6","0.8","0.4","0.3428943983","0.08921221942","0.4391285327","0.004361943215","","","","","","","","","","","75","K","2","","","61","main_expt"
"352","","bandit","140","454709","0.0-101.0-0.0","01591765","wem/bandit_either","A3TQD8CNO16IZK","either","5","","","","","","","0","0","1","","0.4063883723","0.2","0.6","0.8","0.4","0.3549763931","0.09812025034","0.4063883723","0.005208412743","","","","","","","","","","","75","K","2","","","62","main_expt"
"342","","bandit","141","456568","0.0-102.0-0.0","01591765","wem/bandit_either","A3TQD8CNO16IZK","either","5","","","","","","","0","0","1","","0.4330387396","0.2","0.6","0.8","0.4","0.3496678451","0.09006279409","0.4330387396","0.006461011255","","","","","","","","","","","75","K","2","","","63","main_expt"
"375","","bandit","142","458463","0.0-103.0-0.0","01591765","wem/bandit_either","A3TQD8CNO16IZK","either","5","","","","","","","0","0","1","","0.01267926231","0.2","0.6","0.8","0.4","0.3188537263","0.1118976224","0.4207902426","0.01267926231","","","","","","","","","","","76","L","3","","","64","main_expt"
"379","","bandit","143","460361","0.0-104.0-0.0","01591765","wem/bandit_either","A3TQD8CNO16IZK","either","5","","","","","","","0","0","1","","0.3191795336","0.2","0.6","0.8","0.4","0.3191795336","0.1053817613","0.3719582347","0.009732787917","","","","","","","","","","","72","H","0","img/none_selected.jpg","","65","main_expt"
"1582","","bandit","144","463456","0.0-105.0-0.0","01591765","wem/bandit_either","A3TQD8CNO16IZK","either","5","","","","","","","0","0","1","0.1307356695","","0.2","0.6","0.8","0.4","","","","","0.268616347","0.1307356695","0.3748569955","0.01092542651","","","","","","","74","J","1","","","66","main_expt"
"343","","bandit","145","465315","0.0-106.0-0.0","01591765","wem/bandit_either","A3TQD8CNO16IZK","either","5","","","","","","","1","0","0","0.335252031","","0.2","0.6","0.8","0.4","","","","","0.259194563","0.1418436428","0.335252031","0.02125534741","","","","","","","75","K","2","","","67","main_expt"
"784","","bandit","146","467617","0.0-107.0-0.0","01591765","wem/bandit_either","A3TQD8CNO16IZK","either","5","","","","","","","0","0","1","0.3199157278","","0.2","0.6","0.8","0.4","","","","","0.2281204868","0.1459089566","0.3199157278","0.02360283027","","","","","","","75","K","2","","","68","main_expt"
"387","","bandit","147","469523","0.0-108.0-0.0","01591765","wem/bandit_either","A3TQD8CNO16IZK","either","5","","","","","","","0","1","0","","0.3068525281","0.2","0.6","0.8","0.4","0.2195844169","0.1809721424","0.3068525281","0.02539305756","","","","","","","","","","","75","K","2","","","69","main_expt"
"458","","bandit","148","471500","0.0-109.0-0.0","01591765","wem/bandit_either","A3TQD8CNO16IZK","either","5","","","","","","","0","0","1","0.3181076016","","0.2","0.6","0.8","0.4","","","","","0.1883338509","0.1784068974","0.3181076016","0.05014388586","","","","","","","75","K","2","","","70","main_expt"
"421","","bandit","149","473438","0.0-110.0-0.0","01591765","wem/bandit_either","A3TQD8CNO16IZK","either","5","","","","","","","0","0","1","0.2926426422","","0.2","0.6","0.8","0.4","","","","","0.1639708178","0.1973023396","0.2926426422","0.04209054697","","","","","","","75","K","2","","","71","main_expt"
"499","","bandit","150","475456","0.0-111.0-0.0","01591765","wem/bandit_either","A3TQD8CNO16IZK","either","5","","","","","","","1","0","0","0.2380263643","","0.2","0.6","0.8","0.4","","","","","0.1312842785","0.2436342847","0.2380263643","0.05611199342","","","","","","","75","K","2","","","72","main_expt"
"524","","bandit","151","477495","0.0-112.0-0.0","01591765","wem/bandit_either","A3TQD8CNO16IZK","either","5","","","","","","","0","0","1","0.2407197948","","0.2","0.6","0.8","0.4","","","","","0.1805041857","0.1992173182","0.2407197948","0.05293238473","","","","","","","75","K","2","","","73","main_expt"
"443","","bandit","152","479454","0.0-113.0-0.0","01591765","wem/bandit_either","A3TQD8CNO16IZK","either","5","","","","","","","0","0","1","","0.2317468449","0.2","0.6","0.8","0.4","0.1739557812","0.2347098304","0.2317468449","0.0318456884","","","","","","","","","","","75","K","2","","","74","main_expt"
"434","","bandit","153","481406","0.0-114.0-0.0","01591765","wem/bandit_either","A3TQD8CNO16IZK","either","5","","","","","","","0","1","0","","0.2545997551","0.2","0.6","0.8","0.4","0.2434916027","0.2641442137","0.2545997551","0.03873230677","","","","","","","","","","","75","K","2","","","75","main_expt"
"366","","bandit","154","483289","0.0-115.0-0.0","01591765","wem/bandit_either","A3TQD8CNO16IZK","either","5","","","","","","","0","0","1","0.2890845388","","0.2","0.6","0.8","0.4","","","","","0.2438468568","0.3192644053","0.2890845388","0.03304947682","","","","","","","75","K","2","","","76","main_expt"
"517","","bandit","155","485325","0.0-116.0-0.0","01591765","wem/bandit_either","A3TQD8CNO16IZK","either","5","","","","","","","0","0","1","","0.02607887458","0.2","0.6","0.8","0.4","0.2425324642","0.3351132613","0.2386362654","0.02607887458","","","","","","","","","","","76","L","3","","","77","main_expt"
"537","","bandit","156","487380","0.0-117.0-0.0","01591765","wem/bandit_either","A3TQD8CNO16IZK","either","5","","","","","","","0","0","1","","0.205588479","0.2","0.6","0.8","0.4","0.205588479","0.3086784207","0.2673679704","0.02492981692","","","","","","","","","","","72","H","0","img/none_selected.jpg","","78","main_expt"
"386","","bandit","157","489285","0.0-118.0-0.0","01591765","wem/bandit_either","A3TQD8CNO16IZK","either","5","","","","","","","0","0","1","","0.3076482073","0.2","0.6","0.8","0.4","0.213062191","0.3076482073","0.2813811921","0.01824110002","","","","","","","","","","","74","J","1","","","79","main_expt"
"423","","bandit","158","491222","0.0-119.0-0.0","01591765","wem/bandit_either","A3TQD8CNO16IZK","either","5","","","","","","","0","1","0","","0.2419447949","0.2","0.6","0.8","0.4","0.1852926048","0.3605025214","0.2419447949","0.0202176162","","","","","","","","","","","75","K","2","","","80","main_expt"
"405","","bandit","159","493147","0.0-120.0-0.0","01591765","wem/bandit_either","A3TQD8CNO16IZK","either","5","","","","","","","0","0","1","0.323481111","","0.2","0.6","0.8","0.4","","","","","0.2332942271","0.3286166321","0.323481111","0.0252752587","","","","","","","75","K","2","","","81","main_expt"
"372","","bandit","160","495038","0.0-121.0-0.0","01591765","wem/bandit_either","A3TQD8CNO16IZK","either","5","","","","","","","0","0","1","0.3097244961","","0.2","0.6","0.8","0.4","","","","","0.2087797338","0.3459677762","0.3097244961","0.05668457717","","","","","","","75","K","2","","","82","main_expt"
"571","","bandit","161","497128","0.0-122.0-0.0","01591765","wem/bandit_either","A3TQD8CNO16IZK","either","5","","","","","","","0","0","1","0.2787498647","","0.2","0.6","0.8","0.4","","","","","0.2049979043","0.3092751195","0.2787498647","0.07760530004","","","","","","","75","K","2","","","83","main_expt"
"536","","bandit","162","499184","0.0-123.0-0.0","01591765","wem/bandit_either","A3TQD8CNO16IZK","either","5","","","","","","","0","0","1","0.2589524449","","0.2","0.6","0.8","0.4","","","","","0.2151780091","0.3044630387","0.2589524449","0.03696005566","","","","","","","75","K","2","","","84","main_expt"
"603","","bandit","163","501303","0.0-124.0-0.0","01591765","wem/bandit_either","A3TQD8CNO16IZK","either","5","","","","","","","0","0","1","0.2769318636","","0.2","0.6","0.8","0.4","","","","","0.1497615914","0.2812480587","0.2769318636","0.04177257934","","","","","","","75","K","2","","","85","main_expt"
"697","","bandit","164","503518","0.0-125.0-0.0","01591765","wem/bandit_either","A3TQD8CNO16IZK","either","5","","","","","","","0","0","1","0.0385770192","","0.2","0.6","0.8","0.4","","","","","0.1223687677","0.2506532223","0.2849222391","0.0385770192","","","","","","","76","L","3","","","86","main_expt"
"596","","bandit","165","505634","0.0-126.0-0.0","01591765","wem/bandit_either","A3TQD8CNO16IZK","either","5","","","","","","","0","0","1","0.1472857413","","0.2","0.6","0.8","0.4","","","","","0.1472857413","0.2269900387","0.3131087309","0.03720252147","","","","","","","72","H","0","img/none_selected.jpg","","87","main_expt"
"471","","bandit","166","507627","0.0-127.0-0.0","01591765","wem/bandit_either","A3TQD8CNO16IZK","either","5","","","","","","","0","0","1","0.1504729919","","0.2","0.6","0.8","0.4","","","","","0.1252586248","0.1504729919","0.3038587512","0.06746059371","","","","","","","74","J","1","","","88","main_expt"
"588","","bandit","167","509743","0.0-128.0-0.0","01591765","wem/bandit_either","A3TQD8CNO16IZK","either","5","","","","","","","0","0","1","0.3308022157","","0.2","0.6","0.8","0.4","","","","","0.1194927994","0.1382070302","0.3308022157","0.04069757945","","","","","","","75","K","2","","","89","main_expt"
"466","","bandit","168","511731","0.0-129.0-0.0","01591765","wem/bandit_either","A3TQD8CNO16IZK","either","5","","","","","","","0","0","1","0.3574922351","","0.2","0.6","0.8","0.4","","","","","0.1589750007","0.1364765349","0.3574922351","0.07325379503","","","","","","","75","K","2","","","90","main_expt"
"489","","bandit","169","513742","0.0-130.0-0.0","01591765","wem/bandit_either","A3TQD8CNO16IZK","either","5","","","","","","","0","0","1","0.3729517688","","0.2","0.6","0.8","0.4","","","","","0.1859960426","0.09318196272","0.3729517688","0.06877471811","","","","","","","75","K","2","","","91","main_expt"
"660","","bandit","170","515920","0.0-131.0-0.0","01591765","wem/bandit_either","A3TQD8CNO16IZK","either","5","","","","","","","0","0","1","","0.04115987362","0.2","0.6","0.8","0.4","0.192419488","0.06946097624","0.398352994","0.04115987362","","","","","","","","","","","76","L","3","","","92","main_expt"
"501","","bandit","171","517940","0.0-132.0-0.0","01591765","wem/bandit_either","A3TQD8CNO16IZK","either","5","","","","","","","0","0","1","0.07078892783","","0.2","0.6","0.8","0.4","","","","","0.1716033463","0.08102832817","0.4135860398","0.07078892783","","","","","","","76","L","3","","","93","main_expt"
"536","","bandit","172","519995","0.0-133.0-0.0","01591765","wem/bandit_either","A3TQD8CNO16IZK","either","5","","","","","","","0","0","1","","0.1935897604","0.2","0.6","0.8","0.4","0.1935897604","0.1271360848","0.3786880174","0.05572868433","","","","","","","","","","","72","H","0","img/none_selected.jpg","","94","main_expt"
"448","","bandit","173","521964","0.0-134.0-0.0","01591765","wem/bandit_either","A3TQD8CNO16IZK","either","5","","","","","","","0","1","0","","0.2193228015","0.2","0.6","0.8","0.4","0.2193228015","0.1097592989","0.3823424718","0.05056929995","","","","","","","","","","","72","H","0","img/none_selected.jpg","","95","main_expt"
"633","","bandit","174","524116","0.0-135.0-0.0","01591765","wem/bandit_either","A3TQD8CNO16IZK","either","5","","","","","","","0","0","1","","0.3262643469","0.2","0.6","0.8","0.4","0.3262643469","0.1085490834","0.3642725552","0.04159874267","","","","","","","","","","","72","H","0","img/none_selected.jpg","","96","main_expt"
"1133","","bandit","175","526768","0.0-136.0-0.0","01591765","wem/bandit_either","A3TQD8CNO16IZK","either","5","","","","","","","0","0","1","0.3197717944","","0.2","0.6","0.8","0.4","","","","","0.3207405496","0.1049812554","0.3197717944","0.03654451862","","","","","","","75","K","2","","","97","main_expt"
"478","","bandit","176","528766","0.0-137.0-0.0","01591765","wem/bandit_either","A3TQD8CNO16IZK","either","5","","","","","","","0","0","1","","0.2514424369","0.2","0.6","0.8","0.4","0.3712856991","0.08177978443","0.2514424369","0.04190300095","","","","","","","","","","","75","K","2","","","98","main_expt"
"458","","bandit","177","530746","0.0-138.0-0.0","01591765","wem/bandit_either","A3TQD8CNO16IZK","either","5","","","","","","","0","0","1","0.07574087804","","0.2","0.6","0.8","0.4","","","","","0.3740145378","0.07574087804","0.2926772137","0.08742990617","","","","","","","74","J","1","","","99","main_expt"
"380","","bandit","178","532643","0.0-139.0-0.0","01591765","wem/bandit_either","A3TQD8CNO16IZK","either","5","","","","","","","0","0","1","0.07829319678","","0.2","0.6","0.8","0.4","","","","","0.3776295542","0.07829319678","0.234485335","0.08966523481","","","","","","","74","J","1","","","100","main_expt"
"414","","bandit","179","534575","0.0-140.0-0.0","01591765","wem/bandit_either","A3TQD8CNO16IZK","either","5","","","","","","","0","0","1","","0.3592666398","0.2","0.6","0.8","0.4","0.3592666398","0.07919243683","0.250352175","0.07849065771","","","","","","","","","","","72","H","0","img/none_selected.jpg","","101","main_expt"
"403","","bandit","180","536497","0.0-141.0-0.0","01591765","wem/bandit_either","A3TQD8CNO16IZK","either","5","","","","","","","0","1","0","","0.3412191773","0.2","0.6","0.8","0.4","0.3412191773","0.1052753188","0.2139972863","0.1054267613","","","","","","","","","","","72","H","0","img/none_selected.jpg","","102","main_expt"
"554","","bandit","181","538571","0.0-142.0-0.0","01591765","wem/bandit_either","A3TQD8CNO16IZK","either","5","","","","","","","0","0","1","","0.3133100433","0.2","0.6","0.8","0.4","0.3133100433","0.1248526142","0.20092706","0.1120981937","","","","","","","","","","","72","H","0","img/none_selected.jpg","","103","main_expt"
"417","","bandit","182","540507","0.0-143.0-0.0","01591765","wem/bandit_either","A3TQD8CNO16IZK","either","5","","","","","","","0","1","0","","0.3219148419","0.2","0.6","0.8","0.4","0.3219148419","0.142969925","0.2305366804","0.1034740879","","","","","","","","","","","72","H","0","img/none_selected.jpg","","104","main_expt"
"452","","bandit","183","542482","0.0-144.0-0.0","01591765","wem/bandit_either","A3TQD8CNO16IZK","either","5","","","","","","","0","0","1","","0.3300892518","0.2","0.6","0.8","0.4","0.3300892518","0.13947254","0.2102135581","0.07597240327","","","","","","","","","","","72","H","0","img/none_selected.jpg","","105","main_expt"
"496","","bandit","184","544497","0.0-145.0-0.0","01591765","wem/bandit_either","A3TQD8CNO16IZK","either","5","","","","","","","0","0","1","0.3401839058","","0.2","0.6","0.8","0.4","","","","","0.3401839058","0.1329526997","0.2219457329","0.1124257427","","","","","","","72","H","0","img/none_selected.jpg","","106","main_expt"
"438","","bandit","185","546455","0.0-146.0-0.0","01591765","wem/bandit_either","A3TQD8CNO16IZK","either","5","","","","","","","0","1","0","","0.3784706915","0.2","0.6","0.8","0.4","0.3784706915","0.1727290233","0.3048423019","0.1133168519","","","","","","","","","","","72","H","0","img/none_selected.jpg","","107","main_expt"
"444","","bandit","186","548420","0.0-147.0-0.0","01591765","wem/bandit_either","A3TQD8CNO16IZK","either","5","","","","","","","0","1","0","","0.3945753887","0.2","0.6","0.8","0.4","0.3945753887","0.1864487031","0.258150515","0.1752395656","","","","","","","","","","","72","H","0","img/none_selected.jpg","","108","main_expt"
"627","","bandit","187","550569","0.0-148.0-0.0","01591765","wem/bandit_either","A3TQD8CNO16IZK","either","5","","","","","","","0","0","1","0.356827327","","0.2","0.6","0.8","0.4","","","","","0.356827327","0.2463216238","0.1859129148","0.1862973424","","","","","","","72","H","0","img/none_selected.jpg","","109","main_expt"
"475","","bandit","188","552566","0.0-149.0-0.0","01591765","wem/bandit_either","A3TQD8CNO16IZK","either","5","","","","","","","0","0","1","0.2344179837","","0.2","0.6","0.8","0.4","","","","","0.2344179837","0.2431522628","0.1371624404","0.2015845776","","","","","","","72","H","0","img/none_selected.jpg","","110","main_expt"
"516","","bandit","189","554601","0.0-150.0-0.0","01591765","wem/bandit_either","A3TQD8CNO16IZK","either","5","","","","","","","0","0","1","","0.2644823096","0.2","0.6","0.8","0.4","0.2644823096","0.1757476643","0.1258232978","0.2003651753","","","","","","","","","","","72","H","0","img/none_selected.jpg","","111","main_expt"
"603","","bandit","190","556723","0.0-151.0-0.0","01591765","wem/bandit_either","A3TQD8CNO16IZK","either","5","","","","","","","0","0","1","","0.28311182","0.2","0.6","0.8","0.4","0.28311182","0.2451518953","0.1529967373","0.21392293","","","","","","","","","","","72","H","0","img/none_selected.jpg","","112","main_expt"
"460","","bandit","191","558703","0.0-152.0-0.0","01591765","wem/bandit_either","A3TQD8CNO16IZK","either","5","","","","","","","0","0","1","","0.2413269532","0.2","0.6","0.8","0.4","0.2413269532","0.2407836715","0.148248117","0.1606798039","","","","","","","","","","","72","H","0","img/none_selected.jpg","","113","main_expt"
"495","","bandit","192","560722","0.0-153.0-0.0","01591765","wem/bandit_either","A3TQD8CNO16IZK","either","5","","","","","","","0","0","1","0.1562208239","","0.2","0.6","0.8","0.4","","","","","0.3100969134","0.3099317417","0.1562208239","0.2095980235","","","","","","","75","K","2","","","114","main_expt"
"615","","bandit","193","562856","0.0-154.0-0.0","01591765","wem/bandit_either","A3TQD8CNO16IZK","either","5","","","","","","","0","0","1","0.2138032898","","0.2","0.6","0.8","0.4","","","","","0.329842252","0.3180754701","0.2138032898","0.2550279667","","","","","","","75","K","2","","","115","main_expt"
"406","","bandit","194","564780","0.0-155.0-0.0","01591765","wem/bandit_either","A3TQD8CNO16IZK","either","5","","","","","","","0","0","1","","0.3223706096","0.2","0.6","0.8","0.4","0.3223706096","0.2919742107","0.2331260325","0.2471764387","","","","","","","","","","","72","H","0","img/none_selected.jpg","","116","main_expt"
"468","","bandit","195","566768","0.0-156.0-0.0","01591765","wem/bandit_either","A3TQD8CNO16IZK","either","5","","","","","","","0","0","1","","0.3098408215","0.2","0.6","0.8","0.4","0.3098408215","0.2799774295","0.1826309729","0.2730878341","","","","","","","","","","","72","H","0","img/none_selected.jpg","","117","main_expt"
"785","","bandit","196","569068","0.0-157.0-0.0","01591765","wem/bandit_either","A3TQD8CNO16IZK","either","5","","","","","","","0","0","1","0.2646714695","","0.2","0.6","0.8","0.4","","","","","0.2974554567","0.2646714695","0.1511269107","0.2071462199","","","","","","","74","J","1","","","118","main_expt"
"634","","bandit","197","571223","0.0-158.0-0.0","01591765","wem/bandit_either","A3TQD8CNO16IZK","either","5","","","","","","","0","0","1","","0.3598468986","0.2","0.6","0.8","0.4","0.3598468986","0.3179839519","0.1559979654","0.2275232499","","","","","","","","","","","72","H","0","img/none_selected.jpg","","119","main_expt"
"472","","bandit","198","573215","0.0-159.0-0.0","01591765","wem/bandit_either","A3TQD8CNO16IZK","either","5","","","","","","","0","0","1","","0.2767559596","0.2","0.6","0.8","0.4","0.2984373086","0.3302262658","0.1463004055","0.2767559596","","","","","","","","","","","76","L","3","","","120","main_expt"
"443","","bandit","199","575179","0.0-160.0-0.0","01591765","wem/bandit_either","A3TQD8CNO16IZK","either","5","","","","","","","0","1","0","","0.2973090059","0.2","0.6","0.8","0.4","0.2973090059","0.3500549905","0.1418195479","0.3448590315","","","","","","","","","","","72","H","0","img/none_selected.jpg","","121","main_expt"
"686","","bandit","200","577388","0.0-161.0-0.0","01591765","wem/bandit_either","A3TQD8CNO16IZK","either","5","","","","","","","0","1","0","","0.3382791822","0.2","0.6","0.8","0.4","0.3382791822","0.2686616284","0.1270782113","0.3593301016","","","","","","","","","","","72","H","0","img/none_selected.jpg","","122","main_expt"
"692","","bandit","201","579604","0.0-162.0-0.0","01591765","wem/bandit_either","A3TQD8CNO16IZK","either","5","","","","","","","0","0","1","","0.3154347028","0.2","0.6","0.8","0.4","0.3154347028","0.2277230314","0.1207154071","0.3680529171","","","","","","","","","","","72","H","0","img/none_selected.jpg","","123","main_expt"
"674","","bandit","202","581801","0.0-163.0-0.0","01591765","wem/bandit_either","A3TQD8CNO16IZK","either","5","","","","","","","0","1","0","","0.2966737815","0.2","0.6","0.8","0.4","0.2966737815","0.3287090939","0.1229329119","0.3476523483","","","","","","","","","","","72","H","0","img/none_selected.jpg","","124","main_expt"
"612","","bandit","203","583939","0.0-164.0-0.0","01591765","wem/bandit_either","A3TQD8CNO16IZK","either","5","","","","","","","0","0","1","","0.3094831126","0.2","0.6","0.8","0.4","0.3094831126","0.3687339586","0.09241122996","0.3564603465","","","","","","","","","","","72","H","0","img/none_selected.jpg","","125","main_expt"
"480","","bandit","204","585941","0.0-165.0-0.0","01591765","wem/bandit_either","A3TQD8CNO16IZK","either","5","","","","","","","1","0","0","0.2488993205","","0.2","0.6","0.8","0.4","","","","","0.2488993205","0.3836195774","0.08418962236","0.3550684458","","","","","","","72","H","0","img/none_selected.jpg","","126","main_expt"
"638","","bandit","205","588101","0.0-166.0-0.0","01591765","wem/bandit_either","A3TQD8CNO16IZK","either","5","","","","","","","0","0","1","","0.1953487027","0.2","0.6","0.8","0.4","0.1953487027","0.3617365958","0.154715772","0.3235559827","","","","","","","","","","","72","H","0","img/none_selected.jpg","","127","main_expt"
"452","","bandit","206","590075","0.0-167.0-0.0","01591765","wem/bandit_either","A3TQD8CNO16IZK","either","5","","","","","","","0","0","1","","0.2171889907","0.2","0.6","0.8","0.4","0.2171889907","0.3235283493","0.1556709078","0.312087491","","","","","","","","","","","72","H","0","img/none_selected.jpg","","128","main_expt"
"626","","bandit","207","592248","0.0-168.0-0.0","01591765","wem/bandit_either","A3TQD8CNO16IZK","either","5","","","","","","","1","0","0","0.2467699801","","0.2","0.6","0.8","0.4","","","","","0.2467699801","0.3453830546","0.1214200615","0.2843272188","","","","","","","72","H","0","img/none_selected.jpg","","129","main_expt"
"609","","bandit","208","594389","0.0-169.0-0.0","01591765","wem/bandit_either","A3TQD8CNO16IZK","either","5","","","","","","","0","0","1","","0.2814443482","0.2","0.6","0.8","0.4","0.2814443482","0.3242747857","0.1377283829","0.2128416856","","","","","","","","","","","72","H","0","img/none_selected.jpg","","130","main_expt"
"478","","bandit","209","596388","0.0-170.0-0.0","01591765","wem/bandit_either","A3TQD8CNO16IZK","either","5","","","","","","","0","0","1","0.2834176508","","0.2","0.6","0.8","0.4","","","","","0.2834176508","0.3417201858","0.1397421628","0.2403879813","","","","","","","72","H","0","img/none_selected.jpg","","131","main_expt"
"583","","bandit","210","598493","0.0-171.0-0.0","01591765","wem/bandit_either","A3TQD8CNO16IZK","either","5","","","","","","","0","0","1","0.2429908031","","0.2","0.6","0.8","0.4","","","","","0.2429908031","0.3498614837","0.1061875113","0.2811421594","","","","","","","72","H","0","img/none_selected.jpg","","132","main_expt"
"585","","bandit","211","600603","0.0-172.0-0.0","01591765","wem/bandit_either","A3TQD8CNO16IZK","either","5","","","","","","","0","1","0","","0.3053559495","0.2","0.6","0.8","0.4","0.3053559495","0.3134828643","0.07774811701","0.3002858371","","","","","","","","","","","72","H","0","img/none_selected.jpg","","133","main_expt"
"572","","bandit","212","602698","0.0-173.0-0.0","01591765","wem/bandit_either","A3TQD8CNO16IZK","either","5","","","","","","","0","1","0","","0.2693478067","0.2","0.6","0.8","0.4","0.2693478067","0.3554593188","0.08211281178","0.277406375","","","","","","","","","","","72","H","0","img/none_selected.jpg","","134","main_expt"
"583","","bandit","213","604802","0.0-174.0-0.0","01591765","wem/bandit_either","A3TQD8CNO16IZK","either","5","","","","","","","0","1","0","","0.3369166079","0.2","0.6","0.8","0.4","0.3369166079","0.3150900126","0.1123817552","0.2897147582","","","","","","","","","","","72","H","0","img/none_selected.jpg","","135","main_expt"
"614","","bandit","214","606939","0.0-175.0-0.0","01591765","wem/bandit_either","A3TQD8CNO16IZK","either","5","","","","","","","0","0","1","0.268603144","","0.2","0.6","0.8","0.4","","","","","0.268603144","0.3199395785","0.1478339482","0.3590576628","","","","","","","72","H","0","img/none_selected.jpg","","136","main_expt"
"525","","bandit","215","608983","0.0-176.0-0.0","01591765","wem/bandit_either","A3TQD8CNO16IZK","either","5","","","","","","","0","1","0","","0.2373427956","0.2","0.6","0.8","0.4","0.2373427956","0.33362357","0.1374936615","0.3822427384","","","","","","","","","","","72","H","0","img/none_selected.jpg","","137","main_expt"
"620","","bandit","216","611126","0.0-177.0-0.0","01591765","wem/bandit_either","A3TQD8CNO16IZK","either","5","","","","","","","0","0","1","","0.2206869265","0.2","0.6","0.8","0.4","0.2206869265","0.3611324022","0.159761955","0.3410071165","","","","","","","","","","","72","H","0","img/none_selected.jpg","","138","main_expt"
"535","","bandit","217","613182","0.0-178.0-0.0","01591765","wem/bandit_either","A3TQD8CNO16IZK","either","5","","","","","","","0","0","1","","0.2177966349","0.2","0.6","0.8","0.4","0.2177966349","0.3504145086","0.1363721132","0.3738014659","","","","","","","","","","","72","H","0","img/none_selected.jpg","","139","main_expt"
"462","","bandit","218","615165","0.0-179.0-0.0","01591765","wem/bandit_either","A3TQD8CNO16IZK","either","5","","","","","","","0","0","1","0.2387685432","","0.2","0.6","0.8","0.4","","","","","0.2387685432","0.309774603","0.1031445192","0.422575493","","","","","","","72","H","0","img/none_selected.jpg","","140","main_expt"
"503","","bandit","219","617189","0.0-180.0-0.0","01591765","wem/bandit_either","A3TQD8CNO16IZK","either","5","","","","","","","1","0","0","0.2575087366","","0.2","0.6","0.8","0.4","","","","","0.2575087366","0.3506531288","0.09805286369","0.4439129864","","","","","","","72","H","0","img/none_selected.jpg","","141","main_expt"
"560","","bandit","220","619271","0.0-181.0-0.0","01591765","wem/bandit_either","A3TQD8CNO16IZK","either","5","","","","","","","0","0","1","","0.2392038972","0.2","0.6","0.8","0.4","0.2392038972","0.2965027242","0.1149002948","0.4323802182","","","","","","","","","","","72","H","0","img/none_selected.jpg","","142","main_expt"
"417","","bandit","221","621207","0.0-182.0-0.0","01591765","wem/bandit_either","A3TQD8CNO16IZK","either","5","","","","","","","0","1","0","","0.2216470548","0.2","0.6","0.8","0.4","0.2216470548","0.2087517366","0.1209542099","0.4358412593","","","","","","","","","","","72","H","0","img/none_selected.jpg","","143","main_expt"
"532","","bandit","222","623262","0.0-183.0-0.0","01591765","wem/bandit_either","A3TQD8CNO16IZK","either","5","","","","","","","0","0","1","","0.2224896139","0.2","0.6","0.8","0.4","0.2224896139","0.2313605626","0.1202521083","0.4407373256","","","","","","","","","","","72","H","0","img/none_selected.jpg","","144","main_expt"
"404","","bandit","223","625191","0.0-184.0-0.0","01591765","wem/bandit_either","A3TQD8CNO16IZK","either","5","","","","","","","0","0","1","","0.1925605464","0.2","0.6","0.8","0.4","0.1925605464","0.1785565547","0.1619743669","0.4661091035","","","","","","","","","","","72","H","0","img/none_selected.jpg","","145","main_expt"
"403","","bandit","224","627123","0.0-185.0-0.0","01591765","wem/bandit_either","A3TQD8CNO16IZK","either","5","","","","","","","0","1","0","","0.2069800611","0.2","0.6","0.8","0.4","0.2069800611","0.1770660648","0.1664631043","0.4637097668","","","","","","","","","","","72","H","0","img/none_selected.jpg","","146","main_expt"
"610","","bandit","225","629253","0.0-186.0-0.0","01591765","wem/bandit_either","A3TQD8CNO16IZK","either","5","","","","","","","0","0","1","","0.2489662189","0.2","0.6","0.8","0.4","0.2489662189","0.1063371611","0.1669241763","0.4700491642","","","","","","","","","","","72","H","0","img/none_selected.jpg","","147","main_expt"
"533","","bandit","226","631319","0.0-187.0-0.0","01591765","wem/bandit_either","A3TQD8CNO16IZK","either","5","","","","","","","0","0","1","","0.1946464158","0.2","0.6","0.8","0.4","0.1946464158","0.1216370817","0.1581456949","0.4648109734","","","","","","","","","","","72","H","0","img/none_selected.jpg","","148","main_expt"
"464","","bandit","227","633304","0.0-188.0-0.0","01591765","wem/bandit_either","A3TQD8CNO16IZK","either","5","","","","","","","0","0","1","","0.1826562491","0.2","0.6","0.8","0.4","0.1826562491","0.1024256959","0.1698392466","0.4635511513","","","","","","","","","","","72","H","0","img/none_selected.jpg","","149","main_expt"
"434","","bandit","228","635261","0.0-189.0-0.0","01591765","wem/bandit_either","A3TQD8CNO16IZK","either","5","","","","","","","0","1","0","","0.1750473563","0.2","0.6","0.8","0.4","0.1750473563","0.1371094633","0.2140114634","0.4445017148","","","","","","","","","","","72","H","0","img/none_selected.jpg","","150","main_expt"
"509","","bandit","229","637293","0.0-190.0-0.0","01591765","wem/bandit_either","A3TQD8CNO16IZK","either","5","","","","","","","0","0","1","","0.1109536645","0.2","0.6","0.8","0.4","0.1109536645","0.1702433702","0.2392960001","0.4434799742","","","","","","","","","","","72","H","0","img/none_selected.jpg","","151","main_expt"
"558","","bandit","230","639374","0.0-191.0-0.0","01591765","wem/bandit_either","A3TQD8CNO16IZK","either","5","","","","","","","0","0","1","","0.1143086707","0.2","0.6","0.8","0.4","0.1143086707","0.1860489046","0.2095863317","0.4451665291","","","","","","","","","","","72","H","0","img/none_selected.jpg","","152","main_expt"
"420","","bandit","231","641315","0.0-192.0-0.0","01591765","wem/bandit_either","A3TQD8CNO16IZK","either","5","","","","","","","0","0","1","","0.1236290712","0.2","0.6","0.8","0.4","0.1236290712","0.2117094388","0.2543258611","0.4401532833","","","","","","","","","","","72","H","0","img/none_selected.jpg","","153","main_expt"
"529","","bandit","232","643373","0.0-193.0-0.0","01591765","wem/bandit_either","A3TQD8CNO16IZK","either","5","","","","","","","0","0","1","","0.1600695342","0.2","0.6","0.8","0.4","0.1600695342","0.2072389033","0.2602259906","0.4516855879","","","","","","","","","","","72","H","0","img/none_selected.jpg","","154","main_expt"
"422","","bandit","233","645316","0.0-194.0-0.0","01591765","wem/bandit_either","A3TQD8CNO16IZK","either","5","","","","","","","0","0","1","0.1770288166","","0.2","0.6","0.8","0.4","","","","","0.1770288166","0.1986333914","0.2750581274","0.4480264808","","","","","","","72","H","0","img/none_selected.jpg","","155","main_expt"
"426","","bandit","234","647265","0.0-195.0-0.0","01591765","wem/bandit_either","A3TQD8CNO16IZK","either","5","","","","","","","1","0","0","0.2054640346","","0.2","0.6","0.8","0.4","","","","","0.1761817894","0.2054640346","0.2438045727","0.4260414265","","","","","","","74","J","1","","","156","main_expt"
"718","","bandit","235","649504","0.0-196.0-0.0","01591765","wem/bandit_either","A3TQD8CNO16IZK","either","5","","","","","","","0","0","1","0.1810715383","","0.2","0.6","0.8","0.4","","","","","0.1998830888","0.1810715383","0.2857025143","0.4365201507","","","","","","","74","J","1","","","157","main_expt"
"408","","bandit","236","651434","0.0-197.0-0.0","01591765","wem/bandit_either","A3TQD8CNO16IZK","either","5","","","","","","","0","0","1","0.2118906364","","0.2","0.6","0.8","0.4","","","","","0.2150354531","0.2118906364","0.2887719476","0.4076244479","","","","","","","74","J","1","","","158","main_expt"
"352","","bandit","237","653308","0.0-198.0-0.0","01591765","wem/bandit_either","A3TQD8CNO16IZK","either","5","","","","","","","0","0","1","0.2293976715","","0.2","0.6","0.8","0.4","","","","","0.2221069796","0.2293976715","0.2859462397","0.403953851","","","","","","","74","J","1","","","159","main_expt"
"586","","bandit","238","655423","0.0-199.0-0.0","01591765","wem/bandit_either","A3TQD8CNO16IZK","either","5","","","","","","","0","0","1","0.2627335039","","0.2","0.6","0.8","0.4","","","","","0.2627335039","0.2186051381","0.207432816","0.4282135537","","","","","","","72","H","0","img/none_selected.jpg","","160","main_expt"
"427","","bandit","239","657382","0.0-200.0-0.0","01591765","wem/bandit_either","A3TQD8CNO16IZK","either","5","","","","","","","0","0","1","","0.2922457848","0.2","0.6","0.8","0.4","0.2922457848","0.2175927206","0.1611694724","0.4479073124","","","","","","","","","","","72","H","0","img/none_selected.jpg","","161","main_expt"
"547","","bandit","240","659455","0.0-201.0-0.0","01591765","wem/bandit_either","A3TQD8CNO16IZK","either","5","","","","","","","0","0","1","","0.3040212123","0.2","0.6","0.8","0.4","0.3040212123","0.2370404117","0.14378348","0.4456201243","","","","","","","","","","","72","H","0","img/none_selected.jpg","","162","main_expt"
"647","","bandit","241","661623","0.0-202.0-0.0","01591765","wem/bandit_either","A3TQD8CNO16IZK","either","5","","","","","","","0","1","0","","0.4384930657","0.2","0.6","0.8","0.4","0.2933359027","0.2778780432","0.1707099899","0.4384930657","","","","","","","","","","","76","L","3","","","163","main_expt"
"435","","bandit","242","663582","0.0-203.0-0.0","01591765","wem/bandit_either","A3TQD8CNO16IZK","either","5","","","","","","","1","0","0","0.4231568034","","0.2","0.6","0.8","0.4","","","","","0.2388203062","0.2643388611","0.1933693166","0.4231568034","","","","","","","76","L","3","","","164","main_expt"
"533","","bandit","243","665635","0.0-204.0-0.0","01591765","wem/bandit_either","A3TQD8CNO16IZK","either","5","","","","","","","0","0","1","0.4412535734","","0.2","0.6","0.8","0.4","","","","","0.2646204916","0.1967204453","0.2406324952","0.4412535734","","","","","","","76","L","3","","","165","main_expt"
"416","","bandit","244","667574","0.0-205.0-0.0","01591765","wem/bandit_either","A3TQD8CNO16IZK","either","5","","","","","","","0","0","1","0.438364003","","0.2","0.6","0.8","0.4","","","","","0.2591758032","0.1567937345","0.2650462377","0.438364003","","","","","","","76","L","3","","","166","main_expt"
"659","","bandit","245","669758","0.0-206.0-0.0","01591765","wem/bandit_either","A3TQD8CNO16IZK","either","5","","","","","","","1","0","0","0.4290991351","","0.2","0.6","0.8","0.4","","","","","0.1955934818","0.1201482918","0.245875583","0.4290991351","","","","","","","76","L","3","","","167","main_expt"
"458","","bandit","246","671739","0.0-207.0-0.0","01591765","wem/bandit_either","A3TQD8CNO16IZK","either","5","","","","","","","0","0","1","","0.4510860662","0.2","0.6","0.8","0.4","0.2090603634","0.0936051119","0.257303599","0.4510860662","","","","","","","","","","","76","L","3","","","168","main_expt"
"675","","bandit","247","673935","0.0-208.0-0.0","01591765","wem/bandit_either","A3TQD8CNO16IZK","either","5","","","","","","","0","0","1","","0.4491424364","0.2","0.6","0.8","0.4","0.2678479696","0.08775096918","0.2993732043","0.4491424364","","","","","","","","","","","76","L","3","","","169","main_expt"
"433","","bandit","248","675891","0.0-209.0-0.0","01591765","wem/bandit_either","A3TQD8CNO16IZK","either","5","","","","","","","0","0","1","","0.4332244901","0.2","0.6","0.8","0.4","0.2532125956","0.06743429675","0.3388977639","0.4332244901","","","","","","","","","","","76","L","3","","","170","main_expt"
"443","","bandit","249","677856","0.0-210.0-0.0","01591765","wem/bandit_either","A3TQD8CNO16IZK","either","5","","","","","","","0","1","0","","0.4405036994","0.2","0.6","0.8","0.4","0.2568627054","0.05979118822","0.2947926635","0.4405036994","","","","","","","","","","","76","L","3","","","171","main_expt"
"479","","bandit","250","679860","0.0-211.0-0.0","01591765","wem/bandit_either","A3TQD8CNO16IZK","either","5","","","","","","","0","0","1","0.4358521759","","0.2","0.6","0.8","0.4","","","","","0.2451563353","0.03200499914","0.2892529657","0.4358521759","","","","","","","76","L","3","","","172","main_expt"
"440","","bandit","251","681824","0.0-212.0-0.0","01591765","wem/bandit_either","A3TQD8CNO16IZK","either","5","","","","","","","0","1","0","","0.4471617722","0.2","0.6","0.8","0.4","0.3003395367","0.04613358223","0.2571917514","0.4471617722","","","","","","","","","","","76","L","3","","","173","main_expt"
"635","","bandit","252","683983","0.0-213.0-0.0","01591765","wem/bandit_either","A3TQD8CNO16IZK","either","5","","","","","","","0","0","1","","0.4560251174","0.2","0.6","0.8","0.4","0.2545998681","0.05969677181","0.244173221","0.4560251174","","","","","","","","","","","76","L","3","","","174","main_expt"
"439","","bandit","253","685949","0.0-214.0-0.0","01591765","wem/bandit_either","A3TQD8CNO16IZK","either","5","","","","","","","0","1","0","","0.4379349024","0.2","0.6","0.8","0.4","0.3383135611","0.05930066603","0.2038098688","0.4379349024","","","","","","","","","","","76","L","3","","","175","main_expt"
"626","","bandit","254","688099","0.0-215.0-0.0","01591765","wem/bandit_either","A3TQD8CNO16IZK","either","5","","","","","","","0","0","1","","0.4328841116","0.2","0.6","0.8","0.4","0.3880627729","0.08110879181","0.2053823003","0.4328841116","","","","","","","","","","","76","L","3","","","176","main_expt"
"512","","bandit","255","690133","0.0-216.0-0.0","01591765","wem/bandit_either","A3TQD8CNO16IZK","either","5","","","","","","","0","1","0","","0.3965365967","0.2","0.6","0.8","0.4","0.3920994557","0.07611568943","0.2193083282","0.3965365967","","","","","","","","","","","76","L","3","","","177","main_expt"
"727","","bandit","256","692383","0.0-217.0-0.0","01591765","wem/bandit_either","A3TQD8CNO16IZK","either","5","","","","","","","0","0","1","","0.3899234309","0.2","0.6","0.8","0.4","0.3882277994","0.1220467165","0.1904263594","0.3899234309","","","","","","","","","","","76","L","3","","","178","main_expt"
"461","","bandit","257","694367","0.0-218.0-0.0","01591765","wem/bandit_either","A3TQD8CNO16IZK","either","5","","","","","","","0","0","1","","0.4238443777","0.2","0.6","0.8","0.4","0.3939691408","0.1698853315","0.2212788648","0.4238443777","","","","","","","","","","","76","L","3","","","179","main_expt"
"546","","bandit","258","696437","0.0-219.0-0.0","01591765","wem/bandit_either","A3TQD8CNO16IZK","either","5","","","","","","","0","0","1","","0.4487400994","0.2","0.6","0.8","0.4","0.4074656662","0.1374762061","0.2640717145","0.4487400994","","","","","","","","","","","76","L","3","","","180","main_expt"
"513","","bandit","259","698478","0.0-220.0-0.0","01591765","wem/bandit_either","A3TQD8CNO16IZK","either","5","","","","","","","0","0","1","0.4314573438","","0.2","0.6","0.8","0.4","","","","","0.3724421945","0.09961924189","0.2426483564","0.4314573438","","","","","","","76","L","3","","","181","main_expt"
"548","","bandit","260","700552","0.0-221.0-0.0","01591765","wem/bandit_either","A3TQD8CNO16IZK","either","5","","","","","","","0","0","1","0.2001563476","","0.2","0.6","0.8","0.4","","","","","0.2998177931","0.1391043194","0.2001563476","0.4458059303","","","","","","","75","K","2","","","182","main_expt"
"392","","bandit","261","702466","0.0-222.0-0.0","01591765","wem/bandit_either","A3TQD8CNO16IZK","either","5","","","","","","","0","0","1","0.1336424596","","0.2","0.6","0.8","0.4","","","","","0.3629728763","0.1336424596","0.2167094124","0.4485460149","","","","","","","74","J","1","","","183","main_expt"
"405","","bandit","262","704394","0.0-223.0-0.0","01591765","wem/bandit_either","A3TQD8CNO16IZK","either","5","","","","","","","0","0","1","","0.3763603645","0.2","0.6","0.8","0.4","0.3763603645","0.115911235","0.2402813617","0.4078350507","","","","","","","","","","","72","H","0","img/none_selected.jpg","","184","main_expt"
"474","","bandit","263","706392","0.0-224.0-0.0","01591765","wem/bandit_either","A3TQD8CNO16IZK","either","5","","","","","","","0","0","1","0.3805788675","","0.2","0.6","0.8","0.4","","","","","0.3472982705","0.1394203739","0.2745112141","0.3805788675","","","","","","","76","L","3","","","185","main_expt"
"485","","bandit","264","708402","0.0-225.0-0.0","01591765","wem/bandit_either","A3TQD8CNO16IZK","either","5","","","","","","","1","0","0","0.4236809331","","0.2","0.6","0.8","0.4","","","","","0.3095995051","0.1557479742","0.2774566956","0.4236809331","","","","","","","76","L","3","","","186","main_expt"
"614","","bandit","265","710546","0.0-226.0-0.0","01591765","wem/bandit_either","A3TQD8CNO16IZK","either","5","","","","","","","0","1","0","","0.4058627081","0.2","0.6","0.8","0.4","0.2567332284","0.1823611596","0.2876011691","0.4058627081","","","","","","","","","","","76","L","3","","","187","main_expt"
"551","","bandit","266","712620","0.0-227.0-0.0","01591765","wem/bandit_either","A3TQD8CNO16IZK","either","5","","","","","","","0","0","1","0.3913346521","","0.2","0.6","0.8","0.4","","","","","0.2555256861","0.1854179297","0.2947112378","0.3913346521","","","","","","","76","L","3","","","188","main_expt"
"629","","bandit","267","714772","0.0-228.0-0.0","01591765","wem/bandit_either","A3TQD8CNO16IZK","either","5","","","","","","","0","0","1","","0.3760164219","0.2","0.6","0.8","0.4","0.2009875262","0.1875645599","0.2581494","0.3760164219","","","","","","","","","","","76","L","3","","","189","main_expt"
"453","","bandit","268","716749","0.0-229.0-0.0","01591765","wem/bandit_either","A3TQD8CNO16IZK","either","5","","","","","","","0","1","0","","0.3327352817","0.2","0.6","0.8","0.4","0.2055488595","0.2018323604","0.1756323468","0.3327352817","","","","","","","","","","","76","L","3","","","190","main_expt"
"453","","bandit","269","718733","0.0-230.0-0.0","01591765","wem/bandit_either","A3TQD8CNO16IZK","either","5","","","","","","","0","0","1","","0.3015177445","0.2","0.6","0.8","0.4","0.1506387864","0.221094727","0.2521570866","0.3015177445","","","","","","","","","","","76","L","3","","","191","main_expt"
"524","","bandit","270","720780","0.0-231.0-0.0","01591765","wem/bandit_either","A3TQD8CNO16IZK","either","5","","","","","","","0","1","0","","0.2773298268","0.2","0.6","0.8","0.4","0.2027442266","0.2320570195","0.2964739449","0.2773298268","","","","","","","","","","","76","L","3","","","192","main_expt"
"558","","bandit","271","722862","0.0-232.0-0.0","01591765","wem/bandit_either","A3TQD8CNO16IZK","either","5","","","","","","","0","1","0","","0.2836613797","0.2","0.6","0.8","0.4","0.1969137872","0.2948950962","0.2612966838","0.2836613797","","","","","","","","","","","76","L","3","","","193","main_expt"
"622","","bandit","272","725007","0.0-233.0-0.0","01591765","wem/bandit_either","A3TQD8CNO16IZK","either","5","","","","","","","0","0","1","0.2799350415","","0.2","0.6","0.8","0.4","","","","","0.2114994946","0.2602906927","0.3292914436","0.2799350415","","","","","","","76","L","3","","","194","main_expt"
"591","","bandit","273","727121","0.0-234.0-0.0","01591765","wem/bandit_either","A3TQD8CNO16IZK","either","5","","","","","","","0","0","1","","0.2068597772","0.2","0.6","0.8","0.4","0.2467939011","0.1771499101","0.4070308407","0.2068597772","","","","","","","","","","","76","L","3","","","195","main_expt"
"516","","bandit","274","729162","0.0-235.0-0.0","01591765","wem/bandit_either","A3TQD8CNO16IZK","either","5","","","","","","","0","0","1","0.2679469531","","0.2","0.6","0.8","0.4","","","","","0.2731811988","0.1746274925","0.3494820729","0.2679469531","","","","","","","76","L","3","","","196","main_expt"
"521","","bandit","275","731207","0.0-236.0-0.0","01591765","wem/bandit_either","A3TQD8CNO16IZK","either","5","","","","","","","0","0","1","","0.2448078588","0.2","0.6","0.8","0.4","0.2512114903","0.193224684","0.3571939809","0.2448078588","","","","","","","","","","","76","L","3","","","197","main_expt"
"454","","bandit","276","733186","0.0-237.0-0.0","01591765","wem/bandit_either","A3TQD8CNO16IZK","either","5","","","","","","","0","1","0","","0.2433987968","0.2","0.6","0.8","0.4","0.190651112","0.1771509929","0.382430028","0.2433987968","","","","","","","","","","","76","L","3","","","198","main_expt"
"626","","bandit","277","735335","0.0-238.0-0.0","01591765","wem/bandit_either","A3TQD8CNO16IZK","either","5","","","","","","","0","0","1","","0.2653624242","0.2","0.6","0.8","0.4","0.1701189695","0.2466668772","0.3353474301","0.2653624242","","","","","","","","","","","76","L","3","","","199","main_expt"
"435","","bandit","278","737293","0.0-239.0-0.0","01591765","wem/bandit_either","A3TQD8CNO16IZK","either","5","","","","","","","0","0","1","0.2551376492","","0.2","0.6","0.8","0.4","","","","","0.1656975488","0.2477816141","0.3321976498","0.2551376492","","","","","","","76","L","3","","","200","main_expt"
"451","","bandit","279","739267","0.0-240.0-0.0","01591765","wem/bandit_either","A3TQD8CNO16IZK","either","5","","","","","","","0","0","1","","0.2660639347","0.2","0.6","0.8","0.4","0.1647298582","0.2744817861","0.3218117355","0.2660639347","","","","","","","","","","","76","L","3","","","201","main_expt"
"479","","bandit","280","741272","0.0-241.0-0.0","01591765","wem/bandit_either","A3TQD8CNO16IZK","either","5","","","","","","","0","0","1","0.2220900594","","0.2","0.6","0.8","0.4","","","","","0.1242041815","0.3043062986","0.2949214693","0.2220900594","","","","","","","76","L","3","","","202","main_expt"
"510","","bandit","281","743306","0.0-242.0-0.0","01591765","wem/bandit_either","A3TQD8CNO16IZK","either","5","","","","","","","0","0","1","0.300077299","","0.2","0.6","0.8","0.4","","","","","0.1684487429","0.272185569","0.300077299","0.1543353204","","","","","","","75","K","2","","","203","main_expt"
"396","","bandit","282","745220","0.0-243.0-0.0","01591765","wem/bandit_either","A3TQD8CNO16IZK","either","5","","","","","","","1","0","0","0.2610767704","","0.2","0.6","0.8","0.4","","","","","0.1666409686","0.2610767704","0.2866085977","0.1605482003","","","","","","","74","J","1","","","204","main_expt"
"681","","bandit","283","747425","0.0-244.0-0.0","01591765","wem/bandit_either","A3TQD8CNO16IZK","either","5","","","","","","","0","0","1","","0.2832615928","0.2","0.6","0.8","0.4","0.2197286508","0.2832615928","0.2695546272","0.1406914754","","","","","","","","","","","74","J","1","","","205","main_expt"
"538","","bandit","284","749488","0.0-245.0-0.0","01591765","wem/bandit_either","A3TQD8CNO16IZK","either","5","","","","","","","0","0","1","0.300913322","","0.2","0.6","0.8","0.4","","","","","0.2754509052","0.300913322","0.2622178416","0.1138947463","","","","","","","74","J","1","","","206","main_expt"
"499","","bandit","285","751512","0.0-246.0-0.0","01591765","wem/bandit_either","A3TQD8CNO16IZK","either","5","","","","","","","0","0","1","0.1096702189","","0.2","0.6","0.8","0.4","","","","","0.2664869377","0.3260258847","0.2498186578","0.1096702189","","","","","","","76","L","3","","","207","main_expt"
"645","","bandit","286","753680","0.0-247.0-0.0","01591765","wem/bandit_either","A3TQD8CNO16IZK","either","5","","","","","","","0","0","1","","0.3173829003","0.2","0.6","0.8","0.4","0.2686565688","0.3173829003","0.2335358635","0.09922356593","","","","","","","","","","","74","J","1","","","208","main_expt"
"495","","bandit","287","755698","0.0-248.0-0.0","01591765","wem/bandit_either","A3TQD8CNO16IZK","either","5","","","","","","","0","0","1","","0.2380255957","0.2","0.6","0.8","0.4","0.2380255957","0.3153846937","0.2638942681","0.101567507","","","","","","","","","","","72","H","0","img/none_selected.jpg","","209","main_expt"
"533","","bandit","288","757757","0.0-249.0-0.0","01591765","wem/bandit_either","A3TQD8CNO16IZK","either","5","","","","","","","0","0","1","","0.3010876552","0.2","0.6","0.8","0.4","0.2507768727","0.3010876552","0.2526926237","0.08675379402","","","","","","","","","","","74","J","1","","","210","main_expt"
"485","","bandit","289","759782","0.0-250.0-0.0","01591765","wem/bandit_either","A3TQD8CNO16IZK","either","5","","","","","","","0","0","1","","0.07512021269","0.2","0.6","0.8","0.4","0.2685142319","0.2864900033","0.2740367769","0.07512021269","","","","","","","","","","","76","L","3","","","211","main_expt"
"460","","bandit","290","761767","0.0-251.0-0.0","01591765","wem/bandit_either","A3TQD8CNO16IZK","either","5","","","","","","","0","1","0","","0.2440836191","0.2","0.6","0.8","0.4","0.260511483","0.3163372434","0.2440836191","0.08144254236","","","","","","","","","","","75","K","2","","","212","main_expt"
"409","","bandit","291","763699","0.0-252.0-0.0","01591765","wem/bandit_either","A3TQD8CNO16IZK","either","5","","","","","","","0","0","1","0.2341903104","","0.2","0.6","0.8","0.4","","","","","0.2579605047","0.2701305136","0.2341903104","0.06585574052","","","","","","","75","K","2","","","213","main_expt"
"404","","bandit","292","765629","0.0-253.0-0.0","01591765","wem/bandit_either","A3TQD8CNO16IZK","either","5","","","","","","","0","0","1","0.2097526345","","0.2","0.6","0.8","0.4","","","","","0.2470456849","0.302599165","0.2097526345","0.08686614453","","","","","","","75","K","2","","","214","main_expt"
"563","","bandit","293","767717","0.0-254.0-0.0","01591765","wem/bandit_either","A3TQD8CNO16IZK","either","5","","","","","","","0","0","1","0.1796882487","","0.2","0.6","0.8","0.4","","","","","0.3285383036","0.2968005471","0.1796882487","0.1068548489","","","","","","","75","K","2","","","215","main_expt"
"467","","bandit","294","769708","0.0-255.0-0.0","01591765","wem/bandit_either","A3TQD8CNO16IZK","either","5","","","","","","","1","0","0","0.2835536598","","0.2","0.6","0.8","0.4","","","","","0.3780044773","0.2835536598","0.2237900511","0.1211736082","","","","","","","74","J","1","","","216","main_expt"
"397","","bandit","295","771631","0.0-256.0-0.0","01591765","wem/bandit_either","A3TQD8CNO16IZK","either","5","","","","","","","0","0","1","0.2520762718","","0.2","0.6","0.8","0.4","","","","","0.3939228946","0.2520762718","0.2265358539","0.09343701815","","","","","","","74","J","1","","","217","main_expt"
"560","","bandit","296","773715","0.0-257.0-0.0","01591765","wem/bandit_either","A3TQD8CNO16IZK","either","5","","","","","","","1","0","0","0.2562699476","","0.2","0.6","0.8","0.4","","","","","0.3198270803","0.2562699476","0.2364013437","0.1001055386","","","","","","","74","J","1","","","218","main_expt"
"457","","bandit","297","775696","0.0-258.0-0.0","01591765","wem/bandit_either","A3TQD8CNO16IZK","either","5","","","","","","","0","0","1","0.3002431464","","0.2","0.6","0.8","0.4","","","","","0.3502502288","0.3002431464","0.2810560361","0.09524874014","","","","","","","74","J","1","","","219","main_expt"
"540","","bandit","298","777761","0.0-259.0-0.0","01591765","wem/bandit_either","A3TQD8CNO16IZK","either","5","","","","","","","1","0","0","0.3365413303","","0.2","0.6","0.8","0.4","","","","","0.3402456168","0.3365413303","0.3027429446","0.1304899995","","","","","","","74","J","1","","","220","main_expt"
"476","","bandit","299","779766","0.0-260.0-0.0","01591765","wem/bandit_either","A3TQD8CNO16IZK","either","5","","","","","","","1","0","0","0.2946103072","","0.2","0.6","0.8","0.4","","","","","0.3770059732","0.2946103072","0.3132134988","0.1272814923","","","","","","","74","J","1","","","221","main_expt"
"551","","bandit","300","781842","0.0-261.0-0.0","01591765","wem/bandit_either","A3TQD8CNO16IZK","either","5","","","","","","","0","0","1","0.3267284332","","0.2","0.6","0.8","0.4","","","","","0.3864421123","0.3267284332","0.2424821827","0.1654407056","","","","","","","74","J","1","","","222","main_expt"
"572","","bandit","301","783931","0.0-262.0-0.0","01591765","wem/bandit_either","A3TQD8CNO16IZK","either","5","","","","","","","0","0","1","0.3175152631","","0.2","0.6","0.8","0.4","","","","","0.4205211408","0.3175152631","0.2595367495","0.1788325852","","","","","","","74","J","1","","","223","main_expt"
"561","","bandit","302","786019","0.0-263.0-0.0","01591765","wem/bandit_either","A3TQD8CNO16IZK","either","5","","","","","","","0","0","1","","0.3192400935","0.2","0.6","0.8","0.4","0.4131889957","0.3192400935","0.328819141","0.1736623033","","","","","","","","","","","74","J","1","","","224","main_expt"
"548","","bandit","303","788094","0.0-264.0-0.0","01591765","wem/bandit_either","A3TQD8CNO16IZK","either","5","","","","","","","0","0","1","0.3096750449","","0.2","0.6","0.8","0.4","","","","","0.4001513574","0.3096750449","0.356121412","0.1721911447","","","","","","","74","J","1","","","225","main_expt"
"527","","bandit","304","790148","0.0-265.0-0.0","01591765","wem/bandit_either","A3TQD8CNO16IZK","either","5","","","","","","","0","0","1","0.3142833063","","0.2","0.6","0.8","0.4","","","","","0.3963688582","0.3142833063","0.3394019192","0.2133818582","","","","","","","74","J","1","","","226","main_expt"
"531","","bandit","305","792206","0.0-266.0-0.0","01591765","wem/bandit_either","A3TQD8CNO16IZK","either","5","","","","","","","0","1","0","","0.3979714495","0.2","0.6","0.8","0.4","0.3979714495","0.3096885674","0.2860553004","0.2620007467","","","","","","","","","","","72","H","0","img/none_selected.jpg","","227","main_expt"
"567","","bandit","306","794297","0.0-267.0-0.0","01591765","wem/bandit_either","A3TQD8CNO16IZK","either","5","","","","","","","0","0","1","","0.3811043637","0.2","0.6","0.8","0.4","0.3811043637","0.3048295172","0.2967856672","0.2961930455","","","","","","","","","","","72","H","0","img/none_selected.jpg","","228","main_expt"
"466","","bandit","307","796290","0.0-268.0-0.0","01591765","wem/bandit_either","A3TQD8CNO16IZK","either","5","","","","","","","0","0","1","","0.3488149186","0.2","0.6","0.8","0.4","0.3488149186","0.2553920021","0.2857745529","0.3081123415","","","","","","","","","","","72","H","0","img/none_selected.jpg","","229","main_expt"
"504","","bandit","308","798321","0.0-269.0-0.0","01591765","wem/bandit_either","A3TQD8CNO16IZK","either","5","","","","","","","0","0","1","","0.2883621188","0.2","0.6","0.8","0.4","0.2883621188","0.2783794412","0.2589404948","0.3027177586","","","","","","","","","","","72","H","0","img/none_selected.jpg","","230","main_expt"
"441","","bandit","309","800289","0.0-270.0-0.0","01591765","wem/bandit_either","A3TQD8CNO16IZK","either","5","","","","","","","0","0","1","","0.2444465504","0.2","0.6","0.8","0.4","0.2444465504","0.2735536708","0.2628441024","0.2495346478","","","","","","","","","","","72","H","0","img/none_selected.jpg","","231","main_expt"
"474","","bandit","310","802292","0.0-271.0-0.0","01591765","wem/bandit_either","A3TQD8CNO16IZK","either","5","","","","","","","0","0","1","0.2262440502","","0.2","0.6","0.8","0.4","","","","","0.2996930955","0.2262440502","0.276537748","0.2185872191","","","","","","","74","J","1","","","232","main_expt"
"551","","bandit","311","804372","0.0-272.0-0.0","01591765","wem/bandit_either","A3TQD8CNO16IZK","either","5","","","","","","","0","0","1","","0.2485723575","0.2","0.6","0.8","0.4","0.3103031796","0.2171974885","0.2485723575","0.1874863907","","","","","","","","","","","75","K","2","","","233","main_expt"
"472","","bandit","312","806372","0.0-273.0-0.0","01591765","wem/bandit_either","A3TQD8CNO16IZK","either","5","","","","","","","0","0","1","","0.2165838284","0.2","0.6","0.8","0.4","0.2971988612","0.2951485073","0.2172766866","0.2165838284","","","","","","","","","","","76","L","3","","","234","main_expt"
"493","","bandit","313","808390","0.0-274.0-0.0","01591765","wem/bandit_either","A3TQD8CNO16IZK","either","5","","","","","","","0","0","1","","0.3266576642","0.2","0.6","0.8","0.4","0.3266576642","0.3135740045","0.221542824","0.1791302586","","","","","","","","","","","72","H","0","img/none_selected.jpg","","235","main_expt"
"579","","bandit","314","810485","0.0-275.0-0.0","01591765","wem/bandit_either","A3TQD8CNO16IZK","either","5","","","","","","","0","1","0","","0.2945285262","0.2","0.6","0.8","0.4","0.3596878827","0.2945285262","0.2200573756","0.2463713802","","","","","","","","","","","74","J","1","","","236","main_expt"
"574","","bandit","315","812573","0.0-276.0-0.0","01591765","wem/bandit_either","A3TQD8CNO16IZK","either","5","","","","","","","0","0","1","0.2797454337","","0.2","0.6","0.8","0.4","","","","","0.3951370387","0.2797454337","0.2146478317","0.2204623923","","","","","","","74","J","1","","","237","main_expt"
"610","","bandit","316","814711","0.0-277.0-0.0","01591765","wem/bandit_either","A3TQD8CNO16IZK","either","5","","","","","","","0","0","1","0.266453507","","0.2","0.6","0.8","0.4","","","","","0.3863552979","0.266453507","0.2237656472","0.2316256556","","","","","","","74","J","1","","","238","main_expt"
"609","","bandit","317","816849","0.0-278.0-0.0","01591765","wem/bandit_either","A3TQD8CNO16IZK","either","5","","","","","","","0","0","1","","0.310831157","0.2","0.6","0.8","0.4","0.3962704677","0.310831157","0.2302611888","0.2406304147","","","","","","","","","","","74","J","1","","","239","main_expt"
"548","","bandit","318","818925","0.0-279.0-0.0","01591765","wem/bandit_either","A3TQD8CNO16IZK","either","5","","","","","","","0","0","1","0.2253069634","","0.2","0.6","0.8","0.4","","","","","0.3926977495","0.331950591","0.2253069634","0.2624476398","","","","","","","75","K","2","","","240","main_expt"
"427","","bandit","319","820880","0.0-280.0-0.0","01591765","wem/bandit_either","A3TQD8CNO16IZK","either","5","","","","","","","0","0","1","","0.3223776605","0.2","0.6","0.8","0.4","0.3381110468","0.3223776605","0.2523404353","0.2627099727","","","","","","","","","","","74","J","1","","","241","main_expt"
"547","","bandit","320","822957","0.0-281.0-0.0","01591765","wem/bandit_either","A3TQD8CNO16IZK","either","5","","","","","","","1","0","0","0.2262339403","","0.2","0.6","0.8","0.4","","","","","0.3213381148","0.3389272588","0.238450381","0.2262339403","","","","","","","76","L","3","","","242","main_expt"
"633","","bandit","321","825116","0.0-282.0-0.0","01591765","wem/bandit_either","A3TQD8CNO16IZK","either","5","","","","","","","0","0","1","0.2511573395","","0.2","0.6","0.8","0.4","","","","","0.3395415742","0.4023830898","0.2476478509","0.2511573395","","","","","","","76","L","3","","","243","main_expt"
"506","","bandit","322","827150","0.0-283.0-0.0","01591765","wem/bandit_either","A3TQD8CNO16IZK","either","5","","","","","","","0","1","0","","0.3112309098","0.2","0.6","0.8","0.4","0.3077285799","0.4072225753","0.2603762171","0.3112309098","","","","","","","","","","","76","L","3","","","244","main_expt"
"645","","bandit","323","829322","0.0-284.0-0.0","01591765","wem/bandit_either","A3TQD8CNO16IZK","either","5","","","","","","","1","0","0","0.3169667097","","0.2","0.6","0.8","0.4","","","","","0.269997398","0.4047901721","0.2778117757","0.3169667097","","","","","","","76","L","3","","","245","main_expt"
"648","","bandit","324","831487","0.0-285.0-0.0","01591765","wem/bandit_either","A3TQD8CNO16IZK","either","5","","","","","","","1","0","0","0.3774934029","","0.2","0.6","0.8","0.4","","","","","0.2896792764","0.4245844383","0.2571702875","0.3774934029","","","","","","","76","L","3","","","246","main_expt"
"662","","bandit","325","833677","0.0-286.0-0.0","01591765","wem/bandit_either","A3TQD8CNO16IZK","either","5","","","","","","","0","0","1","","0.3592590195","0.2","0.6","0.8","0.4","0.3079745892","0.4425022826","0.2790325972","0.3592590195","","","","","","","","","","","76","L","3","","","247","main_expt"
"671","","bandit","326","835876","0.0-287.0-0.0","01591765","wem/bandit_either","A3TQD8CNO16IZK","either","5","","","","","","","0","1","0","","0.3659800935","0.2","0.6","0.8","0.4","0.2306801962","0.4454461089","0.2665328125","0.3659800935","","","","","","","","","","","76","L","3","","","248","main_expt"
"666","","bandit","327","838069","0.0-288.0-0.0","01591765","wem/bandit_either","A3TQD8CNO16IZK","either","5","","","","","","","0","0","1","","0.3940863056","0.2","0.6","0.8","0.4","0.2363838343","0.4565985803","0.2666328085","0.3940863056","","","","","","","","","","","76","L","3","","","249","main_expt"
"671","","bandit","328","840269","0.0-289.0-0.0","01591765","wem/bandit_either","A3TQD8CNO16IZK","either","5","","","","","","","0","0","1","","0.3652193683","0.2","0.6","0.8","0.4","0.2865845142","0.4666950096","0.2637425143","0.3652193683","","","","","","","","","","","76","L","3","","","250","main_expt"
"729","","bandit","329","842527","0.0-290.0-0.0","01591765","wem/bandit_either","A3TQD8CNO16IZK","either","5","","","","","","","0","0","1","0.3118516898","","0.2","0.6","0.8","0.4","","","","","0.3527425442","0.4491167865","0.3041279159","0.3118516898","","","","","","","76","L","3","","","251","main_expt"
"497","","bandit","330","844552","0.0-291.0-0.0","01591765","wem/bandit_either","A3TQD8CNO16IZK","either","5","","","","","","","0","0","1","","0.3236638898","0.2","0.6","0.8","0.4","0.3236638898","0.4512042396","0.3054217384","0.3291033061","","","","","","","","","","","72","H","0","img/none_selected.jpg","","252","main_expt"
