"rt","responses","trial_type","trial_index","time_elapsed","internal_node_id","subjID","study","MID","cond","drift","key_press","expt_phase","target","like","value","connected","gems","bombs","no_reward","GemPrChosen","BombPrChosen","GainOverPainPr_0","GainOverPainPr_1","GainOverPainPr_2","GainOverPainPr_3","LosePr_0","LosePr_1","LosePr_2","LosePr_3","WinPr_0","WinPr_1","WinPr_2","WinPr_3","Q0","Q1","Q2","gender","age","ethnicity","respCharCode","respKey","respChoiceNum","respChoice","practice","trial_counter","trial_label"
"186357","{""Q0"":""A3TOUB8313BPVS""}","survey-text","0","186361","0.0-0.0","02731898","wem/bandit_either","A3TOUB8313BPVS","either","5","","","","","","","","","","","","","","","","","","","","","","","","","","","","","","","","","","","",""
"63705","","text","1","251069","0.0-1.0","02731898","wem/bandit_either","A3TOUB8313BPVS","either","5","32","","","","","","","","","","","","","","","","","","","","","","","","","","","","","","","","","","",""
"22847","","text","2","273917","0.0-2.0","02731898","wem/bandit_either","A3TOUB8313BPVS","either","5","32","","","","","","","","","","","","","","","","","","","","","","","","","","","","","","","","","","",""
"13013","","text","3","286931","0.0-3.0","02731898","wem/bandit_either","A3TOUB8313BPVS","either","5","32","","","","","","","","","","","","","","","","","","","","","","","","","","","","","","","","","","",""
"17261","","text","4","304192","0.0-4.0","02731898","wem/bandit_either","A3TOUB8313BPVS","either","5","32","","","","","","","","","","","","","","","","","","","","","","","","","","","","","","","","","","",""
"41971","","text","5","346165","0.0-5.0","02731898","wem/bandit_either","A3TOUB8313BPVS","either","5","32","","","","","","","","","","","","","","","","","","","","","","","","","","","","","","","","","","",""
"8631","","text","6","354797","0.0-6.0","02731898","wem/bandit_either","A3TOUB8313BPVS","either","5","32","","","","","","","","","","","","","","","","","","","","","","","","","","","","","","","","","","",""
"4150","","text","7","358948","0.0-7.0","02731898","wem/bandit_either","A3TOUB8313BPVS","either","5","32","","","","","","","","","","","","","","","","","","","","","","","","","","","","","","","","","","",""
"6937","","identification","8","365894","0.0-8.0-0.0","02731898","wem/bandit_either","A3TOUB8313BPVS","either","5","","identification_pre","the village of Zur","","","","","","","","","","","","","","","","","","","","","","","","","","","","","","","","",""
"4725","","identification","9","371627","0.0-8.0-1.0","02731898","wem/bandit_either","A3TOUB8313BPVS","either","5","","identification_pre","the village of Nyx","","","","","","","","","","","","","","","","","","","","","","","","","","","","","","","","",""
"12597","","text","10","385226","0.0-9.0","02731898","wem/bandit_either","A3TOUB8313BPVS","either","5","32","","","","","","","","","","","","","","","","","","","","","","","","","","","","","","","","","","",""
"2796","","text","11","388023","0.0-10.0","02731898","wem/bandit_either","A3TOUB8313BPVS","either","5","32","","","","","","","","","","","","","","","","","","","","","","","","","","","","","","","","","","",""
"1815","","text","12","389839","0.0-11.0","02731898","wem/bandit_either","A3TOUB8313BPVS","either","5","32","","","","","","","","","","","","","","","","","","","","","","","","","","","","","","","","","","",""
"4204","","text","13","394045","0.0-12.0","02731898","wem/bandit_either","A3TOUB8313BPVS","either","5","32","","","","","","","","","","","","","","","","","","","","","","","","","","","","","","","","","","",""
"2146","","bandit","14","397698","0.0-13.0-0.0","02731898","wem/bandit_either","A3TOUB8313BPVS","either","5","","","","","","","0","0","1","0","0","","","","","0","","","","0","","","","","","","","","","74","J","0","img/none_selected_demo.jpg","true","0",""
"1838","","bandit","15","401041","0.0-14.0-0.0","02731898","wem/bandit_either","A3TOUB8313BPVS","either","5","","","","","","","0","0","1","0","0","","","","","0","","","","0","","","","","","","","","","75","K","0","img/none_selected_demo.jpg","true","0",""
"5281","","text","16","406324","0.0-15.0","02731898","wem/bandit_either","A3TOUB8313BPVS","either","5","32","","","","","","","","","","","","","","","","","","","","","","","","","","","","","","","","","","",""
"15550","","text","17","421874","0.0-16.0","02731898","wem/bandit_either","A3TOUB8313BPVS","either","5","32","","","","","","","","","","","","","","","","","","","","","","","","","","","","","","","","","","",""
"4510","","text","18","426385","0.0-17.0","02731898","wem/bandit_either","A3TOUB8313BPVS","either","5","32","","","","","","","","","","","","","","","","","","","","","","","","","","","","","","","","","","",""
"2737","","text","19","429123","0.0-18.0","02731898","wem/bandit_either","A3TOUB8313BPVS","either","5","32","","","","","","","","","","","","","","","","","","","","","","","","","","","","","","","","","","",""
"522","","bandit","20","431149","0.0-19.0-0.0","02731898","wem/bandit_either","A3TOUB8313BPVS","either","5","","","","","","","0","0","1","","0.8","0.5","0.5","","","0.8","0.2","","","","","","","","","","","","","74","J","0","img/none_selected_demo.jpg","true","0","80_20_practice"
"885","","bandit","21","433538","0.0-19.0-1.0","02731898","wem/bandit_either","A3TOUB8313BPVS","either","5","","","","","","","0","1","0","","0.8","0.5","0.5","","","0.8","0.2","","","","","","","","","","","","","74","J","0","img/none_selected_demo.jpg","true","0","80_20_practice"
"367","","bandit","22","435410","0.0-19.0-2.0","02731898","wem/bandit_either","A3TOUB8313BPVS","either","5","","","","","","","0","1","0","","0.8","0.5","0.5","","","0.8","0.2","","","","","","","","","","","","","74","J","0","img/none_selected_demo.jpg","true","0","80_20_practice"
"185","","bandit","23","437099","0.0-19.0-3.0","02731898","wem/bandit_either","A3TOUB8313BPVS","either","5","","","","","","","0","0","1","0.2","","0.5","0.5","","","","","","","0.8","0.2","","","","","","","","","75","K","1","","true","0","80_20_practice"
"95","","bandit","24","438700","0.0-19.0-4.0","02731898","wem/bandit_either","A3TOUB8313BPVS","either","5","","","","","","","0","0","1","0.2","","0.5","0.5","","","","","","","0.8","0.2","","","","","","","","","75","K","1","","true","0","80_20_practice"
"119","","bandit","25","440324","0.0-19.0-5.0","02731898","wem/bandit_either","A3TOUB8313BPVS","either","5","","","","","","","0","0","1","","0.2","0.5","0.5","","","0.8","0.2","","","","","","","","","","","","","75","K","1","","true","0","80_20_practice"
"106","","bandit","26","441935","0.0-19.0-6.0","02731898","wem/bandit_either","A3TOUB8313BPVS","either","5","","","","","","","0","0","1","0.2","","0.5","0.5","","","","","","","0.8","0.2","","","","","","","","","75","K","1","","true","0","80_20_practice"
"41","","bandit","27","443481","0.0-19.0-7.0","02731898","wem/bandit_either","A3TOUB8313BPVS","either","5","","","","","","","0","0","1","0.2","","0.5","0.5","","","","","","","0.8","0.2","","","","","","","","","75","K","1","","true","0","80_20_practice"
"93","","bandit","28","445079","0.0-19.0-8.0","02731898","wem/bandit_either","A3TOUB8313BPVS","either","5","","","","","","","0","0","1","0.2","","0.5","0.5","","","","","","","0.8","0.2","","","","","","","","","75","K","1","","true","0","80_20_practice"
"642","","bandit","29","447225","0.0-19.0-9.0","02731898","wem/bandit_either","A3TOUB8313BPVS","either","5","","","","","","","0","1","0","","0.8","0.5","0.5","","","0.8","0.2","","","","","","","","","","","","","74","J","0","img/none_selected_demo.jpg","true","0","80_20_practice"
"204","","bandit","30","448933","0.0-19.0-10.0","02731898","wem/bandit_either","A3TOUB8313BPVS","either","5","","","","","","","1","0","0","0.8","","0.5","0.5","","","","","","","0.8","0.2","","","","","","","","","74","J","0","img/none_selected_demo.jpg","true","0","80_20_practice"
"194","","bandit","31","450631","0.0-19.0-11.0","02731898","wem/bandit_either","A3TOUB8313BPVS","either","5","","","","","","","1","0","0","0.8","","0.5","0.5","","","","","","","0.8","0.2","","","","","","","","","74","J","0","img/none_selected_demo.jpg","true","0","80_20_practice"
"180","","bandit","32","452316","0.0-19.0-12.0","02731898","wem/bandit_either","A3TOUB8313BPVS","either","5","","","","","","","0","0","1","0.8","","0.5","0.5","","","","","","","0.8","0.2","","","","","","","","","74","J","0","img/none_selected_demo.jpg","true","0","80_20_practice"
"214","","bandit","33","454036","0.0-19.0-13.0","02731898","wem/bandit_either","A3TOUB8313BPVS","either","5","","","","","","","0","0","1","","0.2","0.5","0.5","","","0.8","0.2","","","","","","","","","","","","","75","K","1","","true","0","80_20_practice"
"223","","bandit","34","455765","0.0-19.0-14.0","02731898","wem/bandit_either","A3TOUB8313BPVS","either","5","","","","","","","1","0","0","0.8","","0.5","0.5","","","","","","","0.8","0.2","","","","","","","","","74","J","0","img/none_selected_demo.jpg","true","0","80_20_practice"
"1","","bandit","35","457270","0.0-19.0-15.0","02731898","wem/bandit_either","A3TOUB8313BPVS","either","5","","","","","","","0","1","0","","0.8","0.5","0.5","","","0.8","0.2","","","","","","","","","","","","","74","J","0","img/none_selected_demo.jpg","true","0","80_20_practice"
"114","","bandit","36","458890","0.0-19.0-16.0","02731898","wem/bandit_either","A3TOUB8313BPVS","either","5","","","","","","","1","0","0","0.8","","0.5","0.5","","","","","","","0.8","0.2","","","","","","","","","74","J","0","img/none_selected_demo.jpg","true","0","80_20_practice"
"159","","bandit","37","460554","0.0-19.0-17.0","02731898","wem/bandit_either","A3TOUB8313BPVS","either","5","","","","","","","1","0","0","0.8","","0.5","0.5","","","","","","","0.8","0.2","","","","","","","","","74","J","0","img/none_selected_demo.jpg","true","0","80_20_practice"
"159","","bandit","38","462217","0.0-19.0-18.0","02731898","wem/bandit_either","A3TOUB8313BPVS","either","5","","","","","","","0","0","1","","0.8","0.5","0.5","","","0.8","0.2","","","","","","","","","","","","","74","J","0","img/none_selected_demo.jpg","true","0","80_20_practice"
"170","","bandit","39","463893","0.0-19.0-19.0","02731898","wem/bandit_either","A3TOUB8313BPVS","either","5","","","","","","","0","0","1","","0.8","0.5","0.5","","","0.8","0.2","","","","","","","","","","","","","74","J","0","img/none_selected_demo.jpg","true","0","80_20_practice"
"2856","","text","40","466749","0.0-20.0","02731898","wem/bandit_either","A3TOUB8313BPVS","either","5","32","","","","","","","","","","","","","","","","","","","","","","","","","","","","","","","","","","",""
"1593","","bandit","41","469847","0.0-21.0-0.0","02731898","wem/bandit_either","A3TOUB8313BPVS","either","5","","","","","","","1","0","0","1","0","","","","","0","1","","","1","0","","","","","","","","","74","J","0","img/none_selected_demo.jpg","true","0",""
"61223","","text","42","531072","0.0-22.0","02731898","wem/bandit_either","A3TOUB8313BPVS","either","5","32","","","","","","","","","","","","","","","","","","","","","","","","","","","","","","","","","","",""
"2284","","text","43","533357","0.0-23.0","02731898","wem/bandit_either","A3TOUB8313BPVS","either","5","32","","","","","","","","","","","","","","","","","","","","","","","","","","","","","","","","","","",""
"2755","","text","44","536112","0.0-24.0","02731898","wem/bandit_either","A3TOUB8313BPVS","either","5","32","","","","","","","","","","","","","","","","","","","","","","","","","","","","","","","","","","",""
"2603","","text","45","538716","0.0-25.0","02731898","wem/bandit_either","A3TOUB8313BPVS","either","5","32","","","","","","","","","","","","","","","","","","","","","","","","","","","","","","","","","","",""
"5358","","text","46","544075","0.0-26.0","02731898","wem/bandit_either","A3TOUB8313BPVS","either","5","32","","","","","","","","","","","","","","","","","","","","","","","","","","","","","","","","","","",""
"3488","","text","47","547564","0.0-27.0","02731898","wem/bandit_either","A3TOUB8313BPVS","either","5","32","","","","","","","","","","","","","","","","","","","","","","","","","","","","","","","","","","",""
"5398","","text","48","552965","0.0-28.0","02731898","wem/bandit_either","A3TOUB8313BPVS","either","5","32","","","","","","","","","","","","","","","","","","","","","","","","","","","","","","","","","","",""
"3684","","text","49","556650","0.0-29.0","02731898","wem/bandit_either","A3TOUB8313BPVS","either","5","32","","","","","","","","","","","","","","","","","","","","","","","","","","","","","","","","","","",""
"7986","","text","50","564636","0.0-30.0","02731898","wem/bandit_either","A3TOUB8313BPVS","either","5","32","","","","","","","","","","","","","","","","","","","","","","","","","","","","","","","","","","",""
"1742","","text","51","566380","0.0-31.0","02731898","wem/bandit_either","A3TOUB8313BPVS","either","5","32","","","","","","","","","","","","","","","","","","","","","","","","","","","","","","","","","","",""
"3417","","text","52","569799","0.0-32.0","02731898","wem/bandit_either","A3TOUB8313BPVS","either","5","32","","","","","","","","","","","","","","","","","","","","","","","","","","","","","","","","","","",""
"621","","bandit","53","571926","0.0-33.0-0.0","02731898","wem/bandit_either","A3TOUB8313BPVS","either","5","","","","","","","1","0","0","0.8","","0.5","0.5","0.5","0.5","","","","","0.8","0.2","0.6","0.2","","","","","","","72","H","0","img/none_selected.jpg","true","0","full_practice"
"237","","bandit","54","573668","0.0-33.0-1.0","02731898","wem/bandit_either","A3TOUB8313BPVS","either","5","","","","","","","1","0","0","0.8","","0.5","0.5","0.5","0.5","","","","","0.8","0.2","0.6","0.2","","","","","","","72","H","0","img/none_selected.jpg","true","0","full_practice"
"27","","bandit","55","575201","0.0-33.0-2.0","02731898","wem/bandit_either","A3TOUB8313BPVS","either","5","","","","","","","1","0","0","0.8","","0.5","0.5","0.5","0.5","","","","","0.8","0.2","0.6","0.2","","","","","","","72","H","0","img/none_selected.jpg","true","0","full_practice"
"92","","bandit","56","576799","0.0-33.0-3.0","02731898","wem/bandit_either","A3TOUB8313BPVS","either","5","","","","","","","1","0","0","0.8","","0.5","0.5","0.5","0.5","","","","","0.8","0.2","0.6","0.2","","","","","","","72","H","0","img/none_selected.jpg","true","0","full_practice"
"175","","bandit","57","578479","0.0-33.0-4.0","02731898","wem/bandit_either","A3TOUB8313BPVS","either","5","","","","","","","0","1","0","","0.8","0.5","0.5","0.5","0.5","0.8","0.2","0.6","0.2","","","","","","","","","","","72","H","0","img/none_selected.jpg","true","0","full_practice"
"22","","bandit","58","580005","0.0-33.0-5.0","02731898","wem/bandit_either","A3TOUB8313BPVS","either","5","","","","","","","1","0","0","0.8","","0.5","0.5","0.5","0.5","","","","","0.8","0.2","0.6","0.2","","","","","","","72","H","0","img/none_selected.jpg","true","0","full_practice"
"774","","bandit","59","582283","0.0-33.0-6.0","02731898","wem/bandit_either","A3TOUB8313BPVS","either","5","","","","","","","0","1","0","","0.8","0.5","0.5","0.5","0.5","0.8","0.2","0.6","0.2","","","","","","","","","","","72","H","0","img/none_selected.jpg","true","0","full_practice"
"30","","bandit","60","583817","0.0-33.0-7.0","02731898","wem/bandit_either","A3TOUB8313BPVS","either","5","","","","","","","1","0","0","0.8","","0.5","0.5","0.5","0.5","","","","","0.8","0.2","0.6","0.2","","","","","","","72","H","0","img/none_selected.jpg","true","0","full_practice"
"7","","bandit","61","585329","0.0-33.0-8.0","02731898","wem/bandit_either","A3TOUB8313BPVS","either","5","","","","","","","0","0","1","","0.8","0.5","0.5","0.5","0.5","0.8","0.2","0.6","0.2","","","","","","","","","","","72","H","0","img/none_selected.jpg","true","0","full_practice"
"135","","bandit","62","586970","0.0-33.0-9.0","02731898","wem/bandit_either","A3TOUB8313BPVS","either","5","","","","","","","1","0","0","0.8","","0.5","0.5","0.5","0.5","","","","","0.8","0.2","0.6","0.2","","","","","","","72","H","0","img/none_selected.jpg","true","0","full_practice"
"62","","bandit","63","588537","0.0-33.0-10.0","02731898","wem/bandit_either","A3TOUB8313BPVS","either","5","","","","","","","0","1","0","","0.8","0.5","0.5","0.5","0.5","0.8","0.2","0.6","0.2","","","","","","","","","","","72","H","0","img/none_selected.jpg","true","0","full_practice"
"9","","bandit","64","590052","0.0-33.0-11.0","02731898","wem/bandit_either","A3TOUB8313BPVS","either","5","","","","","","","0","1","0","","0.8","0.5","0.5","0.5","0.5","0.8","0.2","0.6","0.2","","","","","","","","","","","72","H","0","img/none_selected.jpg","true","0","full_practice"
"86","","bandit","65","591644","0.0-33.0-12.0","02731898","wem/bandit_either","A3TOUB8313BPVS","either","5","","","","","","","0","1","0","","0.8","0.5","0.5","0.5","0.5","0.8","0.2","0.6","0.2","","","","","","","","","","","72","H","0","img/none_selected.jpg","true","0","full_practice"
"62","","bandit","66","593210","0.0-33.0-13.0","02731898","wem/bandit_either","A3TOUB8313BPVS","either","5","","","","","","","0","1","0","","0.8","0.5","0.5","0.5","0.5","0.8","0.2","0.6","0.2","","","","","","","","","","","72","H","0","img/none_selected.jpg","true","0","full_practice"
"283","","bandit","67","594998","0.0-33.0-14.0","02731898","wem/bandit_either","A3TOUB8313BPVS","either","5","","","","","","","0","0","1","","0.2","0.5","0.5","0.5","0.5","0.8","0.2","0.6","0.2","","","","","","","","","","","74","J","1","","true","0","full_practice"
"718","","bandit","68","597221","0.0-33.0-15.0","02731898","wem/bandit_either","A3TOUB8313BPVS","either","5","","","","","","","0","0","1","","0.2","0.5","0.5","0.5","0.5","0.8","0.2","0.6","0.2","","","","","","","","","","","74","J","1","","true","0","full_practice"
"103","","bandit","69","598829","0.0-33.0-16.0","02731898","wem/bandit_either","A3TOUB8313BPVS","either","5","","","","","","","0","0","1","0.2","","0.5","0.5","0.5","0.5","","","","","0.8","0.2","0.6","0.2","","","","","","","74","J","1","","true","0","full_practice"
"64","","bandit","70","600397","0.0-33.0-17.0","02731898","wem/bandit_either","A3TOUB8313BPVS","either","5","","","","","","","1","0","0","0.6","","0.5","0.5","0.5","0.5","","","","","0.8","0.2","0.6","0.2","","","","","","","75","K","2","","true","0","full_practice"
"128","","bandit","71","602028","0.0-33.0-18.0","02731898","wem/bandit_either","A3TOUB8313BPVS","either","5","","","","","","","0","1","0","","0.6","0.5","0.5","0.5","0.5","0.8","0.2","0.6","0.2","","","","","","","","","","","75","K","2","","true","0","full_practice"
"155","","bandit","72","603688","0.0-33.0-19.0","02731898","wem/bandit_either","A3TOUB8313BPVS","either","5","","","","","","","0","0","1","0.6","","0.5","0.5","0.5","0.5","","","","","0.8","0.2","0.6","0.2","","","","","","","75","K","2","","true","0","full_practice"
"1796","","text","73","605488","0.0-34.0","02731898","wem/bandit_either","A3TOUB8313BPVS","either","5","32","","","","","","","","","","","","","","","","","","","","","","","","","","","","","","","","","","",""
"12331","","text","74","618821","0.0-35.0","02731898","wem/bandit_either","A3TOUB8313BPVS","either","5","32","","","","","","","","","","","","","","","","","","","","","","","","","","","","","","","","","","",""
"31421","","text","75","650244","0.0-36.0","02731898","wem/bandit_either","A3TOUB8313BPVS","either","5","32","","","","","","","","","","","","","","","","","","","","","","","","","","","","","","","","","","",""
"24308","","text","76","674553","0.0-37.0","02731898","wem/bandit_either","A3TOUB8313BPVS","either","5","32","","","","","","","","","","","","","","","","","","","","","","","","","","","","","","","","","","",""
"37676","","text","77","712232","0.0-38.0","02731898","wem/bandit_either","A3TOUB8313BPVS","either","5","32","","","","","","","","","","","","","","","","","","","","","","","","","","","","","","","","","","",""
"98800","","text","78","811033","0.0-39.0","02731898","wem/bandit_either","A3TOUB8313BPVS","either","5","32","","","","","","","","","","","","","","","","","","","","","","","","","","","","","","","","","","",""
"1279","","bandit","79","813818","0.0-40.0-0.0","02731898","wem/bandit_either","A3TOUB8313BPVS","either","5","","","","","","","0","0","1","","0.3897275569","0.8","0.4","0.6","0.2","0.1165465043","0.4265570961","0.3340388524","0.3897275569","","","","","","","","","","","76","L","3","","","1","main_expt"
"439","","bandit","80","815762","0.0-41.0-0.0","02731898","wem/bandit_either","A3TOUB8313BPVS","either","5","","","","","","","0","1","0","","0.3911966266","0.8","0.4","0.6","0.2","0.08371899021","0.4177099958","0.3223834482","0.3911966266","","","","","","","","","","","76","L","3","","","2","main_expt"
"95","","bandit","81","817362","0.0-42.0-0.0","02731898","wem/bandit_either","A3TOUB8313BPVS","either","5","","","","","","","0","0","1","","0.4074861021","0.8","0.4","0.6","0.2","0.04339790364","0.4192185534","0.3585509001","0.4074861021","","","","","","","","","","","76","L","3","","","3","main_expt"
"148","","bandit","82","819015","0.0-43.0-0.0","02731898","wem/bandit_either","A3TOUB8313BPVS","either","5","","","","","","","0","1","0","","0.3965638453","0.8","0.4","0.6","0.2","0.04073472785","0.4241610434","0.3416436242","0.3965638453","","","","","","","","","","","76","L","3","","","4","main_expt"
"180","","bandit","83","820699","0.0-44.0-0.0","02731898","wem/bandit_either","A3TOUB8313BPVS","either","5","","","","","","","1","0","0","0.3688269119","","0.8","0.4","0.6","0.2","","","","","0.04731773769","0.4284837315","0.3444758892","0.3688269119","","","","","","","76","L","3","","","5","main_expt"
"128","","bandit","84","822332","0.0-45.0-0.0","02731898","wem/bandit_either","A3TOUB8313BPVS","either","5","","","","","","","1","0","0","0.3865867917","","0.8","0.4","0.6","0.2","","","","","0.05617088868","0.4328708062","0.3574177426","0.3865867917","","","","","","","76","L","3","","","6","main_expt"
"66","","bandit","85","823903","0.0-46.0-0.0","02731898","wem/bandit_either","A3TOUB8313BPVS","either","5","","","","","","","0","0","1","","0.4294719924","0.8","0.4","0.6","0.2","0.05606577856","0.4176545671","0.3634052143","0.4294719924","","","","","","","","","","","76","L","3","","","7","main_expt"
"1","","bandit","86","825409","0.0-47.0-0.0","02731898","wem/bandit_either","A3TOUB8313BPVS","either","5","","","","","","","0","0","1","","0.4210378118","0.8","0.4","0.6","0.2","0.09244853328","0.4022395488","0.3675420607","0.4210378118","","","","","","","","","","","76","L","3","","","8","main_expt"
"736","","bandit","87","827650","0.0-48.0-0.0","02731898","wem/bandit_either","A3TOUB8313BPVS","either","5","","","","","","","0","0","1","","0.4502112583","0.8","0.4","0.6","0.2","0.1271341085","0.3929004949","0.3921196104","0.4502112583","","","","","","","","","","","76","L","3","","","9","main_expt"
"130","","bandit","88","829287","0.0-49.0-0.0","02731898","wem/bandit_either","A3TOUB8313BPVS","either","5","","","","","","","0","0","1","0.4026182126","","0.8","0.4","0.6","0.2","","","","","0.1370717255","0.3863711448","0.4026182126","0.4452653155","","","","","","","75","K","2","","","10","main_expt"
"271","","bandit","89","831061","0.0-50.0-0.0","02731898","wem/bandit_either","A3TOUB8313BPVS","either","5","","","","","","","1","0","0","0.3543069494","","0.8","0.4","0.6","0.2","","","","","0.1275050207","0.4205849279","0.3543069494","0.4352349267","","","","","","","75","K","2","","","11","main_expt"
"104","","bandit","90","832671","0.0-51.0-0.0","02731898","wem/bandit_either","A3TOUB8313BPVS","either","5","","","","","","","1","0","0","0.3504097904","","0.8","0.4","0.6","0.2","","","","","0.122317004","0.4525069231","0.3504097904","0.4029030639","","","","","","","75","K","2","","","12","main_expt"
"310","","bandit","91","834485","0.0-52.0-0.0","02731898","wem/bandit_either","A3TOUB8313BPVS","either","5","","","","","","","0","0","1","0.2787441393","","0.8","0.4","0.6","0.2","","","","","0.1251711411","0.4485799753","0.2787441393","0.4198147105","","","","","","","75","K","2","","","13","main_expt"
"209","","bandit","92","836199","0.0-53.0-0.0","02731898","wem/bandit_either","A3TOUB8313BPVS","either","5","","","","","","","0","0","1","","0.2723245106","0.8","0.4","0.6","0.2","0.1380641988","0.4504049656","0.2723245106","0.3761312174","","","","","","","","","","","75","K","2","","","14","main_expt"
"175","","bandit","93","837880","0.0-54.0-0.0","02731898","wem/bandit_either","A3TOUB8313BPVS","either","5","","","","","","","0","0","1","0.4281165459","","0.8","0.4","0.6","0.2","","","","","0.2010812313","0.4281165459","0.3687644442","0.4017507227","","","","","","","74","J","1","","","15","main_expt"
"38","","bandit","94","839424","0.0-55.0-0.0","02731898","wem/bandit_either","A3TOUB8313BPVS","either","5","","","","","","","0","0","1","0.3992289848","","0.8","0.4","0.6","0.2","","","","","0.1747275657","0.4035101098","0.3992289848","0.3859888637","","","","","","","75","K","2","","","16","main_expt"
"282","","bandit","95","841212","0.0-56.0-0.0","02731898","wem/bandit_either","A3TOUB8313BPVS","either","5","","","","","","","0","0","1","","0.4063691663","0.8","0.4","0.6","0.2","0.1816524112","0.4063691663","0.4067061876","0.3706978481","","","","","","","","","","","74","J","1","","","17","main_expt"
"195","","bandit","96","842915","0.0-57.0-0.0","02731898","wem/bandit_either","A3TOUB8313BPVS","either","5","","","","","","","0","0","1","","0.1700798448","0.8","0.4","0.6","0.2","0.1700798448","0.4201618032","0.3969002131","0.3323991027","","","","","","","","","","","72","H","0","img/none_selected.jpg","","18","main_expt"
"171","","bandit","97","844590","0.0-58.0-0.0","02731898","wem/bandit_either","A3TOUB8313BPVS","either","5","","","","","","","1","0","0","0.1998500639","","0.8","0.4","0.6","0.2","","","","","0.1998500639","0.3868389751","0.3930099592","0.3301718366","","","","","","","72","H","0","img/none_selected.jpg","","19","main_expt"
"446","","bandit","98","846540","0.0-59.0-0.0","02731898","wem/bandit_either","A3TOUB8313BPVS","either","5","","","","","","","0","0","1","","0.2418808817","0.8","0.4","0.6","0.2","0.2418808817","0.3868875991","0.3791602553","0.3714618997","","","","","","","","","","","72","H","0","img/none_selected.jpg","","20","main_expt"
"108","","bandit","99","848154","0.0-60.0-0.0","02731898","wem/bandit_either","A3TOUB8313BPVS","either","5","","","","","","","0","0","1","0.2293341009","","0.8","0.4","0.6","0.2","","","","","0.2293341009","0.4253770554","0.4127515201","0.3621694591","","","","","","","72","H","0","img/none_selected.jpg","","21","main_expt"
"140","","bandit","100","849799","0.0-61.0-0.0","02731898","wem/bandit_either","A3TOUB8313BPVS","either","5","","","","","","","0","0","1","0.3648829928","","0.8","0.4","0.6","0.2","","","","","0.2074184163","0.4285762007","0.4164833055","0.3648829928","","","","","","","76","L","3","","","22","main_expt"
"423","","bandit","101","851728","0.0-62.0-0.0","02731898","wem/bandit_either","A3TOUB8313BPVS","either","5","","","","","","","0","0","1","","0.2856994719","0.8","0.4","0.6","0.2","0.1832507358","0.4082522222","0.4143027846","0.2856994719","","","","","","","","","","","76","L","3","","","23","main_expt"
"250","","bandit","102","853484","0.0-63.0-0.0","02731898","wem/bandit_either","A3TOUB8313BPVS","either","5","","","","","","","0","1","0","","0.3649270698","0.8","0.4","0.6","0.2","0.1469425149","0.4027270218","0.3649270698","0.3152516524","","","","","","","","","","","75","K","2","","","24","main_expt"
"14","","bandit","103","855004","0.0-64.0-0.0","02731898","wem/bandit_either","A3TOUB8313BPVS","either","5","","","","","","","0","0","1","","0.392676409","0.8","0.4","0.6","0.2","0.102794739","0.4100212433","0.392676409","0.2778145345","","","","","","","","","","","75","K","2","","","25","main_expt"
"192","","bandit","104","856702","0.0-65.0-0.0","02731898","wem/bandit_either","A3TOUB8313BPVS","either","5","","","","","","","0","1","0","","0.4031565401","0.8","0.4","0.6","0.2","0.1173732637","0.4190791169","0.4031565401","0.3170506137","","","","","","","","","","","75","K","2","","","26","main_expt"
"126","","bandit","105","858334","0.0-66.0-0.0","02731898","wem/bandit_either","A3TOUB8313BPVS","either","5","","","","","","","0","0","1","0.4245959001","","0.8","0.4","0.6","0.2","","","","","0.08835016803","0.4527212376","0.4245959001","0.3223143746","","","","","","","75","K","2","","","27","main_expt"
"250","","bandit","106","860089","0.0-67.0-0.0","02731898","wem/bandit_either","A3TOUB8313BPVS","either","5","","","","","","","0","1","0","","0.4232885055","0.8","0.4","0.6","0.2","0.1134440288","0.4480998813","0.4232885055","0.3234472479","","","","","","","","","","","75","K","2","","","28","main_expt"
"187","","bandit","107","861783","0.0-68.0-0.0","02731898","wem/bandit_either","A3TOUB8313BPVS","either","5","","","","","","","0","1","0","","0.4495512981","0.8","0.4","0.6","0.2","0.1982905849","0.4628669208","0.4495512981","0.2881425904","","","","","","","","","","","75","K","2","","","29","main_expt"
"212","","bandit","108","863500","0.0-69.0-0.0","02731898","wem/bandit_either","A3TOUB8313BPVS","either","5","","","","","","","0","0","1","0.4485299892","","0.8","0.4","0.6","0.2","","","","","0.2366655967","0.4565655028","0.4485299892","0.2326555855","","","","","","","75","K","2","","","30","main_expt"
"31","","bandit","109","865036","0.0-70.0-0.0","02731898","wem/bandit_either","A3TOUB8313BPVS","either","5","","","","","","","0","0","1","0.4599237238","","0.8","0.4","0.6","0.2","","","","","0.1622470467","0.4686031056","0.4599237238","0.2364604256","","","","","","","75","K","2","","","31","main_expt"
"150","","bandit","110","866691","0.0-71.0-0.0","02731898","wem/bandit_either","A3TOUB8313BPVS","either","5","","","","","","","0","1","0","","0.4508116693","0.8","0.4","0.6","0.2","0.1771911602","0.4659582456","0.4508116693","0.2451982598","","","","","","","","","","","75","K","2","","","32","main_expt"
"175","","bandit","111","868371","0.0-72.0-0.0","02731898","wem/bandit_either","A3TOUB8313BPVS","either","5","","","","","","","1","0","0","0.45101727","","0.8","0.4","0.6","0.2","","","","","0.1622836308","0.4810757035","0.45101727","0.2360369815","","","","","","","75","K","2","","","33","main_expt"
"56","","bandit","112","869932","0.0-73.0-0.0","02731898","wem/bandit_either","A3TOUB8313BPVS","either","5","","","","","","","0","0","1","","0.4340174653","0.8","0.4","0.6","0.2","0.1655985557","0.4842727378","0.4340174653","0.2317763892","","","","","","","","","","","75","K","2","","","34","main_expt"
"635","","bandit","113","872073","0.0-74.0-0.0","02731898","wem/bandit_either","A3TOUB8313BPVS","either","5","","","","","","","0","0","1","0.4040147441","","0.8","0.4","0.6","0.2","","","","","0.1492797185","0.4745470136","0.4040147441","0.2527891731","","","","","","","75","K","2","","","35","main_expt"
"111","","bandit","114","873689","0.0-75.0-0.0","02731898","wem/bandit_either","A3TOUB8313BPVS","either","5","","","","","","","0","0","1","0.4268829696","","0.8","0.4","0.6","0.2","","","","","0.1504543003","0.4440965139","0.4268829696","0.2641283143","","","","","","","75","K","2","","","36","main_expt"
"247","","bandit","115","875441","0.0-76.0-0.0","02731898","wem/bandit_either","A3TOUB8313BPVS","either","5","","","","","","","0","1","0","","0.4544425755","0.8","0.4","0.6","0.2","0.1064249526","0.4544425755","0.4562327564","0.2309310423","","","","","","","","","","","74","J","1","","","37","main_expt"
"244","","bandit","116","877190","0.0-77.0-0.0","02731898","wem/bandit_either","A3TOUB8313BPVS","either","5","","","","","","","0","0","1","","0.4700138218","0.8","0.4","0.6","0.2","0.1346530267","0.4700138218","0.4481627861","0.2093170459","","","","","","","","","","","74","J","1","","","38","main_expt"
"276","","bandit","117","878971","0.0-78.0-0.0","02731898","wem/bandit_either","A3TOUB8313BPVS","either","5","","","","","","","0","0","1","0.466948448","","0.8","0.4","0.6","0.2","","","","","0.1303494481","0.466948448","0.4475890948","0.1398625959","","","","","","","74","J","1","","","39","main_expt"
"51","","bandit","118","880527","0.0-79.0-0.0","02731898","wem/bandit_either","A3TOUB8313BPVS","either","5","","","","","","","0","1","0","","0.4679256248","0.8","0.4","0.6","0.2","0.1492074344","0.4679256248","0.4501575696","0.09690087606","","","","","","","","","","","74","J","1","","","40","main_expt"
"430","","bandit","119","882464","0.0-80.0-0.0","02731898","wem/bandit_either","A3TOUB8313BPVS","either","5","","","","","","","0","1","0","","0.445537573","0.8","0.4","0.6","0.2","0.1370672299","0.445537573","0.4121884666","0.1129569356","","","","","","","","","","","74","J","1","","","41","main_expt"
"241","","bandit","120","884211","0.0-81.0-0.0","02731898","wem/bandit_either","A3TOUB8313BPVS","either","5","","","","","","","0","0","1","0.4521531226","","0.8","0.4","0.6","0.2","","","","","0.08144147181","0.4521531226","0.4379939247","0.1227033228","","","","","","","74","J","1","","","42","main_expt"
"237","","bandit","121","885953","0.0-82.0-0.0","02731898","wem/bandit_either","A3TOUB8313BPVS","either","5","","","","","","","1","0","0","0.4695072217","","0.8","0.4","0.6","0.2","","","","","0.06793865388","0.4695072217","0.4271747655","0.08393287497","","","","","","","74","J","1","","","43","main_expt"
"219","","bandit","122","887677","0.0-83.0-0.0","02731898","wem/bandit_either","A3TOUB8313BPVS","either","5","","","","","","","0","0","1","","0.4807409838","0.8","0.4","0.6","0.2","0.05295344446","0.4807409838","0.4480494518","0.06260074275","","","","","","","","","","","74","J","1","","","44","main_expt"
"239","","bandit","123","889422","0.0-84.0-0.0","02731898","wem/bandit_either","A3TOUB8313BPVS","either","5","","","","","","","0","0","1","0.4507048108","","0.8","0.4","0.6","0.2","","","","","0.02744239742","0.4507048108","0.4269729589","0.08062123592","","","","","","","74","J","1","","","45","main_expt"
"75","","bandit","124","891003","0.0-85.0-0.0","02731898","wem/bandit_either","A3TOUB8313BPVS","either","5","","","","","","","1","0","0","0.4382321206","","0.8","0.4","0.6","0.2","","","","","0.02347437243","0.4382321206","0.4475746277","0.1110847749","","","","","","","74","J","1","","","46","main_expt"
"179","","bandit","125","892687","0.0-86.0-0.0","02731898","wem/bandit_either","A3TOUB8313BPVS","either","5","","","","","","","1","0","0","0.4393937913","","0.8","0.4","0.6","0.2","","","","","0.02418160198","0.4393937913","0.4295618238","0.05346849493","","","","","","","74","J","1","","","47","main_expt"
"180","","bandit","126","894371","0.0-87.0-0.0","02731898","wem/bandit_either","A3TOUB8313BPVS","either","5","","","","","","","0","0","1","","0.440318131","0.8","0.4","0.6","0.2","0.01182676654","0.440318131","0.4431907244","0.04499733497","","","","","","","","","","","74","J","1","","","48","main_expt"
"170","","bandit","127","896047","0.0-88.0-0.0","02731898","wem/bandit_either","A3TOUB8313BPVS","either","5","","","","","","","0","0","1","","0.4362102412","0.8","0.4","0.6","0.2","0.0186287842","0.4362102412","0.4187732916","0.07378534534","","","","","","","","","","","74","J","1","","","49","main_expt"
"321","","bandit","128","897873","0.0-89.0-0.0","02731898","wem/bandit_either","A3TOUB8313BPVS","either","5","","","","","","","0","0","1","0.02550629551","","0.8","0.4","0.6","0.2","","","","","0.02550629551","0.44488671","0.356579213","0.06168845619","","","","","","","72","H","0","img/none_selected.jpg","","50","main_expt"
"291","","bandit","129","899669","0.0-90.0-0.0","02731898","wem/bandit_either","A3TOUB8313BPVS","either","5","","","","","","","0","0","1","","0.04366809707","0.8","0.4","0.6","0.2","0.04366809707","0.4633405548","0.2629404955","0.1062028567","","","","","","","","","","","72","H","0","img/none_selected.jpg","","51","main_expt"
"198","","bandit","130","901373","0.0-91.0-0.0","02731898","wem/bandit_either","A3TOUB8313BPVS","either","5","","","","","","","0","0","1","0.1379608546","","0.8","0.4","0.6","0.2","","","","","0.04357168116","0.4528043762","0.2919747068","0.1379608546","","","","","","","76","L","3","","","52","main_expt"
"208","","bandit","131","903085","0.0-92.0-0.0","02731898","wem/bandit_either","A3TOUB8313BPVS","either","5","","","","","","","0","0","1","","0.1356826849","0.8","0.4","0.6","0.2","0.03899227154","0.4390431751","0.3809901122","0.1356826849","","","","","","","","","","","76","L","3","","","53","main_expt"
"133","","bandit","132","904725","0.0-93.0-0.0","02731898","wem/bandit_either","A3TOUB8313BPVS","either","5","","","","","","","0","1","0","","0.3452518694","0.8","0.4","0.6","0.2","0.04009146386","0.4549270822","0.3452518694","0.1038772241","","","","","","","","","","","75","K","2","","","54","main_expt"
"65","","bandit","133","906295","0.0-94.0-0.0","02731898","wem/bandit_either","A3TOUB8313BPVS","either","5","","","","","","","0","1","0","","0.3263112327","0.8","0.4","0.6","0.2","0.0155768565","0.4710341864","0.3263112327","0.1689791829","","","","","","","","","","","75","K","2","","","55","main_expt"
"54","","bandit","134","907855","0.0-95.0-0.0","02731898","wem/bandit_either","A3TOUB8313BPVS","either","5","","","","","","","0","0","1","0.3308963945","","0.8","0.4","0.6","0.2","","","","","0.02112461672","0.4745834276","0.3308963945","0.1108888145","","","","","","","75","K","2","","","56","main_expt"
"103","","bandit","135","909463","0.0-96.0-0.0","02731898","wem/bandit_either","A3TOUB8313BPVS","either","5","","","","","","","0","0","1","0.3150326571","","0.8","0.4","0.6","0.2","","","","","0.0126553198","0.489318572","0.3150326571","0.1206542402","","","","","","","75","K","2","","","57","main_expt"
"214","","bandit","136","911183","0.0-97.0-0.0","02731898","wem/bandit_either","A3TOUB8313BPVS","either","5","","","","","","","1","0","0","0.3049116772","","0.8","0.4","0.6","0.2","","","","","0.01131359515","0.480037986","0.3049116772","0.09707343937","","","","","","","75","K","2","","","58","main_expt"
"68","","bandit","137","912757","0.0-98.0-0.0","02731898","wem/bandit_either","A3TOUB8313BPVS","either","5","","","","","","","0","1","0","","0.3050987947","0.8","0.4","0.6","0.2","0.01030075821","0.4593461039","0.3050987947","0.1044384952","","","","","","","","","","","75","K","2","","","59","main_expt"
"2","","bandit","138","914265","0.0-99.0-0.0","02731898","wem/bandit_either","A3TOUB8313BPVS","either","5","","","","","","","0","0","1","","0.3274009355","0.8","0.4","0.6","0.2","0.005868957973","0.446051488","0.3274009355","0.08890369623","","","","","","","","","","","75","K","2","","","60","main_expt"
"104","","bandit","139","915875","0.0-100.0-0.0","02731898","wem/bandit_either","A3TOUB8313BPVS","either","5","","","","","","","1","0","0","0.3428943983","","0.8","0.4","0.6","0.2","","","","","0.004361943215","0.4391285327","0.3428943983","0.08921221942","","","","","","","75","K","2","","","61","main_expt"
"81","","bandit","140","917461","0.0-101.0-0.0","02731898","wem/bandit_either","A3TOUB8313BPVS","either","5","","","","","","","0","0","1","","0.3549763931","0.8","0.4","0.6","0.2","0.005208412743","0.4063883723","0.3549763931","0.09812025034","","","","","","","","","","","75","K","2","","","62","main_expt"
"108","","bandit","141","919076","0.0-102.0-0.0","02731898","wem/bandit_either","A3TOUB8313BPVS","either","5","","","","","","","1","0","0","0.3496678451","","0.8","0.4","0.6","0.2","","","","","0.006461011255","0.4330387396","0.3496678451","0.09006279409","","","","","","","75","K","2","","","63","main_expt"
"97","","bandit","142","920679","0.0-103.0-0.0","02731898","wem/bandit_either","A3TOUB8313BPVS","either","5","","","","","","","0","1","0","","0.3188537263","0.8","0.4","0.6","0.2","0.01267926231","0.4207902426","0.3188537263","0.1118976224","","","","","","","","","","","75","K","2","","","64","main_expt"
"99","","bandit","143","922283","0.0-104.0-0.0","02731898","wem/bandit_either","A3TOUB8313BPVS","either","5","","","","","","","0","0","1","0.3191795336","","0.8","0.4","0.6","0.2","","","","","0.009732787917","0.3719582347","0.3191795336","0.1053817613","","","","","","","75","K","2","","","65","main_expt"
"98","","bandit","144","923887","0.0-105.0-0.0","02731898","wem/bandit_either","A3TOUB8313BPVS","either","5","","","","","","","1","0","0","0.268616347","","0.8","0.4","0.6","0.2","","","","","0.01092542651","0.3748569955","0.268616347","0.1307356695","","","","","","","75","K","2","","","66","main_expt"
"409","","bandit","145","925800","0.0-106.0-0.0","02731898","wem/bandit_either","A3TOUB8313BPVS","either","5","","","","","","","0","0","1","0.259194563","","0.8","0.4","0.6","0.2","","","","","0.02125534741","0.335252031","0.259194563","0.1418436428","","","","","","","75","K","2","","","67","main_expt"
"83","","bandit","146","927389","0.0-107.0-0.0","02731898","wem/bandit_either","A3TOUB8313BPVS","either","5","","","","","","","0","0","1","0.2281204868","","0.8","0.4","0.6","0.2","","","","","0.02360283027","0.3199157278","0.2281204868","0.1459089566","","","","","","","75","K","2","","","68","main_expt"
"135","","bandit","147","929028","0.0-108.0-0.0","02731898","wem/bandit_either","A3TOUB8313BPVS","either","5","","","","","","","1","0","0","0.2195844169","","0.8","0.4","0.6","0.2","","","","","0.02539305756","0.3068525281","0.2195844169","0.1809721424","","","","","","","75","K","2","","","69","main_expt"
"224","","bandit","148","930758","0.0-109.0-0.0","02731898","wem/bandit_either","A3TOUB8313BPVS","either","5","","","","","","","0","0","1","","0.1883338509","0.8","0.4","0.6","0.2","0.05014388586","0.3181076016","0.1883338509","0.1784068974","","","","","","","","","","","75","K","2","","","70","main_expt"
"261","","bandit","149","932525","0.0-110.0-0.0","02731898","wem/bandit_either","A3TOUB8313BPVS","either","5","","","","","","","0","0","1","","0.1639708178","0.8","0.4","0.6","0.2","0.04209054697","0.2926426422","0.1639708178","0.1973023396","","","","","","","","","","","75","K","2","","","71","main_expt"
"77","","bandit","150","934106","0.0-111.0-0.0","02731898","wem/bandit_either","A3TOUB8313BPVS","either","5","","","","","","","0","0","1","0.2380263643","","0.8","0.4","0.6","0.2","","","","","0.05611199342","0.2380263643","0.1312842785","0.2436342847","","","","","","","74","J","1","","","72","main_expt"
"92","","bandit","151","935705","0.0-112.0-0.0","02731898","wem/bandit_either","A3TOUB8313BPVS","either","5","","","","","","","1","0","0","0.2407197948","","0.8","0.4","0.6","0.2","","","","","0.05293238473","0.2407197948","0.1805041857","0.1992173182","","","","","","","74","J","1","","","73","main_expt"
"182","","bandit","152","937391","0.0-113.0-0.0","02731898","wem/bandit_either","A3TOUB8313BPVS","either","5","","","","","","","0","1","0","","0.2317468449","0.8","0.4","0.6","0.2","0.0318456884","0.2317468449","0.1739557812","0.2347098304","","","","","","","","","","","74","J","1","","","74","main_expt"
"210","","bandit","153","939107","0.0-114.0-0.0","02731898","wem/bandit_either","A3TOUB8313BPVS","either","5","","","","","","","0","1","0","","0.2545997551","0.8","0.4","0.6","0.2","0.03873230677","0.2545997551","0.2434916027","0.2641442137","","","","","","","","","","","74","J","1","","","75","main_expt"
"152","","bandit","154","940766","0.0-115.0-0.0","02731898","wem/bandit_either","A3TOUB8313BPVS","either","5","","","","","","","0","0","1","0.2890845388","","0.8","0.4","0.6","0.2","","","","","0.03304947682","0.2890845388","0.2438468568","0.3192644053","","","","","","","74","J","1","","","76","main_expt"
"66","","bandit","155","942336","0.0-116.0-0.0","02731898","wem/bandit_either","A3TOUB8313BPVS","either","5","","","","","","","0","0","1","","0.2386362654","0.8","0.4","0.6","0.2","0.02607887458","0.2386362654","0.2425324642","0.3351132613","","","","","","","","","","","74","J","1","","","77","main_expt"
"172","","bandit","156","944012","0.0-117.0-0.0","02731898","wem/bandit_either","A3TOUB8313BPVS","either","5","","","","","","","0","0","1","0.2673679704","","0.8","0.4","0.6","0.2","","","","","0.02492981692","0.2673679704","0.205588479","0.3086784207","","","","","","","74","J","1","","","78","main_expt"
"206","","bandit","157","945725","0.0-118.0-0.0","02731898","wem/bandit_either","A3TOUB8313BPVS","either","5","","","","","","","0","0","1","0.01824110002","","0.8","0.4","0.6","0.2","","","","","0.01824110002","0.2813811921","0.213062191","0.3076482073","","","","","","","72","H","0","img/none_selected.jpg","","79","main_expt"
"522","","bandit","158","947751","0.0-119.0-0.0","02731898","wem/bandit_either","A3TOUB8313BPVS","either","5","","","","","","","0","0","1","0.0202176162","","0.8","0.4","0.6","0.2","","","","","0.0202176162","0.2419447949","0.1852926048","0.3605025214","","","","","","","72","H","0","img/none_selected.jpg","","80","main_expt"
"100","","bandit","159","949357","0.0-120.0-0.0","02731898","wem/bandit_either","A3TOUB8313BPVS","either","5","","","","","","","0","0","1","","0.3286166321","0.8","0.4","0.6","0.2","0.0252752587","0.323481111","0.2332942271","0.3286166321","","","","","","","","","","","76","L","3","","","81","main_expt"
"376","","bandit","160","951240","0.0-121.0-0.0","02731898","wem/bandit_either","A3TOUB8313BPVS","either","5","","","","","","","0","0","1","","0.3459677762","0.8","0.4","0.6","0.2","0.05668457717","0.3097244961","0.2087797338","0.3459677762","","","","","","","","","","","76","L","3","","","82","main_expt"
"30","","bandit","161","952775","0.0-122.0-0.0","02731898","wem/bandit_either","A3TOUB8313BPVS","either","5","","","","","","","0","0","1","","0.3092751195","0.8","0.4","0.6","0.2","0.07760530004","0.2787498647","0.2049979043","0.3092751195","","","","","","","","","","","76","L","3","","","83","main_expt"
"141","","bandit","162","954421","0.0-123.0-0.0","02731898","wem/bandit_either","A3TOUB8313BPVS","either","5","","","","","","","0","0","1","0.2151780091","","0.8","0.4","0.6","0.2","","","","","0.03696005566","0.2589524449","0.2151780091","0.3044630387","","","","","","","75","K","2","","","84","main_expt"
"606","","bandit","163","956532","0.0-124.0-0.0","02731898","wem/bandit_either","A3TOUB8313BPVS","either","5","","","","","","","0","0","1","","0.2769318636","0.8","0.4","0.6","0.2","0.04177257934","0.2769318636","0.1497615914","0.2812480587","","","","","","","","","","","74","J","1","","","85","main_expt"
"63","","bandit","164","958101","0.0-125.0-0.0","02731898","wem/bandit_either","A3TOUB8313BPVS","either","5","","","","","","","0","0","1","0.2849222391","","0.8","0.4","0.6","0.2","","","","","0.0385770192","0.2849222391","0.1223687677","0.2506532223","","","","","","","74","J","1","","","86","main_expt"
"210","","bandit","165","959817","0.0-126.0-0.0","02731898","wem/bandit_either","A3TOUB8313BPVS","either","5","","","","","","","0","0","1","","0.1472857413","0.8","0.4","0.6","0.2","0.03720252147","0.3131087309","0.1472857413","0.2269900387","","","","","","","","","","","75","K","2","","","87","main_expt"
"312","","bandit","166","961636","0.0-127.0-0.0","02731898","wem/bandit_either","A3TOUB8313BPVS","either","5","","","","","","","0","1","0","","0.1252586248","0.8","0.4","0.6","0.2","0.06746059371","0.3038587512","0.1252586248","0.1504729919","","","","","","","","","","","75","K","2","","","88","main_expt"
"229","","bandit","167","963372","0.0-128.0-0.0","02731898","wem/bandit_either","A3TOUB8313BPVS","either","5","","","","","","","0","0","1","0.1194927994","","0.8","0.4","0.6","0.2","","","","","0.04069757945","0.3308022157","0.1194927994","0.1382070302","","","","","","","75","K","2","","","89","main_expt"
"169","","bandit","168","965047","0.0-129.0-0.0","02731898","wem/bandit_either","A3TOUB8313BPVS","either","5","","","","","","","0","1","0","","0.1589750007","0.8","0.4","0.6","0.2","0.07325379503","0.3574922351","0.1589750007","0.1364765349","","","","","","","","","","","75","K","2","","","90","main_expt"
"167","","bandit","169","966720","0.0-130.0-0.0","02731898","wem/bandit_either","A3TOUB8313BPVS","either","5","","","","","","","0","0","1","0.1859960426","","0.8","0.4","0.6","0.2","","","","","0.06877471811","0.3729517688","0.1859960426","0.09318196272","","","","","","","75","K","2","","","91","main_expt"
"295","","bandit","170","968521","0.0-131.0-0.0","02731898","wem/bandit_either","A3TOUB8313BPVS","either","5","","","","","","","0","0","1","0.04115987362","","0.8","0.4","0.6","0.2","","","","","0.04115987362","0.398352994","0.192419488","0.06946097624","","","","","","","72","H","0","img/none_selected.jpg","","92","main_expt"
"82","","bandit","171","970108","0.0-132.0-0.0","02731898","wem/bandit_either","A3TOUB8313BPVS","either","5","","","","","","","0","0","1","0.07078892783","","0.8","0.4","0.6","0.2","","","","","0.07078892783","0.4135860398","0.1716033463","0.08102832817","","","","","","","72","H","0","img/none_selected.jpg","","93","main_expt"
"195","","bandit","172","971808","0.0-133.0-0.0","02731898","wem/bandit_either","A3TOUB8313BPVS","either","5","","","","","","","0","0","1","","0.3786880174","0.8","0.4","0.6","0.2","0.05572868433","0.3786880174","0.1935897604","0.1271360848","","","","","","","","","","","74","J","1","","","94","main_expt"
"50","","bandit","173","973365","0.0-134.0-0.0","02731898","wem/bandit_either","A3TOUB8313BPVS","either","5","","","","","","","0","0","1","","0.3823424718","0.8","0.4","0.6","0.2","0.05056929995","0.3823424718","0.2193228015","0.1097592989","","","","","","","","","","","74","J","1","","","95","main_expt"
"268","","bandit","174","975139","0.0-135.0-0.0","02731898","wem/bandit_either","A3TOUB8313BPVS","either","5","","","","","","","0","0","1","","0.3262643469","0.8","0.4","0.6","0.2","0.04159874267","0.3642725552","0.3262643469","0.1085490834","","","","","","","","","","","75","K","2","","","96","main_expt"
"35","","bandit","175","976678","0.0-136.0-0.0","02731898","wem/bandit_either","A3TOUB8313BPVS","either","5","","","","","","","0","0","1","","0.1049812554","0.8","0.4","0.6","0.2","0.03654451862","0.3197717944","0.3207405496","0.1049812554","","","","","","","","","","","76","L","3","","","97","main_expt"
"174","","bandit","176","978358","0.0-137.0-0.0","02731898","wem/bandit_either","A3TOUB8313BPVS","either","5","","","","","","","0","0","1","","0.08177978443","0.8","0.4","0.6","0.2","0.04190300095","0.2514424369","0.3712856991","0.08177978443","","","","","","","","","","","76","L","3","","","98","main_expt"
"115","","bandit","177","979980","0.0-138.0-0.0","02731898","wem/bandit_either","A3TOUB8313BPVS","either","5","","","","","","","0","0","1","","0.3740145378","0.8","0.4","0.6","0.2","0.08742990617","0.2926772137","0.3740145378","0.07574087804","","","","","","","","","","","75","K","2","","","99","main_expt"
"36","","bandit","178","981522","0.0-139.0-0.0","02731898","wem/bandit_either","A3TOUB8313BPVS","either","5","","","","","","","0","0","1","0.3776295542","","0.8","0.4","0.6","0.2","","","","","0.08966523481","0.234485335","0.3776295542","0.07829319678","","","","","","","75","K","2","","","100","main_expt"
"212","","bandit","179","983241","0.0-140.0-0.0","02731898","wem/bandit_either","A3TOUB8313BPVS","either","5","","","","","","","0","0","1","0.250352175","","0.8","0.4","0.6","0.2","","","","","0.07849065771","0.250352175","0.3592666398","0.07919243683","","","","","","","74","J","1","","","101","main_expt"
"587","","bandit","180","985331","0.0-141.0-0.0","02731898","wem/bandit_either","A3TOUB8313BPVS","either","5","","","","","","","0","0","1","","0.2139972863","0.8","0.4","0.6","0.2","0.1054267613","0.2139972863","0.3412191773","0.1052753188","","","","","","","","","","","74","J","1","","","102","main_expt"
"460","","bandit","181","987297","0.0-142.0-0.0","02731898","wem/bandit_either","A3TOUB8313BPVS","either","5","","","","","","","0","0","1","0.1120981937","","0.8","0.4","0.6","0.2","","","","","0.1120981937","0.20092706","0.3133100433","0.1248526142","","","","","","","72","H","0","img/none_selected.jpg","","103","main_expt"
"128","","bandit","182","988931","0.0-143.0-0.0","02731898","wem/bandit_either","A3TOUB8313BPVS","either","5","","","","","","","0","0","1","0.1034740879","","0.8","0.4","0.6","0.2","","","","","0.1034740879","0.2305366804","0.3219148419","0.142969925","","","","","","","72","H","0","img/none_selected.jpg","","104","main_expt"
"218","","bandit","183","990656","0.0-144.0-0.0","02731898","wem/bandit_either","A3TOUB8313BPVS","either","5","","","","","","","0","0","1","0.07597240327","","0.8","0.4","0.6","0.2","","","","","0.07597240327","0.2102135581","0.3300892518","0.13947254","","","","","","","72","H","0","img/none_selected.jpg","","105","main_expt"
"277","","bandit","184","992439","0.0-145.0-0.0","02731898","wem/bandit_either","A3TOUB8313BPVS","either","5","","","","","","","0","0","1","0.1329526997","","0.8","0.4","0.6","0.2","","","","","0.1124257427","0.2219457329","0.3401839058","0.1329526997","","","","","","","76","L","3","","","106","main_expt"
"178","","bandit","185","994123","0.0-146.0-0.0","02731898","wem/bandit_either","A3TOUB8313BPVS","either","5","","","","","","","0","0","1","","0.1727290233","0.8","0.4","0.6","0.2","0.1133168519","0.3048423019","0.3784706915","0.1727290233","","","","","","","","","","","76","L","3","","","107","main_expt"
"156","","bandit","186","995785","0.0-147.0-0.0","02731898","wem/bandit_either","A3TOUB8313BPVS","either","5","","","","","","","0","0","1","0.3945753887","","0.8","0.4","0.6","0.2","","","","","0.1752395656","0.258150515","0.3945753887","0.1864487031","","","","","","","75","K","2","","","108","main_expt"
"322","","bandit","187","997613","0.0-148.0-0.0","02731898","wem/bandit_either","A3TOUB8313BPVS","either","5","","","","","","","0","0","1","0.356827327","","0.8","0.4","0.6","0.2","","","","","0.1862973424","0.1859129148","0.356827327","0.2463216238","","","","","","","75","K","2","","","109","main_expt"
"266","","bandit","188","999386","0.0-149.0-0.0","02731898","wem/bandit_either","A3TOUB8313BPVS","either","5","","","","","","","1","0","0","0.2344179837","","0.8","0.4","0.6","0.2","","","","","0.2015845776","0.1371624404","0.2344179837","0.2431522628","","","","","","","75","K","2","","","110","main_expt"
"214","","bandit","189","1001106","0.0-150.0-0.0","02731898","wem/bandit_either","A3TOUB8313BPVS","either","5","","","","","","","1","0","0","0.2644823096","","0.8","0.4","0.6","0.2","","","","","0.2003651753","0.1258232978","0.2644823096","0.1757476643","","","","","","","75","K","2","","","111","main_expt"
"103","","bandit","190","1002714","0.0-151.0-0.0","02731898","wem/bandit_either","A3TOUB8313BPVS","either","5","","","","","","","0","0","1","0.28311182","","0.8","0.4","0.6","0.2","","","","","0.21392293","0.1529967373","0.28311182","0.2451518953","","","","","","","75","K","2","","","112","main_expt"
"34","","bandit","191","1004255","0.0-152.0-0.0","02731898","wem/bandit_either","A3TOUB8313BPVS","either","5","","","","","","","0","0","1","0.2413269532","","0.8","0.4","0.6","0.2","","","","","0.1606798039","0.148248117","0.2413269532","0.2407836715","","","","","","","75","K","2","","","113","main_expt"
"121","","bandit","192","1005882","0.0-153.0-0.0","02731898","wem/bandit_either","A3TOUB8313BPVS","either","5","","","","","","","0","0","1","0.3100969134","","0.8","0.4","0.6","0.2","","","","","0.2095980235","0.1562208239","0.3100969134","0.3099317417","","","","","","","75","K","2","","","114","main_expt"
"39","","bandit","193","1007426","0.0-154.0-0.0","02731898","wem/bandit_either","A3TOUB8313BPVS","either","5","","","","","","","0","0","1","","0.3180754701","0.8","0.4","0.6","0.2","0.2550279667","0.2138032898","0.329842252","0.3180754701","","","","","","","","","","","76","L","3","","","115","main_expt"
"42","","bandit","194","1008974","0.0-155.0-0.0","02731898","wem/bandit_either","A3TOUB8313BPVS","either","5","","","","","","","0","1","0","","0.2331260325","0.8","0.4","0.6","0.2","0.2471764387","0.2331260325","0.3223706096","0.2919742107","","","","","","","","","","","74","J","1","","","116","main_expt"
"8","","bandit","195","1010488","0.0-156.0-0.0","02731898","wem/bandit_either","A3TOUB8313BPVS","either","5","","","","","","","0","0","1","0.1826309729","","0.8","0.4","0.6","0.2","","","","","0.2730878341","0.1826309729","0.3098408215","0.2799774295","","","","","","","74","J","1","","","117","main_expt"
"267","","bandit","196","1012261","0.0-157.0-0.0","02731898","wem/bandit_either","A3TOUB8313BPVS","either","5","","","","","","","0","0","1","0.1511269107","","0.8","0.4","0.6","0.2","","","","","0.2071462199","0.1511269107","0.2974554567","0.2646714695","","","","","","","74","J","1","","","118","main_expt"
"46","","bandit","197","1013812","0.0-158.0-0.0","02731898","wem/bandit_either","A3TOUB8313BPVS","either","5","","","","","","","0","0","1","","0.1559979654","0.8","0.4","0.6","0.2","0.2275232499","0.1559979654","0.3598468986","0.3179839519","","","","","","","","","","","74","J","1","","","119","main_expt"
"91","","bandit","198","1015408","0.0-159.0-0.0","02731898","wem/bandit_either","A3TOUB8313BPVS","either","5","","","","","","","0","0","1","0.2984373086","","0.8","0.4","0.6","0.2","","","","","0.2767559596","0.1463004055","0.2984373086","0.3302262658","","","","","","","75","K","2","","","120","main_expt"
"437","","bandit","199","1017351","0.0-160.0-0.0","02731898","wem/bandit_either","A3TOUB8313BPVS","either","5","","","","","","","0","0","1","0.1418195479","","0.8","0.4","0.6","0.2","","","","","0.3448590315","0.1418195479","0.2973090059","0.3500549905","","","","","","","74","J","1","","","121","main_expt"
"233","","bandit","200","1019091","0.0-161.0-0.0","02731898","wem/bandit_either","A3TOUB8313BPVS","either","5","","","","","","","0","0","1","","0.1270782113","0.8","0.4","0.6","0.2","0.3593301016","0.1270782113","0.3382791822","0.2686616284","","","","","","","","","","","74","J","1","","","122","main_expt"
"346","","bandit","201","1020943","0.0-162.0-0.0","02731898","wem/bandit_either","A3TOUB8313BPVS","either","5","","","","","","","0","0","1","0.3680529171","","0.8","0.4","0.6","0.2","","","","","0.3680529171","0.1207154071","0.3154347028","0.2277230314","","","","","","","72","H","0","img/none_selected.jpg","","123","main_expt"
"206","","bandit","202","1022655","0.0-163.0-0.0","02731898","wem/bandit_either","A3TOUB8313BPVS","either","5","","","","","","","0","0","1","0.3476523483","","0.8","0.4","0.6","0.2","","","","","0.3476523483","0.1229329119","0.2966737815","0.3287090939","","","","","","","72","H","0","img/none_selected.jpg","","124","main_expt"
"88","","bandit","203","1024248","0.0-164.0-0.0","02731898","wem/bandit_either","A3TOUB8313BPVS","either","5","","","","","","","0","0","1","0.3564603465","","0.8","0.4","0.6","0.2","","","","","0.3564603465","0.09241122996","0.3094831126","0.3687339586","","","","","","","72","H","0","img/none_selected.jpg","","125","main_expt"
"98","","bandit","204","1025853","0.0-165.0-0.0","02731898","wem/bandit_either","A3TOUB8313BPVS","either","5","","","","","","","0","1","0","","0.3836195774","0.8","0.4","0.6","0.2","0.3550684458","0.08418962236","0.2488993205","0.3836195774","","","","","","","","","","","76","L","3","","","126","main_expt"
"17","","bandit","205","1027377","0.0-166.0-0.0","02731898","wem/bandit_either","A3TOUB8313BPVS","either","5","","","","","","","0","0","1","","0.3617365958","0.8","0.4","0.6","0.2","0.3235559827","0.154715772","0.1953487027","0.3617365958","","","","","","","","","","","76","L","3","","","127","main_expt"
"122","","bandit","206","1029005","0.0-167.0-0.0","02731898","wem/bandit_either","A3TOUB8313BPVS","either","5","","","","","","","0","1","0","","0.3235283493","0.8","0.4","0.6","0.2","0.312087491","0.1556709078","0.2171889907","0.3235283493","","","","","","","","","","","76","L","3","","","128","main_expt"
"25","","bandit","207","1030536","0.0-168.0-0.0","02731898","wem/bandit_either","A3TOUB8313BPVS","either","5","","","","","","","0","0","1","","0.3453830546","0.8","0.4","0.6","0.2","0.2843272188","0.1214200615","0.2467699801","0.3453830546","","","","","","","","","","","76","L","3","","","129","main_expt"
"141","","bandit","208","1032182","0.0-169.0-0.0","02731898","wem/bandit_either","A3TOUB8313BPVS","either","5","","","","","","","0","0","1","","0.3242747857","0.8","0.4","0.6","0.2","0.2128416856","0.1377283829","0.2814443482","0.3242747857","","","","","","","","","","","76","L","3","","","130","main_expt"
"176","","bandit","209","1033863","0.0-170.0-0.0","02731898","wem/bandit_either","A3TOUB8313BPVS","either","5","","","","","","","0","1","0","","0.3417201858","0.8","0.4","0.6","0.2","0.2403879813","0.1397421628","0.2834176508","0.3417201858","","","","","","","","","","","76","L","3","","","131","main_expt"
"52","","bandit","210","1035422","0.0-171.0-0.0","02731898","wem/bandit_either","A3TOUB8313BPVS","either","5","","","","","","","0","1","0","","0.3498614837","0.8","0.4","0.6","0.2","0.2811421594","0.1061875113","0.2429908031","0.3498614837","","","","","","","","","","","76","L","3","","","132","main_expt"
"230","","bandit","211","1037160","0.0-172.0-0.0","02731898","wem/bandit_either","A3TOUB8313BPVS","either","5","","","","","","","0","1","0","","0.3134828643","0.8","0.4","0.6","0.2","0.3002858371","0.07774811701","0.3053559495","0.3134828643","","","","","","","","","","","76","L","3","","","133","main_expt"
"106","","bandit","212","1038772","0.0-173.0-0.0","02731898","wem/bandit_either","A3TOUB8313BPVS","either","5","","","","","","","0","1","0","","0.3554593188","0.8","0.4","0.6","0.2","0.277406375","0.08211281178","0.2693478067","0.3554593188","","","","","","","","","","","76","L","3","","","134","main_expt"
"370","","bandit","213","1040649","0.0-174.0-0.0","02731898","wem/bandit_either","A3TOUB8313BPVS","either","5","","","","","","","0","0","1","","0.3150900126","0.8","0.4","0.6","0.2","0.2897147582","0.1123817552","0.3369166079","0.3150900126","","","","","","","","","","","76","L","3","","","135","main_expt"
"153","","bandit","214","1042308","0.0-175.0-0.0","02731898","wem/bandit_either","A3TOUB8313BPVS","either","5","","","","","","","0","0","1","","0.3199395785","0.8","0.4","0.6","0.2","0.3590576628","0.1478339482","0.268603144","0.3199395785","","","","","","","","","","","76","L","3","","","136","main_expt"
"2835","","bandit","215","1046651","0.0-176.0-0.0","02731898","wem/bandit_either","A3TOUB8313BPVS","either","5","","","","","","","0","0","1","0.33362357","","0.8","0.4","0.6","0.2","","","","","0.3822427384","0.1374936615","0.2373427956","0.33362357","","","","","","","76","L","3","","","137","main_expt"
"139","","bandit","216","1048299","0.0-177.0-0.0","02731898","wem/bandit_either","A3TOUB8313BPVS","either","5","","","","","","","0","0","1","","0.3611324022","0.8","0.4","0.6","0.2","0.3410071165","0.159761955","0.2206869265","0.3611324022","","","","","","","","","","","76","L","3","","","138","main_expt"
"172","","bandit","217","1049978","0.0-178.0-0.0","02731898","wem/bandit_either","A3TOUB8313BPVS","either","5","","","","","","","0","0","1","","0.2177966349","0.8","0.4","0.6","0.2","0.3738014659","0.1363721132","0.2177966349","0.3504145086","","","","","","","","","","","75","K","2","","","139","main_expt"
"19","","bandit","218","1051501","0.0-179.0-0.0","02731898","wem/bandit_either","A3TOUB8313BPVS","either","5","","","","","","","0","0","1","0.2387685432","","0.8","0.4","0.6","0.2","","","","","0.422575493","0.1031445192","0.2387685432","0.309774603","","","","","","","75","K","2","","","140","main_expt"
"112","","bandit","219","1053119","0.0-180.0-0.0","02731898","wem/bandit_either","A3TOUB8313BPVS","either","5","","","","","","","0","0","1","","0.09805286369","0.8","0.4","0.6","0.2","0.4439129864","0.09805286369","0.2575087366","0.3506531288","","","","","","","","","","","74","J","1","","","141","main_expt"
"30","","bandit","220","1054656","0.0-181.0-0.0","02731898","wem/bandit_either","A3TOUB8313BPVS","either","5","","","","","","","0","0","1","0.1149002948","","0.8","0.4","0.6","0.2","","","","","0.4323802182","0.1149002948","0.2392038972","0.2965027242","","","","","","","74","J","1","","","142","main_expt"
"363","","bandit","221","1056526","0.0-182.0-0.0","02731898","wem/bandit_either","A3TOUB8313BPVS","either","5","","","","","","","1","0","0","0.4358412593","","0.8","0.4","0.6","0.2","","","","","0.4358412593","0.1209542099","0.2216470548","0.2087517366","","","","","","","72","H","0","img/none_selected.jpg","","143","main_expt"
"76","","bandit","222","1058108","0.0-183.0-0.0","02731898","wem/bandit_either","A3TOUB8313BPVS","either","5","","","","","","","1","0","0","0.4407373256","","0.8","0.4","0.6","0.2","","","","","0.4407373256","0.1202521083","0.2224896139","0.2313605626","","","","","","","72","H","0","img/none_selected.jpg","","144","main_expt"
"240","","bandit","223","1059856","0.0-184.0-0.0","02731898","wem/bandit_either","A3TOUB8313BPVS","either","5","","","","","","","0","0","1","0.4661091035","","0.8","0.4","0.6","0.2","","","","","0.4661091035","0.1619743669","0.1925605464","0.1785565547","","","","","","","72","H","0","img/none_selected.jpg","","145","main_expt"
"40","","bandit","224","1061403","0.0-185.0-0.0","02731898","wem/bandit_either","A3TOUB8313BPVS","either","5","","","","","","","1","0","0","0.4637097668","","0.8","0.4","0.6","0.2","","","","","0.4637097668","0.1664631043","0.2069800611","0.1770660648","","","","","","","72","H","0","img/none_selected.jpg","","146","main_expt"
"1653","","bandit","225","1064564","0.0-186.0-0.0","02731898","wem/bandit_either","A3TOUB8313BPVS","either","5","","","","","","","1","0","0","0.4700491642","","0.8","0.4","0.6","0.2","","","","","0.4700491642","0.1669241763","0.2489662189","0.1063371611","","","","","","","72","H","0","img/none_selected.jpg","","147","main_expt"
"189","","bandit","226","1066261","0.0-187.0-0.0","02731898","wem/bandit_either","A3TOUB8313BPVS","either","5","","","","","","","0","0","1","0.4648109734","","0.8","0.4","0.6","0.2","","","","","0.4648109734","0.1581456949","0.1946464158","0.1216370817","","","","","","","72","H","0","img/none_selected.jpg","","148","main_expt"
"614","","bandit","227","1068382","0.0-188.0-0.0","02731898","wem/bandit_either","A3TOUB8313BPVS","either","5","","","","","","","0","0","1","0.4635511513","","0.8","0.4","0.6","0.2","","","","","0.4635511513","0.1698392466","0.1826562491","0.1024256959","","","","","","","72","H","0","img/none_selected.jpg","","149","main_expt"
"387","","bandit","228","1070276","0.0-189.0-0.0","02731898","wem/bandit_either","A3TOUB8313BPVS","either","5","","","","","","","0","0","1","0.4445017148","","0.8","0.4","0.6","0.2","","","","","0.4445017148","0.2140114634","0.1750473563","0.1371094633","","","","","","","72","H","0","img/none_selected.jpg","","150","main_expt"
"422","","bandit","229","1072206","0.0-190.0-0.0","02731898","wem/bandit_either","A3TOUB8313BPVS","either","5","","","","","","","0","0","1","0.4434799742","","0.8","0.4","0.6","0.2","","","","","0.4434799742","0.2392960001","0.1109536645","0.1702433702","","","","","","","72","H","0","img/none_selected.jpg","","151","main_expt"
"466","","bandit","230","1074178","0.0-191.0-0.0","02731898","wem/bandit_either","A3TOUB8313BPVS","either","5","","","","","","","0","0","1","","0.2095863317","0.8","0.4","0.6","0.2","0.4451665291","0.2095863317","0.1143086707","0.1860489046","","","","","","","","","","","74","J","1","","","152","main_expt"
"122","","bandit","231","1075807","0.0-192.0-0.0","02731898","wem/bandit_either","A3TOUB8313BPVS","either","5","","","","","","","0","0","1","","0.2543258611","0.8","0.4","0.6","0.2","0.4401532833","0.2543258611","0.1236290712","0.2117094388","","","","","","","","","","","74","J","1","","","153","main_expt"
"368","","bandit","232","1077682","0.0-193.0-0.0","02731898","wem/bandit_either","A3TOUB8313BPVS","either","5","","","","","","","0","0","1","0.1600695342","","0.8","0.4","0.6","0.2","","","","","0.4516855879","0.2602259906","0.1600695342","0.2072389033","","","","","","","75","K","2","","","154","main_expt"
"66","","bandit","233","1079256","0.0-194.0-0.0","02731898","wem/bandit_either","A3TOUB8313BPVS","either","5","","","","","","","0","0","1","","0.1986333914","0.8","0.4","0.6","0.2","0.4480264808","0.2750581274","0.1770288166","0.1986333914","","","","","","","","","","","76","L","3","","","155","main_expt"
"56","","bandit","234","1080819","0.0-195.0-0.0","02731898","wem/bandit_either","A3TOUB8313BPVS","either","5","","","","","","","0","0","1","0.4260414265","","0.8","0.4","0.6","0.2","","","","","0.4260414265","0.2438045727","0.1761817894","0.2054640346","","","","","","","72","H","0","img/none_selected.jpg","","156","main_expt"
"274","","bandit","235","1082599","0.0-196.0-0.0","02731898","wem/bandit_either","A3TOUB8313BPVS","either","5","","","","","","","0","1","0","","0.2857025143","0.8","0.4","0.6","0.2","0.4365201507","0.2857025143","0.1998830888","0.1810715383","","","","","","","","","","","74","J","1","","","157","main_expt"
"74","","bandit","236","1084180","0.0-197.0-0.0","02731898","wem/bandit_either","A3TOUB8313BPVS","either","5","","","","","","","0","0","1","0.2887719476","","0.8","0.4","0.6","0.2","","","","","0.4076244479","0.2887719476","0.2150354531","0.2118906364","","","","","","","74","J","1","","","158","main_expt"
"129","","bandit","237","1085816","0.0-198.0-0.0","02731898","wem/bandit_either","A3TOUB8313BPVS","either","5","","","","","","","0","0","1","","0.2859462397","0.8","0.4","0.6","0.2","0.403953851","0.2859462397","0.2221069796","0.2293976715","","","","","","","","","","","74","J","1","","","159","main_expt"
"235","","bandit","238","1087557","0.0-199.0-0.0","02731898","wem/bandit_either","A3TOUB8313BPVS","either","5","","","","","","","0","1","0","","0.207432816","0.8","0.4","0.6","0.2","0.4282135537","0.207432816","0.2627335039","0.2186051381","","","","","","","","","","","74","J","1","","","160","main_expt"
"142","","bandit","239","1089206","0.0-200.0-0.0","02731898","wem/bandit_either","A3TOUB8313BPVS","either","5","","","","","","","0","0","1","","0.1611694724","0.8","0.4","0.6","0.2","0.4479073124","0.1611694724","0.2922457848","0.2175927206","","","","","","","","","","","74","J","1","","","161","main_expt"
"71","","bandit","240","1090783","0.0-201.0-0.0","02731898","wem/bandit_either","A3TOUB8313BPVS","either","5","","","","","","","0","0","1","0.14378348","","0.8","0.4","0.6","0.2","","","","","0.4456201243","0.14378348","0.3040212123","0.2370404117","","","","","","","74","J","1","","","162","main_expt"
"148","","bandit","241","1092439","0.0-202.0-0.0","02731898","wem/bandit_either","A3TOUB8313BPVS","either","5","","","","","","","0","0","1","","0.1707099899","0.8","0.4","0.6","0.2","0.4384930657","0.1707099899","0.2933359027","0.2778780432","","","","","","","","","","","74","J","1","","","163","main_expt"
"98","","bandit","242","1094046","0.0-203.0-0.0","02731898","wem/bandit_either","A3TOUB8313BPVS","either","5","","","","","","","0","0","1","","0.2388203062","0.8","0.4","0.6","0.2","0.4231568034","0.1933693166","0.2388203062","0.2643388611","","","","","","","","","","","75","K","2","","","164","main_expt"
"839","","bandit","243","1096391","0.0-204.0-0.0","02731898","wem/bandit_either","A3TOUB8313BPVS","either","5","","","","","","","0","0","1","0.2646204916","","0.8","0.4","0.6","0.2","","","","","0.4412535734","0.2406324952","0.2646204916","0.1967204453","","","","","","","75","K","2","","","165","main_expt"
"70","","bandit","244","1097968","0.0-205.0-0.0","02731898","wem/bandit_either","A3TOUB8313BPVS","either","5","","","","","","","1","0","0","0.2591758032","","0.8","0.4","0.6","0.2","","","","","0.438364003","0.2650462377","0.2591758032","0.1567937345","","","","","","","75","K","2","","","166","main_expt"
"129","","bandit","245","1099606","0.0-206.0-0.0","02731898","wem/bandit_either","A3TOUB8313BPVS","either","5","","","","","","","0","1","0","","0.1955934818","0.8","0.4","0.6","0.2","0.4290991351","0.245875583","0.1955934818","0.1201482918","","","","","","","","","","","75","K","2","","","167","main_expt"
"482","","bandit","246","1101594","0.0-207.0-0.0","02731898","wem/bandit_either","A3TOUB8313BPVS","either","5","","","","","","","0","0","1","","0.2090603634","0.8","0.4","0.6","0.2","0.4510860662","0.257303599","0.2090603634","0.0936051119","","","","","","","","","","","75","K","2","","","168","main_expt"
"220","","bandit","247","1103322","0.0-208.0-0.0","02731898","wem/bandit_either","A3TOUB8313BPVS","either","5","","","","","","","0","0","1","","0.2678479696","0.8","0.4","0.6","0.2","0.4491424364","0.2993732043","0.2678479696","0.08775096918","","","","","","","","","","","75","K","2","","","169","main_expt"
"61","","bandit","248","1104889","0.0-209.0-0.0","02731898","wem/bandit_either","A3TOUB8313BPVS","either","5","","","","","","","0","0","1","0.2532125956","","0.8","0.4","0.6","0.2","","","","","0.4332244901","0.3388977639","0.2532125956","0.06743429675","","","","","","","75","K","2","","","170","main_expt"
"278","","bandit","249","1106674","0.0-210.0-0.0","02731898","wem/bandit_either","A3TOUB8313BPVS","either","5","","","","","","","0","0","1","","0.2568627054","0.8","0.4","0.6","0.2","0.4405036994","0.2947926635","0.2568627054","0.05979118822","","","","","","","","","","","75","K","2","","","171","main_expt"
"31","","bandit","250","1108211","0.0-211.0-0.0","02731898","wem/bandit_either","A3TOUB8313BPVS","either","5","","","","","","","0","1","0","","0.03200499914","0.8","0.4","0.6","0.2","0.4358521759","0.2892529657","0.2451563353","0.03200499914","","","","","","","","","","","76","L","3","","","172","main_expt"
"53","","bandit","251","1109774","0.0-212.0-0.0","02731898","wem/bandit_either","A3TOUB8313BPVS","either","5","","","","","","","0","0","1","0.04613358223","","0.8","0.4","0.6","0.2","","","","","0.4471617722","0.2571917514","0.3003395367","0.04613358223","","","","","","","76","L","3","","","173","main_expt"
"92","","bandit","252","1111371","0.0-213.0-0.0","02731898","wem/bandit_either","A3TOUB8313BPVS","either","5","","","","","","","0","0","1","0.05969677181","","0.8","0.4","0.6","0.2","","","","","0.4560251174","0.244173221","0.2545998681","0.05969677181","","","","","","","76","L","3","","","174","main_expt"
"58","","bandit","253","1112936","0.0-214.0-0.0","02731898","wem/bandit_either","A3TOUB8313BPVS","either","5","","","","","","","0","0","1","","0.05930066603","0.8","0.4","0.6","0.2","0.4379349024","0.2038098688","0.3383135611","0.05930066603","","","","","","","","","","","76","L","3","","","175","main_expt"
"29","","bandit","254","1114474","0.0-215.0-0.0","02731898","wem/bandit_either","A3TOUB8313BPVS","either","5","","","","","","","0","0","1","","0.08110879181","0.8","0.4","0.6","0.2","0.4328841116","0.2053823003","0.3880627729","0.08110879181","","","","","","","","","","","76","L","3","","","176","main_expt"
"37","","bandit","255","1116019","0.0-216.0-0.0","02731898","wem/bandit_either","A3TOUB8313BPVS","either","5","","","","","","","0","0","1","","0.07611568943","0.8","0.4","0.6","0.2","0.3965365967","0.2193083282","0.3920994557","0.07611568943","","","","","","","","","","","76","L","3","","","177","main_expt"
"12","","bandit","256","1117538","0.0-217.0-0.0","02731898","wem/bandit_either","A3TOUB8313BPVS","either","5","","","","","","","0","0","1","","0.1220467165","0.8","0.4","0.6","0.2","0.3899234309","0.1904263594","0.3882277994","0.1220467165","","","","","","","","","","","76","L","3","","","178","main_expt"
"48","","bandit","257","1119093","0.0-218.0-0.0","02731898","wem/bandit_either","A3TOUB8313BPVS","either","5","","","","","","","0","0","1","","0.2212788648","0.8","0.4","0.6","0.2","0.4238443777","0.2212788648","0.3939691408","0.1698853315","","","","","","","","","","","74","J","1","","","179","main_expt"
"54","","bandit","258","1120655","0.0-219.0-0.0","02731898","wem/bandit_either","A3TOUB8313BPVS","either","5","","","","","","","0","0","1","0.2640717145","","0.8","0.4","0.6","0.2","","","","","0.4487400994","0.2640717145","0.4074656662","0.1374762061","","","","","","","74","J","1","","","180","main_expt"
"121","","bandit","259","1122284","0.0-220.0-0.0","02731898","wem/bandit_either","A3TOUB8313BPVS","either","5","","","","","","","1","0","0","0.4314573438","","0.8","0.4","0.6","0.2","","","","","0.4314573438","0.2426483564","0.3724421945","0.09961924189","","","","","","","72","H","0","img/none_selected.jpg","","181","main_expt"
"61","","bandit","260","1123854","0.0-221.0-0.0","02731898","wem/bandit_either","A3TOUB8313BPVS","either","5","","","","","","","1","0","0","0.4458059303","","0.8","0.4","0.6","0.2","","","","","0.4458059303","0.2001563476","0.2998177931","0.1391043194","","","","","","","72","H","0","img/none_selected.jpg","","182","main_expt"
"147","","bandit","261","1125508","0.0-222.0-0.0","02731898","wem/bandit_either","A3TOUB8313BPVS","either","5","","","","","","","0","0","1","0.4485460149","","0.8","0.4","0.6","0.2","","","","","0.4485460149","0.2167094124","0.3629728763","0.1336424596","","","","","","","72","H","0","img/none_selected.jpg","","183","main_expt"
"142","","bandit","262","1127157","0.0-223.0-0.0","02731898","wem/bandit_either","A3TOUB8313BPVS","either","5","","","","","","","0","0","1","","0.4078350507","0.8","0.4","0.6","0.2","0.4078350507","0.2402813617","0.3763603645","0.115911235","","","","","","","","","","","72","H","0","img/none_selected.jpg","","184","main_expt"
"130","","bandit","263","1128795","0.0-224.0-0.0","02731898","wem/bandit_either","A3TOUB8313BPVS","either","5","","","","","","","1","0","0","0.3805788675","","0.8","0.4","0.6","0.2","","","","","0.3805788675","0.2745112141","0.3472982705","0.1394203739","","","","","","","72","H","0","img/none_selected.jpg","","185","main_expt"
"76","","bandit","264","1130377","0.0-225.0-0.0","02731898","wem/bandit_either","A3TOUB8313BPVS","either","5","","","","","","","0","0","1","","0.4236809331","0.8","0.4","0.6","0.2","0.4236809331","0.2774566956","0.3095995051","0.1557479742","","","","","","","","","","","72","H","0","img/none_selected.jpg","","186","main_expt"
"182","","bandit","265","1132065","0.0-226.0-0.0","02731898","wem/bandit_either","A3TOUB8313BPVS","either","5","","","","","","","1","0","0","0.4058627081","","0.8","0.4","0.6","0.2","","","","","0.4058627081","0.2876011691","0.2567332284","0.1823611596","","","","","","","72","H","0","img/none_selected.jpg","","187","main_expt"
"154","","bandit","266","1133726","0.0-227.0-0.0","02731898","wem/bandit_either","A3TOUB8313BPVS","either","5","","","","","","","0","0","1","0.3913346521","","0.8","0.4","0.6","0.2","","","","","0.3913346521","0.2947112378","0.2555256861","0.1854179297","","","","","","","72","H","0","img/none_selected.jpg","","188","main_expt"
"217","","bandit","267","1135450","0.0-228.0-0.0","02731898","wem/bandit_either","A3TOUB8313BPVS","either","5","","","","","","","1","0","0","0.3760164219","","0.8","0.4","0.6","0.2","","","","","0.3760164219","0.2581494","0.2009875262","0.1875645599","","","","","","","72","H","0","img/none_selected.jpg","","189","main_expt"
"199","","bandit","268","1137156","0.0-229.0-0.0","02731898","wem/bandit_either","A3TOUB8313BPVS","either","5","","","","","","","0","0","1","0.3327352817","","0.8","0.4","0.6","0.2","","","","","0.3327352817","0.1756323468","0.2055488595","0.2018323604","","","","","","","72","H","0","img/none_selected.jpg","","190","main_expt"
"72","","bandit","269","1138736","0.0-230.0-0.0","02731898","wem/bandit_either","A3TOUB8313BPVS","either","5","","","","","","","1","0","0","0.3015177445","","0.8","0.4","0.6","0.2","","","","","0.3015177445","0.2521570866","0.1506387864","0.221094727","","","","","","","72","H","0","img/none_selected.jpg","","191","main_expt"
"102","","bandit","270","1140344","0.0-231.0-0.0","02731898","wem/bandit_either","A3TOUB8313BPVS","either","5","","","","","","","1","0","0","0.2773298268","","0.8","0.4","0.6","0.2","","","","","0.2773298268","0.2964739449","0.2027442266","0.2320570195","","","","","","","72","H","0","img/none_selected.jpg","","192","main_expt"
"41","","bandit","271","1141893","0.0-232.0-0.0","02731898","wem/bandit_either","A3TOUB8313BPVS","either","5","","","","","","","0","0","1","0.2836613797","","0.8","0.4","0.6","0.2","","","","","0.2836613797","0.2612966838","0.1969137872","0.2948950962","","","","","","","72","H","0","img/none_selected.jpg","","193","main_expt"
"87","","bandit","272","1143486","0.0-233.0-0.0","02731898","wem/bandit_either","A3TOUB8313BPVS","either","5","","","","","","","0","0","1","0.2799350415","","0.8","0.4","0.6","0.2","","","","","0.2799350415","0.3292914436","0.2114994946","0.2602906927","","","","","","","72","H","0","img/none_selected.jpg","","194","main_expt"
"37","","bandit","273","1145029","0.0-234.0-0.0","02731898","wem/bandit_either","A3TOUB8313BPVS","either","5","","","","","","","0","0","1","0.2068597772","","0.8","0.4","0.6","0.2","","","","","0.2068597772","0.4070308407","0.2467939011","0.1771499101","","","","","","","72","H","0","img/none_selected.jpg","","195","main_expt"
"151","","bandit","274","1146687","0.0-235.0-0.0","02731898","wem/bandit_either","A3TOUB8313BPVS","either","5","","","","","","","0","0","1","","0.3494820729","0.8","0.4","0.6","0.2","0.2679469531","0.3494820729","0.2731811988","0.1746274925","","","","","","","","","","","74","J","1","","","196","main_expt"
"108","","bandit","275","1148302","0.0-236.0-0.0","02731898","wem/bandit_either","A3TOUB8313BPVS","either","5","","","","","","","0","0","1","","0.3571939809","0.8","0.4","0.6","0.2","0.2448078588","0.3571939809","0.2512114903","0.193224684","","","","","","","","","","","74","J","1","","","197","main_expt"
"22","","bandit","276","1149831","0.0-237.0-0.0","02731898","wem/bandit_either","A3TOUB8313BPVS","either","5","","","","","","","0","0","1","","0.190651112","0.8","0.4","0.6","0.2","0.2433987968","0.382430028","0.190651112","0.1771509929","","","","","","","","","","","75","K","2","","","198","main_expt"
"45","","bandit","277","1151384","0.0-238.0-0.0","02731898","wem/bandit_either","A3TOUB8313BPVS","either","5","","","","","","","0","0","1","0.1701189695","","0.8","0.4","0.6","0.2","","","","","0.2653624242","0.3353474301","0.1701189695","0.2466668772","","","","","","","75","K","2","","","199","main_expt"
"49","","bandit","278","1152940","0.0-239.0-0.0","02731898","wem/bandit_either","A3TOUB8313BPVS","either","5","","","","","","","0","0","1","","0.2477816141","0.8","0.4","0.6","0.2","0.2551376492","0.3321976498","0.1656975488","0.2477816141","","","","","","","","","","","76","L","3","","","200","main_expt"
"1205","","bandit","279","1155653","0.0-240.0-0.0","02731898","wem/bandit_either","A3TOUB8313BPVS","either","5","","","","","","","0","0","1","","0.2744817861","0.8","0.4","0.6","0.2","0.2660639347","0.3218117355","0.1647298582","0.2744817861","","","","","","","","","","","76","L","3","","","201","main_expt"
"124","","bandit","280","1157283","0.0-241.0-0.0","02731898","wem/bandit_either","A3TOUB8313BPVS","either","5","","","","","","","0","0","1","","0.3043062986","0.8","0.4","0.6","0.2","0.2220900594","0.2949214693","0.1242041815","0.3043062986","","","","","","","","","","","76","L","3","","","202","main_expt"
"444","","bandit","281","1159233","0.0-242.0-0.0","02731898","wem/bandit_either","A3TOUB8313BPVS","either","5","","","","","","","0","0","1","0.1543353204","","0.8","0.4","0.6","0.2","","","","","0.1543353204","0.300077299","0.1684487429","0.272185569","","","","","","","72","H","0","img/none_selected.jpg","","203","main_expt"
"78","","bandit","282","1160818","0.0-243.0-0.0","02731898","wem/bandit_either","A3TOUB8313BPVS","either","5","","","","","","","0","0","1","0.2866085977","","0.8","0.4","0.6","0.2","","","","","0.1605482003","0.2866085977","0.1666409686","0.2610767704","","","","","","","74","J","1","","","204","main_expt"
"37","","bandit","283","1162362","0.0-244.0-0.0","02731898","wem/bandit_either","A3TOUB8313BPVS","either","5","","","","","","","0","0","1","0.2197286508","","0.8","0.4","0.6","0.2","","","","","0.1406914754","0.2695546272","0.2197286508","0.2832615928","","","","","","","75","K","2","","","205","main_expt"
"21","","bandit","284","1163895","0.0-245.0-0.0","02731898","wem/bandit_either","A3TOUB8313BPVS","either","5","","","","","","","0","1","0","","0.300913322","0.8","0.4","0.6","0.2","0.1138947463","0.2622178416","0.2754509052","0.300913322","","","","","","","","","","","76","L","3","","","206","main_expt"
"66","","bandit","285","1165467","0.0-246.0-0.0","02731898","wem/bandit_either","A3TOUB8313BPVS","either","5","","","","","","","0","0","1","","0.3260258847","0.8","0.4","0.6","0.2","0.1096702189","0.2498186578","0.2664869377","0.3260258847","","","","","","","","","","","76","L","3","","","207","main_expt"
"38","","bandit","286","1167013","0.0-247.0-0.0","02731898","wem/bandit_either","A3TOUB8313BPVS","either","5","","","","","","","0","0","1","","0.3173829003","0.8","0.4","0.6","0.2","0.09922356593","0.2335358635","0.2686565688","0.3173829003","","","","","","","","","","","76","L","3","","","208","main_expt"
"153","","bandit","287","1168672","0.0-248.0-0.0","02731898","wem/bandit_either","A3TOUB8313BPVS","either","5","","","","","","","0","0","1","0.3153846937","","0.8","0.4","0.6","0.2","","","","","0.101567507","0.2638942681","0.2380255957","0.3153846937","","","","","","","76","L","3","","","209","main_expt"
"1515","","bandit","288","1171693","0.0-249.0-0.0","02731898","wem/bandit_either","A3TOUB8313BPVS","either","5","","","","","","","0","1","0","","0.3010876552","0.8","0.4","0.6","0.2","0.08675379402","0.2526926237","0.2507768727","0.3010876552","","","","","","","","","","","76","L","3","","","210","main_expt"
"106","","bandit","289","1173305","0.0-250.0-0.0","02731898","wem/bandit_either","A3TOUB8313BPVS","either","5","","","","","","","0","0","1","","0.2864900033","0.8","0.4","0.6","0.2","0.07512021269","0.2740367769","0.2685142319","0.2864900033","","","","","","","","","","","76","L","3","","","211","main_expt"
"37","","bandit","290","1174848","0.0-251.0-0.0","02731898","wem/bandit_either","A3TOUB8313BPVS","either","5","","","","","","","0","0","1","0.3163372434","","0.8","0.4","0.6","0.2","","","","","0.08144254236","0.2440836191","0.260511483","0.3163372434","","","","","","","76","L","3","","","212","main_expt"
"650","","bandit","291","1177005","0.0-252.0-0.0","02731898","wem/bandit_either","A3TOUB8313BPVS","either","5","","","","","","","0","0","1","","0.2701305136","0.8","0.4","0.6","0.2","0.06585574052","0.2341903104","0.2579605047","0.2701305136","","","","","","","","","","","76","L","3","","","213","main_expt"
"463","","bandit","292","1178976","0.0-253.0-0.0","02731898","wem/bandit_either","A3TOUB8313BPVS","either","5","","","","","","","0","0","1","0.2097526345","","0.8","0.4","0.6","0.2","","","","","0.08686614453","0.2097526345","0.2470456849","0.302599165","","","","","","","74","J","1","","","214","main_expt"
"1505","","bandit","293","1181987","0.0-254.0-0.0","02731898","wem/bandit_either","A3TOUB8313BPVS","either","5","","","","","","","0","0","1","0.3285383036","","0.8","0.4","0.6","0.2","","","","","0.1068548489","0.1796882487","0.3285383036","0.2968005471","","","","","","","75","K","2","","","215","main_expt"
"334","","bandit","294","1183827","0.0-255.0-0.0","02731898","wem/bandit_either","A3TOUB8313BPVS","either","5","","","","","","","0","1","0","","0.3780044773","0.8","0.4","0.6","0.2","0.1211736082","0.2237900511","0.3780044773","0.2835536598","","","","","","","","","","","75","K","2","","","216","main_expt"
"471","","bandit","295","1185805","0.0-256.0-0.0","02731898","wem/bandit_either","A3TOUB8313BPVS","either","5","","","","","","","1","0","0","0.3939228946","","0.8","0.4","0.6","0.2","","","","","0.09343701815","0.2265358539","0.3939228946","0.2520762718","","","","","","","75","K","2","","","217","main_expt"
"537","","bandit","296","1187849","0.0-257.0-0.0","02731898","wem/bandit_either","A3TOUB8313BPVS","either","5","","","","","","","1","0","0","0.3198270803","","0.8","0.4","0.6","0.2","","","","","0.1001055386","0.2364013437","0.3198270803","0.2562699476","","","","","","","75","K","2","","","218","main_expt"
"154","","bandit","297","1189511","0.0-258.0-0.0","02731898","wem/bandit_either","A3TOUB8313BPVS","either","5","","","","","","","0","0","1","0.3502502288","","0.8","0.4","0.6","0.2","","","","","0.09524874014","0.2810560361","0.3502502288","0.3002431464","","","","","","","75","K","2","","","219","main_expt"
"235","","bandit","298","1191255","0.0-259.0-0.0","02731898","wem/bandit_either","A3TOUB8313BPVS","either","5","","","","","","","0","1","0","","0.3402456168","0.8","0.4","0.6","0.2","0.1304899995","0.3027429446","0.3402456168","0.3365413303","","","","","","","","","","","75","K","2","","","220","main_expt"
"154","","bandit","299","1192916","0.0-260.0-0.0","02731898","wem/bandit_either","A3TOUB8313BPVS","either","5","","","","","","","1","0","0","0.3770059732","","0.8","0.4","0.6","0.2","","","","","0.1272814923","0.3132134988","0.3770059732","0.2946103072","","","","","","","75","K","2","","","221","main_expt"
"97","","bandit","300","1194519","0.0-261.0-0.0","02731898","wem/bandit_either","A3TOUB8313BPVS","either","5","","","","","","","0","0","1","","0.3864421123","0.8","0.4","0.6","0.2","0.1654407056","0.2424821827","0.3864421123","0.3267284332","","","","","","","","","","","75","K","2","","","222","main_expt"
"32","","bandit","301","1196060","0.0-262.0-0.0","02731898","wem/bandit_either","A3TOUB8313BPVS","either","5","","","","","","","0","0","1","","0.4205211408","0.8","0.4","0.6","0.2","0.1788325852","0.2595367495","0.4205211408","0.3175152631","","","","","","","","","","","75","K","2","","","223","main_expt"
"160","","bandit","302","1197727","0.0-263.0-0.0","02731898","wem/bandit_either","A3TOUB8313BPVS","either","5","","","","","","","1","0","0","0.4131889957","","0.8","0.4","0.6","0.2","","","","","0.1736623033","0.328819141","0.4131889957","0.3192400935","","","","","","","75","K","2","","","224","main_expt"
"424","","bandit","303","1199658","0.0-264.0-0.0","02731898","wem/bandit_either","A3TOUB8313BPVS","either","5","","","","","","","1","0","0","0.4001513574","","0.8","0.4","0.6","0.2","","","","","0.1721911447","0.356121412","0.4001513574","0.3096750449","","","","","","","75","K","2","","","225","main_expt"
"305","","bandit","304","1201470","0.0-265.0-0.0","02731898","wem/bandit_either","A3TOUB8313BPVS","either","5","","","","","","","0","1","0","","0.3963688582","0.8","0.4","0.6","0.2","0.2133818582","0.3394019192","0.3963688582","0.3142833063","","","","","","","","","","","75","K","2","","","226","main_expt"
"220","","bandit","305","1203198","0.0-266.0-0.0","02731898","wem/bandit_either","A3TOUB8313BPVS","either","5","","","","","","","0","0","1","0.3979714495","","0.8","0.4","0.6","0.2","","","","","0.2620007467","0.2860553004","0.3979714495","0.3096885674","","","","","","","75","K","2","","","227","main_expt"
"165","","bandit","306","1204870","0.0-267.0-0.0","02731898","wem/bandit_either","A3TOUB8313BPVS","either","5","","","","","","","1","0","0","0.3811043637","","0.8","0.4","0.6","0.2","","","","","0.2961930455","0.2967856672","0.3811043637","0.3048295172","","","","","","","75","K","2","","","228","main_expt"
"227","","bandit","307","1206604","0.0-268.0-0.0","02731898","wem/bandit_either","A3TOUB8313BPVS","either","5","","","","","","","1","0","0","0.3488149186","","0.8","0.4","0.6","0.2","","","","","0.3081123415","0.2857745529","0.3488149186","0.2553920021","","","","","","","75","K","2","","","229","main_expt"
"92","","bandit","308","1208203","0.0-269.0-0.0","02731898","wem/bandit_either","A3TOUB8313BPVS","either","5","","","","","","","0","0","1","","0.2883621188","0.8","0.4","0.6","0.2","0.3027177586","0.2589404948","0.2883621188","0.2783794412","","","","","","","","","","","75","K","2","","","230","main_expt"
"174","","bandit","309","1209884","0.0-270.0-0.0","02731898","wem/bandit_either","A3TOUB8313BPVS","either","5","","","","","","","0","0","1","","0.2444465504","0.8","0.4","0.6","0.2","0.2495346478","0.2628441024","0.2444465504","0.2735536708","","","","","","","","","","","75","K","2","","","231","main_expt"
"47","","bandit","310","1211440","0.0-271.0-0.0","02731898","wem/bandit_either","A3TOUB8313BPVS","either","5","","","","","","","1","0","0","0.2996930955","","0.8","0.4","0.6","0.2","","","","","0.2185872191","0.276537748","0.2996930955","0.2262440502","","","","","","","75","K","2","","","232","main_expt"
"105","","bandit","311","1213055","0.0-272.0-0.0","02731898","wem/bandit_either","A3TOUB8313BPVS","either","5","","","","","","","0","0","1","","0.3103031796","0.8","0.4","0.6","0.2","0.1874863907","0.2485723575","0.3103031796","0.2171974885","","","","","","","","","","","75","K","2","","","233","main_expt"
"280","","bandit","312","1214843","0.0-273.0-0.0","02731898","wem/bandit_either","A3TOUB8313BPVS","either","5","","","","","","","1","0","0","0.2971988612","","0.8","0.4","0.6","0.2","","","","","0.2165838284","0.2172766866","0.2971988612","0.2951485073","","","","","","","75","K","2","","","234","main_expt"
"100","","bandit","313","1216450","0.0-274.0-0.0","02731898","wem/bandit_either","A3TOUB8313BPVS","either","5","","","","","","","1","0","0","0.3266576642","","0.8","0.4","0.6","0.2","","","","","0.1791302586","0.221542824","0.3266576642","0.3135740045","","","","","","","75","K","2","","","235","main_expt"
"208","","bandit","314","1218166","0.0-275.0-0.0","02731898","wem/bandit_either","A3TOUB8313BPVS","either","5","","","","","","","0","0","1","0.3596878827","","0.8","0.4","0.6","0.2","","","","","0.2463713802","0.2200573756","0.3596878827","0.2945285262","","","","","","","75","K","2","","","236","main_expt"
"190","","bandit","315","1219864","0.0-276.0-0.0","02731898","wem/bandit_either","A3TOUB8313BPVS","either","5","","","","","","","0","1","0","","0.3951370387","0.8","0.4","0.6","0.2","0.2204623923","0.2146478317","0.3951370387","0.2797454337","","","","","","","","","","","75","K","2","","","237","main_expt"
"360","","bandit","316","1221732","0.0-277.0-0.0","02731898","wem/bandit_either","A3TOUB8313BPVS","either","5","","","","","","","0","0","1","0.3863552979","","0.8","0.4","0.6","0.2","","","","","0.2316256556","0.2237656472","0.3863552979","0.266453507","","","","","","","75","K","2","","","238","main_expt"
"172","","bandit","317","1223412","0.0-278.0-0.0","02731898","wem/bandit_either","A3TOUB8313BPVS","either","5","","","","","","","0","0","1","","0.310831157","0.8","0.4","0.6","0.2","0.2406304147","0.2302611888","0.3962704677","0.310831157","","","","","","","","","","","76","L","3","","","239","main_expt"
"196","","bandit","318","1225116","0.0-279.0-0.0","02731898","wem/bandit_either","A3TOUB8313BPVS","either","5","","","","","","","0","0","1","","0.331950591","0.8","0.4","0.6","0.2","0.2624476398","0.2253069634","0.3926977495","0.331950591","","","","","","","","","","","76","L","3","","","240","main_expt"
"174","","bandit","319","1226798","0.0-280.0-0.0","02731898","wem/bandit_either","A3TOUB8313BPVS","either","5","","","","","","","0","0","1","","0.3223776605","0.8","0.4","0.6","0.2","0.2627099727","0.2523404353","0.3381110468","0.3223776605","","","","","","","","","","","76","L","3","","","241","main_expt"
"129","","bandit","320","1228434","0.0-281.0-0.0","02731898","wem/bandit_either","A3TOUB8313BPVS","either","5","","","","","","","0","0","1","0.238450381","","0.8","0.4","0.6","0.2","","","","","0.2262339403","0.238450381","0.3213381148","0.3389272588","","","","","","","74","J","1","","","242","main_expt"
"47","","bandit","321","1229990","0.0-282.0-0.0","02731898","wem/bandit_either","A3TOUB8313BPVS","either","5","","","","","","","1","0","0","0.2476478509","","0.8","0.4","0.6","0.2","","","","","0.2511573395","0.2476478509","0.3395415742","0.4023830898","","","","","","","74","J","1","","","243","main_expt"
"19","","bandit","322","1231516","0.0-283.0-0.0","02731898","wem/bandit_either","A3TOUB8313BPVS","either","5","","","","","","","1","0","0","0.2603762171","","0.8","0.4","0.6","0.2","","","","","0.3112309098","0.2603762171","0.3077285799","0.4072225753","","","","","","","74","J","1","","","244","main_expt"
"35","","bandit","323","1233058","0.0-284.0-0.0","02731898","wem/bandit_either","A3TOUB8313BPVS","either","5","","","","","","","0","1","0","","0.2778117757","0.8","0.4","0.6","0.2","0.3169667097","0.2778117757","0.269997398","0.4047901721","","","","","","","","","","","74","J","1","","","245","main_expt"
"89","","bandit","324","1234656","0.0-285.0-0.0","02731898","wem/bandit_either","A3TOUB8313BPVS","either","5","","","","","","","0","0","1","0.2571702875","","0.8","0.4","0.6","0.2","","","","","0.3774934029","0.2571702875","0.2896792764","0.4245844383","","","","","","","74","J","1","","","246","main_expt"
"632","","bandit","325","1236795","0.0-286.0-0.0","02731898","wem/bandit_either","A3TOUB8313BPVS","either","5","","","","","","","0","0","1","","0.2790325972","0.8","0.4","0.6","0.2","0.3592590195","0.2790325972","0.3079745892","0.4425022826","","","","","","","","","","","74","J","1","","","247","main_expt"
"725","","bandit","326","1239029","0.0-287.0-0.0","02731898","wem/bandit_either","A3TOUB8313BPVS","either","5","","","","","","","0","0","1","","0.2665328125","0.8","0.4","0.6","0.2","0.3659800935","0.2665328125","0.2306801962","0.4454461089","","","","","","","","","","","74","J","1","","","248","main_expt"
"508","","bandit","327","1241047","0.0-288.0-0.0","02731898","wem/bandit_either","A3TOUB8313BPVS","either","5","","","","","","","0","0","1","","0.2666328085","0.8","0.4","0.6","0.2","0.3940863056","0.2666328085","0.2363838343","0.4565985803","","","","","","","","","","","74","J","1","","","249","main_expt"
"283","","bandit","328","1242838","0.0-289.0-0.0","02731898","wem/bandit_either","A3TOUB8313BPVS","either","5","","","","","","","0","0","1","0.2637425143","","0.8","0.4","0.6","0.2","","","","","0.3652193683","0.2637425143","0.2865845142","0.4666950096","","","","","","","74","J","1","","","250","main_expt"
"157","","bandit","329","1244501","0.0-290.0-0.0","02731898","wem/bandit_either","A3TOUB8313BPVS","either","5","","","","","","","0","0","1","","0.3041279159","0.8","0.4","0.6","0.2","0.3118516898","0.3041279159","0.3527425442","0.4491167865","","","","","","","","","","","74","J","1","","","251","main_expt"
"264","","bandit","330","1246273","0.0-291.0-0.0","02731898","wem/bandit_either","A3TOUB8313BPVS","either","5","","","","","","","1","0","0","0.3054217384","","0.8","0.4","0.6","0.2","","","","","0.3291033061","0.3054217384","0.3236638898","0.4512042396","","","","","","","74","J","1","","","252","main_expt"
"87","","bandit","331","1247867","0.0-292.0-0.0","02731898","wem/bandit_either","A3TOUB8313BPVS","either","5","","","","","","","0","0","1","","0.3241125582","0.8","0.4","0.6","0.2","0.35413613","0.3241125582","0.2905162115","0.4572977034","","","","","","","","","","","74","J","1","","","253","main_expt"
"3","","bandit","332","1249378","0.0-293.0-0.0","02731898","wem/bandit_either","A3TOUB8313BPVS","either","5","","","","","","","1","0","0","0.3512447021","","0.8","0.4","0.6","0.2","","","","","0.2644422317","0.3512447021","0.2486268238","0.4550853681","","","","","","","74","J","1","","","254","main_expt"
