"rt","responses","trial_type","trial_index","time_elapsed","internal_node_id","subjID","study","MID","cond","drift","key_press","expt_phase","target","like","value","connected","respCharCode","respKey","respChoiceNum","respChoice","gems","bombs","no_reward","GemPrChosen","BombPrChosen","practice","trial_counter","WinPr_0","LosePr_0","trial_label","GainOverPainPr_0","LosePr_1","GainOverPainPr_1","WinPr_1","WinPr_2","GainOverPainPr_2","WinPr_3","GainOverPainPr_3","LosePr_2","LosePr_3","Q0","Q1","Q2","gender","age","ethnicity"
"5020","{""Q0"":""A1DWDCD4CHM68O""}","survey-text","0","5025","0.0-0.0","03357283","wem/bandit_either","A1DWDCD4CHM68O","either","2","","","","","","","","","","","","","","","","","","","","","","","","","","","","","","","","","","","",""
"6046","","text","1","12074","0.0-1.0","03357283","wem/bandit_either","A1DWDCD4CHM68O","either","2","32","","","","","","","","","","","","","","","","","","","","","","","","","","","","","","","","","","",""
"6692","","text","2","18767","0.0-2.0","03357283","wem/bandit_either","A1DWDCD4CHM68O","either","2","32","","","","","","","","","","","","","","","","","","","","","","","","","","","","","","","","","","",""
"12659","","text","3","31427","0.0-3.0","03357283","wem/bandit_either","A1DWDCD4CHM68O","either","2","32","","","","","","","","","","","","","","","","","","","","","","","","","","","","","","","","","","",""
"9533","","text","4","40962","0.0-4.0","03357283","wem/bandit_either","A1DWDCD4CHM68O","either","2","32","","","","","","","","","","","","","","","","","","","","","","","","","","","","","","","","","","",""
"14274","","text","5","55236","0.0-5.0","03357283","wem/bandit_either","A1DWDCD4CHM68O","either","2","32","","","","","","","","","","","","","","","","","","","","","","","","","","","","","","","","","","",""
"7540","","text","6","62777","0.0-6.0","03357283","wem/bandit_either","A1DWDCD4CHM68O","either","2","32","","","","","","","","","","","","","","","","","","","","","","","","","","","","","","","","","","",""
"4013","","text","7","66792","0.0-7.0","03357283","wem/bandit_either","A1DWDCD4CHM68O","either","2","32","","","","","","","","","","","","","","","","","","","","","","","","","","","","","","","","","","",""
"5697","","identification","8","72502","0.0-8.0-0.0","03357283","wem/bandit_either","A1DWDCD4CHM68O","either","2","","identification_pre","the village of Zur","4","4","4","","","","","","","","","","","","","","","","","","","","","","","","","","","","","",""
"2343","","identification","9","75853","0.0-8.0-1.0","03357283","wem/bandit_either","A1DWDCD4CHM68O","either","2","","identification_pre","the village of Nyx","2","2","2","","","","","","","","","","","","","","","","","","","","","","","","","","","","","",""
"3578","","text","10","80433","0.0-9.0","03357283","wem/bandit_either","A1DWDCD4CHM68O","either","2","32","","","","","","","","","","","","","","","","","","","","","","","","","","","","","","","","","","",""
"4574","","text","11","85008","0.0-10.0","03357283","wem/bandit_either","A1DWDCD4CHM68O","either","2","32","","","","","","","","","","","","","","","","","","","","","","","","","","","","","","","","","","",""
"1681","","text","12","86690","0.0-11.0","03357283","wem/bandit_either","A1DWDCD4CHM68O","either","2","32","","","","","","","","","","","","","","","","","","","","","","","","","","","","","","","","","","",""
"4781","","text","13","91472","0.0-12.0","03357283","wem/bandit_either","A1DWDCD4CHM68O","either","2","32","","","","","","","","","","","","","","","","","","","","","","","","","","","","","","","","","","",""
"2037","","bandit","14","95014","0.0-13.0-0.0","03357283","wem/bandit_either","A1DWDCD4CHM68O","either","2","","","","","","","74","J","0","img/none_selected_demo.jpg","0","0","1","0","0","true","0","0","0","","","","","","","","","","","","","","","","",""
"2316","","bandit","15","98833","0.0-14.0-0.0","03357283","wem/bandit_either","A1DWDCD4CHM68O","either","2","","","","","","","75","K","0","img/none_selected_demo.jpg","0","0","1","0","0","true","0","0","0","","","","","","","","","","","","","","","","",""
"4443","","text","16","103277","0.0-15.0","03357283","wem/bandit_either","A1DWDCD4CHM68O","either","2","32","","","","","","","","","","","","","","","","","","","","","","","","","","","","","","","","","","",""
"8112","","text","17","111390","0.0-16.0","03357283","wem/bandit_either","A1DWDCD4CHM68O","either","2","32","","","","","","","","","","","","","","","","","","","","","","","","","","","","","","","","","","",""
"4274","","text","18","115665","0.0-17.0","03357283","wem/bandit_either","A1DWDCD4CHM68O","either","2","32","","","","","","","","","","","","","","","","","","","","","","","","","","","","","","","","","","",""
"2622","","text","19","118288","0.0-18.0","03357283","wem/bandit_either","A1DWDCD4CHM68O","either","2","32","","","","","","","","","","","","","","","","","","","","","","","","","","","","","","","","","","",""
"1074","","bandit","20","120865","0.0-19.0-0.0","03357283","wem/bandit_either","A1DWDCD4CHM68O","either","2","","","","","","","74","J","0","img/none_selected_demo.jpg","0","1","0","","0.8","true","0","","0.8","80_20_practice","0.5","0.2","0.5","","","","","","","","","","","","",""
"579","","bandit","21","122948","0.0-19.0-1.0","03357283","wem/bandit_either","A1DWDCD4CHM68O","either","2","","","","","","","75","K","1","","0","0","1","","0.2","true","0","","0.8","80_20_practice","0.5","0.2","0.5","","","","","","","","","","","","",""
"623","","bandit","22","125073","0.0-19.0-2.0","03357283","wem/bandit_either","A1DWDCD4CHM68O","either","2","","","","","","","74","J","0","img/none_selected_demo.jpg","1","0","0","0.8","","true","0","0.8","","80_20_practice","0.5","","0.5","0.2","","","","","","","","","","","",""
"314","","bandit","23","126890","0.0-19.0-3.0","03357283","wem/bandit_either","A1DWDCD4CHM68O","either","2","","","","","","","75","K","1","","0","0","1","","0.2","true","0","","0.8","80_20_practice","0.5","0.2","0.5","","","","","","","","","","","","",""
"244","","bandit","24","128637","0.0-19.0-4.0","03357283","wem/bandit_either","A1DWDCD4CHM68O","either","2","","","","","","","75","K","1","","0","0","1","","0.2","true","0","","0.8","80_20_practice","0.5","0.2","0.5","","","","","","","","","","","","",""
"209","","bandit","25","130350","0.0-19.0-5.0","03357283","wem/bandit_either","A1DWDCD4CHM68O","either","2","","","","","","","74","J","0","img/none_selected_demo.jpg","0","1","0","","0.8","true","0","","0.8","80_20_practice","0.5","0.2","0.5","","","","","","","","","","","","",""
"223","","bandit","26","132076","0.0-19.0-6.0","03357283","wem/bandit_either","A1DWDCD4CHM68O","either","2","","","","","","","75","K","1","","0","0","1","","0.2","true","0","","0.8","80_20_practice","0.5","0.2","0.5","","","","","","","","","","","","",""
"563","","bandit","27","134142","0.0-19.0-7.0","03357283","wem/bandit_either","A1DWDCD4CHM68O","either","2","","","","","","","74","J","0","img/none_selected_demo.jpg","0","0","1","","0.8","true","0","","0.8","80_20_practice","0.5","0.2","0.5","","","","","","","","","","","","",""
"280","","bandit","28","135927","0.0-19.0-8.0","03357283","wem/bandit_either","A1DWDCD4CHM68O","either","2","","","","","","","75","K","1","","1","0","0","0.2","","true","0","0.8","","80_20_practice","0.5","","0.5","0.2","","","","","","","","","","","",""
"311","","bandit","29","137742","0.0-19.0-9.0","03357283","wem/bandit_either","A1DWDCD4CHM68O","either","2","","","","","","","74","J","0","img/none_selected_demo.jpg","1","0","0","0.8","","true","0","0.8","","80_20_practice","0.5","","0.5","0.2","","","","","","","","","","","",""
"371","","bandit","30","139616","0.0-19.0-10.0","03357283","wem/bandit_either","A1DWDCD4CHM68O","either","2","","","","","","","75","K","1","","0","1","0","","0.2","true","0","","0.8","80_20_practice","0.5","0.2","0.5","","","","","","","","","","","","",""
"246","","bandit","31","141364","0.0-19.0-11.0","03357283","wem/bandit_either","A1DWDCD4CHM68O","either","2","","","","","","","74","J","0","img/none_selected_demo.jpg","1","0","0","0.8","","true","0","0.8","","80_20_practice","0.5","","0.5","0.2","","","","","","","","","","","",""
"136","","bandit","32","143005","0.0-19.0-12.0","03357283","wem/bandit_either","A1DWDCD4CHM68O","either","2","","","","","","","74","J","0","img/none_selected_demo.jpg","0","1","0","","0.8","true","0","","0.8","80_20_practice","0.5","0.2","0.5","","","","","","","","","","","","",""
"302","","bandit","33","144811","0.0-19.0-13.0","03357283","wem/bandit_either","A1DWDCD4CHM68O","either","2","","","","","","","75","K","1","","0","1","0","","0.2","true","0","","0.8","80_20_practice","0.5","0.2","0.5","","","","","","","","","","","","",""
"234","","bandit","34","146549","0.0-19.0-14.0","03357283","wem/bandit_either","A1DWDCD4CHM68O","either","2","","","","","","","74","J","0","img/none_selected_demo.jpg","1","0","0","0.8","","true","0","0.8","","80_20_practice","0.5","","0.5","0.2","","","","","","","","","","","",""
"258","","bandit","35","148311","0.0-19.0-15.0","03357283","wem/bandit_either","A1DWDCD4CHM68O","either","2","","","","","","","74","J","0","img/none_selected_demo.jpg","0","1","0","","0.8","true","0","","0.8","80_20_practice","0.5","0.2","0.5","","","","","","","","","","","","",""
"257","","bandit","36","150072","0.0-19.0-16.0","03357283","wem/bandit_either","A1DWDCD4CHM68O","either","2","","","","","","","74","J","0","img/none_selected_demo.jpg","0","1","0","","0.8","true","0","","0.8","80_20_practice","0.5","0.2","0.5","","","","","","","","","","","","",""
"245","","bandit","37","151820","0.0-19.0-17.0","03357283","wem/bandit_either","A1DWDCD4CHM68O","either","2","","","","","","","74","J","0","img/none_selected_demo.jpg","1","0","0","0.8","","true","0","0.8","","80_20_practice","0.5","","0.5","0.2","","","","","","","","","","","",""
"257","","bandit","38","153579","0.0-19.0-18.0","03357283","wem/bandit_either","A1DWDCD4CHM68O","either","2","","","","","","","74","J","0","img/none_selected_demo.jpg","1","0","0","0.8","","true","0","0.8","","80_20_practice","0.5","","0.5","0.2","","","","","","","","","","","",""
"306","","bandit","39","155390","0.0-19.0-19.0","03357283","wem/bandit_either","A1DWDCD4CHM68O","either","2","","","","","","","74","J","0","img/none_selected_demo.jpg","1","0","0","0.8","","true","0","0.8","","80_20_practice","0.5","","0.5","0.2","","","","","","","","","","","",""
"6132","","text","40","161523","0.0-20.0","03357283","wem/bandit_either","A1DWDCD4CHM68O","either","2","32","","","","","","","","","","","","","","","","","","","","","","","","","","","","","","","","","","",""
"2115","","bandit","41","165143","0.0-21.0-0.0","03357283","wem/bandit_either","A1DWDCD4CHM68O","either","2","","","","","","","74","J","0","img/none_selected_demo.jpg","1","0","0","1","0","true","0","1","0","","","1","","0","","","","","","","","","","","",""
"7601","","text","42","172746","0.0-22.0","03357283","wem/bandit_either","A1DWDCD4CHM68O","either","2","32","","","","","","","","","","","","","","","","","","","","","","","","","","","","","","","","","","",""
"4460","","text","43","177207","0.0-23.0","03357283","wem/bandit_either","A1DWDCD4CHM68O","either","2","32","","","","","","","","","","","","","","","","","","","","","","","","","","","","","","","","","","",""
"3150","","text","44","180358","0.0-24.0","03357283","wem/bandit_either","A1DWDCD4CHM68O","either","2","32","","","","","","","","","","","","","","","","","","","","","","","","","","","","","","","","","","",""
"3678","","text","45","184039","0.0-25.0","03357283","wem/bandit_either","A1DWDCD4CHM68O","either","2","32","","","","","","","","","","","","","","","","","","","","","","","","","","","","","","","","","","",""
"7874","","text","46","191915","0.0-26.0","03357283","wem/bandit_either","A1DWDCD4CHM68O","either","2","32","","","","","","","","","","","","","","","","","","","","","","","","","","","","","","","","","","",""
"2641","","text","47","194557","0.0-27.0","03357283","wem/bandit_either","A1DWDCD4CHM68O","either","2","32","","","","","","","","","","","","","","","","","","","","","","","","","","","","","","","","","","",""
"2087","","text","48","196645","0.0-28.0","03357283","wem/bandit_either","A1DWDCD4CHM68O","either","2","32","","","","","","","","","","","","","","","","","","","","","","","","","","","","","","","","","","",""
"4584","","text","49","201230","0.0-29.0","03357283","wem/bandit_either","A1DWDCD4CHM68O","either","2","32","","","","","","","","","","","","","","","","","","","","","","","","","","","","","","","","","","",""
"7770","","text","50","209003","0.0-30.0","03357283","wem/bandit_either","A1DWDCD4CHM68O","either","2","32","","","","","","","","","","","","","","","","","","","","","","","","","","","","","","","","","","",""
"1478","","text","51","210482","0.0-31.0","03357283","wem/bandit_either","A1DWDCD4CHM68O","either","2","32","","","","","","","","","","","","","","","","","","","","","","","","","","","","","","","","","","",""
"4458","","text","52","214941","0.0-32.0","03357283","wem/bandit_either","A1DWDCD4CHM68O","either","2","32","","","","","","","","","","","","","","","","","","","","","","","","","","","","","","","","","","",""
"726","","bandit","53","217172","0.0-33.0-0.0","03357283","wem/bandit_either","A1DWDCD4CHM68O","either","2","","","","","","","72","H","0","img/none_selected.jpg","0","0","1","0.8","","true","0","0.8","","full_practice","0.5","","0.5","0.2","0.6","0.5","0.2","0.5","","","","","","","",""
"385","","bandit","54","219061","0.0-33.0-1.0","03357283","wem/bandit_either","A1DWDCD4CHM68O","either","2","","","","","","","74","J","1","","0","1","0","","0.2","true","0","","0.8","full_practice","0.5","0.2","0.5","","","0.5","","0.5","0.6","0.2","","","","","",""
"396","","bandit","55","220962","0.0-33.0-2.0","03357283","wem/bandit_either","A1DWDCD4CHM68O","either","2","","","","","","","75","K","2","","0","0","1","0.6","","true","0","0.8","","full_practice","0.5","","0.5","0.2","0.6","0.5","0.2","0.5","","","","","","","",""
"318","","bandit","56","222784","0.0-33.0-3.0","03357283","wem/bandit_either","A1DWDCD4CHM68O","either","2","","","","","","","76","L","3","","0","0","1","","0.2","true","0","","0.8","full_practice","0.5","0.2","0.5","","","0.5","","0.5","0.6","0.2","","","","","",""
"426","","bandit","57","224715","0.0-33.0-4.0","03357283","wem/bandit_either","A1DWDCD4CHM68O","either","2","","","","","","","74","J","1","","0","0","1","0.2","","true","0","0.8","","full_practice","0.5","","0.5","0.2","0.6","0.5","0.2","0.5","","","","","","","",""
"217","","bandit","58","226435","0.0-33.0-5.0","03357283","wem/bandit_either","A1DWDCD4CHM68O","either","2","","","","","","","72","H","0","img/none_selected.jpg","1","0","0","0.8","","true","0","0.8","","full_practice","0.5","","0.5","0.2","0.6","0.5","0.2","0.5","","","","","","","",""
"227","","bandit","59","228167","0.0-33.0-6.0","03357283","wem/bandit_either","A1DWDCD4CHM68O","either","2","","","","","","","72","H","0","img/none_selected.jpg","0","1","0","","0.8","true","0","","0.8","full_practice","0.5","0.2","0.5","","","0.5","","0.5","0.6","0.2","","","","","",""
"237","","bandit","60","229908","0.0-33.0-7.0","03357283","wem/bandit_either","A1DWDCD4CHM68O","either","2","","","","","","","72","H","0","img/none_selected.jpg","0","1","0","","0.8","true","0","","0.8","full_practice","0.5","0.2","0.5","","","0.5","","0.5","0.6","0.2","","","","","",""
"244","","bandit","61","231655","0.0-33.0-8.0","03357283","wem/bandit_either","A1DWDCD4CHM68O","either","2","","","","","","","72","H","0","img/none_selected.jpg","0","1","0","","0.8","true","0","","0.8","full_practice","0.5","0.2","0.5","","","0.5","","0.5","0.6","0.2","","","","","",""
"225","","bandit","62","233384","0.0-33.0-9.0","03357283","wem/bandit_either","A1DWDCD4CHM68O","either","2","","","","","","","72","H","0","img/none_selected.jpg","0","1","0","","0.8","true","0","","0.8","full_practice","0.5","0.2","0.5","","","0.5","","0.5","0.6","0.2","","","","","",""
"239","","bandit","63","235127","0.0-33.0-10.0","03357283","wem/bandit_either","A1DWDCD4CHM68O","either","2","","","","","","","72","H","0","img/none_selected.jpg","0","1","0","","0.8","true","0","","0.8","full_practice","0.5","0.2","0.5","","","0.5","","0.5","0.6","0.2","","","","","",""
"241","","bandit","64","236873","0.0-33.0-11.0","03357283","wem/bandit_either","A1DWDCD4CHM68O","either","2","","","","","","","72","H","0","img/none_selected.jpg","1","0","0","0.8","","true","0","0.8","","full_practice","0.5","","0.5","0.2","0.6","0.5","0.2","0.5","","","","","","","",""
"222","","bandit","65","238599","0.0-33.0-12.0","03357283","wem/bandit_either","A1DWDCD4CHM68O","either","2","","","","","","","74","J","1","","1","0","0","0.2","","true","0","0.8","","full_practice","0.5","","0.5","0.2","0.6","0.5","0.2","0.5","","","","","","","",""
"116","","bandit","66","240218","0.0-33.0-13.0","03357283","wem/bandit_either","A1DWDCD4CHM68O","either","2","","","","","","","74","J","1","","0","0","1","0.2","","true","0","0.8","","full_practice","0.5","","0.5","0.2","0.6","0.5","0.2","0.5","","","","","","","",""
"642","","bandit","67","242364","0.0-33.0-14.0","03357283","wem/bandit_either","A1DWDCD4CHM68O","either","2","","","","","","","74","J","1","","0","0","1","","0.2","true","0","","0.8","full_practice","0.5","0.2","0.5","","","0.5","","0.5","0.6","0.2","","","","","",""
"180","","bandit","68","244050","0.0-33.0-15.0","03357283","wem/bandit_either","A1DWDCD4CHM68O","either","2","","","","","","","74","J","1","","0","0","1","","0.2","true","0","","0.8","full_practice","0.5","0.2","0.5","","","0.5","","0.5","0.6","0.2","","","","","",""
"299","","bandit","69","245853","0.0-33.0-16.0","03357283","wem/bandit_either","A1DWDCD4CHM68O","either","2","","","","","","","74","J","1","","0","0","1","","0.2","true","0","","0.8","full_practice","0.5","0.2","0.5","","","0.5","","0.5","0.6","0.2","","","","","",""
"228","","bandit","70","247586","0.0-33.0-17.0","03357283","wem/bandit_either","A1DWDCD4CHM68O","either","2","","","","","","","75","K","2","","1","0","0","0.6","","true","0","0.8","","full_practice","0.5","","0.5","0.2","0.6","0.5","0.2","0.5","","","","","","","",""
"291","","bandit","71","249381","0.0-33.0-18.0","03357283","wem/bandit_either","A1DWDCD4CHM68O","either","2","","","","","","","75","K","2","","1","0","0","0.6","","true","0","0.8","","full_practice","0.5","","0.5","0.2","0.6","0.5","0.2","0.5","","","","","","","",""
"271","","bandit","72","251156","0.0-33.0-19.0","03357283","wem/bandit_either","A1DWDCD4CHM68O","either","2","","","","","","","75","K","2","","0","0","1","","0.6","true","0","","0.8","full_practice","0.5","0.2","0.5","","","0.5","","0.5","0.6","0.2","","","","","",""
"4347","","text","73","255507","0.0-34.0","03357283","wem/bandit_either","A1DWDCD4CHM68O","either","2","32","","","","","","","","","","","","","","","","","","","","","","","","","","","","","","","","","","",""
"13624","","text","74","270133","0.0-35.0","03357283","wem/bandit_either","A1DWDCD4CHM68O","either","2","32","","","","","","","","","","","","","","","","","","","","","","","","","","","","","","","","","","",""
"8818","","text","75","278953","0.0-36.0","03357283","wem/bandit_either","A1DWDCD4CHM68O","either","2","32","","","","","","","","","","","","","","","","","","","","","","","","","","","","","","","","","","",""
"5251","","text","76","284206","0.0-37.0","03357283","wem/bandit_either","A1DWDCD4CHM68O","either","2","32","","","","","","","","","","","","","","","","","","","","","","","","","","","","","","","","","","",""
"3716","","text","77","287925","0.0-38.0","03357283","wem/bandit_either","A1DWDCD4CHM68O","either","2","32","","","","","","","","","","","","","","","","","","","","","","","","","","","","","","","","","","",""
"1871","","text","78","289797","0.0-39.0","03357283","wem/bandit_either","A1DWDCD4CHM68O","either","2","32","","","","","","","","","","","","","","","","","","","","","","","","","","","","","","","","","","",""
"1943","","bandit","79","293246","0.0-40.0-0.0","03357283","wem/bandit_either","A1DWDCD4CHM68O","either","2","","","","","","","72","H","0","img/none_selected.jpg","1","0","0","0.4781977867","","","1","0.4781977867","","main_expt","0.8","","0.2","0.362799796","0.326135308","0.6","0.3653736811","0.4","","","","","","","",""
"1133","","bandit","80","295883","0.0-41.0-0.0","03357283","wem/bandit_either","A1DWDCD4CHM68O","either","2","","","","","","","72","H","0","img/none_selected.jpg","0","1","0","","0.4765481994","","2","","0.4765481994","main_expt","0.8","0.3891507205","0.2","","","0.6","","0.4","0.3564958201","0.3999069229","","","","","",""
"903","","bandit","81","298290","0.0-42.0-0.0","03357283","wem/bandit_either","A1DWDCD4CHM68O","either","2","","","","","","","72","H","0","img/none_selected.jpg","1","0","0","0.4722158263","","","3","0.4722158263","","main_expt","0.8","","0.2","0.3151339382","0.3309056029","0.6","0.4363582421","0.4","","","","","","","",""
"892","","bandit","82","300687","0.0-43.0-0.0","03357283","wem/bandit_either","A1DWDCD4CHM68O","either","2","","","","","","","72","H","0","img/none_selected.jpg","1","0","0","0.4609570051","","","4","0.4609570051","","main_expt","0.8","","0.2","0.250648122","0.308467875","0.6","0.4300921111","0.4","","","","","","","",""
"846","","bandit","83","303039","0.0-44.0-0.0","03357283","wem/bandit_either","A1DWDCD4CHM68O","either","2","","","","","","","72","H","0","img/none_selected.jpg","0","0","1","0.4707799186","","","5","0.4707799186","","main_expt","0.8","","0.2","0.2382585344","0.3349995635","0.6","0.3863220662","0.4","","","","","","","",""
"731","","bandit","84","305276","0.0-45.0-0.0","03357283","wem/bandit_either","A1DWDCD4CHM68O","either","2","","","","","","","72","H","0","img/none_selected.jpg","0","0","1","0.4676743975","","","6","0.4676743975","","main_expt","0.8","","0.2","0.2088101903","0.3743101545","0.6","0.4192648028","0.4","","","","","","","",""
"736","","bandit","85","307515","0.0-46.0-0.0","03357283","wem/bandit_either","A1DWDCD4CHM68O","either","2","","","","","","","72","H","0","img/none_selected.jpg","1","0","0","0.4767364015","","","7","0.4767364015","","main_expt","0.8","","0.2","0.1884279889","0.377506125","0.6","0.4218548145","0.4","","","","","","","",""
"610","","bandit","86","309630","0.0-47.0-0.0","03357283","wem/bandit_either","A1DWDCD4CHM68O","either","2","","","","","","","72","H","0","img/none_selected.jpg","0","0","1","0.4837409877","","","8","0.4837409877","","main_expt","0.8","","0.2","0.2297930851","0.3452849142","0.6","0.4298914749","0.4","","","","","","","",""
"286","","bandit","87","311420","0.0-48.0-0.0","03357283","wem/bandit_either","A1DWDCD4CHM68O","either","2","","","","","","","72","H","0","img/none_selected.jpg","0","0","1","0.4825212187","","","9","0.4825212187","","main_expt","0.8","","0.2","0.2219539873","0.2713567333","0.6","0.4215440671","0.4","","","","","","","",""
"389","","bandit","88","313314","0.0-49.0-0.0","03357283","wem/bandit_either","A1DWDCD4CHM68O","either","2","","","","","","","72","H","0","img/none_selected.jpg","1","0","0","0.4791264729","","","10","0.4791264729","","main_expt","0.8","","0.2","0.2398128751","0.2712708503","0.6","0.3991616263","0.4","","","","","","","",""
"495","","bandit","89","315314","0.0-50.0-0.0","03357283","wem/bandit_either","A1DWDCD4CHM68O","either","2","","","","","","","72","H","0","img/none_selected.jpg","0","1","0","","0.4762013833","","11","","0.4762013833","main_expt","0.8","0.2551733424","0.2","","","0.6","","0.4","0.2635531688","0.4002673883","","","","","",""
"319","","bandit","90","317138","0.0-51.0-0.0","03357283","wem/bandit_either","A1DWDCD4CHM68O","either","2","","","","","","","74","J","1","","0","0","1","","0.2593424883","","12","","0.4729837645","main_expt","0.8","0.2593424883","0.2","","","0.6","","0.4","0.2669056975","0.368629831","","","","","",""
"285","","bandit","91","318926","0.0-52.0-0.0","03357283","wem/bandit_either","A1DWDCD4CHM68O","either","2","","","","","","","75","K","2","","0","0","1","0.3204456557","","","13","0.4749786695","","main_expt","0.8","","0.2","0.2493591627","0.3204456557","0.6","0.4189726289","0.4","","","","","","","",""
"295","","bandit","92","320725","0.0-53.0-0.0","03357283","wem/bandit_either","A1DWDCD4CHM68O","either","2","","","","","","","76","L","3","","0","0","1","","0.4352425359","","14","","0.4810115094","main_expt","0.8","0.2686446846","0.2","","","0.6","","0.4","0.3466526728","0.4352425359","","","","","",""
"327","","bandit","93","322557","0.0-54.0-0.0","03357283","wem/bandit_either","A1DWDCD4CHM68O","either","2","","","","","","","72","H","0","img/none_selected.jpg","0","0","1","0.4705329286","","","15","0.4705329286","","main_expt","0.8","","0.2","0.2690169042","0.3736671224","0.6","0.3819090161","0.4","","","","","","","",""
"62","","bandit","94","324123","0.0-55.0-0.0","03357283","wem/bandit_either","A1DWDCD4CHM68O","either","2","","","","","","","72","H","0","img/none_selected.jpg","1","0","0","0.4687419894","","","16","0.4687419894","","main_expt","0.8","","0.2","0.2518303543","0.3778143907","0.6","0.3737760256","0.4","","","","","","","",""
"406","","bandit","95","326033","0.0-56.0-0.0","03357283","wem/bandit_either","A1DWDCD4CHM68O","either","2","","","","","","","72","H","0","img/none_selected.jpg","1","0","0","0.4594180265","","","17","0.4594180265","","main_expt","0.8","","0.2","0.2406549936","0.3845750066","0.6","0.4151791473","0.4","","","","","","","",""
"619","","bandit","96","328156","0.0-57.0-0.0","03357283","wem/bandit_either","A1DWDCD4CHM68O","either","2","","","","","","","72","H","0","img/none_selected.jpg","0","0","1","0.425397146","","","18","0.425397146","","main_expt","0.8","","0.2","0.2670149403","0.4041286345","0.6","0.4137363134","0.4","","","","","","","",""
"104","","bandit","97","329765","0.0-58.0-0.0","03357283","wem/bandit_either","A1DWDCD4CHM68O","either","2","","","","","","","74","J","1","","0","0","1","","0.2658482338","","19","","0.4201246927","main_expt","0.8","0.2658482338","0.2","","","0.6","","0.4","0.4127350431","0.4084056464","","","","","",""
"253","","bandit","98","331521","0.0-59.0-0.0","03357283","wem/bandit_either","A1DWDCD4CHM68O","either","2","","","","","","","75","K","2","","0","0","1","","0.4107359536","","20","","0.3954271328","main_expt","0.8","0.2452433766","0.2","","","0.6","","0.4","0.4107359536","0.4129175496","","","","","",""
"242","","bandit","99","333269","0.0-60.0-0.0","03357283","wem/bandit_either","A1DWDCD4CHM68O","either","2","","","","","","","76","L","3","","0","0","1","","0.3888488162","","21","","0.4196431029","main_expt","0.8","0.2298761452","0.2","","","0.6","","0.4","0.3954861765","0.3888488162","","","","","",""
"470","","bandit","100","335244","0.0-61.0-0.0","03357283","wem/bandit_either","A1DWDCD4CHM68O","either","2","","","","","","","72","H","0","img/none_selected.jpg","1","0","0","0.3843335182","","","22","0.3843335182","","main_expt","0.8","","0.2","0.266827693","0.3805979297","0.6","0.3873149631","0.4","","","","","","","",""
"548","","bandit","101","337297","0.0-62.0-0.0","03357283","wem/bandit_either","A1DWDCD4CHM68O","either","2","","","","","","","72","H","0","img/none_selected.jpg","0","0","1","0.3839977458","","","23","0.3839977458","","main_expt","0.8","","0.2","0.2519769849","0.425451992","0.6","0.3659772031","0.4","","","","","","","",""
"270","","bandit","102","339071","0.0-63.0-0.0","03357283","wem/bandit_either","A1DWDCD4CHM68O","either","2","","","","","","","72","H","0","img/none_selected.jpg","1","0","0","0.3338939571","","","24","0.3338939571","","main_expt","0.8","","0.2","0.2447613107","0.4699447661","0.6","0.3594327093","0.4","","","","","","","",""
"270","","bandit","103","340848","0.0-64.0-0.0","03357283","wem/bandit_either","A1DWDCD4CHM68O","either","2","","","","","","","74","J","1","","1","0","0","0.2350413847","","","25","0.324486952","","main_expt","0.8","","0.2","0.2350413847","0.4484050393","0.6","0.3719143394","0.4","","","","","","","",""
"339","","bandit","104","342691","0.0-65.0-0.0","03357283","wem/bandit_either","A1DWDCD4CHM68O","either","2","","","","","","","75","K","2","","1","0","0","0.4190234423","","","26","0.3095710384","","main_expt","0.8","","0.2","0.207774486","0.4190234423","0.6","0.3690014044","0.4","","","","","","","",""
"368","","bandit","105","344563","0.0-66.0-0.0","03357283","wem/bandit_either","A1DWDCD4CHM68O","either","2","","","","","","","76","L","3","","0","0","1","0.3940030818","","","27","0.3355629191","","main_expt","0.8","","0.2","0.2164182795","0.4251478254","0.6","0.3940030818","0.4","","","","","","","",""
"279","","bandit","106","346347","0.0-67.0-0.0","03357283","wem/bandit_either","A1DWDCD4CHM68O","either","2","","","","","","","72","H","0","img/none_selected.jpg","0","0","1","0.3668681485","","","28","0.3668681485","","main_expt","0.8","","0.2","0.2164031865","0.4287328697","0.6","0.4111080327","0.4","","","","","","","",""
"222","","bandit","107","348075","0.0-68.0-0.0","03357283","wem/bandit_either","A1DWDCD4CHM68O","either","2","","","","","","","72","H","0","img/none_selected.jpg","0","1","0","","0.343198694","","29","","0.343198694","main_expt","0.8","0.2770000278","0.2","","","0.6","","0.4","0.4106025245","0.41290056","","","","","",""
"253","","bandit","108","349832","0.0-69.0-0.0","03357283","wem/bandit_either","A1DWDCD4CHM68O","either","2","","","","","","","72","H","0","img/none_selected.jpg","1","0","0","0.326069126","","","30","0.326069126","","main_expt","0.8","","0.2","0.2354797847","0.3942494676","0.6","0.3937480262","0.4","","","","","","","",""
"292","","bandit","109","351630","0.0-70.0-0.0","03357283","wem/bandit_either","A1DWDCD4CHM68O","either","2","","","","","","","72","H","0","img/none_selected.jpg","0","0","1","","0.3390127419","","31","","0.3390127419","main_expt","0.8","0.2692030882","0.2","","","0.6","","0.4","0.4285056211","0.3997016236","","","","","",""
"297","","bandit","110","353431","0.0-71.0-0.0","03357283","wem/bandit_either","A1DWDCD4CHM68O","either","2","","","","","","","72","H","0","img/none_selected.jpg","0","0","1","","0.3360649894","","32","","0.3360649894","main_expt","0.8","0.2471118655","0.2","","","0.6","","0.4","0.4249454459","0.3574295763","","","","","",""
"291","","bandit","111","355225","0.0-72.0-0.0","03357283","wem/bandit_either","A1DWDCD4CHM68O","either","2","","","","","","","72","H","0","img/none_selected.jpg","1","0","0","0.3052602024","","","33","0.3052602024","","main_expt","0.8","","0.2","0.2879199001","0.416417765","0.6","0.3877818659","0.4","","","","","","","",""
"193","","bandit","112","356925","0.0-73.0-0.0","03357283","wem/bandit_either","A1DWDCD4CHM68O","either","2","","","","","","","74","J","1","","0","1","0","","0.3180115212","","34","","0.3594788954","main_expt","0.8","0.3180115212","0.2","","","0.6","","0.4","0.4623714429","0.3799496232","","","","","",""
"302","","bandit","113","358733","0.0-74.0-0.0","03357283","wem/bandit_either","A1DWDCD4CHM68O","either","2","","","","","","","75","K","2","","1","0","0","0.4591977302","","","35","0.380235832","","main_expt","0.8","","0.2","0.2524306687","0.4591977302","0.6","0.3577573403","0.4","","","","","","","",""
"175","","bandit","114","360413","0.0-75.0-0.0","03357283","wem/bandit_either","A1DWDCD4CHM68O","either","2","","","","","","","76","L","3","","0","0","1","","0.3895375856","","36","","0.3459989602","main_expt","0.8","0.2351869563","0.2","","","0.6","","0.4","0.4686235256","0.3895375856","","","","","",""
"537","","bandit","115","362456","0.0-76.0-0.0","03357283","wem/bandit_either","A1DWDCD4CHM68O","either","2","","","","","","","75","K","2","","1","0","0","0.4571547709","","","37","0.3320905149","","main_expt","0.8","","0.2","0.2629170466","0.4571547709","0.6","0.3783527007","0.4","","","","","","","",""
"223","","bandit","116","364182","0.0-77.0-0.0","03357283","wem/bandit_either","A1DWDCD4CHM68O","either","2","","","","","","","74","J","1","","0","1","0","","0.3090194305","","38","","0.3471020919","main_expt","0.8","0.3090194305","0.2","","","0.6","","0.4","0.4688430709","0.284076782","","","","","",""
"239","","bandit","117","365926","0.0-78.0-0.0","03357283","wem/bandit_either","A1DWDCD4CHM68O","either","2","","","","","","","72","H","0","img/none_selected.jpg","0","0","1","0.3401763967","","","39","0.3401763967","","main_expt","0.8","","0.2","0.2845371228","0.4612923778","0.6","0.3388972186","0.4","","","","","","","",""
"292","","bandit","118","367721","0.0-79.0-0.0","03357283","wem/bandit_either","A1DWDCD4CHM68O","either","2","","","","","","","72","H","0","img/none_selected.jpg","1","0","0","0.3260487483","","","40","0.3260487483","","main_expt","0.8","","0.2","0.3076259244","0.4576194683","0.6","0.2663655232","0.4","","","","","","","",""
"341","","bandit","119","369568","0.0-80.0-0.0","03357283","wem/bandit_either","A1DWDCD4CHM68O","either","2","","","","","","","72","H","0","img/none_selected.jpg","0","0","1","0.3390218734","","","41","0.3390218734","","main_expt","0.8","","0.2","0.2888769276","0.4473921051","0.6","0.2608266697","0.4","","","","","","","",""
"333","","bandit","120","371407","0.0-81.0-0.0","03357283","wem/bandit_either","A1DWDCD4CHM68O","either","2","","","","","","","72","H","0","img/none_selected.jpg","0","0","1","0.2889680017","","","42","0.2889680017","","main_expt","0.8","","0.2","0.2639198141","0.425470286","0.6","0.2287676803","0.4","","","","","","","",""
"251","","bandit","121","373163","0.0-82.0-0.0","03357283","wem/bandit_either","A1DWDCD4CHM68O","either","2","","","","","","","74","J","1","","0","1","0","","0.2255441472","","43","","0.2784828801","main_expt","0.8","0.2255441472","0.2","","","0.6","","0.4","0.4030522017","0.2043112358","","","","","",""
"244","","bandit","122","374913","0.0-83.0-0.0","03357283","wem/bandit_either","A1DWDCD4CHM68O","either","2","","","","","","","75","K","2","","0","0","1","","0.4106315797","","44","","0.2805729819","main_expt","0.8","0.2050272072","0.2","","","0.6","","0.4","0.4106315797","0.1957049551","","","","","",""
"262","","bandit","123","376680","0.0-84.0-0.0","03357283","wem/bandit_either","A1DWDCD4CHM68O","either","2","","","","","","","76","L","3","","0","0","1","","0.2207366272","","45","","0.2195119073","main_expt","0.8","0.239455925","0.2","","","0.6","","0.4","0.4258527362","0.2207366272","","","","","",""
"321","","bandit","124","378507","0.0-85.0-0.0","03357283","wem/bandit_either","A1DWDCD4CHM68O","either","2","","","","","","","72","H","0","img/none_selected.jpg","0","0","1","0.2657932304","","","46","0.2657932304","","main_expt","0.8","","0.2","0.2414778298","0.4425966235","0.6","0.1727988076","0.4","","","","","","","",""
"246","","bandit","125","380257","0.0-86.0-0.0","03357283","wem/bandit_either","A1DWDCD4CHM68O","either","2","","","","","","","72","H","0","img/none_selected.jpg","0","0","1","0.2678398397","","","47","0.2678398397","","main_expt","0.8","","0.2","0.1884211613","0.4428977597","0.6","0.1446735631","0.4","","","","","","","",""
"21","","bandit","126","381783","0.0-87.0-0.0","03357283","wem/bandit_either","A1DWDCD4CHM68O","either","2","","","","","","","72","H","0","img/none_selected.jpg","0","0","1","0.2866904938","","","48","0.2866904938","","main_expt","0.8","","0.2","0.1755274282","0.4479964269","0.6","0.1681765936","0.4","","","","","","","",""
"280","","bandit","127","383567","0.0-88.0-0.0","03357283","wem/bandit_either","A1DWDCD4CHM68O","either","2","","","","","","","72","H","0","img/none_selected.jpg","0","0","1","0.2803848884","","","49","0.2803848884","","main_expt","0.8","","0.2","0.1646396384","0.4660387519","0.6","0.1473883531","0.4","","","","","","","",""
"246","","bandit","128","385318","0.0-89.0-0.0","03357283","wem/bandit_either","A1DWDCD4CHM68O","either","2","","","","","","","72","H","0","img/none_selected.jpg","0","0","1","0.2587411269","","","50","0.2587411269","","main_expt","0.8","","0.2","0.2024226619","0.4345757832","0.6","0.1378170987","0.4","","","","","","","",""
"500","","bandit","129","387323","0.0-90.0-0.0","03357283","wem/bandit_either","A1DWDCD4CHM68O","either","2","","","","","","","74","J","1","","0","0","1","","0.1976760068","","51","","0.2212901065","main_expt","0.8","0.1976760068","0.2","","","0.6","","0.4","0.4450950844","0.1430360168","","","","","",""
"438","","bandit","130","389266","0.0-91.0-0.0","03357283","wem/bandit_either","A1DWDCD4CHM68O","either","2","","","","","","","74","J","1","","0","1","0","","0.1796352224","","52","","0.236006857","main_expt","0.8","0.1796352224","0.2","","","0.6","","0.4","0.4475354499","0.1731798725","","","","","",""
"204","","bandit","131","390977","0.0-92.0-0.0","03357283","wem/bandit_either","A1DWDCD4CHM68O","either","2","","","","","","","74","J","1","","0","0","1","0.2451732725","","","53","0.2660825342","","main_expt","0.8","","0.2","0.2451732725","0.4627294295","0.6","0.1312409056","0.4","","","","","","","",""
"475","","bandit","132","392957","0.0-93.0-0.0","03357283","wem/bandit_either","A1DWDCD4CHM68O","either","2","","","","","","","75","K","2","","0","0","1","0.44829207","","","54","0.2458345041","","main_expt","0.8","","0.2","0.2621482643","0.44829207","0.6","0.1862053218","0.4","","","","","","","",""
"308","","bandit","133","394771","0.0-94.0-0.0","03357283","wem/bandit_either","A1DWDCD4CHM68O","either","2","","","","","","","76","L","3","","0","0","1","0.1733563037","","","55","0.2265690781","","main_expt","0.8","","0.2","0.2441780383","0.4505537928","0.6","0.1733563037","0.4","","","","","","","",""
"453","","bandit","134","396730","0.0-95.0-0.0","03357283","wem/bandit_either","A1DWDCD4CHM68O","either","2","","","","","","","72","H","0","img/none_selected.jpg","0","0","1","0.2741820357","","","56","0.2741820357","","main_expt","0.8","","0.2","0.199729785","0.4686400132","0.6","0.1728369204","0.4","","","","","","","",""
"305","","bandit","135","398541","0.0-96.0-0.0","03357283","wem/bandit_either","A1DWDCD4CHM68O","either","2","","","","","","","72","H","0","img/none_selected.jpg","0","0","1","0.2937641054","","","57","0.2937641054","","main_expt","0.8","","0.2","0.1945085845","0.4572679106","0.6","0.09176359954","0.4","","","","","","","",""
"290","","bandit","136","400337","0.0-97.0-0.0","03357283","wem/bandit_either","A1DWDCD4CHM68O","either","2","","","","","","","72","H","0","img/none_selected.jpg","1","0","0","0.2949827607","","","58","0.2949827607","","main_expt","0.8","","0.2","0.2614759052","0.4300169527","0.6","0.04991422033","0.4","","","","","","","",""
"326","","bandit","137","402169","0.0-98.0-0.0","03357283","wem/bandit_either","A1DWDCD4CHM68O","either","2","","","","","","","72","H","0","img/none_selected.jpg","1","0","0","0.2710075273","","","59","0.2710075273","","main_expt","0.8","","0.2","0.2426118991","0.4050829606","0.6","0.053239915","0.4","","","","","","","",""
"273","","bandit","138","403948","0.0-99.0-0.0","03357283","wem/bandit_either","A1DWDCD4CHM68O","either","2","","","","","","","72","H","0","img/none_selected.jpg","0","0","1","0.2766623035","","","60","0.2766623035","","main_expt","0.8","","0.2","0.2623750897","0.4070720156","0.6","0.06994226662","0.4","","","","","","","",""
"271","","bandit","139","405725","0.0-100.0-0.0","03357283","wem/bandit_either","A1DWDCD4CHM68O","either","2","","","","","","","72","H","0","img/none_selected.jpg","1","0","0","0.2574592035","","","61","0.2574592035","","main_expt","0.8","","0.2","0.2139103784","0.3895400789","0.6","0.07064832373","0.4","","","","","","","",""
"255","","bandit","140","407486","0.0-101.0-0.0","03357283","wem/bandit_either","A1DWDCD4CHM68O","either","2","","","","","","","72","H","0","img/none_selected.jpg","0","0","1","0.2425209234","","","62","0.2425209234","","main_expt","0.8","","0.2","0.2566580444","0.4050708951","0.6","0.08925217872","0.4","","","","","","","",""
"306","","bandit","141","409297","0.0-102.0-0.0","03357283","wem/bandit_either","A1DWDCD4CHM68O","either","2","","","","","","","72","H","0","img/none_selected.jpg","0","0","1","","0.2294211584","","63","","0.2294211584","main_expt","0.8","0.2393402704","0.2","","","0.6","","0.4","0.3765761212","0.08505035955","","","","","",""
"270","","bandit","142","411073","0.0-103.0-0.0","03357283","wem/bandit_either","A1DWDCD4CHM68O","either","2","","","","","","","72","H","0","img/none_selected.jpg","0","0","1","0.2350173232","","","64","0.2350173232","","main_expt","0.8","","0.2","0.300105392","0.3859881554","0.6","0.09892528285","0.4","","","","","","","",""
"302","","bandit","143","412881","0.0-104.0-0.0","03357283","wem/bandit_either","A1DWDCD4CHM68O","either","2","","","","","","","72","H","0","img/none_selected.jpg","0","0","1","0.2775473173","","","65","0.2775473173","","main_expt","0.8","","0.2","0.2584268813","0.3817039273","0.6","0.1428545766","0.4","","","","","","","",""
"236","","bandit","144","414622","0.0-105.0-0.0","03357283","wem/bandit_either","A1DWDCD4CHM68O","either","2","","","","","","","74","J","1","","0","0","1","0.2536378703","","","66","0.298861572","","main_expt","0.8","","0.2","0.2536378703","0.3622232449","0.6","0.120440259","0.4","","","","","","","",""
"239","","bandit","145","416366","0.0-106.0-0.0","03357283","wem/bandit_either","A1DWDCD4CHM68O","either","2","","","","","","","75","K","2","","0","0","1","","0.3768721334","","67","","0.3043747659","main_expt","0.8","0.2548884231","0.2","","","0.6","","0.4","0.3768721334","0.2019700983","","","","","",""
"294","","bandit","146","418166","0.0-107.0-0.0","03357283","wem/bandit_either","A1DWDCD4CHM68O","either","2","","","","","","","76","L","3","","0","1","0","","0.1467862533","","68","","0.2533072519","main_expt","0.8","0.2105458193","0.2","","","0.6","","0.4","0.3826604183","0.1467862533","","","","","",""
"276","","bandit","147","419948","0.0-108.0-0.0","03357283","wem/bandit_either","A1DWDCD4CHM68O","either","2","","","","","","","76","L","3","","0","0","1","0.09022805221","","","69","0.2451677402","","main_expt","0.8","","0.2","0.2901666962","0.3981811202","0.6","0.09022805221","0.4","","","","","","","",""
"303","","bandit","148","421756","0.0-109.0-0.0","03357283","wem/bandit_either","A1DWDCD4CHM68O","either","2","","","","","","","76","L","3","","0","0","1","","0.1128827508","","70","","0.2403061491","main_expt","0.8","0.2973761433","0.2","","","0.6","","0.4","0.3936557204","0.1128827508","","","","","",""
"339","","bandit","149","423601","0.0-110.0-0.0","03357283","wem/bandit_either","A1DWDCD4CHM68O","either","2","","","","","","","76","L","3","","0","0","1","","0.1184182172","","71","","0.1917576795","main_expt","0.8","0.2737706179","0.2","","","0.6","","0.4","0.3949471057","0.1184182172","","","","","",""
"232","","bandit","150","425339","0.0-111.0-0.0","03357283","wem/bandit_either","A1DWDCD4CHM68O","either","2","","","","","","","72","H","0","img/none_selected.jpg","0","0","1","0.1894079546","","","72","0.1894079546","","main_expt","0.8","","0.2","0.3005227265","0.3888869603","0.6","0.1038133506","0.4","","","","","","","",""
"302","","bandit","151","427147","0.0-112.0-0.0","03357283","wem/bandit_either","A1DWDCD4CHM68O","either","2","","","","","","","72","H","0","img/none_selected.jpg","1","0","0","0.235909594","","","73","0.235909594","","main_expt","0.8","","0.2","0.3205676235","0.4015056825","0.6","0.07830871569","0.4","","","","","","","",""
"281","","bandit","152","428934","0.0-113.0-0.0","03357283","wem/bandit_either","A1DWDCD4CHM68O","either","2","","","","","","","72","H","0","img/none_selected.jpg","0","0","1","0.2772030277","","","74","0.2772030277","","main_expt","0.8","","0.2","0.3040473008","0.4200542591","0.6","0.09226686474","0.4","","","","","","","",""
"259","","bandit","153","430698","0.0-114.0-0.0","03357283","wem/bandit_either","A1DWDCD4CHM68O","either","2","","","","","","","74","J","1","","0","0","1","","0.2686744794","","75","","0.2237268092","main_expt","0.8","0.2686744794","0.2","","","0.6","","0.4","0.4353174817","0.07948082514","","","","","",""
"328","","bandit","154","432532","0.0-115.0-0.0","03357283","wem/bandit_either","A1DWDCD4CHM68O","either","2","","","","","","","75","K","2","","1","0","0","0.4196821318","","","76","0.1739375455","","main_expt","0.8","","0.2","0.258707356","0.4196821318","0.6","0.1279570505","0.4","","","","","","","",""
"326","","bandit","155","434364","0.0-116.0-0.0","03357283","wem/bandit_either","A1DWDCD4CHM68O","either","2","","","","","","","74","J","1","","0","0","1","","0.3010070056","","77","","0.1648796623","main_expt","0.8","0.3010070056","0.2","","","0.6","","0.4","0.3787369199","0.1202820049","","","","","",""
"441","","bandit","156","436310","0.0-117.0-0.0","03357283","wem/bandit_either","A1DWDCD4CHM68O","either","2","","","","","","","75","K","2","","0","1","0","","0.4314930014","","78","","0.1637798684","main_expt","0.8","0.2648586626","0.2","","","0.6","","0.4","0.4314930014","0.1054071572","","","","","",""
"405","","bandit","157","438220","0.0-118.0-0.0","03357283","wem/bandit_either","A1DWDCD4CHM68O","either","2","","","","","","","76","L","3","","0","0","1","","0.1403095361","","79","","0.1490076182","main_expt","0.8","0.1984114041","0.2","","","0.6","","0.4","0.4155078174","0.1403095361","","","","","",""
"233","","bandit","158","439958","0.0-119.0-0.0","03357283","wem/bandit_either","A1DWDCD4CHM68O","either","2","","","","","","","76","L","3","","0","0","1","","0.1891235553","","80","","0.1093198388","main_expt","0.8","0.180325551","0.2","","","0.6","","0.4","0.4226243671","0.1891235553","","","","","",""
"301","","bandit","159","441766","0.0-120.0-0.0","03357283","wem/bandit_either","A1DWDCD4CHM68O","either","2","","","","","","","76","L","3","","0","0","1","","0.1858030354","","81","","0.08868186825","main_expt","0.8","0.224531153","0.2","","","0.6","","0.4","0.4474166549","0.1858030354","","","","","",""
"396","","bandit","160","443669","0.0-121.0-0.0","03357283","wem/bandit_either","A1DWDCD4CHM68O","either","2","","","","","","","72","H","0","img/none_selected.jpg","0","0","1","0.1073880826","","","82","0.1073880826","","main_expt","0.8","","0.2","0.221125015","0.4636297045","0.6","0.2476542501","0.4","","","","","","","",""
"338","","bandit","161","445512","0.0-122.0-0.0","03357283","wem/bandit_either","A1DWDCD4CHM68O","either","2","","","","","","","72","H","0","img/none_selected.jpg","0","0","1","0.1022587498","","","83","0.1022587498","","main_expt","0.8","","0.2","0.2143237207","0.467509749","0.6","0.2188241074","0.4","","","","","","","",""
"327","","bandit","162","447346","0.0-123.0-0.0","03357283","wem/bandit_either","A1DWDCD4CHM68O","either","2","","","","","","","72","H","0","img/none_selected.jpg","0","0","1","0.1085807699","","","84","0.1085807699","","main_expt","0.8","","0.2","0.2097367537","0.4551111531","0.6","0.2754771977","0.4","","","","","","","",""
"302","","bandit","163","449153","0.0-124.0-0.0","03357283","wem/bandit_either","A1DWDCD4CHM68O","either","2","","","","","","","72","H","0","img/none_selected.jpg","0","0","1","0.1263918358","","","85","0.1263918358","","main_expt","0.8","","0.2","0.1661536269","0.4621419017","0.6","0.2965575968","0.4","","","","","","","",""
"329","","bandit","164","450989","0.0-125.0-0.0","03357283","wem/bandit_either","A1DWDCD4CHM68O","either","2","","","","","","","72","H","0","img/none_selected.jpg","0","0","1","0.1481941301","","","86","0.1481941301","","main_expt","0.8","","0.2","0.1364458955","0.4612050897","0.6","0.257129161","0.4","","","","","","","",""
"417","","bandit","165","452912","0.0-126.0-0.0","03357283","wem/bandit_either","A1DWDCD4CHM68O","either","2","","","","","","","74","J","1","","0","1","0","","0.08235553135","","87","","0.1447872846","main_expt","0.8","0.08235553135","0.2","","","0.6","","0.4","0.4334675206","0.2338967043","","","","","",""
"260","","bandit","166","454679","0.0-127.0-0.0","03357283","wem/bandit_either","A1DWDCD4CHM68O","either","2","","","","","","","74","J","1","","0","0","1","","0.0754832669","","88","","0.1391637727","main_expt","0.8","0.0754832669","0.2","","","0.6","","0.4","0.4397617206","0.2161535794","","","","","",""
"277","","bandit","167","456463","0.0-128.0-0.0","03357283","wem/bandit_either","A1DWDCD4CHM68O","either","2","","","","","","","75","K","2","","1","0","0","0.4635478967","","","89","0.1476089376","","main_expt","0.8","","0.2","0.109361408","0.4635478967","0.6","0.2043146745","0.4","","","","","","","",""
"300","","bandit","168","458270","0.0-129.0-0.0","03357283","wem/bandit_either","A1DWDCD4CHM68O","either","2","","","","","","","75","K","2","","0","1","0","","0.4234969579","","90","","0.2081489191","main_expt","0.8","0.07391079866","0.2","","","0.6","","0.4","0.4234969579","0.2346009907","","","","","",""
"344","","bandit","169","460120","0.0-130.0-0.0","03357283","wem/bandit_either","A1DWDCD4CHM68O","either","2","","","","","","","75","K","2","","0","0","1","","0.4267507071","","91","","0.1834039029","main_expt","0.8","0.1164594673","0.2","","","0.6","","0.4","0.4267507071","0.2333967219","","","","","",""
"271","","bandit","170","461898","0.0-131.0-0.0","03357283","wem/bandit_either","A1DWDCD4CHM68O","either","2","","","","","","","74","J","1","","0","0","1","","0.113043345","","92","","0.2027314649","main_expt","0.8","0.113043345","0.2","","","0.6","","0.4","0.4089505196","0.2150480475","","","","","",""
"265","","bandit","171","463669","0.0-132.0-0.0","03357283","wem/bandit_either","A1DWDCD4CHM68O","either","2","","","","","","","72","H","0","img/none_selected.jpg","0","0","1","0.1738894496","","","93","0.1738894496","","main_expt","0.8","","0.2","0.1714352716","0.4112501448","0.6","0.2588080464","0.4","","","","","","","",""
"223","","bandit","172","465398","0.0-133.0-0.0","03357283","wem/bandit_either","A1DWDCD4CHM68O","either","2","","","","","","","76","L","3","","0","0","1","0.2748849181","","","94","0.2484708832","","main_expt","0.8","","0.2","0.1253024032","0.452415855","0.6","0.2748849181","0.4","","","","","","","",""
"375","","bandit","173","467280","0.0-134.0-0.0","03357283","wem/bandit_either","A1DWDCD4CHM68O","either","2","","","","","","","75","K","2","","0","0","1","","0.4589197587","","95","","0.2914685715","main_expt","0.8","0.1401284447","0.2","","","0.6","","0.4","0.4589197587","0.2791739054","","","","","",""
"488","","bandit","174","469274","0.0-135.0-0.0","03357283","wem/bandit_either","A1DWDCD4CHM68O","either","2","","","","","","","74","J","1","","0","0","1","","0.1320491369","","96","","0.2417524935","main_expt","0.8","0.1320491369","0.2","","","0.6","","0.4","0.4481870348","0.3149564315","","","","","",""
"437","","bandit","175","471218","0.0-136.0-0.0","03357283","wem/bandit_either","A1DWDCD4CHM68O","either","2","","","","","","","72","H","0","img/none_selected.jpg","0","0","1","0.2492821404","","","97","0.2492821404","","main_expt","0.8","","0.2","0.1518453759","0.4597072186","0.6","0.372564007","0.4","","","","","","","",""
"256","","bandit","176","472979","0.0-137.0-0.0","03357283","wem/bandit_either","A1DWDCD4CHM68O","either","2","","","","","","","74","J","1","","0","0","1","0.2173959583","","","98","0.3002958449","","main_expt","0.8","","0.2","0.2173959583","0.4705619112","0.6","0.393328365","0.4","","","","","","","",""
"154","","bandit","177","474640","0.0-138.0-0.0","03357283","wem/bandit_either","A1DWDCD4CHM68O","either","2","","","","","","","75","K","2","","0","0","1","0.4800968761","","","99","0.3544832656","","main_expt","0.8","","0.2","0.2618725657","0.4800968761","0.6","0.421239771","0.4","","","","","","","",""
"158","","bandit","178","476305","0.0-139.0-0.0","03357283","wem/bandit_either","A1DWDCD4CHM68O","either","2","","","","","","","76","L","3","","0","0","1","","0.4130759476","","100","","0.3810954338","main_expt","0.8","0.2487788848","0.2","","","0.6","","0.4","0.4780143146","0.4130759476","","","","","",""
"330","","bandit","179","478141","0.0-140.0-0.0","03357283","wem/bandit_either","A1DWDCD4CHM68O","either","2","","","","","","","74","J","1","","0","0","1","","0.2890792313","","101","","0.4042362267","main_expt","0.8","0.2890792313","0.2","","","0.6","","0.4","0.4849002763","0.4089462913","","","","","",""
"224","","bandit","180","479872","0.0-141.0-0.0","03357283","wem/bandit_either","A1DWDCD4CHM68O","either","2","","","","","","","74","J","1","","0","0","1","","0.3136369757","","102","","0.4594696392","main_expt","0.8","0.3136369757","0.2","","","0.6","","0.4","0.4886078379","0.370330464","","","","","",""
"213","","bandit","181","481590","0.0-142.0-0.0","03357283","wem/bandit_either","A1DWDCD4CHM68O","either","2","","","","","","","74","J","1","","0","0","1","","0.2364671533","","103","","0.4588766667","main_expt","0.8","0.2364671533","0.2","","","0.6","","0.4","0.47121906","0.3306315663","","","","","",""
"325","","bandit","182","483422","0.0-143.0-0.0","03357283","wem/bandit_either","A1DWDCD4CHM68O","either","2","","","","","","","74","J","1","","0","0","1","","0.2202486688","","104","","0.4372785745","main_expt","0.8","0.2202486688","0.2","","","0.6","","0.4","0.4760763377","0.354634178","","","","","",""
"261","","bandit","183","485188","0.0-144.0-0.0","03357283","wem/bandit_either","A1DWDCD4CHM68O","either","2","","","","","","","72","H","0","img/none_selected.jpg","1","0","0","0.4063887309","","","105","0.4063887309","","main_expt","0.8","","0.2","0.1854418088","0.4701389446","0.6","0.3896605338","0.4","","","","","","","",""
"326","","bandit","184","487020","0.0-145.0-0.0","03357283","wem/bandit_either","A1DWDCD4CHM68O","either","2","","","","","","","72","H","0","img/none_selected.jpg","0","0","1","0.3778019321","","","106","0.3778019321","","main_expt","0.8","","0.2","0.1596754559","0.471324938","0.6","0.414339711","0.4","","","","","","","",""
"279","","bandit","185","488805","0.0-146.0-0.0","03357283","wem/bandit_either","A1DWDCD4CHM68O","either","2","","","","","","","72","H","0","img/none_selected.jpg","0","0","1","0.3614143111","","","107","0.3614143111","","main_expt","0.8","","0.2","0.137099288","0.4786694594","0.6","0.4164239898","0.4","","","","","","","",""
"325","","bandit","186","490638","0.0-147.0-0.0","03357283","wem/bandit_either","A1DWDCD4CHM68O","either","2","","","","","","","72","H","0","img/none_selected.jpg","0","1","0","","0.3681250399","","108","","0.3681250399","main_expt","0.8","0.1443984823","0.2","","","0.6","","0.4","0.4810065258","0.3836571442","","","","","",""
"342","","bandit","187","492486","0.0-148.0-0.0","03357283","wem/bandit_either","A1DWDCD4CHM68O","either","2","","","","","","","72","H","0","img/none_selected.jpg","0","0","1","0.3446081275","","","109","0.3446081275","","main_expt","0.8","","0.2","0.1409511773","0.4816764674","0.6","0.3881214568","0.4","","","","","","","",""
"284","","bandit","188","494278","0.0-149.0-0.0","03357283","wem/bandit_either","A1DWDCD4CHM68O","either","2","","","","","","","72","H","0","img/none_selected.jpg","0","1","0","","0.3681270965","","110","","0.3681270965","main_expt","0.8","0.1787750665","0.2","","","0.6","","0.4","0.4882082215","0.4266873791","","","","","",""
"263","","bandit","189","496049","0.0-150.0-0.0","03357283","wem/bandit_either","A1DWDCD4CHM68O","either","2","","","","","","","72","H","0","img/none_selected.jpg","1","0","0","0.391379093","","","111","0.391379093","","main_expt","0.8","","0.2","0.1862786225","0.478642168","0.6","0.4475699482","0.4","","","","","","","",""
"280","","bandit","190","497834","0.0-151.0-0.0","03357283","wem/bandit_either","A1DWDCD4CHM68O","either","2","","","","","","","72","H","0","img/none_selected.jpg","0","0","1","0.4131544452","","","112","0.4131544452","","main_expt","0.8","","0.2","0.1654620982","0.4841415165","0.6","0.4190314983","0.4","","","","","","","",""
"245","","bandit","191","499587","0.0-152.0-0.0","03357283","wem/bandit_either","A1DWDCD4CHM68O","either","2","","","","","","","74","J","1","","0","0","1","","0.1582981878","","113","","0.3963985948","main_expt","0.8","0.1582981878","0.2","","","0.6","","0.4","0.4883212127","0.3666128881","","","","","",""
"231","","bandit","192","501323","0.0-153.0-0.0","03357283","wem/bandit_either","A1DWDCD4CHM68O","either","2","","","","","","","75","K","2","","1","0","0","0.4883790739","","","114","0.4117985871","","main_expt","0.8","","0.2","0.1922757069","0.4883790739","0.6","0.3866259854","0.4","","","","","","","",""
"308","","bandit","193","503139","0.0-154.0-0.0","03357283","wem/bandit_either","A1DWDCD4CHM68O","either","2","","","","","","","75","K","2","","0","0","1","0.4902011966","","","115","0.394381103","","main_expt","0.8","","0.2","0.185618385","0.4902011966","0.6","0.354161152","0.4","","","","","","","",""
"302","","bandit","194","504948","0.0-155.0-0.0","03357283","wem/bandit_either","A1DWDCD4CHM68O","either","2","","","","","","","76","L","3","","0","0","1","","0.3170745426","","116","","0.3762408663","main_expt","0.8","0.2057277395","0.2","","","0.6","","0.4","0.4844723045","0.3170745426","","","","","",""
"268","","bandit","195","506724","0.0-156.0-0.0","03357283","wem/bandit_either","A1DWDCD4CHM68O","either","2","","","","","","","76","L","3","","0","0","1","0.304536318","","","117","0.3823674378","","main_expt","0.8","","0.2","0.2288411079","0.4895589844","0.6","0.304536318","0.4","","","","","","","",""
"291","","bandit","196","508524","0.0-157.0-0.0","03357283","wem/bandit_either","A1DWDCD4CHM68O","either","2","","","","","","","75","K","2","","1","0","0","0.4899729034","","","118","0.4050195855","","main_expt","0.8","","0.2","0.2207517482","0.4899729034","0.6","0.3411026949","0.4","","","","","","","",""
"328","","bandit","197","510360","0.0-158.0-0.0","03357283","wem/bandit_either","A1DWDCD4CHM68O","either","2","","","","","","","75","K","2","","1","0","0","0.4947041593","","","119","0.4227562767","","main_expt","0.8","","0.2","0.1955286499","0.4947041593","0.6","0.3447942488","0.4","","","","","","","",""
"347","","bandit","198","512213","0.0-159.0-0.0","03357283","wem/bandit_either","A1DWDCD4CHM68O","either","2","","","","","","","75","K","2","","0","0","1","0.4916865355","","","120","0.4163810796","","main_expt","0.8","","0.2","0.2427950695","0.4916865355","0.6","0.3686185352","0.4","","","","","","","",""
"326","","bandit","199","514046","0.0-160.0-0.0","03357283","wem/bandit_either","A1DWDCD4CHM68O","either","2","","","","","","","74","J","1","","0","0","1","","0.2479682904","","121","","0.406821829","main_expt","0.8","0.2479682904","0.2","","","0.6","","0.4","0.4860386064","0.3547669752","","","","","",""
"299","","bandit","200","515853","0.0-161.0-0.0","03357283","wem/bandit_either","A1DWDCD4CHM68O","either","2","","","","","","","72","H","0","img/none_selected.jpg","1","0","0","0.3999449125","","","122","0.3999449125","","main_expt","0.8","","0.2","0.3081985406","0.483083859","0.6","0.365994073","0.4","","","","","","","",""
"276","","bandit","201","517636","0.0-162.0-0.0","03357283","wem/bandit_either","A1DWDCD4CHM68O","either","2","","","","","","","75","K","2","","0","0","1","0.4791491275","","","123","0.366626489","","main_expt","0.8","","0.2","0.3089359708","0.4791491275","0.6","0.3120596142","0.4","","","","","","","",""
"289","","bandit","202","519432","0.0-163.0-0.0","03357283","wem/bandit_either","A1DWDCD4CHM68O","either","2","","","","","","","75","K","2","","0","1","0","","0.4776777384","","124","","0.3706278578","main_expt","0.8","0.3298338218","0.2","","","0.6","","0.4","0.4776777384","0.302161917","","","","","",""
"235","","bandit","203","521174","0.0-164.0-0.0","03357283","wem/bandit_either","A1DWDCD4CHM68O","either","2","","","","","","","72","H","0","img/none_selected.jpg","0","0","1","0.3545504723","","","125","0.3545504723","","main_expt","0.8","","0.2","0.2795250441","0.478983255","0.6","0.2794370347","0.4","","","","","","","",""
"333","","bandit","204","523014","0.0-165.0-0.0","03357283","wem/bandit_either","A1DWDCD4CHM68O","either","2","","","","","","","72","H","0","img/none_selected.jpg","0","0","1","0.3106298006","","","126","0.3106298006","","main_expt","0.8","","0.2","0.2184127205","0.4724726719","0.6","0.2466154908","0.4","","","","","","","",""
"261","","bandit","205","524781","0.0-166.0-0.0","03357283","wem/bandit_either","A1DWDCD4CHM68O","either","2","","","","","","","75","K","2","","1","0","0","0.4796244369","","","127","0.3351405197","","main_expt","0.8","","0.2","0.2488858907","0.4796244369","0.6","0.2712823261","0.4","","","","","","","",""
"259","","bandit","206","526549","0.0-167.0-0.0","03357283","wem/bandit_either","A1DWDCD4CHM68O","either","2","","","","","","","74","J","1","","0","0","1","0.2850827173","","","128","0.2984422464","","main_expt","0.8","","0.2","0.2850827173","0.4825212971","0.6","0.2095517986","0.4","","","","","","","",""
"284","","bandit","207","528340","0.0-168.0-0.0","03357283","wem/bandit_either","A1DWDCD4CHM68O","either","2","","","","","","","75","K","2","","0","0","1","","0.4877535013","","129","","0.2027892291","main_expt","0.8","0.2867242009","0.2","","","0.6","","0.4","0.4877535013","0.1986866195","","","","","",""
"436","","bandit","208","530283","0.0-169.0-0.0","03357283","wem/bandit_either","A1DWDCD4CHM68O","either","2","","","","","","","72","H","0","img/none_selected.jpg","0","0","1","0.13768179","","","130","0.13768179","","main_expt","0.8","","0.2","0.2509552002","0.4833646461","0.6","0.172959111","0.4","","","","","","","",""
"309","","bandit","209","532099","0.0-170.0-0.0","03357283","wem/bandit_either","A1DWDCD4CHM68O","either","2","","","","","","","72","H","0","img/none_selected.jpg","1","0","0","0.1352832961","","","131","0.1352832961","","main_expt","0.8","","0.2","0.2172434631","0.4790990265","0.6","0.163172462","0.4","","","","","","","",""
"280","","bandit","210","533887","0.0-171.0-0.0","03357283","wem/bandit_either","A1DWDCD4CHM68O","either","2","","","","","","","72","H","0","img/none_selected.jpg","0","0","1","0.08660982753","","","132","0.08660982753","","main_expt","0.8","","0.2","0.158295755","0.4882311922","0.6","0.161148659","0.4","","","","","","","",""
"240","","bandit","211","535633","0.0-172.0-0.0","03357283","wem/bandit_either","A1DWDCD4CHM68O","either","2","","","","","","","74","J","1","","0","0","1","","0.185310911","","133","","0.1020907376","main_expt","0.8","0.185310911","0.2","","","0.6","","0.4","0.4889625365","0.1735641072","","","","","",""
"276","","bandit","212","537417","0.0-173.0-0.0","03357283","wem/bandit_either","A1DWDCD4CHM68O","either","2","","","","","","","74","J","1","","0","0","1","","0.1966535246","","134","","0.1231499397","main_expt","0.8","0.1966535246","0.2","","","0.6","","0.4","0.4916783795","0.1597390633","","","","","",""
"267","","bandit","213","539190","0.0-174.0-0.0","03357283","wem/bandit_either","A1DWDCD4CHM68O","either","2","","","","","","","75","K","2","","0","1","0","","0.4904315354","","135","","0.1524236556","main_expt","0.8","0.2290191974","0.2","","","0.6","","0.4","0.4904315354","0.1460070414","","","","","",""
"276","","bandit","214","540974","0.0-175.0-0.0","03357283","wem/bandit_either","A1DWDCD4CHM68O","either","2","","","","","","","76","L","3","","0","0","1","0.105474526","","","136","0.1954247664","","main_expt","0.8","","0.2","0.2929229053","0.491666595","0.6","0.105474526","0.4","","","","","","","",""
"260","","bandit","215","542740","0.0-176.0-0.0","03357283","wem/bandit_either","A1DWDCD4CHM68O","either","2","","","","","","","76","L","3","","0","0","1","0.08835118593","","","137","0.1833989084","","main_expt","0.8","","0.2","0.2780805385","0.4917142499","0.6","0.08835118593","0.4","","","","","","","",""
"331","","bandit","216","544577","0.0-177.0-0.0","03357283","wem/bandit_either","A1DWDCD4CHM68O","either","2","","","","","","","76","L","3","","0","0","1","0.06418360449","","","138","0.1490533902","","main_expt","0.8","","0.2","0.217224157","0.4870170403","0.6","0.06418360449","0.4","","","","","","","",""
"515","","bandit","217","546600","0.0-178.0-0.0","03357283","wem/bandit_either","A1DWDCD4CHM68O","either","2","","","","","","","75","K","2","","0","0","1","0.4834992155","","","139","0.1318817547","","main_expt","0.8","","0.2","0.2323391466","0.4834992155","0.6","0.03554325754","0.4","","","","","","","",""
"295","","bandit","218","548402","0.0-179.0-0.0","03357283","wem/bandit_either","A1DWDCD4CHM68O","either","2","","","","","","","74","J","1","","0","0","1","","0.244475209","","140","","0.1877412345","main_expt","0.8","0.244475209","0.2","","","0.6","","0.4","0.4927392517","0.04477370895","","","","","",""
"228","","bandit","219","550136","0.0-180.0-0.0","03357283","wem/bandit_either","A1DWDCD4CHM68O","either","2","","","","","","","72","H","0","img/none_selected.jpg","0","0","1","0.2363671377","","","141","0.2363671377","","main_expt","0.8","","0.2","0.232604034","0.4872377518","0.6","0.03780119019","0.4","","","","","","","",""
"329","","bandit","220","551973","0.0-181.0-0.0","03357283","wem/bandit_either","A1DWDCD4CHM68O","either","2","","","","","","","75","K","2","","0","0","1","","0.4846254936","","142","","0.2546402356","main_expt","0.8","0.2447345556","0.2","","","0.6","","0.4","0.4846254936","0.03149913875","","","","","",""
"260","","bandit","221","553739","0.0-182.0-0.0","03357283","wem/bandit_either","A1DWDCD4CHM68O","either","2","","","","","","","75","K","2","","1","0","0","0.4815328815","","","143","0.2825544685","","main_expt","0.8","","0.2","0.26413271","0.4815328815","0.6","0.04191513266","0.4","","","","","","","",""
"261","","bandit","222","555506","0.0-183.0-0.0","03357283","wem/bandit_either","A1DWDCD4CHM68O","either","2","","","","","","","75","K","2","","0","0","1","0.4854048375","","","144","0.2731230023","","main_expt","0.8","","0.2","0.1988203511","0.4854048375","0.6","0.05613120157","0.4","","","","","","","",""
"253","","bandit","223","557267","0.0-184.0-0.0","03357283","wem/bandit_either","A1DWDCD4CHM68O","either","2","","","","","","","75","K","2","","1","0","0","0.4813029389","","","145","0.2943814715","","main_expt","0.8","","0.2","0.217822638","0.4813029389","0.6","0.03827589539","0.4","","","","","","","",""
"336","","bandit","224","559109","0.0-185.0-0.0","03357283","wem/bandit_either","A1DWDCD4CHM68O","either","2","","","","","","","75","K","2","","0","0","1","0.4884824202","","","146","0.328634005","","main_expt","0.8","","0.2","0.2009042904","0.4884824202","0.6","0.02861175853","0.4","","","","","","","",""
"306","","bandit","225","560921","0.0-186.0-0.0","03357283","wem/bandit_either","A1DWDCD4CHM68O","either","2","","","","","","","75","K","2","","0","1","0","","0.4835291327","","147","","0.3511209141","main_expt","0.8","0.2080446297","0.2","","","0.6","","0.4","0.4835291327","0.02140640811","","","","","",""
"248","","bandit","226","562676","0.0-187.0-0.0","03357283","wem/bandit_either","A1DWDCD4CHM68O","either","2","","","","","","","75","K","2","","0","0","1","","0.4716003481","","148","","0.3874996206","main_expt","0.8","0.1536700415","0.2","","","0.6","","0.4","0.4716003481","0.0202041473","","","","","",""
"277","","bandit","227","564460","0.0-188.0-0.0","03357283","wem/bandit_either","A1DWDCD4CHM68O","either","2","","","","","","","75","K","2","","0","1","0","","0.4341886607","","149","","0.3476646045","main_expt","0.8","0.1593661633","0.2","","","0.6","","0.4","0.4341886607","0.01154190459","","","","","",""
"272","","bandit","228","566238","0.0-189.0-0.0","03357283","wem/bandit_either","A1DWDCD4CHM68O","either","2","","","","","","","75","K","2","","1","0","0","0.4014438172","","","150","0.3323010919","","main_expt","0.8","","0.2","0.144955896","0.4014438172","0.6","0.01291237021","0.4","","","","","","","",""
"262","","bandit","229","568007","0.0-190.0-0.0","03357283","wem/bandit_either","A1DWDCD4CHM68O","either","2","","","","","","","75","K","2","","0","0","1","","0.3980713407","","151","","0.3954477196","main_expt","0.8","0.2123564028","0.2","","","0.6","","0.4","0.3980713407","0.0137789916","","","","","",""
"280","","bandit","230","569794","0.0-191.0-0.0","03357283","wem/bandit_either","A1DWDCD4CHM68O","either","2","","","","","","","72","H","0","img/none_selected.jpg","0","0","1","0.4186327087","","","152","0.4186327087","","main_expt","0.8","","0.2","0.2301890466","0.4002357887","0.6","0.01985271471","0.4","","","","","","","",""
"632","","bandit","231","571933","0.0-192.0-0.0","03357283","wem/bandit_either","A1DWDCD4CHM68O","either","2","","","","","","","74","J","1","","0","0","1","","0.2295153641","","153","","0.4029566754","main_expt","0.8","0.2295153641","0.2","","","0.6","","0.4","0.388677987","0.02951100453","","","","","",""
"292","","bandit","232","573732","0.0-193.0-0.0","03357283","wem/bandit_either","A1DWDCD4CHM68O","either","2","","","","","","","72","H","0","img/none_selected.jpg","1","0","0","0.4037751878","","","154","0.4037751878","","main_expt","0.8","","0.2","0.2163321136","0.3817747688","0.6","0.02325572033","0.4","","","","","","","",""
"255","","bandit","233","575496","0.0-194.0-0.0","03357283","wem/bandit_either","A1DWDCD4CHM68O","either","2","","","","","","","74","J","1","","0","0","1","0.2257858177","","","155","0.4078727314","","main_expt","0.8","","0.2","0.2257858177","0.327727533","0.6","0.03925092562","0.4","","","","","","","",""
"258","","bandit","234","577263","0.0-195.0-0.0","03357283","wem/bandit_either","A1DWDCD4CHM68O","either","2","","","","","","","72","H","0","img/none_selected.jpg","0","0","1","0.3941681487","","","156","0.3941681487","","main_expt","0.8","","0.2","0.2077891775","0.2821504166","0.6","0.05532081832","0.4","","","","","","","",""
"96","","bandit","235","578866","0.0-196.0-0.0","03357283","wem/bandit_either","A1DWDCD4CHM68O","either","2","","","","","","","75","K","2","","0","0","1","","0.2784527126","","157","","0.3417147062","main_expt","0.8","0.1742908387","0.2","","","0.6","","0.4","0.2784527126","0.05983660039","","","","","",""
"201","","bandit","236","580576","0.0-197.0-0.0","03357283","wem/bandit_either","A1DWDCD4CHM68O","either","2","","","","","","","76","L","3","","0","0","1","","0.09347744845","","158","","0.2963220618","main_expt","0.8","0.162057643","0.2","","","0.6","","0.4","0.2857058734","0.09347744845","","","","","",""
"340","","bandit","237","582425","0.0-198.0-0.0","03357283","wem/bandit_either","A1DWDCD4CHM68O","either","2","","","","","","","75","K","2","","0","0","1","0.2349295223","","","159","0.2961528309","","main_expt","0.8","","0.2","0.1805514511","0.2349295223","0.6","0.09649648717","0.4","","","","","","","",""
"218","","bandit","238","584151","0.0-199.0-0.0","03357283","wem/bandit_either","A1DWDCD4CHM68O","either","2","","","","","","","74","J","1","","0","0","1","0.1724629995","","","160","0.2842772575","","main_expt","0.8","","0.2","0.1724629995","0.2275717407","0.6","0.08382429791","0.4","","","","","","","",""
"226","","bandit","239","585886","0.0-200.0-0.0","03357283","wem/bandit_either","A1DWDCD4CHM68O","either","2","","","","","","","72","H","0","img/none_selected.jpg","0","1","0","","0.2747674873","","161","","0.2747674873","main_expt","0.8","0.1660992999","0.2","","","0.6","","0.4","0.2559884592","0.1466352983","","","","","",""
"241","","bandit","240","587635","0.0-201.0-0.0","03357283","wem/bandit_either","A1DWDCD4CHM68O","either","2","","","","","","","72","H","0","img/none_selected.jpg","0","0","1","0.2993190406","","","162","0.2993190406","","main_expt","0.8","","0.2","0.2281832109","0.2670526618","0.6","0.1569467617","0.4","","","","","","","",""
"302","","bandit","241","589445","0.0-202.0-0.0","03357283","wem/bandit_either","A1DWDCD4CHM68O","either","2","","","","","","","72","H","0","img/none_selected.jpg","0","0","1","0.3102408377","","","163","0.3102408377","","main_expt","0.8","","0.2","0.2144285545","0.2618894379","0.6","0.1437935099","0.4","","","","","","","",""
"270","","bandit","242","591223","0.0-203.0-0.0","03357283","wem/bandit_either","A1DWDCD4CHM68O","either","2","","","","","","","72","H","0","img/none_selected.jpg","1","0","0","0.2607878409","","","164","0.2607878409","","main_expt","0.8","","0.2","0.2131293933","0.2977476978","0.6","0.1503677763","0.4","","","","","","","",""
"1","","bandit","243","592731","0.0-204.0-0.0","03357283","wem/bandit_either","A1DWDCD4CHM68O","either","2","","","","","","","74","J","1","","0","0","1","0.251698227","","","165","0.2470054868","","main_expt","0.8","","0.2","0.251698227","0.3138636066","0.6","0.1574825995","0.4","","","","","","","",""
"318","","bandit","244","594557","0.0-205.0-0.0","03357283","wem/bandit_either","A1DWDCD4CHM68O","either","2","","","","","","","75","K","2","","0","0","1","0.3204338644","","","166","0.2629624785","","main_expt","0.8","","0.2","0.2831539445","0.3204338644","0.6","0.1500633275","0.4","","","","","","","",""
"289","","bandit","245","596354","0.0-206.0-0.0","03357283","wem/bandit_either","A1DWDCD4CHM68O","either","2","","","","","","","72","H","0","img/none_selected.jpg","0","0","1","0.2745713682","","","167","0.2745713682","","main_expt","0.8","","0.2","0.2496169508","0.3600517585","0.6","0.1137242654","0.4","","","","","","","",""
"391","","bandit","246","598253","0.0-207.0-0.0","03357283","wem/bandit_either","A1DWDCD4CHM68O","either","2","","","","","","","74","J","1","","0","1","0","","0.2315540067","","168","","0.2557249153","main_expt","0.8","0.2315540067","0.2","","","0.6","","0.4","0.3678373827","0.145192941","","","","","",""
"274","","bandit","247","600035","0.0-208.0-0.0","03357283","wem/bandit_either","A1DWDCD4CHM68O","either","2","","","","","","","75","K","2","","1","0","0","0.3421512568","","","169","0.2016321063","","main_expt","0.8","","0.2","0.1825517174","0.3421512568","0.6","0.1863479632","0.4","","","","","","","",""
"270","","bandit","248","601813","0.0-209.0-0.0","03357283","wem/bandit_either","A1DWDCD4CHM68O","either","2","","","","","","","76","L","3","","0","0","1","","0.142304713","","170","","0.2210696627","main_expt","0.8","0.2535959064","0.2","","","0.6","","0.4","0.3917895485","0.142304713","","","","","",""
"279","","bandit","249","603601","0.0-210.0-0.0","03357283","wem/bandit_either","A1DWDCD4CHM68O","either","2","","","","","","","75","K","2","","0","0","1","0.3206692194","","","171","0.1627904758","","main_expt","0.8","","0.2","0.3004284576","0.3206692194","0.6","0.1739768979","0.4","","","","","","","",""
"225","","bandit","250","605335","0.0-211.0-0.0","03357283","wem/bandit_either","A1DWDCD4CHM68O","either","2","","","","","","","74","J","1","","0","0","1","","0.2716191145","","172","","0.1421076649","main_expt","0.8","0.2716191145","0.2","","","0.6","","0.4","0.3198600846","0.2172659048","","","","","",""
"439","","bandit","251","607283","0.0-212.0-0.0","03357283","wem/bandit_either","A1DWDCD4CHM68O","either","2","","","","","","","72","H","0","img/none_selected.jpg","0","0","1","0.165050165","","","173","0.165050165","","main_expt","0.8","","0.2","0.3253138029","0.2641483633","0.6","0.2419731025","0.4","","","","","","","",""
"266","","bandit","252","609057","0.0-213.0-0.0","03357283","wem/bandit_either","A1DWDCD4CHM68O","either","2","","","","","","","72","H","0","img/none_selected.jpg","0","0","1","0.1406738207","","","174","0.1406738207","","main_expt","0.8","","0.2","0.3419591401","0.2248062597","0.6","0.2239571331","0.4","","","","","","","",""
"276","","bandit","253","610842","0.0-214.0-0.0","03357283","wem/bandit_either","A1DWDCD4CHM68O","either","2","","","","","","","72","H","0","img/none_selected.jpg","0","0","1","0.138310495","","","175","0.138310495","","main_expt","0.8","","0.2","0.3442692367","0.2370379408","0.6","0.2311410243","0.4","","","","","","","",""
"238","","bandit","254","612586","0.0-215.0-0.0","03357283","wem/bandit_either","A1DWDCD4CHM68O","either","2","","","","","","","75","K","2","","0","0","1","0.2157433706","","","176","0.1675243642","","main_expt","0.8","","0.2","0.3397266539","0.2157433706","0.6","0.2610077479","0.4","","","","","","","",""
"174","","bandit","255","614268","0.0-216.0-0.0","03357283","wem/bandit_either","A1DWDCD4CHM68O","either","2","","","","","","","76","L","3","","0","0","1","0.2780938204","","","177","0.1919885971","","main_expt","0.8","","0.2","0.2997078274","0.2014791824","0.6","0.2780938204","0.4","","","","","","","",""
"399","","bandit","256","616175","0.0-217.0-0.0","03357283","wem/bandit_either","A1DWDCD4CHM68O","either","2","","","","","","","74","J","1","","0","1","0","","0.3064007527","","178","","0.2365392944","main_expt","0.8","0.3064007527","0.2","","","0.6","","0.4","0.1913564418","0.3151752793","","","","","",""
"222","","bandit","257","617905","0.0-218.0-0.0","03357283","wem/bandit_either","A1DWDCD4CHM68O","either","2","","","","","","","74","J","1","","0","0","1","","0.3533432679","","179","","0.2509455726","main_expt","0.8","0.3533432679","0.2","","","0.6","","0.4","0.1980728016","0.2799621139","","","","","",""
"250","","bandit","258","619663","0.0-219.0-0.0","03357283","wem/bandit_either","A1DWDCD4CHM68O","either","2","","","","","","","75","K","2","","1","0","0","0.1833491223","","","180","0.2767223981","","main_expt","0.8","","0.2","0.3652522579","0.1833491223","0.6","0.3170936092","0.4","","","","","","","",""
"374","","bandit","259","621545","0.0-220.0-0.0","03357283","wem/bandit_either","A1DWDCD4CHM68O","either","2","","","","","","","75","K","2","","0","0","1","0.1342686697","","","181","0.314600373","","main_expt","0.8","","0.2","0.3383156657","0.1342686697","0.6","0.28101752","0.4","","","","","","","",""
"472","","bandit","260","623525","0.0-221.0-0.0","03357283","wem/bandit_either","A1DWDCD4CHM68O","either","2","","","","","","","75","K","2","","0","0","1","","0.1636660304","","182","","0.3943610609","main_expt","0.8","0.2902116232","0.2","","","0.6","","0.4","0.1636660304","0.3043342224","","","","","",""
"318","","bandit","261","625353","0.0-222.0-0.0","03357283","wem/bandit_either","A1DWDCD4CHM68O","either","2","","","","","","","75","K","2","","0","0","1","0.136761637","","","183","0.3586422101","","main_expt","0.8","","0.2","0.3026157476","0.136761637","0.6","0.3192524042","0.4","","","","","","","",""
"275","","bandit","262","627136","0.0-223.0-0.0","03357283","wem/bandit_either","A1DWDCD4CHM68O","either","2","","","","","","","75","K","2","","0","0","1","","0.1685989701","","184","","0.3879999062","main_expt","0.8","0.3360229169","0.2","","","0.6","","0.4","0.1685989701","0.3332516821","","","","","",""
"569","","bandit","263","629216","0.0-224.0-0.0","03357283","wem/bandit_either","A1DWDCD4CHM68O","either","2","","","","","","","75","K","2","","0","0","1","0.1663529744","","","185","0.3831340227","","main_expt","0.8","","0.2","0.3336456265","0.1663529744","0.6","0.3228184693","0.4","","","","","","","",""
"355","","bandit","264","631079","0.0-225.0-0.0","03357283","wem/bandit_either","A1DWDCD4CHM68O","either","2","","","","","","","75","K","2","","0","0","1","0.1916836285","","","186","0.3999004662","","main_expt","0.8","","0.2","0.3308881938","0.1916836285","0.6","0.3111703144","0.4","","","","","","","",""
"280","","bandit","265","632868","0.0-226.0-0.0","03357283","wem/bandit_either","A1DWDCD4CHM68O","either","2","","","","","","","75","K","2","","0","0","1","","0.1686829448","","187","","0.3875363153","main_expt","0.8","0.325530054","0.2","","","0.6","","0.4","0.1686829448","0.3353611299","","","","","",""
"241","","bandit","266","634618","0.0-227.0-0.0","03357283","wem/bandit_either","A1DWDCD4CHM68O","either","2","","","","","","","75","K","2","","0","0","1","","0.1461675531","","188","","0.3875691392","main_expt","0.8","0.3055482451","0.2","","","0.6","","0.4","0.1461675531","0.3646937268","","","","","",""
"290","","bandit","267","636415","0.0-228.0-0.0","03357283","wem/bandit_either","A1DWDCD4CHM68O","either","2","","","","","","","75","K","2","","0","0","1","0.1382971047","","","189","0.4166866882","","main_expt","0.8","","0.2","0.3002345065","0.1382971047","0.6","0.3891323825","0.4","","","","","","","",""
"294","","bandit","268","638216","0.0-229.0-0.0","03357283","wem/bandit_either","A1DWDCD4CHM68O","either","2","","","","","","","75","K","2","","0","0","1","","0.1898135375","","190","","0.4124474499","main_expt","0.8","0.2693931213","0.2","","","0.6","","0.4","0.1898135375","0.3860741766","","","","","",""
"242","","bandit","269","639966","0.0-230.0-0.0","03357283","wem/bandit_either","A1DWDCD4CHM68O","either","2","","","","","","","72","H","0","img/none_selected.jpg","0","0","1","0.3638199534","","","191","0.3638199534","","main_expt","0.8","","0.2","0.3009284261","0.1264917812","0.6","0.3864243721","0.4","","","","","","","",""
"277","","bandit","270","641752","0.0-231.0-0.0","03357283","wem/bandit_either","A1DWDCD4CHM68O","either","2","","","","","","","72","H","0","img/none_selected.jpg","1","0","0","0.3711146034","","","192","0.3711146034","","main_expt","0.8","","0.2","0.3157917784","0.1185409567","0.6","0.400448014","0.4","","","","","","","",""
"300","","bandit","271","643561","0.0-232.0-0.0","03357283","wem/bandit_either","A1DWDCD4CHM68O","either","2","","","","","","","72","H","0","img/none_selected.jpg","0","0","1","","0.3654165885","","193","","0.3654165885","main_expt","0.8","0.2999212614","0.2","","","0.6","","0.4","0.09837948322","0.3895367297","","","","","",""
"274","","bandit","272","645343","0.0-233.0-0.0","03357283","wem/bandit_either","A1DWDCD4CHM68O","either","2","","","","","","","72","H","0","img/none_selected.jpg","0","0","1","0.3537818584","","","194","0.3537818584","","main_expt","0.8","","0.2","0.3287494418","0.137690802","0.6","0.4032313792","0.4","","","","","","","",""
"310","","bandit","273","647163","0.0-234.0-0.0","03357283","wem/bandit_either","A1DWDCD4CHM68O","either","2","","","","","","","72","H","0","img/none_selected.jpg","1","0","0","0.3597494918","","","195","0.3597494918","","main_expt","0.8","","0.2","0.3031978913","0.1683354775","0.6","0.337234763","0.4","","","","","","","",""
"381","","bandit","274","649051","0.0-235.0-0.0","03357283","wem/bandit_either","A1DWDCD4CHM68O","either","2","","","","","","","72","H","0","img/none_selected.jpg","0","0","1","0.3479121901","","","196","0.3479121901","","main_expt","0.8","","0.2","0.2901303692","0.1561951964","0.6","0.3950764453","0.4","","","","","","","",""
"328","","bandit","275","650889","0.0-236.0-0.0","03357283","wem/bandit_either","A1DWDCD4CHM68O","either","2","","","","","","","72","H","0","img/none_selected.jpg","1","0","0","0.3596292454","","","197","0.3596292454","","main_expt","0.8","","0.2","0.2444781728","0.1329868482","0.6","0.4193743727","0.4","","","","","","","",""
"691","","bandit","276","653090","0.0-237.0-0.0","03357283","wem/bandit_either","A1DWDCD4CHM68O","either","2","","","","","","","72","H","0","img/none_selected.jpg","0","0","1","0.3555371828","","","198","0.3555371828","","main_expt","0.8","","0.2","0.2140047665","0.1730826789","0.6","0.4375347816","0.4","","","","","","","",""
"569","","bandit","277","655168","0.0-238.0-0.0","03357283","wem/bandit_either","A1DWDCD4CHM68O","either","2","","","","","","","72","H","0","img/none_selected.jpg","0","0","1","","0.4016486285","","199","","0.4016486285","main_expt","0.8","0.2077842613","0.2","","","0.6","","0.4","0.1385649096","0.4315030007","","","","","",""
"612","","bandit","278","657289","0.0-239.0-0.0","03357283","wem/bandit_either","A1DWDCD4CHM68O","either","2","","","","","","","72","H","0","img/none_selected.jpg","0","0","1","0.3871107612","","","200","0.3871107612","","main_expt","0.8","","0.2","0.180488049","0.1941139053","0.6","0.4340108373","0.4","","","","","","","",""
"308","","bandit","279","659104","0.0-240.0-0.0","03357283","wem/bandit_either","A1DWDCD4CHM68O","either","2","","","","","","","74","J","1","","0","0","1","","0.2084987087","","201","","0.3856539452","main_expt","0.8","0.2084987087","0.2","","","0.6","","0.4","0.1825013029","0.441078118","","","","","",""
"329","","bandit","280","660941","0.0-241.0-0.0","03357283","wem/bandit_either","A1DWDCD4CHM68O","either","2","","","","","","","74","J","1","","0","0","1","","0.1869669721","","202","","0.358588673","main_expt","0.8","0.1869669721","0.2","","","0.6","","0.4","0.162440572","0.4143682719","","","","","",""
"239","","bandit","281","662688","0.0-242.0-0.0","03357283","wem/bandit_either","A1DWDCD4CHM68O","either","2","","","","","","","74","J","1","","0","0","1","","0.1383076553","","203","","0.3460881607","main_expt","0.8","0.1383076553","0.2","","","0.6","","0.4","0.1914238456","0.4280720422","","","","","",""
"259","","bandit","282","664456","0.0-243.0-0.0","03357283","wem/bandit_either","A1DWDCD4CHM68O","either","2","","","","","","","74","J","1","","0","0","1","","0.1656187697","","204","","0.3091432968","main_expt","0.8","0.1656187697","0.2","","","0.6","","0.4","0.1849793247","0.4113524858","","","","","",""
"242","","bandit","283","666208","0.0-244.0-0.0","03357283","wem/bandit_either","A1DWDCD4CHM68O","either","2","","","","","","","74","J","1","","0","0","1","","0.1699285253","","205","","0.3016396897","main_expt","0.8","0.1699285253","0.2","","","0.6","","0.4","0.1722293799","0.4151465815","","","","","",""
"256","","bandit","284","667972","0.0-245.0-0.0","03357283","wem/bandit_either","A1DWDCD4CHM68O","either","2","","","","","","","74","J","1","","0","0","1","0.161732949","","","206","0.3300702997","","main_expt","0.8","","0.2","0.161732949","0.1625694713","0.6","0.4002359997","0.4","","","","","","","",""
"455","","bandit","285","669937","0.0-246.0-0.0","03357283","wem/bandit_either","A1DWDCD4CHM68O","either","2","","","","","","","76","L","3","","0","0","1","0.3692387261","","","207","0.2648848683","","main_expt","0.8","","0.2","0.1699017951","0.1079769143","0.6","0.3692387261","0.4","","","","","","","",""
"389","","bandit","286","671835","0.0-247.0-0.0","03357283","wem/bandit_either","A1DWDCD4CHM68O","either","2","","","","","","","76","L","3","","0","0","1","0.3283471685","","","208","0.2502792914","","main_expt","0.8","","0.2","0.1592107695","0.1380178959","0.6","0.3283471685","0.4","","","","","","","",""
"343","","bandit","287","673686","0.0-248.0-0.0","03357283","wem/bandit_either","A1DWDCD4CHM68O","either","2","","","","","","","76","L","3","","0","0","1","","0.2924758898","","209","","0.2770073026","main_expt","0.8","0.1659907122","0.2","","","0.6","","0.4","0.1538506734","0.2924758898","","","","","",""
"255","","bandit","288","675451","0.0-249.0-0.0","03357283","wem/bandit_either","A1DWDCD4CHM68O","either","2","","","","","","","75","K","2","","0","0","1","0.1406222791","","","210","0.3451435735","","main_expt","0.8","","0.2","0.229525517","0.1406222791","0.6","0.2279470939","0.4","","","","","","","",""
"323","","bandit","289","677284","0.0-250.0-0.0","03357283","wem/bandit_either","A1DWDCD4CHM68O","either","2","","","","","","","76","L","3","","0","0","1","","0.2131844406","","211","","0.3514478275","main_expt","0.8","0.2434605193","0.2","","","0.6","","0.4","0.08987887408","0.2131844406","","","","","",""
"375","","bandit","290","679169","0.0-251.0-0.0","03357283","wem/bandit_either","A1DWDCD4CHM68O","either","2","","","","","","","72","H","0","img/none_selected.jpg","0","0","1","0.3579324364","","","212","0.3579324364","","main_expt","0.8","","0.2","0.1633214123","0.1277875359","0.6","0.1601793481","0.4","","","","","","","",""
"356","","bandit","291","681033","0.0-252.0-0.0","03357283","wem/bandit_either","A1DWDCD4CHM68O","either","2","","","","","","","76","L","3","","0","0","1","","0.1354109392","","213","","0.3231243524","main_expt","0.8","0.1014835246","0.2","","","0.6","","0.4","0.134271297","0.1354109392","","","","","",""
"219","","bandit","292","682760","0.0-253.0-0.0","03357283","wem/bandit_either","A1DWDCD4CHM68O","either","2","","","","","","","74","J","1","","0","0","1","","0.09587264096","","214","","0.2798540136","main_expt","0.8","0.09587264096","0.2","","","0.6","","0.4","0.1385204111","0.1142105534","","","","","",""
"311","","bandit","293","684579","0.0-254.0-0.0","03357283","wem/bandit_either","A1DWDCD4CHM68O","either","2","","","","","","","76","L","3","","0","0","1","","0.1031311673","","215","","0.2469391402","main_expt","0.8","0.08342689115","0.2","","","0.6","","0.4","0.1089132689","0.1031311673","","","","","",""
"268","","bandit","294","686356","0.0-255.0-0.0","03357283","wem/bandit_either","A1DWDCD4CHM68O","either","2","","","","","","","74","J","1","","0","0","1","0.05361264496","","","216","0.3211823944","","main_expt","0.8","","0.2","0.05361264496","0.1299508563","0.6","0.1031732366","0.4","","","","","","","",""
"320","","bandit","295","688185","0.0-256.0-0.0","03357283","wem/bandit_either","A1DWDCD4CHM68O","either","2","","","","","","","76","L","3","","0","0","1","0.1188097379","","","217","0.3545519007","","main_expt","0.8","","0.2","0.09912420903","0.131109262","0.6","0.1188097379","0.4","","","","","","","",""
"274","","bandit","296","689967","0.0-257.0-0.0","03357283","wem/bandit_either","A1DWDCD4CHM68O","either","2","","","","","","","75","K","2","","0","0","1","","0.1039495344","","218","","0.3781539282","main_expt","0.8","0.1021137889","0.2","","","0.6","","0.4","0.1039495344","0.1096623481","","","","","",""
"303","","bandit","297","691779","0.0-258.0-0.0","03357283","wem/bandit_either","A1DWDCD4CHM68O","either","2","","","","","","","72","H","0","img/none_selected.jpg","0","0","1","0.3674409598","","","219","0.3674409598","","main_expt","0.8","","0.2","0.1025207236","0.09488552944","0.6","0.08679630722","0.4","","","","","","","",""
"258","","bandit","298","693546","0.0-259.0-0.0","03357283","wem/bandit_either","A1DWDCD4CHM68O","either","2","","","","","","","72","H","0","img/none_selected.jpg","0","0","1","0.315237632","","","220","0.315237632","","main_expt","0.8","","0.2","0.1049734862","0.1311925698","0.6","0.1482089448","0.4","","","","","","","",""
"283","","bandit","299","695339","0.0-260.0-0.0","03357283","wem/bandit_either","A1DWDCD4CHM68O","either","2","","","","","","","74","J","1","","0","0","1","","0.08244295151","","221","","0.3572442142","main_expt","0.8","0.08244295151","0.2","","","0.6","","0.4","0.08224132258","0.217172314","","","","","",""
"249","","bandit","300","697097","0.0-261.0-0.0","03357283","wem/bandit_either","A1DWDCD4CHM68O","either","2","","","","","","","76","L","3","","0","0","1","0.2227738938","","","222","0.2796125419","","main_expt","0.8","","0.2","0.09815111748","0.06870998364","0.6","0.2227738938","0.4","","","","","","","",""
"357","","bandit","301","698962","0.0-262.0-0.0","03357283","wem/bandit_either","A1DWDCD4CHM68O","either","2","","","","","","","75","K","2","","0","1","0","","0.111762886","","223","","0.2265565182","main_expt","0.8","0.09925351505","0.2","","","0.6","","0.4","0.111762886","0.2768694491","","","","","",""
"274","","bandit","302","700746","0.0-263.0-0.0","03357283","wem/bandit_either","A1DWDCD4CHM68O","either","2","","","","","","","75","K","2","","0","0","1","0.09652303785","","","224","0.1727872262","","main_expt","0.8","","0.2","0.07842644678","0.09652303785","0.6","0.2895694018","0.4","","","","","","","",""
"273","","bandit","303","702530","0.0-264.0-0.0","03357283","wem/bandit_either","A1DWDCD4CHM68O","either","2","","","","","","","75","K","2","","0","0","1","0.09424892582","","","225","0.1580797834","","main_expt","0.8","","0.2","0.05284632075","0.09424892582","0.6","0.3515154126","0.4","","","","","","","",""
"327","","bandit","304","704366","0.0-265.0-0.0","03357283","wem/bandit_either","A1DWDCD4CHM68O","either","2","","","","","","","74","J","1","","0","0","1","0.06788221328","","","226","0.1206031336","","main_expt","0.8","","0.2","0.06788221328","0.1094697254","0.6","0.3960872924","0.4","","","","","","","",""
"323","","bandit","305","706198","0.0-266.0-0.0","03357283","wem/bandit_either","A1DWDCD4CHM68O","either","2","","","","","","","76","L","3","","0","0","1","0.3301105445","","","227","0.1218099769","","main_expt","0.8","","0.2","0.04226868229","0.1055794081","0.6","0.3301105445","0.4","","","","","","","",""
"254","","bandit","306","707962","0.0-267.0-0.0","03357283","wem/bandit_either","A1DWDCD4CHM68O","either","2","","","","","","","72","H","0","img/none_selected.jpg","0","0","1","0.08458740206","","","228","0.08458740206","","main_expt","0.8","","0.2","0.06174471126","0.1210232629","0.6","0.3679650562","0.4","","","","","","","",""
"264","","bandit","307","709735","0.0-268.0-0.0","03357283","wem/bandit_either","A1DWDCD4CHM68O","either","2","","","","","","","75","K","2","","0","0","1","0.1249199002","","","229","0.06311990622","","main_expt","0.8","","0.2","0.06122033102","0.1249199002","0.6","0.3413725311","0.4","","","","","","","",""
"252","","bandit","308","711495","0.0-269.0-0.0","03357283","wem/bandit_either","A1DWDCD4CHM68O","either","2","","","","","","","74","J","1","","0","0","1","","0.09369367087","","230","","0.04674316758","main_expt","0.8","0.09369367087","0.2","","","0.6","","0.4","0.1423167866","0.3652503211","","","","","",""
"5","","bandit","309","713009","0.0-270.0-0.0","03357283","wem/bandit_either","A1DWDCD4CHM68O","either","2","","","","","","","76","L","3","","0","0","1","0.3774172636","","","231","0.06697327866","","main_expt","0.8","","0.2","0.1378364932","0.1441411413","0.6","0.3774172636","0.4","","","","","","","",""
"242","","bandit","310","714760","0.0-271.0-0.0","03357283","wem/bandit_either","A1DWDCD4CHM68O","either","2","","","","","","","72","H","0","img/none_selected.jpg","0","0","1","","0.08617656909","","232","","0.08617656909","main_expt","0.8","0.1138343256","0.2","","","0.6","","0.4","0.1132866493","0.3507397895","","","","","",""
"245","","bandit","311","716515","0.0-272.0-0.0","03357283","wem/bandit_either","A1DWDCD4CHM68O","either","2","","","","","","","74","J","1","","0","0","1","","0.1602674987","","233","","0.08388286328","main_expt","0.8","0.1602674987","0.2","","","0.6","","0.4","0.07587191469","0.3228668676","","","","","",""
"237","","bandit","312","718262","0.0-273.0-0.0","03357283","wem/bandit_either","A1DWDCD4CHM68O","either","2","","","","","","","74","J","1","","0","0","1","","0.1399599793","","234","","0.08303297831","main_expt","0.8","0.1399599793","0.2","","","0.6","","0.4","0.08330376307","0.3219168209","","","","","",""
"283","","bandit","313","720056","0.0-274.0-0.0","03357283","wem/bandit_either","A1DWDCD4CHM68O","either","2","","","","","","","74","J","1","","0","0","1","","0.1577883936","","235","","0.08228619446","main_expt","0.8","0.1577883936","0.2","","","0.6","","0.4","0.07960395758","0.2907257894","","","","","",""
"313","","bandit","314","721878","0.0-275.0-0.0","03357283","wem/bandit_either","A1DWDCD4CHM68O","either","2","","","","","","","74","J","1","","0","0","1","0.1206463377","","","236","0.07856112713","","main_expt","0.8","","0.2","0.1206463377","0.06703487678","0.6","0.2879125653","0.4","","","","","","","",""
"383","","bandit","315","723772","0.0-276.0-0.0","03357283","wem/bandit_either","A1DWDCD4CHM68O","either","2","","","","","","","75","K","2","","0","0","1","0.07970276757","","","237","0.09394336493","","main_expt","0.8","","0.2","0.1224948263","0.07970276757","0.6","0.3055933028","0.4","","","","","","","",""
"266","","bandit","316","725545","0.0-277.0-0.0","03357283","wem/bandit_either","A1DWDCD4CHM68O","either","2","","","","","","","75","K","2","","1","0","0","0.05589422377","","","238","0.1044036833","","main_expt","0.8","","0.2","0.1163601633","0.05589422377","0.6","0.3197806133","0.4","","","","","","","",""
"263","","bandit","317","727317","0.0-278.0-0.0","03357283","wem/bandit_either","A1DWDCD4CHM68O","either","2","","","","","","","75","K","2","","0","0","1","","0.07304711058","","239","","0.1010835707","main_expt","0.8","0.09302868556","0.2","","","0.6","","0.4","0.07304711058","0.2699970134","","","","","",""
"257","","bandit","318","729085","0.0-279.0-0.0","03357283","wem/bandit_either","A1DWDCD4CHM68O","either","2","","","","","","","75","K","2","","0","0","1","0.05193691484","","","240","0.1196592177","","main_expt","0.8","","0.2","0.1142909623","0.05193691484","0.6","0.2594796501","0.4","","","","","","","",""
"324","","bandit","319","730919","0.0-280.0-0.0","03357283","wem/bandit_either","A1DWDCD4CHM68O","either","2","","","","","","","75","K","2","","0","0","1","0.06844812817","","","241","0.127320561","","main_expt","0.8","","0.2","0.1694552561","0.06844812817","0.6","0.252227353","0.4","","","","","","","",""
"284","","bandit","320","732713","0.0-281.0-0.0","03357283","wem/bandit_either","A1DWDCD4CHM68O","either","2","","","","","","","75","K","2","","0","1","0","","0.07869989264","","242","","0.10641745","main_expt","0.8","0.1828807391","0.2","","","0.6","","0.4","0.07869989264","0.301231011","","","","","",""
"41","","bandit","321","734263","0.0-282.0-0.0","03357283","wem/bandit_either","A1DWDCD4CHM68O","either","2","","","","","","","72","H","0","img/none_selected.jpg","1","0","0","0.131785075","","","243","0.131785075","","main_expt","0.8","","0.2","0.1236361748","0.06084245892","0.6","0.2903867436","0.4","","","","","","","",""
"307","","bandit","322","736080","0.0-283.0-0.0","03357283","wem/bandit_either","A1DWDCD4CHM68O","either","2","","","","","","","72","H","0","img/none_selected.jpg","0","0","1","0.1150513838","","","244","0.1150513838","","main_expt","0.8","","0.2","0.1131162958","0.04982625113","0.6","0.2659167858","0.4","","","","","","","",""
"212","","bandit","323","737803","0.0-284.0-0.0","03357283","wem/bandit_either","A1DWDCD4CHM68O","either","2","","","","","","","76","L","3","","0","0","1","0.254087564","","","245","0.1651966394","","main_expt","0.8","","0.2","0.08611006768","0.04708965441","0.6","0.254087564","0.4","","","","","","","",""
"268","","bandit","324","739582","0.0-285.0-0.0","03357283","wem/bandit_either","A1DWDCD4CHM68O","either","2","","","","","","","74","J","1","","0","0","1","","0.1123216353","","246","","0.1555796254","main_expt","0.8","0.1123216353","0.2","","","0.6","","0.4","0.0280961865","0.2551799517","","","","","",""
"168","","bandit","325","741260","0.0-286.0-0.0","03357283","wem/bandit_either","A1DWDCD4CHM68O","either","2","","","","","","","76","L","3","","0","0","1","","0.2629335529","","247","","0.1703980626","main_expt","0.8","0.09475638668","0.2","","","0.6","","0.4","0.04499456282","0.2629335529","","","","","",""
"255","","bandit","326","743024","0.0-287.0-0.0","03357283","wem/bandit_either","A1DWDCD4CHM68O","either","2","","","","","","","75","K","2","","0","0","1","0.03910304398","","","248","0.1502680902","","main_expt","0.8","","0.2","0.08309477664","0.03910304398","0.6","0.2393496224","0.4","","","","","","","",""
"157","","bandit","327","744692","0.0-288.0-0.0","03357283","wem/bandit_either","A1DWDCD4CHM68O","either","2","","","","","","","72","H","0","img/none_selected.jpg","0","0","1","0.1515252412","","","249","0.1515252412","","main_expt","0.8","","0.2","0.09118761135","0.02658952892","0.6","0.2612635012","0.4","","","","","","","",""
"217","","bandit","328","746422","0.0-289.0-0.0","03357283","wem/bandit_either","A1DWDCD4CHM68O","either","2","","","","","","","74","J","1","","0","0","1","","0.1173751119","","250","","0.164479444","main_expt","0.8","0.1173751119","0.2","","","0.6","","0.4","0.02715120894","0.2729339083","","","","","",""
"265","","bandit","329","748197","0.0-290.0-0.0","03357283","wem/bandit_either","A1DWDCD4CHM68O","either","2","","","","","","","75","K","2","","0","0","1","0.02468122838","","","251","0.1036013708","","main_expt","0.8","","0.2","0.10167128","0.02468122838","0.6","0.2394547858","0.4","","","","","","","",""
