"rt","responses","trial_type","trial_index","time_elapsed","internal_node_id","subjID","study","MID","cond","drift","key_press","expt_phase","target","like","value","connected","gems","bombs","no_reward","GemPrChosen","BombPrChosen","GainOverPainPr_0","GainOverPainPr_1","GainOverPainPr_2","GainOverPainPr_3","LosePr_0","LosePr_1","LosePr_2","LosePr_3","WinPr_0","WinPr_1","WinPr_2","WinPr_3","Q0","Q1","Q2","gender","age","ethnicity","respCharCode","respKey","respChoiceNum","respChoice","practice","trial_counter","trial_label"
"6363","{""Q0"":""A203C9REA20IT3""}","survey-text","0","6368","0.0-0.0","03842623","wem/bandit_either","A203C9REA20IT3","either","8","","","","","","","","","","","","","","","","","","","","","","","","","","","","","","","","","","","",""
"6865","","text","1","14238","0.0-1.0","03842623","wem/bandit_either","A203C9REA20IT3","either","8","32","","","","","","","","","","","","","","","","","","","","","","","","","","","","","","","","","","",""
"6322","","text","2","20563","0.0-2.0","03842623","wem/bandit_either","A203C9REA20IT3","either","8","32","","","","","","","","","","","","","","","","","","","","","","","","","","","","","","","","","","",""
"13263","","text","3","33827","0.0-3.0","03842623","wem/bandit_either","A203C9REA20IT3","either","8","32","","","","","","","","","","","","","","","","","","","","","","","","","","","","","","","","","","",""
"8413","","text","4","42242","0.0-4.0","03842623","wem/bandit_either","A203C9REA20IT3","either","8","32","","","","","","","","","","","","","","","","","","","","","","","","","","","","","","","","","","",""
"27827","","text","5","70069","0.0-5.0","03842623","wem/bandit_either","A203C9REA20IT3","either","8","32","","","","","","","","","","","","","","","","","","","","","","","","","","","","","","","","","","",""
"8141","","text","6","78211","0.0-6.0","03842623","wem/bandit_either","A203C9REA20IT3","either","8","32","","","","","","","","","","","","","","","","","","","","","","","","","","","","","","","","","","",""
"3528","","text","7","81741","0.0-7.0","03842623","wem/bandit_either","A203C9REA20IT3","either","8","32","","","","","","","","","","","","","","","","","","","","","","","","","","","","","","","","","","",""
"6619","","identification","8","88374","0.0-8.0-0.0","03842623","wem/bandit_either","A203C9REA20IT3","either","8","","identification_pre","the village of Zur","","","","","","","","","","","","","","","","","","","","","","","","","","","","","","","","",""
"5738","","identification","9","95128","0.0-8.0-1.0","03842623","wem/bandit_either","A203C9REA20IT3","either","8","","identification_pre","the village of Nyx","","","","","","","","","","","","","","","","","","","","","","","","","","","","","","","","",""
"11683","","text","10","107815","0.0-9.0","03842623","wem/bandit_either","A203C9REA20IT3","either","8","32","","","","","","","","","","","","","","","","","","","","","","","","","","","","","","","","","","",""
"1406","","text","11","109223","0.0-10.0","03842623","wem/bandit_either","A203C9REA20IT3","either","8","32","","","","","","","","","","","","","","","","","","","","","","","","","","","","","","","","","","",""
"1004","","text","12","110227","0.0-11.0","03842623","wem/bandit_either","A203C9REA20IT3","either","8","32","","","","","","","","","","","","","","","","","","","","","","","","","","","","","","","","","","",""
"1970","","text","13","112199","0.0-12.0","03842623","wem/bandit_either","A203C9REA20IT3","either","8","32","","","","","","","","","","","","","","","","","","","","","","","","","","","","","","","","","","",""
"3636","","bandit","14","117344","0.0-13.0-0.0","03842623","wem/bandit_either","A203C9REA20IT3","either","8","","","","","","","0","0","1","0","0","","","","","0","","","","0","","","","","","","","","","74","J","0","img/none_selected_demo.jpg","true","0",""
"855","","bandit","15","119723","0.0-14.0-0.0","03842623","wem/bandit_either","A203C9REA20IT3","either","8","","","","","","","0","0","1","0","0","","","","","0","","","","0","","","","","","","","","","75","K","0","img/none_selected_demo.jpg","true","0",""
"6227","","text","16","125951","0.0-15.0","03842623","wem/bandit_either","A203C9REA20IT3","either","8","32","","","","","","","","","","","","","","","","","","","","","","","","","","","","","","","","","","",""
"5347","","text","17","131300","0.0-16.0","03842623","wem/bandit_either","A203C9REA20IT3","either","8","32","","","","","","","","","","","","","","","","","","","","","","","","","","","","","","","","","","",""
"5077","","text","18","136379","0.0-17.0","03842623","wem/bandit_either","A203C9REA20IT3","either","8","32","","","","","","","","","","","","","","","","","","","","","","","","","","","","","","","","","","",""
"4862","","text","19","141243","0.0-18.0","03842623","wem/bandit_either","A203C9REA20IT3","either","8","32","","","","","","","","","","","","","","","","","","","","","","","","","","","","","","","","","","",""
"905","","bandit","20","143656","0.0-19.0-0.0","03842623","wem/bandit_either","A203C9REA20IT3","either","8","","","","","","","0","0","1","","0.8","0.5","0.5","","","0.8","0.2","","","","","","","","","","","","","74","J","0","img/none_selected_demo.jpg","true","0","80_20_practice"
"405","","bandit","21","145566","0.0-19.0-1.0","03842623","wem/bandit_either","A203C9REA20IT3","either","8","","","","","","","1","0","0","0.8","","0.5","0.5","","","","","","","0.8","0.2","","","","","","","","","74","J","0","img/none_selected_demo.jpg","true","0","80_20_practice"
"222","","bandit","22","147295","0.0-19.0-2.0","03842623","wem/bandit_either","A203C9REA20IT3","either","8","","","","","","","1","0","0","0.8","","0.5","0.5","","","","","","","0.8","0.2","","","","","","","","","74","J","0","img/none_selected_demo.jpg","true","0","80_20_practice"
"106","","bandit","23","148907","0.0-19.0-3.0","03842623","wem/bandit_either","A203C9REA20IT3","either","8","","","","","","","1","0","0","0.8","","0.5","0.5","","","","","","","0.8","0.2","","","","","","","","","74","J","0","img/none_selected_demo.jpg","true","0","80_20_practice"
"202","","bandit","24","150613","0.0-19.0-4.0","03842623","wem/bandit_either","A203C9REA20IT3","either","8","","","","","","","0","1","0","","0.8","0.5","0.5","","","0.8","0.2","","","","","","","","","","","","","74","J","0","img/none_selected_demo.jpg","true","0","80_20_practice"
"266","","bandit","25","152385","0.0-19.0-5.0","03842623","wem/bandit_either","A203C9REA20IT3","either","8","","","","","","","1","0","0","0.8","","0.5","0.5","","","","","","","0.8","0.2","","","","","","","","","74","J","0","img/none_selected_demo.jpg","true","0","80_20_practice"
"216","","bandit","26","154105","0.0-19.0-6.0","03842623","wem/bandit_either","A203C9REA20IT3","either","8","","","","","","","1","0","0","0.8","","0.5","0.5","","","","","","","0.8","0.2","","","","","","","","","74","J","0","img/none_selected_demo.jpg","true","0","80_20_practice"
"186","","bandit","27","155798","0.0-19.0-7.0","03842623","wem/bandit_either","A203C9REA20IT3","either","8","","","","","","","1","0","0","0.8","","0.5","0.5","","","","","","","0.8","0.2","","","","","","","","","74","J","0","img/none_selected_demo.jpg","true","0","80_20_practice"
"75","","bandit","28","157376","0.0-19.0-8.0","03842623","wem/bandit_either","A203C9REA20IT3","either","8","","","","","","","0","1","0","","0.8","0.5","0.5","","","0.8","0.2","","","","","","","","","","","","","74","J","0","img/none_selected_demo.jpg","true","0","80_20_practice"
"1787","","bandit","29","160674","0.0-19.0-9.0","03842623","wem/bandit_either","A203C9REA20IT3","either","8","","","","","","","1","0","0","0.8","","0.5","0.5","","","","","","","0.8","0.2","","","","","","","","","74","J","0","img/none_selected_demo.jpg","true","0","80_20_practice"
"236","","bandit","30","162416","0.0-19.0-10.0","03842623","wem/bandit_either","A203C9REA20IT3","either","8","","","","","","","0","0","1","","0.8","0.5","0.5","","","0.8","0.2","","","","","","","","","","","","","74","J","0","img/none_selected_demo.jpg","true","0","80_20_practice"
"220","","bandit","31","164142","0.0-19.0-11.0","03842623","wem/bandit_either","A203C9REA20IT3","either","8","","","","","","","0","1","0","","0.8","0.5","0.5","","","0.8","0.2","","","","","","","","","","","","","74","J","0","img/none_selected_demo.jpg","true","0","80_20_practice"
"218","","bandit","32","165864","0.0-19.0-12.0","03842623","wem/bandit_either","A203C9REA20IT3","either","8","","","","","","","0","0","1","","0.2","0.5","0.5","","","0.8","0.2","","","","","","","","","","","","","75","K","1","","true","0","80_20_practice"
"27","","bandit","33","167397","0.0-19.0-13.0","03842623","wem/bandit_either","A203C9REA20IT3","either","8","","","","","","","0","1","0","","0.8","0.5","0.5","","","0.8","0.2","","","","","","","","","","","","","74","J","0","img/none_selected_demo.jpg","true","0","80_20_practice"
"243","","bandit","34","169144","0.0-19.0-14.0","03842623","wem/bandit_either","A203C9REA20IT3","either","8","","","","","","","0","1","0","","0.8","0.5","0.5","","","0.8","0.2","","","","","","","","","","","","","74","J","0","img/none_selected_demo.jpg","true","0","80_20_practice"
"207","","bandit","35","170857","0.0-19.0-15.0","03842623","wem/bandit_either","A203C9REA20IT3","either","8","","","","","","","0","0","1","0.8","","0.5","0.5","","","","","","","0.8","0.2","","","","","","","","","74","J","0","img/none_selected_demo.jpg","true","0","80_20_practice"
"313","","bandit","36","172676","0.0-19.0-16.0","03842623","wem/bandit_either","A203C9REA20IT3","either","8","","","","","","","1","0","0","0.8","","0.5","0.5","","","","","","","0.8","0.2","","","","","","","","","74","J","0","img/none_selected_demo.jpg","true","0","80_20_practice"
"204","","bandit","37","174384","0.0-19.0-17.0","03842623","wem/bandit_either","A203C9REA20IT3","either","8","","","","","","","1","0","0","0.8","","0.5","0.5","","","","","","","0.8","0.2","","","","","","","","","74","J","0","img/none_selected_demo.jpg","true","0","80_20_practice"
"211","","bandit","38","176100","0.0-19.0-18.0","03842623","wem/bandit_either","A203C9REA20IT3","either","8","","","","","","","1","0","0","0.8","","0.5","0.5","","","","","","","0.8","0.2","","","","","","","","","74","J","0","img/none_selected_demo.jpg","true","0","80_20_practice"
"218","","bandit","39","177824","0.0-19.0-19.0","03842623","wem/bandit_either","A203C9REA20IT3","either","8","","","","","","","0","1","0","","0.8","0.5","0.5","","","0.8","0.2","","","","","","","","","","","","","74","J","0","img/none_selected_demo.jpg","true","0","80_20_practice"
"2895","","text","40","180722","0.0-20.0","03842623","wem/bandit_either","A203C9REA20IT3","either","8","32","","","","","","","","","","","","","","","","","","","","","","","","","","","","","","","","","","",""
"1099","","bandit","41","183324","0.0-21.0-0.0","03842623","wem/bandit_either","A203C9REA20IT3","either","8","","","","","","","1","0","0","1","0","","","","","0","1","","","1","0","","","","","","","","","74","J","0","img/none_selected_demo.jpg","true","0",""
"4017","","text","42","187343","0.0-22.0","03842623","wem/bandit_either","A203C9REA20IT3","either","8","32","","","","","","","","","","","","","","","","","","","","","","","","","","","","","","","","","","",""
"1749","","text","43","189094","0.0-23.0","03842623","wem/bandit_either","A203C9REA20IT3","either","8","32","","","","","","","","","","","","","","","","","","","","","","","","","","","","","","","","","","",""
"1944","","text","44","191038","0.0-24.0","03842623","wem/bandit_either","A203C9REA20IT3","either","8","32","","","","","","","","","","","","","","","","","","","","","","","","","","","","","","","","","","",""
"3538","","text","45","194578","0.0-25.0","03842623","wem/bandit_either","A203C9REA20IT3","either","8","32","","","","","","","","","","","","","","","","","","","","","","","","","","","","","","","","","","",""
"4591","","text","46","199171","0.0-26.0","03842623","wem/bandit_either","A203C9REA20IT3","either","8","32","","","","","","","","","","","","","","","","","","","","","","","","","","","","","","","","","","",""
"2920","","text","47","202093","0.0-27.0","03842623","wem/bandit_either","A203C9REA20IT3","either","8","32","","","","","","","","","","","","","","","","","","","","","","","","","","","","","","","","","","",""
"3142","","text","48","205237","0.0-28.0","03842623","wem/bandit_either","A203C9REA20IT3","either","8","32","","","","","","","","","","","","","","","","","","","","","","","","","","","","","","","","","","",""
"2418","","text","49","207657","0.0-29.0","03842623","wem/bandit_either","A203C9REA20IT3","either","8","32","","","","","","","","","","","","","","","","","","","","","","","","","","","","","","","","","","",""
"4643","","text","50","212302","0.0-30.0","03842623","wem/bandit_either","A203C9REA20IT3","either","8","32","","","","","","","","","","","","","","","","","","","","","","","","","","","","","","","","","","",""
"1457","","text","51","213760","0.0-31.0","03842623","wem/bandit_either","A203C9REA20IT3","either","8","32","","","","","","","","","","","","","","","","","","","","","","","","","","","","","","","","","","",""
"1843","","text","52","215605","0.0-32.0","03842623","wem/bandit_either","A203C9REA20IT3","either","8","32","","","","","","","","","","","","","","","","","","","","","","","","","","","","","","","","","","",""
"661","","bandit","53","217772","0.0-33.0-0.0","03842623","wem/bandit_either","A203C9REA20IT3","either","8","","","","","","","0","0","1","0.2","","0.5","0.5","0.5","0.5","","","","","0.8","0.2","0.6","0.2","","","","","","","74","J","1","","true","0","full_practice"
"177","","bandit","54","219456","0.0-33.0-1.0","03842623","wem/bandit_either","A203C9REA20IT3","either","8","","","","","","","0","0","1","","0.2","0.5","0.5","0.5","0.5","0.8","0.2","0.6","0.2","","","","","","","","","","","74","J","1","","true","0","full_practice"
"134","","bandit","55","221095","0.0-33.0-2.0","03842623","wem/bandit_either","A203C9REA20IT3","either","8","","","","","","","0","1","0","","0.8","0.5","0.5","0.5","0.5","0.8","0.2","0.6","0.2","","","","","","","","","","","72","H","0","img/none_selected.jpg","true","0","full_practice"
"963","","bandit","56","223567","0.0-33.0-3.0","03842623","wem/bandit_either","A203C9REA20IT3","either","8","","","","","","","0","1","0","","0.8","0.5","0.5","0.5","0.5","0.8","0.2","0.6","0.2","","","","","","","","","","","72","H","0","img/none_selected.jpg","true","0","full_practice"
"235","","bandit","57","225309","0.0-33.0-4.0","03842623","wem/bandit_either","A203C9REA20IT3","either","8","","","","","","","1","0","0","0.8","","0.5","0.5","0.5","0.5","","","","","0.8","0.2","0.6","0.2","","","","","","","72","H","0","img/none_selected.jpg","true","0","full_practice"
"92","","bandit","58","226908","0.0-33.0-5.0","03842623","wem/bandit_either","A203C9REA20IT3","either","8","","","","","","","0","1","0","","0.8","0.5","0.5","0.5","0.5","0.8","0.2","0.6","0.2","","","","","","","","","","","72","H","0","img/none_selected.jpg","true","0","full_practice"
"178","","bandit","59","228591","0.0-33.0-6.0","03842623","wem/bandit_either","A203C9REA20IT3","either","8","","","","","","","1","0","0","0.8","","0.5","0.5","0.5","0.5","","","","","0.8","0.2","0.6","0.2","","","","","","","72","H","0","img/none_selected.jpg","true","0","full_practice"
"116","","bandit","60","230211","0.0-33.0-7.0","03842623","wem/bandit_either","A203C9REA20IT3","either","8","","","","","","","1","0","0","0.8","","0.5","0.5","0.5","0.5","","","","","0.8","0.2","0.6","0.2","","","","","","","72","H","0","img/none_selected.jpg","true","0","full_practice"
"193","","bandit","61","231910","0.0-33.0-8.0","03842623","wem/bandit_either","A203C9REA20IT3","either","8","","","","","","","0","1","0","","0.8","0.5","0.5","0.5","0.5","0.8","0.2","0.6","0.2","","","","","","","","","","","72","H","0","img/none_selected.jpg","true","0","full_practice"
"547","","bandit","62","233964","0.0-33.0-9.0","03842623","wem/bandit_either","A203C9REA20IT3","either","8","","","","","","","0","1","0","","0.8","0.5","0.5","0.5","0.5","0.8","0.2","0.6","0.2","","","","","","","","","","","72","H","0","img/none_selected.jpg","true","0","full_practice"
"245","","bandit","63","235716","0.0-33.0-10.0","03842623","wem/bandit_either","A203C9REA20IT3","either","8","","","","","","","0","1","0","","0.8","0.5","0.5","0.5","0.5","0.8","0.2","0.6","0.2","","","","","","","","","","","72","H","0","img/none_selected.jpg","true","0","full_practice"
"253","","bandit","64","237476","0.0-33.0-11.0","03842623","wem/bandit_either","A203C9REA20IT3","either","8","","","","","","","0","1","0","","0.8","0.5","0.5","0.5","0.5","0.8","0.2","0.6","0.2","","","","","","","","","","","72","H","0","img/none_selected.jpg","true","0","full_practice"
"478","","bandit","65","239460","0.0-33.0-12.0","03842623","wem/bandit_either","A203C9REA20IT3","either","8","","","","","","","0","1","0","","0.8","0.5","0.5","0.5","0.5","0.8","0.2","0.6","0.2","","","","","","","","","","","72","H","0","img/none_selected.jpg","true","0","full_practice"
"211","","bandit","66","241176","0.0-33.0-13.0","03842623","wem/bandit_either","A203C9REA20IT3","either","8","","","","","","","0","0","1","","0.8","0.5","0.5","0.5","0.5","0.8","0.2","0.6","0.2","","","","","","","","","","","72","H","0","img/none_selected.jpg","true","0","full_practice"
"230","","bandit","67","242912","0.0-33.0-14.0","03842623","wem/bandit_either","A203C9REA20IT3","either","8","","","","","","","1","0","0","0.8","","0.5","0.5","0.5","0.5","","","","","0.8","0.2","0.6","0.2","","","","","","","72","H","0","img/none_selected.jpg","true","0","full_practice"
"203","","bandit","68","244624","0.0-33.0-15.0","03842623","wem/bandit_either","A203C9REA20IT3","either","8","","","","","","","1","0","0","0.8","","0.5","0.5","0.5","0.5","","","","","0.8","0.2","0.6","0.2","","","","","","","72","H","0","img/none_selected.jpg","true","0","full_practice"
"216","","bandit","69","246346","0.0-33.0-16.0","03842623","wem/bandit_either","A203C9REA20IT3","either","8","","","","","","","1","0","0","0.8","","0.5","0.5","0.5","0.5","","","","","0.8","0.2","0.6","0.2","","","","","","","72","H","0","img/none_selected.jpg","true","0","full_practice"
"236","","bandit","70","248086","0.0-33.0-17.0","03842623","wem/bandit_either","A203C9REA20IT3","either","8","","","","","","","0","1","0","","0.8","0.5","0.5","0.5","0.5","0.8","0.2","0.6","0.2","","","","","","","","","","","72","H","0","img/none_selected.jpg","true","0","full_practice"
"263","","bandit","71","249856","0.0-33.0-18.0","03842623","wem/bandit_either","A203C9REA20IT3","either","8","","","","","","","1","0","0","0.8","","0.5","0.5","0.5","0.5","","","","","0.8","0.2","0.6","0.2","","","","","","","72","H","0","img/none_selected.jpg","true","0","full_practice"
"210","","bandit","72","251571","0.0-33.0-19.0","03842623","wem/bandit_either","A203C9REA20IT3","either","8","","","","","","","1","0","0","0.8","","0.5","0.5","0.5","0.5","","","","","0.8","0.2","0.6","0.2","","","","","","","72","H","0","img/none_selected.jpg","true","0","full_practice"
"1794","","text","73","253372","0.0-34.0","03842623","wem/bandit_either","A203C9REA20IT3","either","8","32","","","","","","","","","","","","","","","","","","","","","","","","","","","","","","","","","","",""
"14005","","text","74","268381","0.0-35.0","03842623","wem/bandit_either","A203C9REA20IT3","either","8","32","","","","","","","","","","","","","","","","","","","","","","","","","","","","","","","","","","",""
"9577","","text","75","277960","0.0-36.0","03842623","wem/bandit_either","A203C9REA20IT3","either","8","32","","","","","","","","","","","","","","","","","","","","","","","","","","","","","","","","","","",""
"3643","","text","76","281604","0.0-37.0","03842623","wem/bandit_either","A203C9REA20IT3","either","8","32","","","","","","","","","","","","","","","","","","","","","","","","","","","","","","","","","","",""
"3829","","text","77","285436","0.0-38.0","03842623","wem/bandit_either","A203C9REA20IT3","either","8","32","","","","","","","","","","","","","","","","","","","","","","","","","","","","","","","","","","",""
"3934","","text","78","289372","0.0-39.0","03842623","wem/bandit_either","A203C9REA20IT3","either","8","32","","","","","","","","","","","","","","","","","","","","","","","","","","","","","","","","","","",""
"944","","bandit","79","291823","0.0-40.0-0.0","03842623","wem/bandit_either","A203C9REA20IT3","either","8","","","","","","","0","0","1","0.1351790469","","0.8","0.2","0.4","0.6","","","","","0.1351790469","0.2637293772","0.3540548627","0.2928194041","","","","","","","72","H","0","img/none_selected.jpg","","1","main_expt"
"223","","bandit","80","293552","0.0-41.0-0.0","03842623","wem/bandit_either","A203C9REA20IT3","either","8","","","","","","","1","0","0","0.125602744","","0.8","0.2","0.4","0.6","","","","","0.125602744","0.2760013096","0.3812516843","0.3040419902","","","","","","","72","H","0","img/none_selected.jpg","","2","main_expt"
"205","","bandit","81","295262","0.0-42.0-0.0","03842623","wem/bandit_either","A203C9REA20IT3","either","8","","","","","","","0","0","1","0.09574082279","","0.8","0.2","0.4","0.6","","","","","0.09574082279","0.3240499928","0.3901316494","0.2875251023","","","","","","","72","H","0","img/none_selected.jpg","","3","main_expt"
"216","","bandit","82","296987","0.0-43.0-0.0","03842623","wem/bandit_either","A203C9REA20IT3","either","8","","","","","","","1","0","0","0.3510822359","","0.8","0.2","0.4","0.6","","","","","0.0913382225","0.3510822359","0.3945399471","0.2965567903","","","","","","","74","J","1","","","4","main_expt"
"181","","bandit","83","298676","0.0-44.0-0.0","03842623","wem/bandit_either","A203C9REA20IT3","either","8","","","","","","","0","0","1","","0.3522827721","0.8","0.2","0.4","0.6","0.106177601","0.3522827721","0.3997977613","0.2681113314","","","","","","","","","","","74","J","1","","","5","main_expt"
"168","","bandit","84","300351","0.0-45.0-0.0","03842623","wem/bandit_either","A203C9REA20IT3","either","8","","","","","","","0","0","1","","0.382674005","0.8","0.2","0.4","0.6","0.08998955495","0.382674005","0.390783501","0.2330443498","","","","","","","","","","","74","J","1","","","6","main_expt"
"213","","bandit","85","302070","0.0-46.0-0.0","03842623","wem/bandit_either","A203C9REA20IT3","either","8","","","","","","","0","1","0","","0.3305693427","0.8","0.2","0.4","0.6","0.1077526668","0.3998463606","0.3305693427","0.1630509172","","","","","","","","","","","75","K","2","","","7","main_expt"
"235","","bandit","86","303811","0.0-47.0-0.0","03842623","wem/bandit_either","A203C9REA20IT3","either","8","","","","","","","0","0","1","","0.3056545716","0.8","0.2","0.4","0.6","0.1243697388","0.3832029687","0.3056545716","0.2002468685","","","","","","","","","","","75","K","2","","","8","main_expt"
"162","","bandit","87","305482","0.0-48.0-0.0","03842623","wem/bandit_either","A203C9REA20IT3","either","8","","","","","","","0","0","1","","0.3278889804","0.8","0.2","0.4","0.6","0.1698108096","0.3796681134","0.3278889804","0.1835034381","","","","","","","","","","","75","K","2","","","9","main_expt"
"166","","bandit","88","307153","0.0-49.0-0.0","03842623","wem/bandit_either","A203C9REA20IT3","either","8","","","","","","","0","0","1","","0.1939723001","0.8","0.2","0.4","0.6","0.221757114","0.3614311416","0.3137855556","0.1939723001","","","","","","","","","","","76","L","3","","","10","main_expt"
"918","","bandit","89","309578","0.0-50.0-0.0","03842623","wem/bandit_either","A203C9REA20IT3","either","8","","","","","","","0","0","1","0.1949806013","","0.8","0.2","0.4","0.6","","","","","0.1961062924","0.3938737051","0.3253079181","0.1949806013","","","","","","","76","L","3","","","11","main_expt"
"291","","bandit","90","311374","0.0-51.0-0.0","03842623","wem/bandit_either","A203C9REA20IT3","either","8","","","","","","","0","0","1","","0.2587943474","0.8","0.2","0.4","0.6","0.1907056259","0.3810544723","0.3298150516","0.2587943474","","","","","","","","","","","76","L","3","","","12","main_expt"
"231","","bandit","91","313153","0.0-52.0-0.0","03842623","wem/bandit_either","A203C9REA20IT3","either","8","","","","","","","0","0","1","","0.3673307406","0.8","0.2","0.4","0.6","0.2162865666","0.3707046684","0.3673307406","0.3085985727","","","","","","","","","","","75","K","2","","","13","main_expt"
"316","","bandit","92","314974","0.0-53.0-0.0","03842623","wem/bandit_either","A203C9REA20IT3","either","8","","","","","","","0","0","1","0.3486531997","","0.8","0.2","0.4","0.6","","","","","0.2399362825","0.3486531997","0.3679224674","0.2464992766","","","","","","","74","J","1","","","14","main_expt"
"242","","bandit","93","316721","0.0-54.0-0.0","03842623","wem/bandit_either","A203C9REA20IT3","either","8","","","","","","","0","0","1","","0.3263578384","0.8","0.2","0.4","0.6","0.1986859052","0.3263578384","0.3062507314","0.2474611475","","","","","","","","","","","74","J","1","","","15","main_expt"
"275","","bandit","94","318506","0.0-55.0-0.0","03842623","wem/bandit_either","A203C9REA20IT3","either","8","","","","","","","0","1","0","","0.2892976033","0.8","0.2","0.4","0.6","0.1865641621","0.3514189979","0.2892976033","0.2835538477","","","","","","","","","","","75","K","2","","","16","main_expt"
"90","","bandit","95","320101","0.0-56.0-0.0","03842623","wem/bandit_either","A203C9REA20IT3","either","8","","","","","","","0","0","1","0.2861796528","","0.8","0.2","0.4","0.6","","","","","0.2035525071","0.3532592314","0.2861796528","0.3256112075","","","","","","","75","K","2","","","17","main_expt"
"230","","bandit","96","321837","0.0-57.0-0.0","03842623","wem/bandit_either","A203C9REA20IT3","either","8","","","","","","","1","0","0","0.2958570682","","0.8","0.2","0.4","0.6","","","","","0.2039336531","0.3858608091","0.2958570682","0.3802227677","","","","","","","75","K","2","","","18","main_expt"
"222","","bandit","97","323565","0.0-58.0-0.0","03842623","wem/bandit_either","A203C9REA20IT3","either","8","","","","","","","0","0","1","","0.3353028819","0.8","0.2","0.4","0.6","0.1598579642","0.3837638756","0.3353028819","0.360566968","","","","","","","","","","","75","K","2","","","19","main_expt"
"219","","bandit","98","325291","0.0-59.0-0.0","03842623","wem/bandit_either","A203C9REA20IT3","either","8","","","","","","","0","0","1","0.3139704528","","0.8","0.2","0.4","0.6","","","","","0.1437622327","0.2872100501","0.3139704528","0.3696799013","","","","","","","75","K","2","","","20","main_expt"
"200","","bandit","99","326997","0.0-60.0-0.0","03842623","wem/bandit_either","A203C9REA20IT3","either","8","","","","","","","0","0","1","0.2524707143","","0.8","0.2","0.4","0.6","","","","","0.07974703335","0.2975414498","0.2524707143","0.4006907501","","","","","","","75","K","2","","","21","main_expt"
"218","","bandit","100","328723","0.0-61.0-0.0","03842623","wem/bandit_either","A203C9REA20IT3","either","8","","","","","","","0","0","1","0.1361132429","","0.8","0.2","0.4","0.6","","","","","0.1361132429","0.2741965999","0.248326021","0.4081217326","","","","","","","72","H","0","img/none_selected.jpg","","22","main_expt"
"232","","bandit","101","330461","0.0-62.0-0.0","03842623","wem/bandit_either","A203C9REA20IT3","either","8","","","","","","","0","0","1","0.1705973249","","0.8","0.2","0.4","0.6","","","","","0.1705973249","0.2379064449","0.2937153481","0.3740207531","","","","","","","72","H","0","img/none_selected.jpg","","23","main_expt"
"206","","bandit","102","332197","0.0-63.0-0.0","03842623","wem/bandit_either","A203C9REA20IT3","either","8","","","","","","","0","0","1","0.1392759225","","0.8","0.2","0.4","0.6","","","","","0.1392759225","0.2078598572","0.2625315469","0.3913756451","","","","","","","72","H","0","img/none_selected.jpg","","24","main_expt"
"221","","bandit","103","333925","0.0-64.0-0.0","03842623","wem/bandit_either","A203C9REA20IT3","either","8","","","","","","","0","0","1","","0.2405651368","0.8","0.2","0.4","0.6","0.1800538527","0.2764850733","0.2405651368","0.4100905738","","","","","","","","","","","75","K","2","","","25","main_expt"
"219","","bandit","104","335651","0.0-65.0-0.0","03842623","wem/bandit_either","A203C9REA20IT3","either","8","","","","","","","0","0","1","","0.2503350336","0.8","0.2","0.4","0.6","0.2146400533","0.3080191348","0.2503350336","0.3600668969","","","","","","","","","","","75","K","2","","","26","main_expt"
"232","","bandit","105","337391","0.0-66.0-0.0","03842623","wem/bandit_either","A203C9REA20IT3","either","8","","","","","","","0","1","0","","0.3606197488","0.8","0.2","0.4","0.6","0.1948367851","0.3606197488","0.354091838","0.3703096079","","","","","","","","","","","74","J","1","","","27","main_expt"
"222","","bandit","106","339122","0.0-67.0-0.0","03842623","wem/bandit_either","A203C9REA20IT3","either","8","","","","","","","1","0","0","0.3696097963","","0.8","0.2","0.4","0.6","","","","","0.2282666016","0.3696097963","0.3419366675","0.3527269899","","","","","","","74","J","1","","","28","main_expt"
"202","","bandit","107","340832","0.0-68.0-0.0","03842623","wem/bandit_either","A203C9REA20IT3","either","8","","","","","","","1","0","0","0.3434444954","","0.8","0.2","0.4","0.6","","","","","0.1842618798","0.3434444954","0.361896517","0.2854860911","","","","","","","74","J","1","","","29","main_expt"
"251","","bandit","108","342589","0.0-69.0-0.0","03842623","wem/bandit_either","A203C9REA20IT3","either","8","","","","","","","0","1","0","","0.3528183973","0.8","0.2","0.4","0.6","0.1930267653","0.3528183973","0.3701160785","0.2971434158","","","","","","","","","","","74","J","1","","","30","main_expt"
"206","","bandit","109","344303","0.0-70.0-0.0","03842623","wem/bandit_either","A203C9REA20IT3","either","8","","","","","","","0","0","1","","0.3436926249","0.8","0.2","0.4","0.6","0.2279264959","0.3436926249","0.3602312343","0.3192935598","","","","","","","","","","","74","J","1","","","31","main_expt"
"193","","bandit","110","346002","0.0-71.0-0.0","03842623","wem/bandit_either","A203C9REA20IT3","either","8","","","","","","","0","0","1","","0.3392376576","0.8","0.2","0.4","0.6","0.1922668126","0.3392376576","0.3550043818","0.2910845839","","","","","","","","","","","74","J","1","","","32","main_expt"
"241","","bandit","111","347750","0.0-72.0-0.0","03842623","wem/bandit_either","A203C9REA20IT3","either","8","","","","","","","0","0","1","","0.2524106513","0.8","0.2","0.4","0.6","0.1503247695","0.2524106513","0.3927862597","0.2956883229","","","","","","","","","","","74","J","1","","","33","main_expt"
"147","","bandit","112","349405","0.0-73.0-0.0","03842623","wem/bandit_either","A203C9REA20IT3","either","8","","","","","","","1","0","0","0.2918182698","","0.8","0.2","0.4","0.6","","","","","0.1875072744","0.2378308988","0.4185963197","0.2918182698","","","","","","","76","L","3","","","34","main_expt"
"203","","bandit","113","351114","0.0-74.0-0.0","03842623","wem/bandit_either","A203C9REA20IT3","either","8","","","","","","","0","0","1","0.3063909307","","0.8","0.2","0.4","0.6","","","","","0.2135507624","0.2683654211","0.441983755","0.3063909307","","","","","","","76","L","3","","","35","main_expt"
"224","","bandit","114","352845","0.0-75.0-0.0","03842623","wem/bandit_either","A203C9REA20IT3","either","8","","","","","","","0","0","1","","0.2820805085","0.8","0.2","0.4","0.6","0.2042402853","0.2645223933","0.4352827683","0.2820805085","","","","","","","","","","","76","L","3","","","36","main_expt"
"211","","bandit","115","354562","0.0-76.0-0.0","03842623","wem/bandit_either","A203C9REA20IT3","either","8","","","","","","","0","1","0","","0.2610370824","0.8","0.2","0.4","0.6","0.2024605481","0.2360561858","0.450520142","0.2610370824","","","","","","","","","","","76","L","3","","","37","main_expt"
"190","","bandit","116","356257","0.0-77.0-0.0","03842623","wem/bandit_either","A203C9REA20IT3","either","8","","","","","","","0","0","1","0.1896233007","","0.8","0.2","0.4","0.6","","","","","0.1677713785","0.2001865083","0.4681224698","0.1896233007","","","","","","","76","L","3","","","38","main_expt"
"85","","bandit","117","357848","0.0-78.0-0.0","03842623","wem/bandit_either","A203C9REA20IT3","either","8","","","","","","","0","1","0","","0.4711022053","0.8","0.2","0.4","0.6","0.221779122","0.1687915361","0.4711022053","0.168851025","","","","","","","","","","","75","K","2","","","39","main_expt"
"217","","bandit","118","359573","0.0-79.0-0.0","03842623","wem/bandit_either","A203C9REA20IT3","either","8","","","","","","","0","0","1","0.4559447699","","0.8","0.2","0.4","0.6","","","","","0.2722397218","0.1503151413","0.4559447699","0.1615787635","","","","","","","75","K","2","","","40","main_expt"
"173","","bandit","119","361253","0.0-80.0-0.0","03842623","wem/bandit_either","A203C9REA20IT3","either","8","","","","","","","1","0","0","0.4412687596","","0.8","0.2","0.4","0.6","","","","","0.3298230943","0.08168262283","0.4412687596","0.1472326003","","","","","","","75","K","2","","","41","main_expt"
"263","","bandit","120","363025","0.0-81.0-0.0","03842623","wem/bandit_either","A203C9REA20IT3","either","8","","","","","","","0","1","0","","0.4457751761","0.8","0.2","0.4","0.6","0.3104885444","0.07668629145","0.4457751761","0.1533480506","","","","","","","","","","","75","K","2","","","42","main_expt"
"235","","bandit","121","364765","0.0-82.0-0.0","03842623","wem/bandit_either","A203C9REA20IT3","either","8","","","","","","","1","0","0","0.4298378352","","0.8","0.2","0.4","0.6","","","","","0.3005355489","0.07394587158","0.4298378352","0.1414351437","","","","","","","75","K","2","","","43","main_expt"
"199","","bandit","122","366470","0.0-83.0-0.0","03842623","wem/bandit_either","A203C9REA20IT3","either","8","","","","","","","0","0","1","","0.4416915379","0.8","0.2","0.4","0.6","0.2456242138","0.1192337685","0.4416915379","0.1067646429","","","","","","","","","","","75","K","2","","","44","main_expt"
"219","","bandit","123","368198","0.0-84.0-0.0","03842623","wem/bandit_either","A203C9REA20IT3","either","8","","","","","","","1","0","0","0.3915522423","","0.8","0.2","0.4","0.6","","","","","0.2839901561","0.1285724119","0.3915522423","0.1250796286","","","","","","","75","K","2","","","45","main_expt"
"198","","bandit","124","369904","0.0-85.0-0.0","03842623","wem/bandit_either","A203C9REA20IT3","either","8","","","","","","","0","1","0","","0.4318427431","0.8","0.2","0.4","0.6","0.2353621531","0.1112684106","0.4318427431","0.1927264636","","","","","","","","","","","75","K","2","","","46","main_expt"
"102","","bandit","125","371512","0.0-86.0-0.0","03842623","wem/bandit_either","A203C9REA20IT3","either","8","","","","","","","0","0","1","","0.4395998441","0.8","0.2","0.4","0.6","0.2405257196","0.1207340475","0.4395998441","0.1804488412","","","","","","","","","","","75","K","2","","","47","main_expt"
"298","","bandit","126","373317","0.0-87.0-0.0","03842623","wem/bandit_either","A203C9REA20IT3","either","8","","","","","","","0","0","1","","0.4630443269","0.8","0.2","0.4","0.6","0.2629408555","0.1182533935","0.4630443269","0.168268176","","","","","","","","","","","75","K","2","","","48","main_expt"
"185","","bandit","127","375012","0.0-88.0-0.0","03842623","wem/bandit_either","A203C9REA20IT3","either","8","","","","","","","0","0","1","","0.4794982466","0.8","0.2","0.4","0.6","0.2902453213","0.1460801474","0.4794982466","0.1466838001","","","","","","","","","","","75","K","2","","","49","main_expt"
"22","","bandit","128","376550","0.0-89.0-0.0","03842623","wem/bandit_either","A203C9REA20IT3","either","8","","","","","","","0","0","1","","0.1765155983","0.8","0.2","0.4","0.6","0.3033715012","0.1765155983","0.4562783041","0.1336340117","","","","","","","","","","","74","J","1","","","50","main_expt"
"204","","bandit","129","378261","0.0-90.0-0.0","03842623","wem/bandit_either","A203C9REA20IT3","either","8","","","","","","","0","0","1","","0.1614266163","0.8","0.2","0.4","0.6","0.3536831403","0.1614266163","0.4515646323","0.1067821754","","","","","","","","","","","74","J","1","","","51","main_expt"
"771","","bandit","130","380540","0.0-91.0-0.0","03842623","wem/bandit_either","A203C9REA20IT3","either","8","","","","","","","0","0","1","0.07294577227","","0.8","0.2","0.4","0.6","","","","","0.3058792917","0.1938643747","0.4344137529","0.07294577227","","","","","","","76","L","3","","","52","main_expt"
"210","","bandit","131","382256","0.0-92.0-0.0","03842623","wem/bandit_either","A203C9REA20IT3","either","8","","","","","","","0","1","0","","0.07676454597","0.8","0.2","0.4","0.6","0.3466820038","0.1721886996","0.4421766306","0.07676454597","","","","","","","","","","","76","L","3","","","53","main_expt"
"154","","bandit","132","383920","0.0-93.0-0.0","03842623","wem/bandit_either","A203C9REA20IT3","either","8","","","","","","","0","0","1","0.07707135067","","0.8","0.2","0.4","0.6","","","","","0.3159173384","0.1542880765","0.4591875032","0.07707135067","","","","","","","76","L","3","","","54","main_expt"
"149","","bandit","133","385576","0.0-94.0-0.0","03842623","wem/bandit_either","A203C9REA20IT3","either","8","","","","","","","0","0","1","0.08227932488","","0.8","0.2","0.4","0.6","","","","","0.3205246683","0.2155598061","0.4455250987","0.08227932488","","","","","","","76","L","3","","","55","main_expt"
"568","","bandit","134","387652","0.0-95.0-0.0","03842623","wem/bandit_either","A203C9REA20IT3","either","8","","","","","","","0","0","1","0.199350645","","0.8","0.2","0.4","0.6","","","","","0.3067659888","0.199350645","0.4200701886","0.09013031375","","","","","","","74","J","1","","","56","main_expt"
"265","","bandit","135","389425","0.0-96.0-0.0","03842623","wem/bandit_either","A203C9REA20IT3","either","8","","","","","","","1","0","0","0.3786279545","","0.8","0.2","0.4","0.6","","","","","0.3786279545","0.1991981904","0.3635567377","0.106866739","","","","","","","72","H","0","img/none_selected.jpg","","57","main_expt"
"217","","bandit","136","391148","0.0-97.0-0.0","03842623","wem/bandit_either","A203C9REA20IT3","either","8","","","","","","","0","0","1","0.3796022377","","0.8","0.2","0.4","0.6","","","","","0.3796022377","0.1307276253","0.3647217687","0.0915584437","","","","","","","72","H","0","img/none_selected.jpg","","58","main_expt"
"258","","bandit","137","392912","0.0-98.0-0.0","03842623","wem/bandit_either","A203C9REA20IT3","either","8","","","","","","","0","0","1","0.3570845549","","0.8","0.2","0.4","0.6","","","","","0.3570845549","0.1540949786","0.3975499765","0.1036540812","","","","","","","72","H","0","img/none_selected.jpg","","59","main_expt"
"234","","bandit","138","394652","0.0-99.0-0.0","03842623","wem/bandit_either","A203C9REA20IT3","either","8","","","","","","","0","0","1","0.398525789","","0.8","0.2","0.4","0.6","","","","","0.398525789","0.1187181044","0.376383165","0.07948280662","","","","","","","72","H","0","img/none_selected.jpg","","60","main_expt"
"257","","bandit","139","396417","0.0-100.0-0.0","03842623","wem/bandit_either","A203C9REA20IT3","either","8","","","","","","","1","0","0","0.380986593","","0.8","0.2","0.4","0.6","","","","","0.380986593","0.1734870435","0.3384437455","0.0685056185","","","","","","","72","H","0","img/none_selected.jpg","","61","main_expt"
"77","","bandit","140","398035","0.0-101.0-0.0","03842623","wem/bandit_either","A203C9REA20IT3","either","8","","","","","","","0","0","1","0.3928002855","","0.8","0.2","0.4","0.6","","","","","0.3928002855","0.2056999461","0.3086389155","0.04196312691","","","","","","","72","H","0","img/none_selected.jpg","","62","main_expt"
"43","","bandit","141","399586","0.0-102.0-0.0","03842623","wem/bandit_either","A203C9REA20IT3","either","8","","","","","","","0","0","1","0.4097838671","","0.8","0.2","0.4","0.6","","","","","0.4097838671","0.2421495796","0.3098998428","0.06524357318","","","","","","","72","H","0","img/none_selected.jpg","","63","main_expt"
"256","","bandit","142","401349","0.0-103.0-0.0","03842623","wem/bandit_either","A203C9REA20IT3","either","8","","","","","","","1","0","0","0.3942475769","","0.8","0.2","0.4","0.6","","","","","0.3942475769","0.2678986655","0.2859800092","0.04599317762","","","","","","","72","H","0","img/none_selected.jpg","","64","main_expt"
"257","","bandit","143","403113","0.0-104.0-0.0","03842623","wem/bandit_either","A203C9REA20IT3","either","8","","","","","","","0","0","1","0.3756823908","","0.8","0.2","0.4","0.6","","","","","0.3756823908","0.2780805564","0.2780623804","0.04738713632","","","","","","","72","H","0","img/none_selected.jpg","","65","main_expt"
"227","","bandit","144","404850","0.0-105.0-0.0","03842623","wem/bandit_either","A203C9REA20IT3","either","8","","","","","","","0","0","1","","0.3780323226","0.8","0.2","0.4","0.6","0.3780323226","0.2923516192","0.2740889186","0.02873144913","","","","","","","","","","","72","H","0","img/none_selected.jpg","","66","main_expt"
"227","","bandit","145","406584","0.0-106.0-0.0","03842623","wem/bandit_either","A203C9REA20IT3","either","8","","","","","","","0","0","1","0.382091886","","0.8","0.2","0.4","0.6","","","","","0.382091886","0.3481747094","0.3122756929","0.0355516853","","","","","","","72","H","0","img/none_selected.jpg","","67","main_expt"
"88","","bandit","146","408181","0.0-107.0-0.0","03842623","wem/bandit_either","A203C9REA20IT3","either","8","","","","","","","0","0","1","","0.3004294993","0.8","0.2","0.4","0.6","0.4080562953","0.3540590834","0.3004294993","0.04483006882","","","","","","","","","","","75","K","2","","","68","main_expt"
"299","","bandit","147","409988","0.0-108.0-0.0","03842623","wem/bandit_either","A203C9REA20IT3","either","8","","","","","","","0","1","0","","0.3312842332","0.8","0.2","0.4","0.6","0.419826639","0.3348318208","0.3312842332","0.04300650393","","","","","","","","","","","75","K","2","","","69","main_expt"
"55","","bandit","148","411550","0.0-109.0-0.0","03842623","wem/bandit_either","A203C9REA20IT3","either","8","","","","","","","0","0","1","","0.2362018798","0.8","0.2","0.4","0.6","0.3889643965","0.3844983113","0.2362018798","0.03960880855","","","","","","","","","","","75","K","2","","","70","main_expt"
"171","","bandit","149","413227","0.0-110.0-0.0","03842623","wem/bandit_either","A203C9REA20IT3","either","8","","","","","","","0","0","1","","0.1838323472","0.8","0.2","0.4","0.6","0.3492343966","0.3753843975","0.1838323472","0.02401392238","","","","","","","","","","","75","K","2","","","71","main_expt"
"129","","bandit","150","414864","0.0-111.0-0.0","03842623","wem/bandit_either","A203C9REA20IT3","either","8","","","","","","","1","0","0","0.3861429343","","0.8","0.2","0.4","0.6","","","","","0.3502155883","0.3861429343","0.1749810972","0.008756159955","","","","","","","74","J","1","","","72","main_expt"
"37","","bandit","151","416406","0.0-112.0-0.0","03842623","wem/bandit_either","A203C9REA20IT3","either","8","","","","","","","0","0","1","","0.3978436086","0.8","0.2","0.4","0.6","0.3568691787","0.3978436086","0.1664097112","0.006257651783","","","","","","","","","","","74","J","1","","","73","main_expt"
"270","","bandit","152","418186","0.0-113.0-0.0","03842623","wem/bandit_either","A203C9REA20IT3","either","8","","","","","","","1","0","0","0.3847979518","","0.8","0.2","0.4","0.6","","","","","0.3303653739","0.3847979518","0.2001176207","0.004732084297","","","","","","","74","J","1","","","74","main_expt"
"265","","bandit","153","419958","0.0-114.0-0.0","03842623","wem/bandit_either","A203C9REA20IT3","either","8","","","","","","","0","1","0","","0.3974319157","0.8","0.2","0.4","0.6","0.3353283381","0.3974319157","0.1848717924","0.006967558871","","","","","","","","","","","74","J","1","","","75","main_expt"
"396","","bandit","154","421862","0.0-115.0-0.0","03842623","wem/bandit_either","A203C9REA20IT3","either","8","","","","","","","0","0","1","","0.3987985884","0.8","0.2","0.4","0.6","0.3009524994","0.3987985884","0.1510178238","0.004525860487","","","","","","","","","","","74","J","1","","","76","main_expt"
"275","","bandit","155","423644","0.0-116.0-0.0","03842623","wem/bandit_either","A203C9REA20IT3","either","8","","","","","","","0","0","1","","0.4127312768","0.8","0.2","0.4","0.6","0.3316028908","0.4127312768","0.2089633591","0.007245535115","","","","","","","","","","","74","J","1","","","77","main_expt"
"260","","bandit","156","425410","0.0-117.0-0.0","03842623","wem/bandit_either","A203C9REA20IT3","either","8","","","","","","","0","0","1","0.4257675477","","0.8","0.2","0.4","0.6","","","","","0.3571024926","0.4257675477","0.2285147345","0.00483057751","","","","","","","74","J","1","","","78","main_expt"
"202","","bandit","157","427119","0.0-118.0-0.0","03842623","wem/bandit_either","A203C9REA20IT3","either","8","","","","","","","0","0","1","","0.4331167668","0.8","0.2","0.4","0.6","0.3542776451","0.4331167668","0.2246975601","0.005956317848","","","","","","","","","","","74","J","1","","","79","main_expt"
"405","","bandit","158","429052","0.0-119.0-0.0","03842623","wem/bandit_either","A203C9REA20IT3","either","8","","","","","","","0","0","1","0.0076590047","","0.8","0.2","0.4","0.6","","","","","0.3201174307","0.4294395537","0.1878766281","0.0076590047","","","","","","","76","L","3","","","80","main_expt"
"311","","bandit","159","430871","0.0-120.0-0.0","03842623","wem/bandit_either","A203C9REA20IT3","either","8","","","","","","","0","0","1","","0.009115568074","0.8","0.2","0.4","0.6","0.3503003334","0.4234249918","0.2436254364","0.009115568074","","","","","","","","","","","76","L","3","","","81","main_expt"
"262","","bandit","160","432638","0.0-121.0-0.0","03842623","wem/bandit_either","A203C9REA20IT3","either","8","","","","","","","0","0","1","0.01382977225","","0.8","0.2","0.4","0.6","","","","","0.3509066846","0.3956977209","0.2627531714","0.01382977225","","","","","","","76","L","3","","","82","main_expt"
"158","","bandit","161","434303","0.0-122.0-0.0","03842623","wem/bandit_either","A203C9REA20IT3","either","8","","","","","","","0","0","1","","0.2672212524","0.8","0.2","0.4","0.6","0.3951868033","0.4248650233","0.2672212524","0.01500629599","","","","","","","","","","","75","K","2","","","83","main_expt"
"224","","bandit","162","436072","0.0-123.0-0.0","03842623","wem/bandit_either","A203C9REA20IT3","either","8","","","","","","","0","1","0","","0.2817484998","0.8","0.2","0.4","0.6","0.4131477378","0.4196907627","0.2817484998","0.02310127573","","","","","","","","","","","75","K","2","","","84","main_expt"
"254","","bandit","163","437843","0.0-124.0-0.0","03842623","wem/bandit_either","A203C9REA20IT3","either","8","","","","","","","0","0","1","","0.3074775227","0.8","0.2","0.4","0.6","0.3889697292","0.435633498","0.3074775227","0.02639065846","","","","","","","","","","","75","K","2","","","85","main_expt"
"214","","bandit","164","439566","0.0-125.0-0.0","03842623","wem/bandit_either","A203C9REA20IT3","either","8","","","","","","","0","0","1","0.2717847629","","0.8","0.2","0.4","0.6","","","","","0.3885636443","0.4322222521","0.2717847629","0.01746441632","","","","","","","75","K","2","","","86","main_expt"
"523","","bandit","165","441597","0.0-126.0-0.0","03842623","wem/bandit_either","A203C9REA20IT3","either","8","","","","","","","0","0","1","","0.2183858348","0.8","0.2","0.4","0.6","0.4028282504","0.4476119451","0.2183858348","0.01256144444","","","","","","","","","","","75","K","2","","","87","main_expt"
"211","","bandit","166","443314","0.0-127.0-0.0","03842623","wem/bandit_either","A203C9REA20IT3","either","8","","","","","","","0","1","0","","0.4306890759","0.8","0.2","0.4","0.6","0.4306890759","0.4073123198","0.2054961256","0.01178158386","","","","","","","","","","","72","H","0","img/none_selected.jpg","","88","main_expt"
"201","","bandit","167","445024","0.0-128.0-0.0","03842623","wem/bandit_either","A203C9REA20IT3","either","8","","","","","","","1","0","0","0.4103738654","","0.8","0.2","0.4","0.6","","","","","0.4103738654","0.3862301724","0.1452714398","0.008722555822","","","","","","","72","H","0","img/none_selected.jpg","","89","main_expt"
"217","","bandit","168","446747","0.0-129.0-0.0","03842623","wem/bandit_either","A203C9REA20IT3","either","8","","","","","","","0","0","1","0.3980827974","","0.8","0.2","0.4","0.6","","","","","0.3980827974","0.3596745144","0.1077779513","0.008232471735","","","","","","","72","H","0","img/none_selected.jpg","","90","main_expt"
"210","","bandit","169","448464","0.0-130.0-0.0","03842623","wem/bandit_either","A203C9REA20IT3","either","8","","","","","","","0","0","1","","0.4040531024","0.8","0.2","0.4","0.6","0.4040531024","0.3082854458","0.1308407065","0.01249180717","","","","","","","","","","","72","H","0","img/none_selected.jpg","","91","main_expt"
"213","","bandit","170","450184","0.0-131.0-0.0","03842623","wem/bandit_either","A203C9REA20IT3","either","8","","","","","","","0","0","1","0.3462944796","","0.8","0.2","0.4","0.6","","","","","0.3462944796","0.312225492","0.1652322036","0.01470986316","","","","","","","72","H","0","img/none_selected.jpg","","92","main_expt"
"124","","bandit","171","451816","0.0-132.0-0.0","03842623","wem/bandit_either","A203C9REA20IT3","either","8","","","","","","","1","0","0","0.3411451966","","0.8","0.2","0.4","0.6","","","","","0.3411451966","0.3671658277","0.1344678182","0.02655281846","","","","","","","72","H","0","img/none_selected.jpg","","93","main_expt"
"202","","bandit","172","453532","0.0-133.0-0.0","03842623","wem/bandit_either","A203C9REA20IT3","either","8","","","","","","","1","0","0","0.3384154489","","0.8","0.2","0.4","0.6","","","","","0.3384154489","0.3401731108","0.1301314301","0.02575246025","","","","","","","72","H","0","img/none_selected.jpg","","94","main_expt"
"155","","bandit","173","455196","0.0-134.0-0.0","03842623","wem/bandit_either","A203C9REA20IT3","either","8","","","","","","","0","0","1","0.3126988266","","0.8","0.2","0.4","0.6","","","","","0.3126988266","0.3413923724","0.1746055711","0.02262355665","","","","","","","72","H","0","img/none_selected.jpg","","95","main_expt"
"92","","bandit","174","456796","0.0-135.0-0.0","03842623","wem/bandit_either","A203C9REA20IT3","either","8","","","","","","","0","0","1","0.3800019137","","0.8","0.2","0.4","0.6","","","","","0.3800019137","0.3570420485","0.1994244555","0.02047181149","","","","","","","72","H","0","img/none_selected.jpg","","96","main_expt"
"171","","bandit","175","458474","0.0-136.0-0.0","03842623","wem/bandit_either","A203C9REA20IT3","either","8","","","","","","","0","0","1","","0.3328121005","0.8","0.2","0.4","0.6","0.3328121005","0.3435474977","0.1834602947","0.0207754381","","","","","","","","","","","72","H","0","img/none_selected.jpg","","97","main_expt"
"244","","bandit","176","460226","0.0-137.0-0.0","03842623","wem/bandit_either","A203C9REA20IT3","either","8","","","","","","","0","0","1","0.332228596","","0.8","0.2","0.4","0.6","","","","","0.332228596","0.3614714926","0.1719221531","0.02955834597","","","","","","","72","H","0","img/none_selected.jpg","","98","main_expt"
"267","","bandit","177","462001","0.0-138.0-0.0","03842623","wem/bandit_either","A203C9REA20IT3","either","8","","","","","","","0","0","1","0.2843854285","","0.8","0.2","0.4","0.6","","","","","0.2843854285","0.3176405447","0.1183399241","0.0383131093","","","","","","","72","H","0","img/none_selected.jpg","","99","main_expt"
"256","","bandit","178","463766","0.0-139.0-0.0","03842623","wem/bandit_either","A203C9REA20IT3","either","8","","","","","","","0","1","0","","0.3586553183","0.8","0.2","0.4","0.6","0.309751149","0.3586553183","0.1558635017","0.03580757471","","","","","","","","","","","74","J","1","","","100","main_expt"
"232","","bandit","179","465506","0.0-140.0-0.0","03842623","wem/bandit_either","A203C9REA20IT3","either","8","","","","","","","0","0","1","","0.2951503345","0.8","0.2","0.4","0.6","0.2993195944","0.2951503345","0.1389665978","0.04899620691","","","","","","","","","","","74","J","1","","","101","main_expt"
"255","","bandit","180","467269","0.0-141.0-0.0","03842623","wem/bandit_either","A203C9REA20IT3","either","8","","","","","","","0","0","1","","0.2998391809","0.8","0.2","0.4","0.6","0.3551890872","0.2998391809","0.1377203561","0.08055650644","","","","","","","","","","","74","J","1","","","102","main_expt"
"209","","bandit","181","468986","0.0-142.0-0.0","03842623","wem/bandit_either","A203C9REA20IT3","either","8","","","","","","","0","0","1","","0.2791823827","0.8","0.2","0.4","0.6","0.3148404956","0.2791823827","0.1285548106","0.1040447627","","","","","","","","","","","74","J","1","","","103","main_expt"
"234","","bandit","182","470730","0.0-143.0-0.0","03842623","wem/bandit_either","A203C9REA20IT3","either","8","","","","","","","0","1","0","","0.3382769334","0.8","0.2","0.4","0.6","0.3286912191","0.3382769334","0.1555523735","0.1143547335","","","","","","","","","","","74","J","1","","","104","main_expt"
"202","","bandit","183","472438","0.0-144.0-0.0","03842623","wem/bandit_either","A203C9REA20IT3","either","8","","","","","","","0","0","1","","0.3339697125","0.8","0.2","0.4","0.6","0.298340497","0.3339697125","0.1775592141","0.1487676438","","","","","","","","","","","74","J","1","","","105","main_expt"
"409","","bandit","184","474353","0.0-145.0-0.0","03842623","wem/bandit_either","A203C9REA20IT3","either","8","","","","","","","0","0","1","","0.2263451353","0.8","0.2","0.4","0.6","0.3504464386","0.3124129253","0.2263451353","0.152088545","","","","","","","","","","","75","K","2","","","106","main_expt"
"226","","bandit","185","476087","0.0-146.0-0.0","03842623","wem/bandit_either","A203C9REA20IT3","either","8","","","","","","","0","0","1","0.1679769802","","0.8","0.2","0.4","0.6","","","","","0.3510410077","0.3400683723","0.1679769802","0.2406734145","","","","","","","75","K","2","","","107","main_expt"
"223","","bandit","186","477820","0.0-147.0-0.0","03842623","wem/bandit_either","A203C9REA20IT3","either","8","","","","","","","0","1","0","","0.1999870147","0.8","0.2","0.4","0.6","0.3282766846","0.3557340834","0.1999870147","0.3048040024","","","","","","","","","","","75","K","2","","","108","main_expt"
"216","","bandit","187","479544","0.0-148.0-0.0","03842623","wem/bandit_either","A203C9REA20IT3","either","8","","","","","","","1","0","0","0.208992856","","0.8","0.2","0.4","0.6","","","","","0.3561186451","0.3846418901","0.208992856","0.3418503096","","","","","","","75","K","2","","","109","main_expt"
"236","","bandit","188","481287","0.0-149.0-0.0","03842623","wem/bandit_either","A203C9REA20IT3","either","8","","","","","","","0","0","1","0.1716040471","","0.8","0.2","0.4","0.6","","","","","0.3576445865","0.4057962062","0.1716040471","0.3198501315","","","","","","","75","K","2","","","110","main_expt"
"196","","bandit","189","482990","0.0-150.0-0.0","03842623","wem/bandit_either","A203C9REA20IT3","either","8","","","","","","","0","0","1","","0.08984071331","0.8","0.2","0.4","0.6","0.3377543854","0.3692451483","0.08984071331","0.3681534847","","","","","","","","","","","75","K","2","","","111","main_expt"
"221","","bandit","190","484719","0.0-151.0-0.0","03842623","wem/bandit_either","A203C9REA20IT3","either","8","","","","","","","0","0","1","","0.1243463141","0.8","0.2","0.4","0.6","0.286234052","0.3577317973","0.1243463141","0.3757830796","","","","","","","","","","","75","K","2","","","112","main_expt"
"212","","bandit","191","486439","0.0-152.0-0.0","03842623","wem/bandit_either","A203C9REA20IT3","either","8","","","","","","","0","0","1","0.1433440675","","0.8","0.2","0.4","0.6","","","","","0.1932674395","0.3328808086","0.1433440675","0.3838999828","","","","","","","75","K","2","","","113","main_expt"
"208","","bandit","192","488154","0.0-153.0-0.0","03842623","wem/bandit_either","A203C9REA20IT3","either","8","","","","","","","0","0","1","0.1510662198","","0.8","0.2","0.4","0.6","","","","","0.2403040534","0.3416979579","0.1510662198","0.4157938717","","","","","","","75","K","2","","","114","main_expt"
"204","","bandit","193","489866","0.0-154.0-0.0","03842623","wem/bandit_either","A203C9REA20IT3","either","8","","","","","","","0","0","1","0.4055870595","","0.8","0.2","0.4","0.6","","","","","0.254937398","0.3377137281","0.09845245139","0.4055870595","","","","","","","76","L","3","","","115","main_expt"
"217","","bandit","194","491593","0.0-155.0-0.0","03842623","wem/bandit_either","A203C9REA20IT3","either","8","","","","","","","0","0","1","","0.4161015278","0.8","0.2","0.4","0.6","0.2605063941","0.3039448029","0.107393795","0.4161015278","","","","","","","","","","","76","L","3","","","116","main_expt"
"827","","bandit","195","493926","0.0-156.0-0.0","03842623","wem/bandit_either","A203C9REA20IT3","either","8","","","","","","","1","0","0","0.414877819","","0.8","0.2","0.4","0.6","","","","","0.2161328783","0.2974336912","0.07879800556","0.414877819","","","","","","","76","L","3","","","117","main_expt"
"254","","bandit","196","495690","0.0-157.0-0.0","03842623","wem/bandit_either","A203C9REA20IT3","either","8","","","","","","","0","0","1","","0.3968259953","0.8","0.2","0.4","0.6","0.1931197841","0.2651867246","0.08383735875","0.3968259953","","","","","","","","","","","76","L","3","","","118","main_expt"
"363","","bandit","197","497562","0.0-158.0-0.0","03842623","wem/bandit_either","A203C9REA20IT3","either","8","","","","","","","0","0","1","0.4198241006","","0.8","0.2","0.4","0.6","","","","","0.1638183597","0.3131666206","0.1392474383","0.4198241006","","","","","","","76","L","3","","","119","main_expt"
"214","","bandit","198","499282","0.0-159.0-0.0","03842623","wem/bandit_either","A203C9REA20IT3","either","8","","","","","","","0","0","1","0.4286088018","","0.8","0.2","0.4","0.6","","","","","0.1893282748","0.358829095","0.1649404926","0.4286088018","","","","","","","76","L","3","","","120","main_expt"
"93","","bandit","199","500881","0.0-160.0-0.0","03842623","wem/bandit_either","A203C9REA20IT3","either","8","","","","","","","0","0","1","","0.3189860171","0.8","0.2","0.4","0.6","0.2290368179","0.3189860171","0.1764152442","0.4253829576","","","","","","","","","","","74","J","1","","","121","main_expt"
"293","","bandit","200","502684","0.0-161.0-0.0","03842623","wem/bandit_either","A203C9REA20IT3","either","8","","","","","","","0","0","1","","0.3011672979","0.8","0.2","0.4","0.6","0.2445441383","0.3011672979","0.2092397698","0.4235175979","","","","","","","","","","","74","J","1","","","122","main_expt"
"271","","bandit","201","504463","0.0-162.0-0.0","03842623","wem/bandit_either","A203C9REA20IT3","either","8","","","","","","","0","0","1","","0.1884058447","0.8","0.2","0.4","0.6","0.2091075756","0.3037948063","0.1884058447","0.4182090072","","","","","","","","","","","75","K","2","","","123","main_expt"
"137","","bandit","202","506106","0.0-163.0-0.0","03842623","wem/bandit_either","A203C9REA20IT3","either","8","","","","","","","0","0","1","0.1876417206","","0.8","0.2","0.4","0.6","","","","","0.2216111921","0.2446200253","0.1876417206","0.4356016004","","","","","","","75","K","2","","","124","main_expt"
"297","","bandit","203","507911","0.0-164.0-0.0","03842623","wem/bandit_either","A203C9REA20IT3","either","8","","","","","","","1","0","0","0.1890564589","","0.8","0.2","0.4","0.6","","","","","0.1622020501","0.2464628806","0.1890564589","0.403953628","","","","","","","75","K","2","","","125","main_expt"
"208","","bandit","204","509627","0.0-165.0-0.0","03842623","wem/bandit_either","A203C9REA20IT3","either","8","","","","","","","0","0","1","","0.1659850756","0.8","0.2","0.4","0.6","0.173533554","0.281169445","0.1659850756","0.4020675328","","","","","","","","","","","75","K","2","","","126","main_expt"
"200","","bandit","205","511334","0.0-166.0-0.0","03842623","wem/bandit_either","A203C9REA20IT3","either","8","","","","","","","0","1","0","","0.2006343121","0.8","0.2","0.4","0.6","0.189829559","0.290080064","0.2006343121","0.338443572","","","","","","","","","","","75","K","2","","","127","main_expt"
"193","","bandit","206","513036","0.0-167.0-0.0","03842623","wem/bandit_either","A203C9REA20IT3","either","8","","","","","","","1","0","0","0.2637444583","","0.8","0.2","0.4","0.6","","","","","0.1764696366","0.3280989756","0.2637444583","0.323123489","","","","","","","75","K","2","","","128","main_expt"
"166","","bandit","207","514710","0.0-168.0-0.0","03842623","wem/bandit_either","A203C9REA20IT3","either","8","","","","","","","0","0","1","","0.2783394686","0.8","0.2","0.4","0.6","0.172709194","0.3052704822","0.2783394686","0.3615310162","","","","","","","","","","","75","K","2","","","129","main_expt"
"183","","bandit","208","516437","0.0-169.0-0.0","03842623","wem/bandit_either","A203C9REA20IT3","either","8","","","","","","","1","0","0","0.2674474002","","0.8","0.2","0.4","0.6","","","","","0.1407460215","0.314718742","0.2674474002","0.3667448715","","","","","","","75","K","2","","","130","main_expt"
"200","","bandit","209","518145","0.0-170.0-0.0","03842623","wem/bandit_either","A203C9REA20IT3","either","8","","","","","","","0","0","1","","0.2122920843","0.8","0.2","0.4","0.6","0.143826562","0.2492347367","0.2122920843","0.341745941","","","","","","","","","","","75","K","2","","","131","main_expt"
"68","","bandit","210","519723","0.0-171.0-0.0","03842623","wem/bandit_either","A203C9REA20IT3","either","8","","","","","","","0","0","1","","0.1969346152","0.8","0.2","0.4","0.6","0.1862992663","0.2495736985","0.1969346152","0.2615325727","","","","","","","","","","","75","K","2","","","132","main_expt"
"27","","bandit","211","521260","0.0-172.0-0.0","03842623","wem/bandit_either","A203C9REA20IT3","either","8","","","","","","","0","0","1","","0.1390835973","0.8","0.2","0.4","0.6","0.185648564","0.2487120015","0.1390835973","0.27905624","","","","","","","","","","","75","K","2","","","133","main_expt"
"238","","bandit","212","523005","0.0-173.0-0.0","03842623","wem/bandit_either","A203C9REA20IT3","either","8","","","","","","","0","0","1","0.3239420422","","0.8","0.2","0.4","0.6","","","","","0.2002276213","0.3239420422","0.1437640715","0.2751163123","","","","","","","74","J","1","","","134","main_expt"
"205","","bandit","213","524718","0.0-174.0-0.0","03842623","wem/bandit_either","A203C9REA20IT3","either","8","","","","","","","0","0","1","","0.3903525049","0.8","0.2","0.4","0.6","0.2474552851","0.3903525049","0.1175999949","0.2586507773","","","","","","","","","","","74","J","1","","","135","main_expt"
"231","","bandit","214","526457","0.0-175.0-0.0","03842623","wem/bandit_either","A203C9REA20IT3","either","8","","","","","","","0","0","1","","0.3703049055","0.8","0.2","0.4","0.6","0.2454982057","0.3703049055","0.1108499649","0.2385277364","","","","","","","","","","","74","J","1","","","136","main_expt"
"145","","bandit","215","528110","0.0-176.0-0.0","03842623","wem/bandit_either","A203C9REA20IT3","either","8","","","","","","","1","0","0","0.2708690816","","0.8","0.2","0.4","0.6","","","","","0.2708690816","0.3657944308","0.1208727618","0.1935782534","","","","","","","72","H","0","img/none_selected.jpg","","137","main_expt"
"268","","bandit","216","529885","0.0-177.0-0.0","03842623","wem/bandit_either","A203C9REA20IT3","either","8","","","","","","","0","0","1","","0.2219039101","0.8","0.2","0.4","0.6","0.2219039101","0.3452946514","0.1098805161","0.14087624","","","","","","","","","","","72","H","0","img/none_selected.jpg","","138","main_expt"
"199","","bandit","217","531594","0.0-178.0-0.0","03842623","wem/bandit_either","A203C9REA20IT3","either","8","","","","","","","0","0","1","0.2485571535","","0.8","0.2","0.4","0.6","","","","","0.2485571535","0.3225052804","0.1359731218","0.1340930794","","","","","","","72","H","0","img/none_selected.jpg","","139","main_expt"
"220","","bandit","218","533322","0.0-179.0-0.0","03842623","wem/bandit_either","A203C9REA20IT3","either","8","","","","","","","0","0","1","0.2605640439","","0.8","0.2","0.4","0.6","","","","","0.2605640439","0.2997250911","0.1419248406","0.1170750994","","","","","","","72","H","0","img/none_selected.jpg","","140","main_expt"
"271","","bandit","219","535102","0.0-180.0-0.0","03842623","wem/bandit_either","A203C9REA20IT3","either","8","","","","","","","0","0","1","0.2260680923","","0.8","0.2","0.4","0.6","","","","","0.2260680923","0.311933389","0.1269577117","0.1316830279","","","","","","","72","H","0","img/none_selected.jpg","","141","main_expt"
"1186","","bandit","220","537798","0.0-181.0-0.0","03842623","wem/bandit_either","A203C9REA20IT3","either","8","","","","","","","0","0","1","","0.2354846983","0.8","0.2","0.4","0.6","0.2354846983","0.3442568425","0.1073819056","0.09490366034","","","","","","","","","","","72","H","0","img/none_selected.jpg","","142","main_expt"
"439","","bandit","221","539744","0.0-182.0-0.0","03842623","wem/bandit_either","A203C9REA20IT3","either","8","","","","","","","0","0","1","","0.1246024154","0.8","0.2","0.4","0.6","0.2089358464","0.3117203045","0.1152767294","0.1246024154","","","","","","","","","","","76","L","3","","","143","main_expt"
"221","","bandit","222","541474","0.0-183.0-0.0","03842623","wem/bandit_either","A203C9REA20IT3","either","8","","","","","","","1","0","0","0.1179874238","","0.8","0.2","0.4","0.6","","","","","0.1844607625","0.3080771123","0.1317444946","0.1179874238","","","","","","","76","L","3","","","144","main_expt"
"667","","bandit","223","543649","0.0-184.0-0.0","03842623","wem/bandit_either","A203C9REA20IT3","either","8","","","","","","","0","0","1","","0.1211842963","0.8","0.2","0.4","0.6","0.1940384654","0.3146876691","0.1058600218","0.1211842963","","","","","","","","","","","76","L","3","","","145","main_expt"
"254","","bandit","224","545411","0.0-185.0-0.0","03842623","wem/bandit_either","A203C9REA20IT3","either","8","","","","","","","1","0","0","0.06212451067","","0.8","0.2","0.4","0.6","","","","","0.2532022814","0.3526806189","0.1862633901","0.06212451067","","","","","","","76","L","3","","","146","main_expt"
"314","","bandit","225","547234","0.0-186.0-0.0","03842623","wem/bandit_either","A203C9REA20IT3","either","8","","","","","","","0","0","1","0.05826033827","","0.8","0.2","0.4","0.6","","","","","0.272856749","0.3859334927","0.1944793183","0.05826033827","","","","","","","76","L","3","","","147","main_expt"
"335","","bandit","226","549078","0.0-187.0-0.0","03842623","wem/bandit_either","A203C9REA20IT3","either","8","","","","","","","0","0","1","0.04847575149","","0.8","0.2","0.4","0.6","","","","","0.2441255329","0.4089873985","0.1572605535","0.04847575149","","","","","","","76","L","3","","","148","main_expt"
"1211","","bandit","227","551798","0.0-188.0-0.0","03842623","wem/bandit_either","A203C9REA20IT3","either","8","","","","","","","0","0","1","","0.07397138717","0.8","0.2","0.4","0.6","0.2304797635","0.3317076441","0.1632070519","0.07397138717","","","","","","","","","","","76","L","3","","","149","main_expt"
"390","","bandit","228","553698","0.0-189.0-0.0","03842623","wem/bandit_either","A203C9REA20IT3","either","8","","","","","","","0","0","1","0.1178437277","","0.8","0.2","0.4","0.6","","","","","0.2645424191","0.2514439341","0.2162169298","0.1178437277","","","","","","","76","L","3","","","150","main_expt"
"253","","bandit","229","555458","0.0-190.0-0.0","03842623","wem/bandit_either","A203C9REA20IT3","either","8","","","","","","","0","0","1","","0.1116740648","0.8","0.2","0.4","0.6","0.2919476008","0.2209696772","0.2806681102","0.1116740648","","","","","","","","","","","76","L","3","","","151","main_expt"
"202","","bandit","230","557169","0.0-191.0-0.0","03842623","wem/bandit_either","A203C9REA20IT3","either","8","","","","","","","0","0","1","","0.25223767","0.8","0.2","0.4","0.6","0.3004198658","0.2004300668","0.25223767","0.09681320826","","","","","","","","","","","75","K","2","","","152","main_expt"
"232","","bandit","231","558910","0.0-192.0-0.0","03842623","wem/bandit_either","A203C9REA20IT3","either","8","","","","","","","0","1","0","","0.2259503681","0.8","0.2","0.4","0.6","0.2910243242","0.1803159607","0.2259503681","0.1162344283","","","","","","","","","","","75","K","2","","","153","main_expt"
"348","","bandit","232","560767","0.0-193.0-0.0","03842623","wem/bandit_either","A203C9REA20IT3","either","8","","","","","","","0","0","1","0.2520515582","","0.8","0.2","0.4","0.6","","","","","0.2858680692","0.1793353988","0.2520515582","0.1441765144","","","","","","","75","K","2","","","154","main_expt"
"393","","bandit","233","562670","0.0-194.0-0.0","03842623","wem/bandit_either","A203C9REA20IT3","either","8","","","","","","","0","0","1","0.246895917","","0.8","0.2","0.4","0.6","","","","","0.276906037","0.175125938","0.246895917","0.1506434262","","","","","","","75","K","2","","","155","main_expt"
"235","","bandit","234","564412","0.0-195.0-0.0","03842623","wem/bandit_either","A203C9REA20IT3","either","8","","","","","","","0","0","1","","0.2067462234","0.8","0.2","0.4","0.6","0.3087514371","0.19004546","0.2067462234","0.1691825384","","","","","","","","","","","75","K","2","","","156","main_expt"
"431","","bandit","235","566357","0.0-196.0-0.0","03842623","wem/bandit_either","A203C9REA20IT3","either","8","","","","","","","0","0","1","","0.1736677602","0.8","0.2","0.4","0.6","0.3400763937","0.1538528063","0.1736677602","0.1465267651","","","","","","","","","","","75","K","2","","","157","main_expt"
"632","","bandit","236","568499","0.0-197.0-0.0","03842623","wem/bandit_either","A203C9REA20IT3","either","8","","","","","","","0","0","1","","0.1624419901","0.8","0.2","0.4","0.6","0.3388441277","0.1624419901","0.2437422656","0.1517260174","","","","","","","","","","","74","J","1","","","158","main_expt"
"431","","bandit","237","570439","0.0-198.0-0.0","03842623","wem/bandit_either","A203C9REA20IT3","either","8","","","","","","","0","0","1","","0.1749682205","0.8","0.2","0.4","0.6","0.3496437485","0.1749682205","0.2627628197","0.143579764","","","","","","","","","","","74","J","1","","","159","main_expt"
"716","","bandit","238","572663","0.0-199.0-0.0","03842623","wem/bandit_either","A203C9REA20IT3","either","8","","","","","","","0","0","1","0.3347491532","","0.8","0.2","0.4","0.6","","","","","0.3347491532","0.2227833177","0.2532756584","0.1701049762","","","","","","","72","H","0","img/none_selected.jpg","","160","main_expt"
"388","","bandit","239","574560","0.0-200.0-0.0","03842623","wem/bandit_either","A203C9REA20IT3","either","8","","","","","","","1","0","0","0.3036625801","","0.8","0.2","0.4","0.6","","","","","0.3036625801","0.1616195486","0.2846030245","0.1596038406","","","","","","","72","H","0","img/none_selected.jpg","","161","main_expt"
"606","","bandit","240","576677","0.0-201.0-0.0","03842623","wem/bandit_either","A203C9REA20IT3","either","8","","","","","","","1","0","0","0.2735804545","","0.8","0.2","0.4","0.6","","","","","0.2735804545","0.1440802068","0.2480450928","0.1186271452","","","","","","","72","H","0","img/none_selected.jpg","","162","main_expt"
"572","","bandit","241","578758","0.0-202.0-0.0","03842623","wem/bandit_either","A203C9REA20IT3","either","8","","","","","","","0","0","1","0.2219233964","","0.8","0.2","0.4","0.6","","","","","0.2219233964","0.1349250059","0.3217860246","0.1460830151","","","","","","","72","H","0","img/none_selected.jpg","","163","main_expt"
"626","","bandit","242","580894","0.0-203.0-0.0","03842623","wem/bandit_either","A203C9REA20IT3","either","8","","","","","","","0","0","1","0.2489701673","","0.8","0.2","0.4","0.6","","","","","0.2489701673","0.1482528248","0.3528623486","0.1924179555","","","","","","","72","H","0","img/none_selected.jpg","","164","main_expt"
"1002","","bandit","243","583403","0.0-204.0-0.0","03842623","wem/bandit_either","A203C9REA20IT3","either","8","","","","","","","0","0","1","","0.2424219606","0.8","0.2","0.4","0.6","0.2424219606","0.1444116863","0.3113737792","0.1909643941","","","","","","","","","","","72","H","0","img/none_selected.jpg","","165","main_expt"
"680","","bandit","244","585615","0.0-205.0-0.0","03842623","wem/bandit_either","A203C9REA20IT3","either","8","","","","","","","0","0","1","","0.1621449425","0.8","0.2","0.4","0.6","0.1899742571","0.1621449425","0.2820045276","0.1917506842","","","","","","","","","","","74","J","1","","","166","main_expt"
"417","","bandit","245","587540","0.0-206.0-0.0","03842623","wem/bandit_either","A203C9REA20IT3","either","8","","","","","","","0","0","1","","0.1695256229","0.8","0.2","0.4","0.6","0.2298880826","0.1695256229","0.2539690707","0.2238056512","","","","","","","","","","","74","J","1","","","167","main_expt"
"384","","bandit","246","589431","0.0-207.0-0.0","03842623","wem/bandit_either","A203C9REA20IT3","either","8","","","","","","","1","0","0","0.241220494","","0.8","0.2","0.4","0.6","","","","","0.241220494","0.1712445676","0.2177565821","0.2132240521","","","","","","","72","H","0","img/none_selected.jpg","","168","main_expt"
"274","","bandit","247","591214","0.0-208.0-0.0","03842623","wem/bandit_either","A203C9REA20IT3","either","8","","","","","","","0","0","1","0.2113351254","","0.8","0.2","0.4","0.6","","","","","0.2113351254","0.191079104","0.183214586","0.1363713625","","","","","","","72","H","0","img/none_selected.jpg","","169","main_expt"
"245","","bandit","248","592967","0.0-209.0-0.0","03842623","wem/bandit_either","A203C9REA20IT3","either","8","","","","","","","0","0","1","0.2224744884","","0.8","0.2","0.4","0.6","","","","","0.2224744884","0.2227666825","0.1757282231","0.2007690262","","","","","","","72","H","0","img/none_selected.jpg","","170","main_expt"
"231","","bandit","249","594707","0.0-210.0-0.0","03842623","wem/bandit_either","A203C9REA20IT3","either","8","","","","","","","0","0","1","0.262177911","","0.8","0.2","0.4","0.6","","","","","0.262177911","0.2719914804","0.1679331046","0.1238998316","","","","","","","72","H","0","img/none_selected.jpg","","171","main_expt"
"200","","bandit","250","596416","0.0-211.0-0.0","03842623","wem/bandit_either","A203C9REA20IT3","either","8","","","","","","","0","0","1","0.2822992514","","0.8","0.2","0.4","0.6","","","","","0.2822992514","0.2330128459","0.14560319","0.09746419185","","","","","","","72","H","0","img/none_selected.jpg","","172","main_expt"
"328","","bandit","251","598253","0.0-212.0-0.0","03842623","wem/bandit_either","A203C9REA20IT3","either","8","","","","","","","0","0","1","","0.1341549344","0.8","0.2","0.4","0.6","0.2545762091","0.2840251313","0.1341549344","0.1018164217","","","","","","","","","","","75","K","2","","","173","main_expt"
"238","","bandit","252","600002","0.0-213.0-0.0","03842623","wem/bandit_either","A203C9REA20IT3","either","8","","","","","","","0","0","1","","0.1471305278","0.8","0.2","0.4","0.6","0.2838184637","0.2739042306","0.1471305278","0.1401689619","","","","","","","","","","","75","K","2","","","174","main_expt"
"190","","bandit","253","601700","0.0-214.0-0.0","03842623","wem/bandit_either","A203C9REA20IT3","either","8","","","","","","","0","1","0","","0.173963405","0.8","0.2","0.4","0.6","0.3002790513","0.3444735506","0.173963405","0.1697524679","","","","","","","","","","","75","K","2","","","175","main_expt"
"180","","bandit","254","603387","0.0-215.0-0.0","03842623","wem/bandit_either","A203C9REA20IT3","either","8","","","","","","","0","0","1","0.1821857965","","0.8","0.2","0.4","0.6","","","","","0.3771690292","0.3223017316","0.1821857965","0.1896898672","","","","","","","75","K","2","","","176","main_expt"
"87","","bandit","255","604984","0.0-216.0-0.0","03842623","wem/bandit_either","A203C9REA20IT3","either","8","","","","","","","0","0","1","0.1444884472","","0.8","0.2","0.4","0.6","","","","","0.4047809956","0.2964924158","0.1444884472","0.2441254625","","","","","","","75","K","2","","","177","main_expt"
"290","","bandit","256","606784","0.0-217.0-0.0","03842623","wem/bandit_either","A203C9REA20IT3","either","8","","","","","","","0","0","1","0.1207783293","","0.8","0.2","0.4","0.6","","","","","0.4344960837","0.2780576925","0.1207783293","0.2427722412","","","","","","","75","K","2","","","178","main_expt"
"184","","bandit","257","608476","0.0-218.0-0.0","03842623","wem/bandit_either","A203C9REA20IT3","either","8","","","","","","","0","0","1","","0.2284650367","0.8","0.2","0.4","0.6","0.4287912686","0.2859751729","0.111585665","0.2284650367","","","","","","","","","","","76","L","3","","","179","main_expt"
"591","","bandit","258","610577","0.0-219.0-0.0","03842623","wem/bandit_either","A203C9REA20IT3","either","8","","","","","","","0","0","1","","0.2694081366","0.8","0.2","0.4","0.6","0.4294180747","0.283533164","0.06891525065","0.2694081366","","","","","","","","","","","76","L","3","","","180","main_expt"
"298","","bandit","259","612383","0.0-220.0-0.0","03842623","wem/bandit_either","A203C9REA20IT3","either","8","","","","","","","0","0","1","","0.2471628034","0.8","0.2","0.4","0.6","0.3887332701","0.2430023428","0.07407739619","0.2471628034","","","","","","","","","","","76","L","3","","","181","main_expt"
"243","","bandit","260","614134","0.0-221.0-0.0","03842623","wem/bandit_either","A203C9REA20IT3","either","8","","","","","","","0","0","1","","0.275372354","0.8","0.2","0.4","0.6","0.3910635387","0.223254837","0.07501704201","0.275372354","","","","","","","","","","","76","L","3","","","182","main_expt"
"278","","bandit","261","615924","0.0-222.0-0.0","03842623","wem/bandit_either","A203C9REA20IT3","either","8","","","","","","","0","0","1","0.2274286797","","0.8","0.2","0.4","0.6","","","","","0.3957792538","0.2274286797","0.09354103142","0.2378950907","","","","","","","74","J","1","","","183","main_expt"
"257","","bandit","262","617693","0.0-223.0-0.0","03842623","wem/bandit_either","A203C9REA20IT3","either","8","","","","","","","0","1","0","","0.2485964068","0.8","0.2","0.4","0.6","0.3777829694","0.2485964068","0.06673830493","0.2611999536","","","","","","","","","","","74","J","1","","","184","main_expt"
"330","","bandit","263","619533","0.0-224.0-0.0","03842623","wem/bandit_either","A203C9REA20IT3","either","8","","","","","","","0","1","0","","0.2080173303","0.8","0.2","0.4","0.6","0.4130939835","0.2080173303","0.08617836821","0.2799245071","","","","","","","","","","","74","J","1","","","185","main_expt"
"210","","bandit","264","621251","0.0-225.0-0.0","03842623","wem/bandit_either","A203C9REA20IT3","either","8","","","","","","","0","0","1","","0.2538883687","0.8","0.2","0.4","0.6","0.376930599","0.2538883687","0.05054014018","0.2275386122","","","","","","","","","","","74","J","1","","","186","main_expt"
"134","","bandit","265","622895","0.0-226.0-0.0","03842623","wem/bandit_either","A203C9REA20IT3","either","8","","","","","","","0","0","1","","0.2267652077","0.8","0.2","0.4","0.6","0.3934592684","0.2267652077","0.1101456656","0.2558518805","","","","","","","","","","","74","J","1","","","187","main_expt"
"254","","bandit","266","624658","0.0-227.0-0.0","03842623","wem/bandit_either","A203C9REA20IT3","either","8","","","","","","","0","0","1","","0.2583789709","0.8","0.2","0.4","0.6","0.4086060551","0.2583789709","0.1076418148","0.2757393749","","","","","","","","","","","74","J","1","","","188","main_expt"
"224","","bandit","267","626393","0.0-228.0-0.0","03842623","wem/bandit_either","A203C9REA20IT3","either","8","","","","","","","0","0","1","","0.2329768584","0.8","0.2","0.4","0.6","0.447145564","0.2329768584","0.1230456027","0.3326758055","","","","","","","","","","","74","J","1","","","189","main_expt"
"61","","bandit","268","627963","0.0-229.0-0.0","03842623","wem/bandit_either","A203C9REA20IT3","either","8","","","","","","","0","0","1","","0.2002510669","0.8","0.2","0.4","0.6","0.386091063","0.2002510669","0.1872873117","0.332927569","","","","","","","","","","","74","J","1","","","190","main_expt"
"353","","bandit","269","629824","0.0-230.0-0.0","03842623","wem/bandit_either","A203C9REA20IT3","either","8","","","","","","","0","0","1","","0.2182600554","0.8","0.2","0.4","0.6","0.4221145333","0.2182600554","0.1413073252","0.3859199101","","","","","","","","","","","74","J","1","","","191","main_expt"
"155","","bandit","270","631489","0.0-231.0-0.0","03842623","wem/bandit_either","A203C9REA20IT3","either","8","","","","","","","0","1","0","","0.3913199708","0.8","0.2","0.4","0.6","0.3913199708","0.2681613901","0.1868627967","0.392668484","","","","","","","","","","","72","H","0","img/none_selected.jpg","","192","main_expt"
"257","","bandit","271","633256","0.0-232.0-0.0","03842623","wem/bandit_either","A203C9REA20IT3","either","8","","","","","","","0","0","1","0.4013624592","","0.8","0.2","0.4","0.6","","","","","0.4013624592","0.3035027483","0.2312719224","0.3789843676","","","","","","","72","H","0","img/none_selected.jpg","","193","main_expt"
"242","","bandit","272","635006","0.0-233.0-0.0","03842623","wem/bandit_either","A203C9REA20IT3","either","8","","","","","","","0","0","1","","0.3668237699","0.8","0.2","0.4","0.6","0.3668237699","0.275531754","0.2585201677","0.3689216281","","","","","","","","","","","72","H","0","img/none_selected.jpg","","194","main_expt"
"235","","bandit","273","636753","0.0-234.0-0.0","03842623","wem/bandit_either","A203C9REA20IT3","either","8","","","","","","","0","0","1","0.3856266791","","0.8","0.2","0.4","0.6","","","","","0.3856266791","0.2716401532","0.2786104129","0.4136905162","","","","","","","72","H","0","img/none_selected.jpg","","195","main_expt"
"119","","bandit","274","638381","0.0-235.0-0.0","03842623","wem/bandit_either","A203C9REA20IT3","either","8","","","","","","","1","0","0","0.3702439493","","0.8","0.2","0.4","0.6","","","","","0.3702439493","0.2814611543","0.2407834285","0.4258575101","","","","","","","72","H","0","img/none_selected.jpg","","196","main_expt"
"204","","bandit","275","640093","0.0-236.0-0.0","03842623","wem/bandit_either","A203C9REA20IT3","either","8","","","","","","","0","0","1","0.3665926528","","0.8","0.2","0.4","0.6","","","","","0.3665926528","0.2588010394","0.2550568011","0.3976178043","","","","","","","72","H","0","img/none_selected.jpg","","197","main_expt"
"183","","bandit","276","641783","0.0-237.0-0.0","03842623","wem/bandit_either","A203C9REA20IT3","either","8","","","","","","","0","0","1","0.3432124584","","0.8","0.2","0.4","0.6","","","","","0.3432124584","0.3094610495","0.3094863904","0.3802378075","","","","","","","72","H","0","img/none_selected.jpg","","198","main_expt"
"170","","bandit","277","643462","0.0-238.0-0.0","03842623","wem/bandit_either","A203C9REA20IT3","either","8","","","","","","","1","0","0","0.4096574544","","0.8","0.2","0.4","0.6","","","","","0.4096574544","0.3139278769","0.3012985694","0.3926800246","","","","","","","72","H","0","img/none_selected.jpg","","199","main_expt"
"93","","bandit","278","645066","0.0-239.0-0.0","03842623","wem/bandit_either","A203C9REA20IT3","either","8","","","","","","","0","0","1","0.3799023259","","0.8","0.2","0.4","0.6","","","","","0.3799023259","0.3459706187","0.3149132519","0.3814844917","","","","","","","72","H","0","img/none_selected.jpg","","200","main_expt"
"209","","bandit","279","646783","0.0-240.0-0.0","03842623","wem/bandit_either","A203C9REA20IT3","either","8","","","","","","","0","1","0","","0.3513783521","0.8","0.2","0.4","0.6","0.3513783521","0.3038365479","0.3236307962","0.3831630738","","","","","","","","","","","72","H","0","img/none_selected.jpg","","201","main_expt"
"16","","bandit","280","648306","0.0-241.0-0.0","03842623","wem/bandit_either","A203C9REA20IT3","either","8","","","","","","","0","0","1","0.3439351057","","0.8","0.2","0.4","0.6","","","","","0.3439351057","0.2964599608","0.3163717903","0.3957430938","","","","","","","72","H","0","img/none_selected.jpg","","202","main_expt"
"220","","bandit","281","650036","0.0-242.0-0.0","03842623","wem/bandit_either","A203C9REA20IT3","either","8","","","","","","","0","0","1","0.2615327891","","0.8","0.2","0.4","0.6","","","","","0.2615327891","0.280336616","0.3165936227","0.4175506619","","","","","","","72","H","0","img/none_selected.jpg","","203","main_expt"
"225","","bandit","282","651770","0.0-243.0-0.0","03842623","wem/bandit_either","A203C9REA20IT3","either","8","","","","","","","0","0","1","0.2211517471","","0.8","0.2","0.4","0.6","","","","","0.2211517471","0.262900641","0.3166231072","0.4356800279","","","","","","","72","H","0","img/none_selected.jpg","","204","main_expt"
"246","","bandit","283","653525","0.0-244.0-0.0","03842623","wem/bandit_either","A203C9REA20IT3","either","8","","","","","","","0","0","1","0.1955747294","","0.8","0.2","0.4","0.6","","","","","0.1955747294","0.3403150927","0.2983153058","0.4342993254","","","","","","","72","H","0","img/none_selected.jpg","","205","main_expt"
"263","","bandit","284","655297","0.0-245.0-0.0","03842623","wem/bandit_either","A203C9REA20IT3","either","8","","","","","","","0","0","1","0.3137251184","","0.8","0.2","0.4","0.6","","","","","0.3137251184","0.3407188883","0.255573156","0.4515967499","","","","","","","72","H","0","img/none_selected.jpg","","206","main_expt"
"394","","bandit","285","657199","0.0-246.0-0.0","03842623","wem/bandit_either","A203C9REA20IT3","either","8","","","","","","","0","0","1","","0.2955601217","0.8","0.2","0.4","0.6","0.2982459604","0.2955601217","0.2816724171","0.4559700358","","","","","","","","","","","74","J","1","","","207","main_expt"
"224","","bandit","286","658931","0.0-247.0-0.0","03842623","wem/bandit_either","A203C9REA20IT3","either","8","","","","","","","1","0","0","0.2832193826","","0.8","0.2","0.4","0.6","","","","","0.2359404152","0.2832193826","0.2462622089","0.4711787588","","","","","","","74","J","1","","","208","main_expt"
"260","","bandit","287","660700","0.0-248.0-0.0","03842623","wem/bandit_either","A203C9REA20IT3","either","8","","","","","","","0","0","1","","0.25637755","0.8","0.2","0.4","0.6","0.2396635106","0.25637755","0.2608633631","0.4859779177","","","","","","","","","","","74","J","1","","","209","main_expt"
"238","","bandit","288","662445","0.0-249.0-0.0","03842623","wem/bandit_either","A203C9REA20IT3","either","8","","","","","","","0","0","1","0.2500912527","","0.8","0.2","0.4","0.6","","","","","0.2320506775","0.2500912527","0.2649708152","0.4798195452","","","","","","","74","J","1","","","210","main_expt"
"272","","bandit","289","664226","0.0-250.0-0.0","03842623","wem/bandit_either","A203C9REA20IT3","either","8","","","","","","","0","0","1","","0.2481129288","0.8","0.2","0.4","0.6","0.1894847828","0.2481129288","0.2658594566","0.4754072522","","","","","","","","","","","74","J","1","","","211","main_expt"
"251","","bandit","290","665987","0.0-251.0-0.0","03842623","wem/bandit_either","A203C9REA20IT3","either","8","","","","","","","0","1","0","","0.3192168596","0.8","0.2","0.4","0.6","0.2330804604","0.3192168596","0.2648449814","0.4780703898","","","","","","","","","","","74","J","1","","","212","main_expt"
"195","","bandit","291","667691","0.0-252.0-0.0","03842623","wem/bandit_either","A203C9REA20IT3","either","8","","","","","","","0","1","0","","0.2361953268","0.8","0.2","0.4","0.6","0.2484053244","0.2361953268","0.286492297","0.4883488692","","","","","","","","","","","74","J","1","","","213","main_expt"
"200","","bandit","292","669399","0.0-253.0-0.0","03842623","wem/bandit_either","A203C9REA20IT3","either","8","","","","","","","0","0","1","","0.2308921763","0.8","0.2","0.4","0.6","0.2182548364","0.2308921763","0.2540339129","0.4872562331","","","","","","","","","","","74","J","1","","","214","main_expt"
"198","","bandit","293","671106","0.0-254.0-0.0","03842623","wem/bandit_either","A203C9REA20IT3","either","8","","","","","","","0","0","1","","0.2161033537","0.8","0.2","0.4","0.6","0.1824073789","0.2161033537","0.254651127","0.4749609167","","","","","","","","","","","74","J","1","","","215","main_expt"
"244","","bandit","294","672860","0.0-255.0-0.0","03842623","wem/bandit_either","A203C9REA20IT3","either","8","","","","","","","0","0","1","","0.1896756427","0.8","0.2","0.4","0.6","0.1923730387","0.1896756427","0.3140517816","0.4798413464","","","","","","","","","","","74","J","1","","","216","main_expt"
"171","","bandit","295","674539","0.0-256.0-0.0","03842623","wem/bandit_either","A203C9REA20IT3","either","8","","","","","","","0","1","0","","0.3338676317","0.8","0.2","0.4","0.6","0.2266612446","0.1724286307","0.3338676317","0.4865144435","","","","","","","","","","","75","K","2","","","217","main_expt"
"233","","bandit","296","676281","0.0-257.0-0.0","03842623","wem/bandit_either","A203C9REA20IT3","either","8","","","","","","","0","1","0","","0.3397001125","0.8","0.2","0.4","0.6","0.1702705737","0.161168334","0.3397001125","0.4789145001","","","","","","","","","","","75","K","2","","","218","main_expt"
"209","","bandit","297","678039","0.0-258.0-0.0","03842623","wem/bandit_either","A203C9REA20IT3","either","8","","","","","","","0","0","1","0.2982528089","","0.8","0.2","0.4","0.6","","","","","0.1159766116","0.2021763003","0.2982528089","0.4834748692","","","","","","","75","K","2","","","219","main_expt"
"215","","bandit","298","679766","0.0-259.0-0.0","03842623","wem/bandit_either","A203C9REA20IT3","either","8","","","","","","","0","0","1","0.2770934022","","0.8","0.2","0.4","0.6","","","","","0.09529473055","0.2142164272","0.2770934022","0.4722371777","","","","","","","75","K","2","","","220","main_expt"
"291","","bandit","299","681565","0.0-260.0-0.0","03842623","wem/bandit_either","A203C9REA20IT3","either","8","","","","","","","0","0","1","0.2696770889","","0.8","0.2","0.4","0.6","","","","","0.09060922323","0.189068297","0.2696770889","0.4654689219","","","","","","","75","K","2","","","221","main_expt"
"222","","bandit","300","683297","0.0-261.0-0.0","03842623","wem/bandit_either","A203C9REA20IT3","either","8","","","","","","","0","1","0","","0.3103502417","0.8","0.2","0.4","0.6","0.1250772464","0.2120997892","0.3103502417","0.4533789701","","","","","","","","","","","75","K","2","","","222","main_expt"
"350","","bandit","301","685156","0.0-262.0-0.0","03842623","wem/bandit_either","A203C9REA20IT3","either","8","","","","","","","0","0","1","","0.3477728299","0.8","0.2","0.4","0.6","0.1177235221","0.1937664477","0.3477728299","0.4473019993","","","","","","","","","","","75","K","2","","","223","main_expt"
"306","","bandit","302","686971","0.0-263.0-0.0","03842623","wem/bandit_either","A203C9REA20IT3","either","8","","","","","","","0","1","0","","0.3230244909","0.8","0.2","0.4","0.6","0.1589673504","0.2195846313","0.3230244909","0.4651086175","","","","","","","","","","","75","K","2","","","224","main_expt"
"233","","bandit","303","688714","0.0-264.0-0.0","03842623","wem/bandit_either","A203C9REA20IT3","either","8","","","","","","","0","0","1","","0.3641913847","0.8","0.2","0.4","0.6","0.1582937281","0.1973587738","0.3641913847","0.4704934375","","","","","","","","","","","75","K","2","","","225","main_expt"
"196","","bandit","304","690424","0.0-265.0-0.0","03842623","wem/bandit_either","A203C9REA20IT3","either","8","","","","","","","0","0","1","0.3211822138","","0.8","0.2","0.4","0.6","","","","","0.1585786296","0.2029059012","0.3211822138","0.4545632724","","","","","","","75","K","2","","","226","main_expt"
"183","","bandit","305","692115","0.0-266.0-0.0","03842623","wem/bandit_either","A203C9REA20IT3","either","8","","","","","","","1","0","0","0.3318596792","","0.8","0.2","0.4","0.6","","","","","0.1614007709","0.1677618241","0.3318596792","0.4313330006","","","","","","","75","K","2","","","227","main_expt"
"272","","bandit","306","693896","0.0-267.0-0.0","03842623","wem/bandit_either","A203C9REA20IT3","either","8","","","","","","","0","1","0","","0.3715738924","0.8","0.2","0.4","0.6","0.1160982884","0.2079318551","0.3715738924","0.4253897179","","","","","","","","","","","75","K","2","","","228","main_expt"
"214","","bandit","307","695618","0.0-268.0-0.0","03842623","wem/bandit_either","A203C9REA20IT3","either","8","","","","","","","0","0","1","","0.3571583743","0.8","0.2","0.4","0.6","0.1327168588","0.1860779256","0.3571583743","0.4416009531","","","","","","","","","","","75","K","2","","","229","main_expt"
"185","","bandit","308","697315","0.0-269.0-0.0","03842623","wem/bandit_either","A203C9REA20IT3","either","8","","","","","","","0","0","1","","0.3455313741","0.8","0.2","0.4","0.6","0.1751239199","0.1294985144","0.3455313741","0.4612445757","","","","","","","","","","","75","K","2","","","230","main_expt"
"209","","bandit","309","699035","0.0-270.0-0.0","03842623","wem/bandit_either","A203C9REA20IT3","either","8","","","","","","","1","0","0","0.3114256563","","0.8","0.2","0.4","0.6","","","","","0.2080149414","0.1424139305","0.3114256563","0.4455927364","","","","","","","75","K","2","","","231","main_expt"
"216","","bandit","310","700762","0.0-271.0-0.0","03842623","wem/bandit_either","A203C9REA20IT3","either","8","","","","","","","0","1","0","","0.3127001645","0.8","0.2","0.4","0.6","0.2305008548","0.1777617008","0.3127001645","0.4449483857","","","","","","","","","","","75","K","2","","","232","main_expt"
"210","","bandit","311","702483","0.0-272.0-0.0","03842623","wem/bandit_either","A203C9REA20IT3","either","8","","","","","","","0","0","1","","0.2953609795","0.8","0.2","0.4","0.6","0.2331895239","0.1408291819","0.2953609795","0.4570404202","","","","","","","","","","","75","K","2","","","233","main_expt"
"188","","bandit","312","704180","0.0-273.0-0.0","03842623","wem/bandit_either","A203C9REA20IT3","either","8","","","","","","","0","0","1","","0.2743769666","0.8","0.2","0.4","0.6","0.2007149185","0.09563300426","0.2743769666","0.4785018613","","","","","","","","","","","75","K","2","","","234","main_expt"
"228","","bandit","313","705918","0.0-274.0-0.0","03842623","wem/bandit_either","A203C9REA20IT3","either","8","","","","","","","0","0","1","0.2842570603","","0.8","0.2","0.4","0.6","","","","","0.1428876463","0.06508254785","0.2842570603","0.4708517218","","","","","","","75","K","2","","","235","main_expt"
"234","","bandit","314","707663","0.0-275.0-0.0","03842623","wem/bandit_either","A203C9REA20IT3","either","8","","","","","","","0","0","1","0.3536106974","","0.8","0.2","0.4","0.6","","","","","0.1327756685","0.05272484418","0.3536106974","0.4721911582","","","","","","","75","K","2","","","236","main_expt"
"557","","bandit","315","709730","0.0-276.0-0.0","03842623","wem/bandit_either","A203C9REA20IT3","either","8","","","","","","","0","1","0","","0.3777879982","0.8","0.2","0.4","0.6","0.1969646424","0.05000735717","0.3777879982","0.4567984566","","","","","","","","","","","75","K","2","","","237","main_expt"
"208","","bandit","316","711446","0.0-277.0-0.0","03842623","wem/bandit_either","A203C9REA20IT3","either","8","","","","","","","0","0","1","","0.3819628943","0.8","0.2","0.4","0.6","0.2040955009","0.03409798278","0.3819628943","0.4601910044","","","","","","","","","","","75","K","2","","","238","main_expt"
"142","","bandit","317","713098","0.0-278.0-0.0","03842623","wem/bandit_either","A203C9REA20IT3","either","8","","","","","","","0","1","0","","0.4663275819","0.8","0.2","0.4","0.6","0.1885012088","0.03555143528","0.3590612953","0.4663275819","","","","","","","","","","","76","L","3","","","239","main_expt"
"380","","bandit","318","714987","0.0-279.0-0.0","03842623","wem/bandit_either","A203C9REA20IT3","either","8","","","","","","","0","1","0","","0.4781926851","0.8","0.2","0.4","0.6","0.1779850251","0.06633834621","0.3943681209","0.4781926851","","","","","","","","","","","76","L","3","","","240","main_expt"
"208","","bandit","319","716706","0.0-280.0-0.0","03842623","wem/bandit_either","A203C9REA20IT3","either","8","","","","","","","0","0","1","0.4813407325","","0.8","0.2","0.4","0.6","","","","","0.2132761508","0.0332650027","0.4178476804","0.4813407325","","","","","","","76","L","3","","","241","main_expt"
"201","","bandit","320","718418","0.0-281.0-0.0","03842623","wem/bandit_either","A203C9REA20IT3","either","8","","","","","","","0","1","0","","0.4758201438","0.8","0.2","0.4","0.6","0.2181708985","0.03674005559","0.4083523659","0.4758201438","","","","","","","","","","","76","L","3","","","242","main_expt"
"214","","bandit","321","720142","0.0-282.0-0.0","03842623","wem/bandit_either","A203C9REA20IT3","either","8","","","","","","","0","1","0","","0.4739127226","0.8","0.2","0.4","0.6","0.1880751836","0.02732183546","0.4107673147","0.4739127226","","","","","","","","","","","76","L","3","","","243","main_expt"
"325","","bandit","322","721978","0.0-283.0-0.0","03842623","wem/bandit_either","A203C9REA20IT3","either","8","","","","","","","1","0","0","0.4467527753","","0.8","0.2","0.4","0.6","","","","","0.2693527465","0.02742276317","0.3914084711","0.4467527753","","","","","","","76","L","3","","","244","main_expt"
"366","","bandit","323","723853","0.0-284.0-0.0","03842623","wem/bandit_either","A203C9REA20IT3","either","8","","","","","","","0","0","1","0.4492118003","","0.8","0.2","0.4","0.6","","","","","0.2474629182","0.03322496416","0.4117032301","0.4492118003","","","","","","","76","L","3","","","245","main_expt"
"198","","bandit","324","725563","0.0-285.0-0.0","03842623","wem/bandit_either","A203C9REA20IT3","either","8","","","","","","","0","0","1","0.4702058379","","0.8","0.2","0.4","0.6","","","","","0.3019125269","0.0538648904","0.4225436654","0.4702058379","","","","","","","76","L","3","","","246","main_expt"
"272","","bandit","325","727345","0.0-286.0-0.0","03842623","wem/bandit_either","A203C9REA20IT3","either","8","","","","","","","0","0","1","","0.4717010128","0.8","0.2","0.4","0.6","0.3013832462","0.05538537946","0.4327875568","0.4717010128","","","","","","","","","","","76","L","3","","","247","main_expt"
"260","","bandit","326","729113","0.0-287.0-0.0","03842623","wem/bandit_either","A203C9REA20IT3","either","8","","","","","","","0","0","1","0.4750055548","","0.8","0.2","0.4","0.6","","","","","0.2917300956","0.07377210468","0.4478523955","0.4750055548","","","","","","","76","L","3","","","248","main_expt"
"250","","bandit","327","730875","0.0-288.0-0.0","03842623","wem/bandit_either","A203C9REA20IT3","either","8","","","","","","","0","1","0","","0.4608113614","0.8","0.2","0.4","0.6","0.2976682537","0.07098242635","0.4221620221","0.4608113614","","","","","","","","","","","76","L","3","","","249","main_expt"
"128","","bandit","328","732514","0.0-289.0-0.0","03842623","wem/bandit_either","A203C9REA20IT3","either","8","","","","","","","1","0","0","0.4361301801","","0.8","0.2","0.4","0.6","","","","","0.2921609534","0.08291081884","0.3998447204","0.4361301801","","","","","","","76","L","3","","","250","main_expt"
"204","","bandit","329","734230","0.0-290.0-0.0","03842623","wem/bandit_either","A203C9REA20IT3","either","8","","","","","","","1","0","0","0.4203652199","","0.8","0.2","0.4","0.6","","","","","0.3026336231","0.07668358207","0.4053116556","0.4203652199","","","","","","","76","L","3","","","251","main_expt"
"238","","bandit","330","735980","0.0-291.0-0.0","03842623","wem/bandit_either","A203C9REA20IT3","either","8","","","","","","","0","0","1","0.4465363659","","0.8","0.2","0.4","0.6","","","","","0.3303824841","0.05892609675","0.3780439072","0.4465363659","","","","","","","76","L","3","","","252","main_expt"
