"rt","responses","trial_type","trial_index","time_elapsed","internal_node_id","subjID","study","MID","cond","drift","key_press","expt_phase","target","like","value","connected","respCharCode","respKey","respChoiceNum","respChoice","gems","bombs","no_reward","GemPrChosen","BombPrChosen","practice","trial_counter","WinPr_0","LosePr_0","trial_label","GainOverPainPr_0","LosePr_1","GainOverPainPr_1","WinPr_1","LosePr_2","GainOverPainPr_2","LosePr_3","GainOverPainPr_3","WinPr_2","WinPr_3","Q0","Q1","Q2","gender","age","ethnicity"
"3211","{""Q0"":""AMPMTF5IAAMK8""}","survey-text","0","3231","0.0-0.0","03956182","wem/bandit_either","AMPMTF5IAAMK8","either","8","","","","","","","","","","","","","","","","","","","","","","","","","","","","","","","","","","","",""
"6255","","text","1","10497","0.0-1.0","03956182","wem/bandit_either","AMPMTF5IAAMK8","either","8","32","","","","","","","","","","","","","","","","","","","","","","","","","","","","","","","","","","",""
"3780","","text","2","14282","0.0-2.0","03956182","wem/bandit_either","AMPMTF5IAAMK8","either","8","32","","","","","","","","","","","","","","","","","","","","","","","","","","","","","","","","","","",""
"9820","","text","3","24105","0.0-3.0","03956182","wem/bandit_either","AMPMTF5IAAMK8","either","8","32","","","","","","","","","","","","","","","","","","","","","","","","","","","","","","","","","","",""
"7012","","text","4","31121","0.0-4.0","03956182","wem/bandit_either","AMPMTF5IAAMK8","either","8","32","","","","","","","","","","","","","","","","","","","","","","","","","","","","","","","","","","",""
"38340","","text","5","69464","0.0-5.0","03956182","wem/bandit_either","AMPMTF5IAAMK8","either","8","32","","","","","","","","","","","","","","","","","","","","","","","","","","","","","","","","","","",""
"2714","","text","6","72183","0.0-6.0","03956182","wem/bandit_either","AMPMTF5IAAMK8","either","8","32","","","","","","","","","","","","","","","","","","","","","","","","","","","","","","","","","","",""
"2884","","text","7","75070","0.0-7.0","03956182","wem/bandit_either","AMPMTF5IAAMK8","either","8","32","","","","","","","","","","","","","","","","","","","","","","","","","","","","","","","","","","",""
"6682","","identification","8","81842","0.0-8.0-0.0","03956182","wem/bandit_either","AMPMTF5IAAMK8","either","8","","identification_pre","the village of Zur","4","4","4","","","","","","","","","","","","","","","","","","","","","","","","","","","","","",""
"2332","","identification","9","85259","0.0-8.0-1.0","03956182","wem/bandit_either","AMPMTF5IAAMK8","either","8","","identification_pre","the village of Nyx","1","1","1","","","","","","","","","","","","","","","","","","","","","","","","","","","","","",""
"4175","","text","10","90443","0.0-9.0","03956182","wem/bandit_either","AMPMTF5IAAMK8","either","8","32","","","","","","","","","","","","","","","","","","","","","","","","","","","","","","","","","","",""
"1200","","text","11","91646","0.0-10.0","03956182","wem/bandit_either","AMPMTF5IAAMK8","either","8","32","","","","","","","","","","","","","","","","","","","","","","","","","","","","","","","","","","",""
"1450","","text","12","93100","0.0-11.0","03956182","wem/bandit_either","AMPMTF5IAAMK8","either","8","32","","","","","","","","","","","","","","","","","","","","","","","","","","","","","","","","","","",""
"2529","","text","13","95631","0.0-12.0","03956182","wem/bandit_either","AMPMTF5IAAMK8","either","8","32","","","","","","","","","","","","","","","","","","","","","","","","","","","","","","","","","","",""
"1682","","bandit","14","98838","0.0-13.0-0.0","03956182","wem/bandit_either","AMPMTF5IAAMK8","either","8","","","","","","","74","J","0","img/none_selected_demo.jpg","0","0","1","0","0","true","0","0","0","","","","","","","","","","","","","","","","",""
"5136","","bandit","15","105512","0.0-14.0-0.0","03956182","wem/bandit_either","AMPMTF5IAAMK8","either","8","","","","","","","75","K","0","img/none_selected_demo.jpg","0","0","1","0","0","true","0","0","0","","","","","","","","","","","","","","","","",""
"4903","","text","16","110419","0.0-15.0","03956182","wem/bandit_either","AMPMTF5IAAMK8","either","8","32","","","","","","","","","","","","","","","","","","","","","","","","","","","","","","","","","","",""
"7783","","text","17","118206","0.0-16.0","03956182","wem/bandit_either","AMPMTF5IAAMK8","either","8","32","","","","","","","","","","","","","","","","","","","","","","","","","","","","","","","","","","",""
"3829","","text","18","122040","0.0-17.0","03956182","wem/bandit_either","AMPMTF5IAAMK8","either","8","32","","","","","","","","","","","","","","","","","","","","","","","","","","","","","","","","","","",""
"2241","","text","19","124285","0.0-18.0","03956182","wem/bandit_either","AMPMTF5IAAMK8","either","8","32","","","","","","","","","","","","","","","","","","","","","","","","","","","","","","","","","","",""
"936","","bandit","20","126751","0.0-19.0-0.0","03956182","wem/bandit_either","AMPMTF5IAAMK8","either","8","","","","","","","74","J","0","img/none_selected_demo.jpg","0","1","0","","0.8","true","0","","0.8","80_20_practice","0.5","0.2","0.5","","","","","","","","","","","","",""
"394","","bandit","21","128667","0.0-19.0-1.0","03956182","wem/bandit_either","AMPMTF5IAAMK8","either","8","","","","","","","74","J","0","img/none_selected_demo.jpg","1","0","0","0.8","","true","0","0.8","","80_20_practice","0.5","","0.5","0.2","","","","","","","","","","","",""
"370","","bandit","22","130568","0.0-19.0-2.0","03956182","wem/bandit_either","AMPMTF5IAAMK8","either","8","","","","","","","74","J","0","img/none_selected_demo.jpg","1","0","0","0.8","","true","0","0.8","","80_20_practice","0.5","","0.5","0.2","","","","","","","","","","","",""
"306","","bandit","23","132402","0.0-19.0-3.0","03956182","wem/bandit_either","AMPMTF5IAAMK8","either","8","","","","","","","74","J","0","img/none_selected_demo.jpg","1","0","0","0.8","","true","0","0.8","","80_20_practice","0.5","","0.5","0.2","","","","","","","","","","","",""
"305","","bandit","24","134243","0.0-19.0-4.0","03956182","wem/bandit_either","AMPMTF5IAAMK8","either","8","","","","","","","74","J","0","img/none_selected_demo.jpg","0","1","0","","0.8","true","0","","0.8","80_20_practice","0.5","0.2","0.5","","","","","","","","","","","","",""
"488","","bandit","25","136256","0.0-19.0-5.0","03956182","wem/bandit_either","AMPMTF5IAAMK8","either","8","","","","","","","74","J","0","img/none_selected_demo.jpg","1","0","0","0.8","","true","0","0.8","","80_20_practice","0.5","","0.5","0.2","","","","","","","","","","","",""
"257","","bandit","26","138068","0.0-19.0-6.0","03956182","wem/bandit_either","AMPMTF5IAAMK8","either","8","","","","","","","74","J","0","img/none_selected_demo.jpg","0","1","0","","0.8","true","0","","0.8","80_20_practice","0.5","0.2","0.5","","","","","","","","","","","","",""
"49","","bandit","27","139654","0.0-19.0-7.0","03956182","wem/bandit_either","AMPMTF5IAAMK8","either","8","","","","","","","75","K","1","","0","0","1","0.2","","true","0","0.8","","80_20_practice","0.5","","0.5","0.2","","","","","","","","","","","",""
"311","","bandit","28","141497","0.0-19.0-8.0","03956182","wem/bandit_either","AMPMTF5IAAMK8","either","8","","","","","","","75","K","1","","0","0","1","0.2","","true","0","0.8","","80_20_practice","0.5","","0.5","0.2","","","","","","","","","","","",""
"295","","bandit","29","143314","0.0-19.0-9.0","03956182","wem/bandit_either","AMPMTF5IAAMK8","either","8","","","","","","","75","K","1","","0","0","1","0.2","","true","0","0.8","","80_20_practice","0.5","","0.5","0.2","","","","","","","","","","","",""
"277","","bandit","30","145117","0.0-19.0-10.0","03956182","wem/bandit_either","AMPMTF5IAAMK8","either","8","","","","","","","74","J","0","img/none_selected_demo.jpg","0","1","0","","0.8","true","0","","0.8","80_20_practice","0.5","0.2","0.5","","","","","","","","","","","","",""
"289","","bandit","31","146936","0.0-19.0-11.0","03956182","wem/bandit_either","AMPMTF5IAAMK8","either","8","","","","","","","74","J","0","img/none_selected_demo.jpg","0","1","0","","0.8","true","0","","0.8","80_20_practice","0.5","0.2","0.5","","","","","","","","","","","","",""
"292","","bandit","32","148767","0.0-19.0-12.0","03956182","wem/bandit_either","AMPMTF5IAAMK8","either","8","","","","","","","74","J","0","img/none_selected_demo.jpg","0","1","0","","0.8","true","0","","0.8","80_20_practice","0.5","0.2","0.5","","","","","","","","","","","","",""
"296","","bandit","33","150584","0.0-19.0-13.0","03956182","wem/bandit_either","AMPMTF5IAAMK8","either","8","","","","","","","74","J","0","img/none_selected_demo.jpg","0","1","0","","0.8","true","0","","0.8","80_20_practice","0.5","0.2","0.5","","","","","","","","","","","","",""
"316","","bandit","34","152437","0.0-19.0-14.0","03956182","wem/bandit_either","AMPMTF5IAAMK8","either","8","","","","","","","74","J","0","img/none_selected_demo.jpg","0","1","0","","0.8","true","0","","0.8","80_20_practice","0.5","0.2","0.5","","","","","","","","","","","","",""
"921","","bandit","35","154884","0.0-19.0-15.0","03956182","wem/bandit_either","AMPMTF5IAAMK8","either","8","","","","","","","74","J","0","img/none_selected_demo.jpg","1","0","0","0.8","","true","0","0.8","","80_20_practice","0.5","","0.5","0.2","","","","","","","","","","","",""
"485","","bandit","36","156904","0.0-19.0-16.0","03956182","wem/bandit_either","AMPMTF5IAAMK8","either","8","","","","","","","74","J","0","img/none_selected_demo.jpg","1","0","0","0.8","","true","0","0.8","","80_20_practice","0.5","","0.5","0.2","","","","","","","","","","","",""
"429","","bandit","37","158858","0.0-19.0-17.0","03956182","wem/bandit_either","AMPMTF5IAAMK8","either","8","","","","","","","74","J","0","img/none_selected_demo.jpg","1","0","0","0.8","","true","0","0.8","","80_20_practice","0.5","","0.5","0.2","","","","","","","","","","","",""
"314","","bandit","38","160708","0.0-19.0-18.0","03956182","wem/bandit_either","AMPMTF5IAAMK8","either","8","","","","","","","74","J","0","img/none_selected_demo.jpg","0","1","0","","0.8","true","0","","0.8","80_20_practice","0.5","0.2","0.5","","","","","","","","","","","","",""
"330","","bandit","39","162548","0.0-19.0-19.0","03956182","wem/bandit_either","AMPMTF5IAAMK8","either","8","","","","","","","74","J","0","img/none_selected_demo.jpg","1","0","0","0.8","","true","0","0.8","","80_20_practice","0.5","","0.5","0.2","","","","","","","","","","","",""
"4379","","text","40","166932","0.0-20.0","03956182","wem/bandit_either","AMPMTF5IAAMK8","either","8","32","","","","","","","","","","","","","","","","","","","","","","","","","","","","","","","","","","",""
"712","","bandit","41","169179","0.0-21.0-0.0","03956182","wem/bandit_either","AMPMTF5IAAMK8","either","8","","","","","","","74","J","0","img/none_selected_demo.jpg","1","0","0","1","0","true","0","1","0","","","1","","0","","","","","","","","","","","",""
"2993","","text","42","172178","0.0-22.0","03956182","wem/bandit_either","AMPMTF5IAAMK8","either","8","32","","","","","","","","","","","","","","","","","","","","","","","","","","","","","","","","","","",""
"18451","","text","43","190633","0.0-23.0","03956182","wem/bandit_either","AMPMTF5IAAMK8","either","8","32","","","","","","","","","","","","","","","","","","","","","","","","","","","","","","","","","","",""
"1866","","text","44","192503","0.0-24.0","03956182","wem/bandit_either","AMPMTF5IAAMK8","either","8","32","","","","","","","","","","","","","","","","","","","","","","","","","","","","","","","","","","",""
"4585","","text","45","197093","0.0-25.0","03956182","wem/bandit_either","AMPMTF5IAAMK8","either","8","32","","","","","","","","","","","","","","","","","","","","","","","","","","","","","","","","","","",""
"13729","","text","46","210827","0.0-26.0","03956182","wem/bandit_either","AMPMTF5IAAMK8","either","8","32","","","","","","","","","","","","","","","","","","","","","","","","","","","","","","","","","","",""
"4538","","text","47","215370","0.0-27.0","03956182","wem/bandit_either","AMPMTF5IAAMK8","either","8","32","","","","","","","","","","","","","","","","","","","","","","","","","","","","","","","","","","",""
"2287","","text","48","217663","0.0-28.0","03956182","wem/bandit_either","AMPMTF5IAAMK8","either","8","32","","","","","","","","","","","","","","","","","","","","","","","","","","","","","","","","","","",""
"4078","","text","49","221747","0.0-29.0","03956182","wem/bandit_either","AMPMTF5IAAMK8","either","8","32","","","","","","","","","","","","","","","","","","","","","","","","","","","","","","","","","","",""
"3277","","text","50","225027","0.0-30.0","03956182","wem/bandit_either","AMPMTF5IAAMK8","either","8","32","","","","","","","","","","","","","","","","","","","","","","","","","","","","","","","","","","",""
"957","","text","51","225988","0.0-31.0","03956182","wem/bandit_either","AMPMTF5IAAMK8","either","8","32","","","","","","","","","","","","","","","","","","","","","","","","","","","","","","","","","","",""
"6904","","text","52","232896","0.0-32.0","03956182","wem/bandit_either","AMPMTF5IAAMK8","either","8","32","","","","","","","","","","","","","","","","","","","","","","","","","","","","","","","","","","",""
"986","","bandit","53","235425","0.0-33.0-0.0","03956182","wem/bandit_either","AMPMTF5IAAMK8","either","8","","","","","","","72","H","0","img/none_selected.jpg","0","1","0","","0.8","true","0","","0.8","full_practice","0.5","0.2","0.5","","0.6","0.5","0.2","0.5","","","","","","","",""
"277","","bandit","54","237238","0.0-33.0-1.0","03956182","wem/bandit_either","AMPMTF5IAAMK8","either","8","","","","","","","72","H","0","img/none_selected.jpg","1","0","0","0.8","","true","0","0.8","","full_practice","0.5","","0.5","0.2","","0.5","","0.5","0.6","0.2","","","","","",""
"164","","bandit","55","238937","0.0-33.0-2.0","03956182","wem/bandit_either","AMPMTF5IAAMK8","either","8","","","","","","","72","H","0","img/none_selected.jpg","1","0","0","0.8","","true","0","0.8","","full_practice","0.5","","0.5","0.2","","0.5","","0.5","0.6","0.2","","","","","",""
"2401","","bandit","56","242876","0.0-33.0-3.0","03956182","wem/bandit_either","AMPMTF5IAAMK8","either","8","","","","","","","72","H","0","img/none_selected.jpg","0","1","0","","0.8","true","0","","0.8","full_practice","0.5","0.2","0.5","","0.6","0.5","0.2","0.5","","","","","","","",""
"1095","","bandit","57","245499","0.0-33.0-4.0","03956182","wem/bandit_either","AMPMTF5IAAMK8","either","8","","","","","","","72","H","0","img/none_selected.jpg","0","1","0","","0.8","true","0","","0.8","full_practice","0.5","0.2","0.5","","0.6","0.5","0.2","0.5","","","","","","","",""
"1067","","bandit","58","248105","0.0-33.0-5.0","03956182","wem/bandit_either","AMPMTF5IAAMK8","either","8","","","","","","","72","H","0","img/none_selected.jpg","1","0","0","0.8","","true","0","0.8","","full_practice","0.5","","0.5","0.2","","0.5","","0.5","0.6","0.2","","","","","",""
"602","","bandit","59","250235","0.0-33.0-6.0","03956182","wem/bandit_either","AMPMTF5IAAMK8","either","8","","","","","","","72","H","0","img/none_selected.jpg","0","0","1","0.8","","true","0","0.8","","full_practice","0.5","","0.5","0.2","","0.5","","0.5","0.6","0.2","","","","","",""
"3276","","bandit","60","255042","0.0-33.0-7.0","03956182","wem/bandit_either","AMPMTF5IAAMK8","either","8","","","","","","","72","H","0","img/none_selected.jpg","0","0","1","","0.8","true","0","","0.8","full_practice","0.5","0.2","0.5","","0.6","0.5","0.2","0.5","","","","","","","",""
"93","","bandit","61","256662","0.0-33.0-8.0","03956182","wem/bandit_either","AMPMTF5IAAMK8","either","8","","","","","","","72","H","0","img/none_selected.jpg","0","1","0","","0.8","true","0","","0.8","full_practice","0.5","0.2","0.5","","0.6","0.5","0.2","0.5","","","","","","","",""
"280","","bandit","62","258462","0.0-33.0-9.0","03956182","wem/bandit_either","AMPMTF5IAAMK8","either","8","","","","","","","74","J","1","","0","0","1","","0.2","true","0","","0.8","full_practice","0.5","0.2","0.5","","0.6","0.5","0.2","0.5","","","","","","","",""
"117","","bandit","63","260114","0.0-33.0-10.0","03956182","wem/bandit_either","AMPMTF5IAAMK8","either","8","","","","","","","74","J","1","","0","0","1","0.2","","true","0","0.8","","full_practice","0.5","","0.5","0.2","","0.5","","0.5","0.6","0.2","","","","","",""
"246","","bandit","64","261897","0.0-33.0-11.0","03956182","wem/bandit_either","AMPMTF5IAAMK8","either","8","","","","","","","75","K","2","","0","1","0","","0.6","true","0","","0.8","full_practice","0.5","0.2","0.5","","0.6","0.5","0.2","0.5","","","","","","","",""
"284","","bandit","65","263712","0.0-33.0-12.0","03956182","wem/bandit_either","AMPMTF5IAAMK8","either","8","","","","","","","75","K","2","","0","0","1","0.6","","true","0","0.8","","full_practice","0.5","","0.5","0.2","","0.5","","0.5","0.6","0.2","","","","","",""
"329","","bandit","66","265572","0.0-33.0-13.0","03956182","wem/bandit_either","AMPMTF5IAAMK8","either","8","","","","","","","75","K","2","","0","0","1","","0.6","true","0","","0.8","full_practice","0.5","0.2","0.5","","0.6","0.5","0.2","0.5","","","","","","","",""
"361","","bandit","67","267464","0.0-33.0-14.0","03956182","wem/bandit_either","AMPMTF5IAAMK8","either","8","","","","","","","76","L","3","","0","0","1","","0.2","true","0","","0.8","full_practice","0.5","0.2","0.5","","0.6","0.5","0.2","0.5","","","","","","","",""
"280","","bandit","68","269278","0.0-33.0-15.0","03956182","wem/bandit_either","AMPMTF5IAAMK8","either","8","","","","","","","76","L","3","","0","0","1","0.2","","true","0","0.8","","full_practice","0.5","","0.5","0.2","","0.5","","0.5","0.6","0.2","","","","","",""
"168","","bandit","69","270968","0.0-33.0-16.0","03956182","wem/bandit_either","AMPMTF5IAAMK8","either","8","","","","","","","72","H","0","img/none_selected.jpg","0","0","1","","0.8","true","0","","0.8","full_practice","0.5","0.2","0.5","","0.6","0.5","0.2","0.5","","","","","","","",""
"248","","bandit","70","272746","0.0-33.0-17.0","03956182","wem/bandit_either","AMPMTF5IAAMK8","either","8","","","","","","","72","H","0","img/none_selected.jpg","1","0","0","0.8","","true","0","0.8","","full_practice","0.5","","0.5","0.2","","0.5","","0.5","0.6","0.2","","","","","",""
"299","","bandit","71","274578","0.0-33.0-18.0","03956182","wem/bandit_either","AMPMTF5IAAMK8","either","8","","","","","","","72","H","0","img/none_selected.jpg","1","0","0","0.8","","true","0","0.8","","full_practice","0.5","","0.5","0.2","","0.5","","0.5","0.6","0.2","","","","","",""
"272","","bandit","72","276368","0.0-33.0-19.0","03956182","wem/bandit_either","AMPMTF5IAAMK8","either","8","","","","","","","72","H","0","img/none_selected.jpg","0","1","0","","0.8","true","0","","0.8","full_practice","0.5","0.2","0.5","","0.6","0.5","0.2","0.5","","","","","","","",""
"19581","","text","73","295969","0.0-34.0","03956182","wem/bandit_either","AMPMTF5IAAMK8","either","8","32","","","","","","","","","","","","","","","","","","","","","","","","","","","","","","","","","","",""
"16923","","text","74","313914","0.0-35.0","03956182","wem/bandit_either","AMPMTF5IAAMK8","either","8","32","","","","","","","","","","","","","","","","","","","","","","","","","","","","","","","","","","",""
"6814","","text","75","320734","0.0-36.0","03956182","wem/bandit_either","AMPMTF5IAAMK8","either","8","32","","","","","","","","","","","","","","","","","","","","","","","","","","","","","","","","","","",""
"4190","","text","76","324929","0.0-37.0","03956182","wem/bandit_either","AMPMTF5IAAMK8","either","8","32","","","","","","","","","","","","","","","","","","","","","","","","","","","","","","","","","","",""
"16120","","text","77","341057","0.0-38.0","03956182","wem/bandit_either","AMPMTF5IAAMK8","either","8","32","","","","","","","","","","","","","","","","","","","","","","","","","","","","","","","","","","",""
"4279","","text","78","345350","0.0-39.0","03956182","wem/bandit_either","AMPMTF5IAAMK8","either","8","32","","","","","","","","","","","","","","","","","","","","","","","","","","","","","","","","","","",""
"729","","bandit","79","347617","0.0-40.0-0.0","03956182","wem/bandit_either","AMPMTF5IAAMK8","either","8","","","","","","","72","H","0","img/none_selected.jpg","0","1","0","","0.2637293772","","1","","0.2637293772","main_expt","0.4","0.1351790469","0.6","","0.2928194041","0.8","0.3540548627","0.2","","","","","","","",""
"73","","bandit","80","349229","0.0-41.0-0.0","03956182","wem/bandit_either","AMPMTF5IAAMK8","either","8","","","","","","","72","H","0","img/none_selected.jpg","0","0","1","0.2760013096","","","2","0.2760013096","","main_expt","0.4","","0.6","0.125602744","","0.8","","0.2","0.3040419902","0.3812516843","","","","","",""
"266","","bandit","81","351027","0.0-42.0-0.0","03956182","wem/bandit_either","AMPMTF5IAAMK8","either","8","","","","","","","72","H","0","img/none_selected.jpg","1","0","0","0.3240499928","","","3","0.3240499928","","main_expt","0.4","","0.6","0.09574082279","","0.8","","0.2","0.2875251023","0.3901316494","","","","","",""
"276","","bandit","82","352846","0.0-43.0-0.0","03956182","wem/bandit_either","AMPMTF5IAAMK8","either","8","","","","","","","72","H","0","img/none_selected.jpg","1","0","0","0.3510822359","","","4","0.3510822359","","main_expt","0.4","","0.6","0.0913382225","","0.8","","0.2","0.2965567903","0.3945399471","","","","","",""
"331","","bandit","83","354698","0.0-44.0-0.0","03956182","wem/bandit_either","AMPMTF5IAAMK8","either","8","","","","","","","72","H","0","img/none_selected.jpg","0","0","1","","0.3522827721","","5","","0.3522827721","main_expt","0.4","0.106177601","0.6","","0.2681113314","0.8","0.3997977613","0.2","","","","","","","",""
"253","","bandit","84","356483","0.0-45.0-0.0","03956182","wem/bandit_either","AMPMTF5IAAMK8","either","8","","","","","","","72","H","0","img/none_selected.jpg","0","1","0","","0.382674005","","6","","0.382674005","main_expt","0.4","0.08998955495","0.6","","0.2330443498","0.8","0.390783501","0.2","","","","","","","",""
"184","","bandit","85","358211","0.0-46.0-0.0","03956182","wem/bandit_either","AMPMTF5IAAMK8","either","8","","","","","","","72","H","0","img/none_selected.jpg","0","0","1","","0.3998463606","","7","","0.3998463606","main_expt","0.4","0.1077526668","0.6","","0.1630509172","0.8","0.3305693427","0.2","","","","","","","",""
"281","","bandit","86","360027","0.0-47.0-0.0","03956182","wem/bandit_either","AMPMTF5IAAMK8","either","8","","","","","","","72","H","0","img/none_selected.jpg","0","1","0","","0.3832029687","","8","","0.3832029687","main_expt","0.4","0.1243697388","0.6","","0.2002468685","0.8","0.3056545716","0.2","","","","","","","",""
"310","","bandit","87","361874","0.0-48.0-0.0","03956182","wem/bandit_either","AMPMTF5IAAMK8","either","8","","","","","","","72","H","0","img/none_selected.jpg","0","0","1","","0.3796681134","","9","","0.3796681134","main_expt","0.4","0.1698108096","0.6","","0.1835034381","0.8","0.3278889804","0.2","","","","","","","",""
"137","","bandit","88","363543","0.0-49.0-0.0","03956182","wem/bandit_either","AMPMTF5IAAMK8","either","8","","","","","","","72","H","0","img/none_selected.jpg","1","0","0","0.3614311416","","","10","0.3614311416","","main_expt","0.4","","0.6","0.221757114","","0.8","","0.2","0.1939723001","0.3137855556","","","","","",""
"274","","bandit","89","365353","0.0-50.0-0.0","03956182","wem/bandit_either","AMPMTF5IAAMK8","either","8","","","","","","","72","H","0","img/none_selected.jpg","0","0","1","0.3938737051","","","11","0.3938737051","","main_expt","0.4","","0.6","0.1961062924","","0.8","","0.2","0.1949806013","0.3253079181","","","","","",""
"99","","bandit","90","366994","0.0-51.0-0.0","03956182","wem/bandit_either","AMPMTF5IAAMK8","either","8","","","","","","","72","H","0","img/none_selected.jpg","0","0","1","","0.3810544723","","12","","0.3810544723","main_expt","0.4","0.1907056259","0.6","","0.2587943474","0.8","0.3298150516","0.2","","","","","","","",""
"450","","bandit","91","368979","0.0-52.0-0.0","03956182","wem/bandit_either","AMPMTF5IAAMK8","either","8","","","","","","","74","J","1","","0","0","1","0.2162865666","","","13","0.3707046684","","main_expt","0.4","","0.6","0.2162865666","","0.8","","0.2","0.3085985727","0.3673307406","","","","","",""
"304","","bandit","92","370813","0.0-53.0-0.0","03956182","wem/bandit_either","AMPMTF5IAAMK8","either","8","","","","","","","74","J","1","","0","0","1","0.2399362825","","","14","0.3486531997","","main_expt","0.4","","0.6","0.2399362825","","0.8","","0.2","0.2464992766","0.3679224674","","","","","",""
"291","","bandit","93","372623","0.0-54.0-0.0","03956182","wem/bandit_either","AMPMTF5IAAMK8","either","8","","","","","","","75","K","2","","0","0","1","0.2474611475","","","15","0.3263578384","","main_expt","0.4","","0.6","0.1986859052","","0.8","","0.2","0.2474611475","0.3062507314","","","","","",""
"322","","bandit","94","374467","0.0-55.0-0.0","03956182","wem/bandit_either","AMPMTF5IAAMK8","either","8","","","","","","","75","K","2","","0","0","1","0.2835538477","","","16","0.3514189979","","main_expt","0.4","","0.6","0.1865641621","","0.8","","0.2","0.2835538477","0.2892976033","","","","","",""
"312","","bandit","95","376336","0.0-56.0-0.0","03956182","wem/bandit_either","AMPMTF5IAAMK8","either","8","","","","","","","76","L","3","","1","0","0","0.2861796528","","","17","0.3532592314","","main_expt","0.4","","0.6","0.2035525071","","0.8","","0.2","0.3256112075","0.2861796528","","","","","",""
"305","","bandit","96","378181","0.0-57.0-0.0","03956182","wem/bandit_either","AMPMTF5IAAMK8","either","8","","","","","","","76","L","3","","0","1","0","","0.2958570682","","18","","0.3858608091","main_expt","0.4","0.2039336531","0.6","","0.3802227677","0.8","0.2958570682","0.2","","","","","","","",""
"284","","bandit","97","379987","0.0-58.0-0.0","03956182","wem/bandit_either","AMPMTF5IAAMK8","either","8","","","","","","","76","L","3","","0","0","1","","0.3353028819","","19","","0.3837638756","main_expt","0.4","0.1598579642","0.6","","0.360566968","0.8","0.3353028819","0.2","","","","","","","",""
"293","","bandit","98","381806","0.0-59.0-0.0","03956182","wem/bandit_either","AMPMTF5IAAMK8","either","8","","","","","","","76","L","3","","0","0","1","","0.3139704528","","20","","0.2872100501","main_expt","0.4","0.1437622327","0.6","","0.3696799013","0.8","0.3139704528","0.2","","","","","","","",""
"260","","bandit","99","383590","0.0-60.0-0.0","03956182","wem/bandit_either","AMPMTF5IAAMK8","either","8","","","","","","","76","L","3","","0","0","1","0.2524707143","","","21","0.2975414498","","main_expt","0.4","","0.6","0.07974703335","","0.8","","0.2","0.4006907501","0.2524707143","","","","","",""
"227","","bandit","100","385358","0.0-61.0-0.0","03956182","wem/bandit_either","AMPMTF5IAAMK8","either","8","","","","","","","72","H","0","img/none_selected.jpg","0","0","1","","0.2741965999","","22","","0.2741965999","main_expt","0.4","0.1361132429","0.6","","0.4081217326","0.8","0.248326021","0.2","","","","","","","",""
"222","","bandit","101","387132","0.0-62.0-0.0","03956182","wem/bandit_either","AMPMTF5IAAMK8","either","8","","","","","","","72","H","0","img/none_selected.jpg","0","1","0","","0.2379064449","","23","","0.2379064449","main_expt","0.4","0.1705973249","0.6","","0.3740207531","0.8","0.2937153481","0.2","","","","","","","",""
"275","","bandit","102","388940","0.0-63.0-0.0","03956182","wem/bandit_either","AMPMTF5IAAMK8","either","8","","","","","","","72","H","0","img/none_selected.jpg","0","0","1","0.2078598572","","","24","0.2078598572","","main_expt","0.4","","0.6","0.1392759225","","0.8","","0.2","0.3913756451","0.2625315469","","","","","",""
"182","","bandit","103","390662","0.0-64.0-0.0","03956182","wem/bandit_either","AMPMTF5IAAMK8","either","8","","","","","","","72","H","0","img/none_selected.jpg","0","0","1","0.2764850733","","","25","0.2764850733","","main_expt","0.4","","0.6","0.1800538527","","0.8","","0.2","0.4100905738","0.2405651368","","","","","",""
"180","","bandit","104","392368","0.0-65.0-0.0","03956182","wem/bandit_either","AMPMTF5IAAMK8","either","8","","","","","","","74","J","1","","0","0","1","","0.2146400533","","26","","0.3080191348","main_expt","0.4","0.2146400533","0.6","","0.3600668969","0.8","0.2503350336","0.2","","","","","","","",""
"272","","bandit","105","394169","0.0-66.0-0.0","03956182","wem/bandit_either","AMPMTF5IAAMK8","either","8","","","","","","","74","J","1","","0","0","1","0.1948367851","","","27","0.3606197488","","main_expt","0.4","","0.6","0.1948367851","","0.8","","0.2","0.3703096079","0.354091838","","","","","",""
"202","","bandit","106","395909","0.0-67.0-0.0","03956182","wem/bandit_either","AMPMTF5IAAMK8","either","8","","","","","","","75","K","2","","0","0","1","0.3527269899","","","28","0.3696097963","","main_expt","0.4","","0.6","0.2282666016","","0.8","","0.2","0.3527269899","0.3419366675","","","","","",""
"238","","bandit","107","397686","0.0-68.0-0.0","03956182","wem/bandit_either","AMPMTF5IAAMK8","either","8","","","","","","","75","K","2","","0","0","1","0.2854860911","","","29","0.3434444954","","main_expt","0.4","","0.6","0.1842618798","","0.8","","0.2","0.2854860911","0.361896517","","","","","",""
"135","","bandit","108","399390","0.0-69.0-0.0","03956182","wem/bandit_either","AMPMTF5IAAMK8","either","8","","","","","","","76","L","3","","0","0","1","0.3701160785","","","30","0.3528183973","","main_expt","0.4","","0.6","0.1930267653","","0.8","","0.2","0.2971434158","0.3701160785","","","","","",""
"287","","bandit","109","401201","0.0-70.0-0.0","03956182","wem/bandit_either","AMPMTF5IAAMK8","either","8","","","","","","","76","L","3","","0","1","0","","0.3602312343","","31","","0.3436926249","main_expt","0.4","0.2279264959","0.6","","0.3192935598","0.8","0.3602312343","0.2","","","","","","","",""
"232","","bandit","110","402979","0.0-71.0-0.0","03956182","wem/bandit_either","AMPMTF5IAAMK8","either","8","","","","","","","76","L","3","","0","1","0","","0.3550043818","","32","","0.3392376576","main_expt","0.4","0.1922668126","0.6","","0.2910845839","0.8","0.3550043818","0.2","","","","","","","",""
"256","","bandit","111","404766","0.0-72.0-0.0","03956182","wem/bandit_either","AMPMTF5IAAMK8","either","8","","","","","","","76","L","3","","0","0","1","0.3927862597","","","33","0.2524106513","","main_expt","0.4","","0.6","0.1503247695","","0.8","","0.2","0.2956883229","0.3927862597","","","","","",""
"226","","bandit","112","406528","0.0-73.0-0.0","03956182","wem/bandit_either","AMPMTF5IAAMK8","either","8","","","","","","","76","L","3","","0","0","1","","0.4185963197","","34","","0.2378308988","main_expt","0.4","0.1875072744","0.6","","0.2918182698","0.8","0.4185963197","0.2","","","","","","","",""
"627","","bandit","113","408692","0.0-74.0-0.0","03956182","wem/bandit_either","AMPMTF5IAAMK8","either","8","","","","","","","72","H","0","img/none_selected.jpg","0","0","1","0.2683654211","","","35","0.2683654211","","main_expt","0.4","","0.6","0.2135507624","","0.8","","0.2","0.3063909307","0.441983755","","","","","",""
"308","","bandit","114","411387","0.0-75.0-0.0","03956182","wem/bandit_either","AMPMTF5IAAMK8","either","8","","","","","","","72","H","0","img/none_selected.jpg","0","1","0","","0.2645223933","","36","","0.2645223933","main_expt","0.4","0.2042402853","0.6","","0.2820805085","0.8","0.4352827683","0.2","","","","","","","",""
"14860","","bandit","115","427850","0.0-76.0-0.0","03956182","wem/bandit_either","AMPMTF5IAAMK8","either","8","","","","","","","72","H","0","img/none_selected.jpg","0","0","1","0.2360561858","","","37","0.2360561858","","main_expt","0.4","","0.6","0.2024605481","","0.8","","0.2","0.2610370824","0.450520142","","","","","",""
"94","","bandit","116","429490","0.0-77.0-0.0","03956182","wem/bandit_either","AMPMTF5IAAMK8","either","8","","","","","","","72","H","0","img/none_selected.jpg","0","0","1","","0.2001865083","","38","","0.2001865083","main_expt","0.4","0.1677713785","0.6","","0.1896233007","0.8","0.4681224698","0.2","","","","","","","",""
"162","","bandit","117","431171","0.0-78.0-0.0","03956182","wem/bandit_either","AMPMTF5IAAMK8","either","8","","","","","","","74","J","1","","0","0","1","0.221779122","","","39","0.1687915361","","main_expt","0.4","","0.6","0.221779122","","0.8","","0.2","0.168851025","0.4711022053","","","","","",""
"338","","bandit","118","433042","0.0-79.0-0.0","03956182","wem/bandit_either","AMPMTF5IAAMK8","either","8","","","","","","","74","J","1","","0","0","1","","0.2722397218","","40","","0.1503151413","main_expt","0.4","0.2722397218","0.6","","0.1615787635","0.8","0.4559447699","0.2","","","","","","","",""
"216","","bandit","119","434789","0.0-80.0-0.0","03956182","wem/bandit_either","AMPMTF5IAAMK8","either","8","","","","","","","75","K","2","","0","0","1","0.1472326003","","","41","0.08168262283","","main_expt","0.4","","0.6","0.3298230943","","0.8","","0.2","0.1472326003","0.4412687596","","","","","",""
"319","","bandit","120","436654","0.0-81.0-0.0","03956182","wem/bandit_either","AMPMTF5IAAMK8","either","8","","","","","","","75","K","2","","0","0","1","0.1533480506","","","42","0.07668629145","","main_expt","0.4","","0.6","0.3104885444","","0.8","","0.2","0.1533480506","0.4457751761","","","","","",""
"421","","bandit","121","438617","0.0-82.0-0.0","03956182","wem/bandit_either","AMPMTF5IAAMK8","either","8","","","","","","","76","L","3","","0","0","1","","0.4298378352","","43","","0.07394587158","main_expt","0.4","0.3005355489","0.6","","0.1414351437","0.8","0.4298378352","0.2","","","","","","","",""
"306","","bandit","122","440453","0.0-83.0-0.0","03956182","wem/bandit_either","AMPMTF5IAAMK8","either","8","","","","","","","76","L","3","","1","0","0","0.4416915379","","","44","0.1192337685","","main_expt","0.4","","0.6","0.2456242138","","0.8","","0.2","0.1067646429","0.4416915379","","","","","",""
"301","","bandit","123","442290","0.0-84.0-0.0","03956182","wem/bandit_either","AMPMTF5IAAMK8","either","8","","","","","","","76","L","3","","0","0","1","","0.3915522423","","45","","0.1285724119","main_expt","0.4","0.2839901561","0.6","","0.1250796286","0.8","0.3915522423","0.2","","","","","","","",""
"243","","bandit","124","444079","0.0-85.0-0.0","03956182","wem/bandit_either","AMPMTF5IAAMK8","either","8","","","","","","","76","L","3","","0","0","1","","0.4318427431","","46","","0.1112684106","main_expt","0.4","0.2353621531","0.6","","0.1927264636","0.8","0.4318427431","0.2","","","","","","","",""
"123","","bandit","125","445744","0.0-86.0-0.0","03956182","wem/bandit_either","AMPMTF5IAAMK8","either","8","","","","","","","72","H","0","img/none_selected.jpg","0","0","1","0.1207340475","","","47","0.1207340475","","main_expt","0.4","","0.6","0.2405257196","","0.8","","0.2","0.1804488412","0.4395998441","","","","","",""
"295","","bandit","126","447560","0.0-87.0-0.0","03956182","wem/bandit_either","AMPMTF5IAAMK8","either","8","","","","","","","72","H","0","img/none_selected.jpg","0","1","0","","0.1182533935","","48","","0.1182533935","main_expt","0.4","0.2629408555","0.6","","0.168268176","0.8","0.4630443269","0.2","","","","","","","",""
"250","","bandit","127","449346","0.0-88.0-0.0","03956182","wem/bandit_either","AMPMTF5IAAMK8","either","8","","","","","","","72","H","0","img/none_selected.jpg","0","0","1","0.1460801474","","","49","0.1460801474","","main_expt","0.4","","0.6","0.2902453213","","0.8","","0.2","0.1466838001","0.4794982466","","","","","",""
"273","","bandit","128","451152","0.0-89.0-0.0","03956182","wem/bandit_either","AMPMTF5IAAMK8","either","8","","","","","","","72","H","0","img/none_selected.jpg","0","0","1","0.1765155983","","","50","0.1765155983","","main_expt","0.4","","0.6","0.3033715012","","0.8","","0.2","0.1336340117","0.4562783041","","","","","",""
"99","","bandit","129","452787","0.0-90.0-0.0","03956182","wem/bandit_either","AMPMTF5IAAMK8","either","8","","","","","","","74","J","1","","0","0","1","0.3536831403","","","51","0.1614266163","","main_expt","0.4","","0.6","0.3536831403","","0.8","","0.2","0.1067821754","0.4515646323","","","","","",""
"224","","bandit","130","454541","0.0-91.0-0.0","03956182","wem/bandit_either","AMPMTF5IAAMK8","either","8","","","","","","","74","J","1","","0","0","1","0.3058792917","","","52","0.1938643747","","main_expt","0.4","","0.6","0.3058792917","","0.8","","0.2","0.07294577227","0.4344137529","","","","","",""
"317","","bandit","131","456409","0.0-92.0-0.0","03956182","wem/bandit_either","AMPMTF5IAAMK8","either","8","","","","","","","75","K","2","","0","0","1","0.07676454597","","","53","0.1721886996","","main_expt","0.4","","0.6","0.3466820038","","0.8","","0.2","0.07676454597","0.4421766306","","","","","",""
"410","","bandit","132","458358","0.0-93.0-0.0","03956182","wem/bandit_either","AMPMTF5IAAMK8","either","8","","","","","","","75","K","2","","0","0","1","0.07707135067","","","54","0.1542880765","","main_expt","0.4","","0.6","0.3159173384","","0.8","","0.2","0.07707135067","0.4591875032","","","","","",""
"266","","bandit","133","460166","0.0-94.0-0.0","03956182","wem/bandit_either","AMPMTF5IAAMK8","either","8","","","","","","","76","L","3","","0","0","1","0.4455250987","","","55","0.2155598061","","main_expt","0.4","","0.6","0.3205246683","","0.8","","0.2","0.08227932488","0.4455250987","","","","","",""
"309","","bandit","134","462005","0.0-95.0-0.0","03956182","wem/bandit_either","AMPMTF5IAAMK8","either","8","","","","","","","76","L","3","","0","1","0","","0.4200701886","","56","","0.199350645","main_expt","0.4","0.3067659888","0.6","","0.09013031375","0.8","0.4200701886","0.2","","","","","","","",""
"284","","bandit","135","463813","0.0-96.0-0.0","03956182","wem/bandit_either","AMPMTF5IAAMK8","either","8","","","","","","","76","L","3","","0","0","1","","0.3635567377","","57","","0.1991981904","main_expt","0.4","0.3786279545","0.6","","0.106866739","0.8","0.3635567377","0.2","","","","","","","",""
"317","","bandit","136","465678","0.0-97.0-0.0","03956182","wem/bandit_either","AMPMTF5IAAMK8","either","8","","","","","","","76","L","3","","0","1","0","","0.3647217687","","58","","0.1307276253","main_expt","0.4","0.3796022377","0.6","","0.0915584437","0.8","0.3647217687","0.2","","","","","","","",""
"213","","bandit","137","467442","0.0-98.0-0.0","03956182","wem/bandit_either","AMPMTF5IAAMK8","either","8","","","","","","","76","L","3","","0","1","0","","0.3975499765","","59","","0.1540949786","main_expt","0.4","0.3570845549","0.6","","0.1036540812","0.8","0.3975499765","0.2","","","","","","","",""
"110","","bandit","138","469092","0.0-99.0-0.0","03956182","wem/bandit_either","AMPMTF5IAAMK8","either","8","","","","","","","76","L","3","","0","0","1","0.376383165","","","60","0.1187181044","","main_expt","0.4","","0.6","0.398525789","","0.8","","0.2","0.07948280662","0.376383165","","","","","",""
"471","","bandit","139","471100","0.0-100.0-0.0","03956182","wem/bandit_either","AMPMTF5IAAMK8","either","8","","","","","","","76","L","3","","0","1","0","","0.3384437455","","61","","0.1734870435","main_expt","0.4","0.380986593","0.6","","0.0685056185","0.8","0.3384437455","0.2","","","","","","","",""
"338","","bandit","140","472976","0.0-101.0-0.0","03956182","wem/bandit_either","AMPMTF5IAAMK8","either","8","","","","","","","76","L","3","","0","1","0","","0.3086389155","","62","","0.2056999461","main_expt","0.4","0.3928002855","0.6","","0.04196312691","0.8","0.3086389155","0.2","","","","","","","",""
"442","","bandit","141","474959","0.0-102.0-0.0","03956182","wem/bandit_either","AMPMTF5IAAMK8","either","8","","","","","","","76","L","3","","0","1","0","","0.3098998428","","63","","0.2421495796","main_expt","0.4","0.4097838671","0.6","","0.06524357318","0.8","0.3098998428","0.2","","","","","","","",""
"286","","bandit","142","476792","0.0-103.0-0.0","03956182","wem/bandit_either","AMPMTF5IAAMK8","either","8","","","","","","","76","L","3","","0","0","1","0.2859800092","","","64","0.2678986655","","main_expt","0.4","","0.6","0.3942475769","","0.8","","0.2","0.04599317762","0.2859800092","","","","","",""
"109","","bandit","143","478420","0.0-104.0-0.0","03956182","wem/bandit_either","AMPMTF5IAAMK8","either","8","","","","","","","76","L","3","","1","0","0","0.2780623804","","","65","0.2780805564","","main_expt","0.4","","0.6","0.3756823908","","0.8","","0.2","0.04738713632","0.2780623804","","","","","",""
"312","","bandit","144","480261","0.0-105.0-0.0","03956182","wem/bandit_either","AMPMTF5IAAMK8","either","8","","","","","","","76","L","3","","0","0","1","","0.2740889186","","66","","0.2923516192","main_expt","0.4","0.3780323226","0.6","","0.02873144913","0.8","0.2740889186","0.2","","","","","","","",""
"260","","bandit","145","482058","0.0-106.0-0.0","03956182","wem/bandit_either","AMPMTF5IAAMK8","either","8","","","","","","","76","L","3","","0","0","1","","0.3122756929","","67","","0.3481747094","main_expt","0.4","0.382091886","0.6","","0.0355516853","0.8","0.3122756929","0.2","","","","","","","",""
"499","","bandit","146","484103","0.0-107.0-0.0","03956182","wem/bandit_either","AMPMTF5IAAMK8","either","8","","","","","","","76","L","3","","0","1","0","","0.3004294993","","68","","0.3540590834","main_expt","0.4","0.4080562953","0.6","","0.04483006882","0.8","0.3004294993","0.2","","","","","","","",""
"127","","bandit","147","485760","0.0-108.0-0.0","03956182","wem/bandit_either","AMPMTF5IAAMK8","either","8","","","","","","","76","L","3","","0","0","1","","0.3312842332","","69","","0.3348318208","main_expt","0.4","0.419826639","0.6","","0.04300650393","0.8","0.3312842332","0.2","","","","","","","",""
"341","","bandit","148","487642","0.0-109.0-0.0","03956182","wem/bandit_either","AMPMTF5IAAMK8","either","8","","","","","","","76","L","3","","1","0","0","0.2362018798","","","70","0.3844983113","","main_expt","0.4","","0.6","0.3889643965","","0.8","","0.2","0.03960880855","0.2362018798","","","","","",""
"337","","bandit","149","489514","0.0-110.0-0.0","03956182","wem/bandit_either","AMPMTF5IAAMK8","either","8","","","","","","","76","L","3","","0","0","1","","0.1838323472","","71","","0.3753843975","main_expt","0.4","0.3492343966","0.6","","0.02401392238","0.8","0.1838323472","0.2","","","","","","","",""
"407","","bandit","150","491454","0.0-111.0-0.0","03956182","wem/bandit_either","AMPMTF5IAAMK8","either","8","","","","","","","76","L","3","","0","0","1","","0.1749810972","","72","","0.3861429343","main_expt","0.4","0.3502155883","0.6","","0.008756159955","0.8","0.1749810972","0.2","","","","","","","",""
"296","","bandit","151","493289","0.0-112.0-0.0","03956182","wem/bandit_either","AMPMTF5IAAMK8","either","8","","","","","","","76","L","3","","0","0","1","","0.1664097112","","73","","0.3978436086","main_expt","0.4","0.3568691787","0.6","","0.006257651783","0.8","0.1664097112","0.2","","","","","","","",""
"331","","bandit","152","495151","0.0-113.0-0.0","03956182","wem/bandit_either","AMPMTF5IAAMK8","either","8","","","","","","","72","H","0","img/none_selected.jpg","0","0","1","0.3847979518","","","74","0.3847979518","","main_expt","0.4","","0.6","0.3303653739","","0.8","","0.2","0.004732084297","0.2001176207","","","","","",""
"272","","bandit","153","496963","0.0-114.0-0.0","03956182","wem/bandit_either","AMPMTF5IAAMK8","either","8","","","","","","","72","H","0","img/none_selected.jpg","0","0","1","0.3974319157","","","75","0.3974319157","","main_expt","0.4","","0.6","0.3353283381","","0.8","","0.2","0.006967558871","0.1848717924","","","","","",""
"350","","bandit","154","498849","0.0-115.0-0.0","03956182","wem/bandit_either","AMPMTF5IAAMK8","either","8","","","","","","","74","J","1","","0","0","1","0.3009524994","","","76","0.3987985884","","main_expt","0.4","","0.6","0.3009524994","","0.8","","0.2","0.004525860487","0.1510178238","","","","","",""
"349","","bandit","155","500748","0.0-116.0-0.0","03956182","wem/bandit_either","AMPMTF5IAAMK8","either","8","","","","","","","74","J","1","","0","0","1","0.3316028908","","","77","0.4127312768","","main_expt","0.4","","0.6","0.3316028908","","0.8","","0.2","0.007245535115","0.2089633591","","","","","",""
"275","","bandit","156","502555","0.0-117.0-0.0","03956182","wem/bandit_either","AMPMTF5IAAMK8","either","8","","","","","","","75","K","2","","0","0","1","0.00483057751","","","78","0.4257675477","","main_expt","0.4","","0.6","0.3571024926","","0.8","","0.2","0.00483057751","0.2285147345","","","","","",""
"317","","bandit","157","504419","0.0-118.0-0.0","03956182","wem/bandit_either","AMPMTF5IAAMK8","either","8","","","","","","","75","K","2","","0","0","1","0.005956317848","","","79","0.4331167668","","main_expt","0.4","","0.6","0.3542776451","","0.8","","0.2","0.005956317848","0.2246975601","","","","","",""
"386","","bandit","158","506344","0.0-119.0-0.0","03956182","wem/bandit_either","AMPMTF5IAAMK8","either","8","","","","","","","76","L","3","","0","0","1","","0.1878766281","","80","","0.4294395537","main_expt","0.4","0.3201174307","0.6","","0.0076590047","0.8","0.1878766281","0.2","","","","","","","",""
"328","","bandit","159","508395","0.0-120.0-0.0","03956182","wem/bandit_either","AMPMTF5IAAMK8","either","8","","","","","","","76","L","3","","0","0","1","","0.2436254364","","81","","0.4234249918","main_expt","0.4","0.3503003334","0.6","","0.009115568074","0.8","0.2436254364","0.2","","","","","","","",""
"21296","","bandit","160","531383","0.0-121.0-0.0","03956182","wem/bandit_either","AMPMTF5IAAMK8","either","8","","","","","","","72","H","0","img/none_selected.jpg","0","0","1","","0.3956977209","","82","","0.3956977209","main_expt","0.4","0.3509066846","0.6","","0.01382977225","0.8","0.2627531714","0.2","","","","","","","",""
"403","","bandit","161","533329","0.0-122.0-0.0","03956182","wem/bandit_either","AMPMTF5IAAMK8","either","8","","","","","","","74","J","1","","0","1","0","","0.3951868033","","83","","0.4248650233","main_expt","0.4","0.3951868033","0.6","","0.01500629599","0.8","0.2672212524","0.2","","","","","","","",""
"281","","bandit","162","535151","0.0-123.0-0.0","03956182","wem/bandit_either","AMPMTF5IAAMK8","either","8","","","","","","","74","J","1","","0","1","0","","0.4131477378","","84","","0.4196907627","main_expt","0.4","0.4131477378","0.6","","0.02310127573","0.8","0.2817484998","0.2","","","","","","","",""
"283","","bandit","163","536961","0.0-124.0-0.0","03956182","wem/bandit_either","AMPMTF5IAAMK8","either","8","","","","","","","74","J","1","","0","0","1","","0.3889697292","","85","","0.435633498","main_expt","0.4","0.3889697292","0.6","","0.02639065846","0.8","0.3074775227","0.2","","","","","","","",""
"340","","bandit","164","538846","0.0-125.0-0.0","03956182","wem/bandit_either","AMPMTF5IAAMK8","either","8","","","","","","","74","J","1","","1","0","0","0.3885636443","","","86","0.4322222521","","main_expt","0.4","","0.6","0.3885636443","","0.8","","0.2","0.01746441632","0.2717847629","","","","","",""
"272","","bandit","165","540668","0.0-126.0-0.0","03956182","wem/bandit_either","AMPMTF5IAAMK8","either","8","","","","","","","74","J","1","","0","0","1","0.4028282504","","","87","0.4476119451","","main_expt","0.4","","0.6","0.4028282504","","0.8","","0.2","0.01256144444","0.2183858348","","","","","",""
"240","","bandit","166","542460","0.0-127.0-0.0","03956182","wem/bandit_either","AMPMTF5IAAMK8","either","8","","","","","","","74","J","1","","1","0","0","0.4306890759","","","88","0.4073123198","","main_expt","0.4","","0.6","0.4306890759","","0.8","","0.2","0.01178158386","0.2054961256","","","","","",""
"294","","bandit","167","544305","0.0-128.0-0.0","03956182","wem/bandit_either","AMPMTF5IAAMK8","either","8","","","","","","","74","J","1","","0","0","1","","0.4103738654","","89","","0.3862301724","main_expt","0.4","0.4103738654","0.6","","0.008722555822","0.8","0.1452714398","0.2","","","","","","","",""
"284","","bandit","168","546389","0.0-129.0-0.0","03956182","wem/bandit_either","AMPMTF5IAAMK8","either","8","","","","","","","74","J","1","","0","0","1","","0.3980827974","","90","","0.3596745144","main_expt","0.4","0.3980827974","0.6","","0.008232471735","0.8","0.1077779513","0.2","","","","","","","",""
"15855","","bandit","169","563778","0.0-130.0-0.0","03956182","wem/bandit_either","AMPMTF5IAAMK8","either","8","","","","","","","74","J","1","","1","0","0","0.4040531024","","","91","0.3082854458","","main_expt","0.4","","0.6","0.4040531024","","0.8","","0.2","0.01249180717","0.1308407065","","","","","",""
"292","","bandit","170","565611","0.0-131.0-0.0","03956182","wem/bandit_either","AMPMTF5IAAMK8","either","8","","","","","","","74","J","1","","1","0","0","0.3462944796","","","92","0.312225492","","main_expt","0.4","","0.6","0.3462944796","","0.8","","0.2","0.01470986316","0.1652322036","","","","","",""
"274","","bandit","171","567423","0.0-132.0-0.0","03956182","wem/bandit_either","AMPMTF5IAAMK8","either","8","","","","","","","74","J","1","","0","0","1","0.3411451966","","","93","0.3671658277","","main_expt","0.4","","0.6","0.3411451966","","0.8","","0.2","0.02655281846","0.1344678182","","","","","",""
"247","","bandit","172","569209","0.0-133.0-0.0","03956182","wem/bandit_either","AMPMTF5IAAMK8","either","8","","","","","","","74","J","1","","0","0","1","","0.3384154489","","94","","0.3401731108","main_expt","0.4","0.3384154489","0.6","","0.02575246025","0.8","0.1301314301","0.2","","","","","","","",""
"459","","bandit","173","571199","0.0-134.0-0.0","03956182","wem/bandit_either","AMPMTF5IAAMK8","either","8","","","","","","","74","J","1","","1","0","0","0.3126988266","","","95","0.3413923724","","main_expt","0.4","","0.6","0.3126988266","","0.8","","0.2","0.02262355665","0.1746055711","","","","","",""
"139","","bandit","174","572859","0.0-135.0-0.0","03956182","wem/bandit_either","AMPMTF5IAAMK8","either","8","","","","","","","74","J","1","","0","0","1","0.3800019137","","","96","0.3570420485","","main_expt","0.4","","0.6","0.3800019137","","0.8","","0.2","0.02047181149","0.1994244555","","","","","",""
"557","","bandit","175","574946","0.0-136.0-0.0","03956182","wem/bandit_either","AMPMTF5IAAMK8","either","8","","","","","","","74","J","1","","1","0","0","0.3328121005","","","97","0.3435474977","","main_expt","0.4","","0.6","0.3328121005","","0.8","","0.2","0.0207754381","0.1834602947","","","","","",""
"312","","bandit","176","576796","0.0-137.0-0.0","03956182","wem/bandit_either","AMPMTF5IAAMK8","either","8","","","","","","","74","J","1","","0","0","1","0.332228596","","","98","0.3614714926","","main_expt","0.4","","0.6","0.332228596","","0.8","","0.2","0.02955834597","0.1719221531","","","","","",""
"175","","bandit","177","578501","0.0-138.0-0.0","03956182","wem/bandit_either","AMPMTF5IAAMK8","either","8","","","","","","","74","J","1","","0","0","1","0.2843854285","","","99","0.3176405447","","main_expt","0.4","","0.6","0.2843854285","","0.8","","0.2","0.0383131093","0.1183399241","","","","","",""
"383","","bandit","178","580430","0.0-139.0-0.0","03956182","wem/bandit_either","AMPMTF5IAAMK8","either","8","","","","","","","74","J","1","","0","0","1","0.309751149","","","100","0.3586553183","","main_expt","0.4","","0.6","0.309751149","","0.8","","0.2","0.03580757471","0.1558635017","","","","","",""
"345","","bandit","179","582311","0.0-140.0-0.0","03956182","wem/bandit_either","AMPMTF5IAAMK8","either","8","","","","","","","75","K","2","","0","0","1","0.04899620691","","","101","0.2951503345","","main_expt","0.4","","0.6","0.2993195944","","0.8","","0.2","0.04899620691","0.1389665978","","","","","",""
"286","","bandit","180","584151","0.0-141.0-0.0","03956182","wem/bandit_either","AMPMTF5IAAMK8","either","8","","","","","","","75","K","2","","0","0","1","0.08055650644","","","102","0.2998391809","","main_expt","0.4","","0.6","0.3551890872","","0.8","","0.2","0.08055650644","0.1377203561","","","","","",""
"543","","bandit","181","586222","0.0-142.0-0.0","03956182","wem/bandit_either","AMPMTF5IAAMK8","either","8","","","","","","","75","K","2","","0","0","1","0.1040447627","","","103","0.2791823827","","main_expt","0.4","","0.6","0.3148404956","","0.8","","0.2","0.1040447627","0.1285548106","","","","","",""
"164","","bandit","182","587909","0.0-143.0-0.0","03956182","wem/bandit_either","AMPMTF5IAAMK8","either","8","","","","","","","76","L","3","","0","0","1","","0.1555523735","","104","","0.3382769334","main_expt","0.4","0.3286912191","0.6","","0.1143547335","0.8","0.1555523735","0.2","","","","","","","",""
"42342","","bandit","183","631779","0.0-144.0-0.0","03956182","wem/bandit_either","AMPMTF5IAAMK8","either","8","","","","","","","72","H","0","img/none_selected.jpg","0","0","1","","0.3339697125","","105","","0.3339697125","main_expt","0.4","0.298340497","0.6","","0.1487676438","0.8","0.1775592141","0.2","","","","","","","",""
"481","","bandit","184","633793","0.0-145.0-0.0","03956182","wem/bandit_either","AMPMTF5IAAMK8","either","8","","","","","","","72","H","0","img/none_selected.jpg","0","0","1","","0.3124129253","","106","","0.3124129253","main_expt","0.4","0.3504464386","0.6","","0.152088545","0.8","0.2263451353","0.2","","","","","","","",""
"295","","bandit","185","635618","0.0-146.0-0.0","03956182","wem/bandit_either","AMPMTF5IAAMK8","either","8","","","","","","","74","J","1","","0","0","1","","0.3510410077","","107","","0.3400683723","main_expt","0.4","0.3510410077","0.6","","0.2406734145","0.8","0.1679769802","0.2","","","","","","","",""
"357","","bandit","186","637506","0.0-147.0-0.0","03956182","wem/bandit_either","AMPMTF5IAAMK8","either","8","","","","","","","74","J","1","","0","0","1","0.3282766846","","","108","0.3557340834","","main_expt","0.4","","0.6","0.3282766846","","0.8","","0.2","0.3048040024","0.1999870147","","","","","",""
"370","","bandit","187","639408","0.0-148.0-0.0","03956182","wem/bandit_either","AMPMTF5IAAMK8","either","8","","","","","","","75","K","2","","0","1","0","","0.3418503096","","109","","0.3846418901","main_expt","0.4","0.3561186451","0.6","","0.3418503096","0.8","0.208992856","0.2","","","","","","","",""
"256","","bandit","188","641198","0.0-149.0-0.0","03956182","wem/bandit_either","AMPMTF5IAAMK8","either","8","","","","","","","75","K","2","","0","0","1","0.3198501315","","","110","0.4057962062","","main_expt","0.4","","0.6","0.3576445865","","0.8","","0.2","0.3198501315","0.1716040471","","","","","",""
"325","","bandit","189","643053","0.0-150.0-0.0","03956182","wem/bandit_either","AMPMTF5IAAMK8","either","8","","","","","","","75","K","2","","0","0","1","0.3681534847","","","111","0.3692451483","","main_expt","0.4","","0.6","0.3377543854","","0.8","","0.2","0.3681534847","0.08984071331","","","","","",""
"458","","bandit","190","645032","0.0-151.0-0.0","03956182","wem/bandit_either","AMPMTF5IAAMK8","either","8","","","","","","","75","K","2","","1","0","0","0.3757830796","","","112","0.3577317973","","main_expt","0.4","","0.6","0.286234052","","0.8","","0.2","0.3757830796","0.1243463141","","","","","",""
"309","","bandit","191","646868","0.0-152.0-0.0","03956182","wem/bandit_either","AMPMTF5IAAMK8","either","8","","","","","","","75","K","2","","0","0","1","0.3838999828","","","113","0.3328808086","","main_expt","0.4","","0.6","0.1932674395","","0.8","","0.2","0.3838999828","0.1433440675","","","","","",""
"396","","bandit","192","648792","0.0-153.0-0.0","03956182","wem/bandit_either","AMPMTF5IAAMK8","either","8","","","","","","","75","K","2","","0","0","1","0.4157938717","","","114","0.3416979579","","main_expt","0.4","","0.6","0.2403040534","","0.8","","0.2","0.4157938717","0.1510662198","","","","","",""
"317","","bandit","193","650641","0.0-154.0-0.0","03956182","wem/bandit_either","AMPMTF5IAAMK8","either","8","","","","","","","76","L","3","","0","0","1","0.09845245139","","","115","0.3377137281","","main_expt","0.4","","0.6","0.254937398","","0.8","","0.2","0.4055870595","0.09845245139","","","","","",""
"250","","bandit","194","652414","0.0-155.0-0.0","03956182","wem/bandit_either","AMPMTF5IAAMK8","either","8","","","","","","","76","L","3","","0","1","0","","0.107393795","","116","","0.3039448029","main_expt","0.4","0.2605063941","0.6","","0.4161015278","0.8","0.107393795","0.2","","","","","","","",""
"139","","bandit","195","654077","0.0-156.0-0.0","03956182","wem/bandit_either","AMPMTF5IAAMK8","either","8","","","","","","","76","L","3","","0","0","1","","0.07879800556","","117","","0.2974336912","main_expt","0.4","0.2161328783","0.6","","0.414877819","0.8","0.07879800556","0.2","","","","","","","",""
"112","","bandit","196","655724","0.0-157.0-0.0","03956182","wem/bandit_either","AMPMTF5IAAMK8","either","8","","","","","","","76","L","3","","0","1","0","","0.08383735875","","118","","0.2651867246","main_expt","0.4","0.1931197841","0.6","","0.3968259953","0.8","0.08383735875","0.2","","","","","","","",""
"282","","bandit","197","657523","0.0-158.0-0.0","03956182","wem/bandit_either","AMPMTF5IAAMK8","either","8","","","","","","","76","L","3","","0","0","1","","0.1392474383","","119","","0.3131666206","main_expt","0.4","0.1638183597","0.6","","0.4198241006","0.8","0.1392474383","0.2","","","","","","","",""
"165","","bandit","198","659223","0.0-159.0-0.0","03956182","wem/bandit_either","AMPMTF5IAAMK8","either","8","","","","","","","76","L","3","","0","1","0","","0.1649404926","","120","","0.358829095","main_expt","0.4","0.1893282748","0.6","","0.4286088018","0.8","0.1649404926","0.2","","","","","","","",""
"246","","bandit","199","660998","0.0-160.0-0.0","03956182","wem/bandit_either","AMPMTF5IAAMK8","either","8","","","","","","","76","L","3","","0","0","1","","0.1764152442","","121","","0.3189860171","main_expt","0.4","0.2290368179","0.6","","0.4253829576","0.8","0.1764152442","0.2","","","","","","","",""
"249","","bandit","200","662806","0.0-161.0-0.0","03956182","wem/bandit_either","AMPMTF5IAAMK8","either","8","","","","","","","76","L","3","","0","0","1","0.2092397698","","","122","0.3011672979","","main_expt","0.4","","0.6","0.2445441383","","0.8","","0.2","0.4235175979","0.2092397698","","","","","",""
"179","","bandit","201","664522","0.0-162.0-0.0","03956182","wem/bandit_either","AMPMTF5IAAMK8","either","8","","","","","","","72","H","0","img/none_selected.jpg","0","0","1","0.3037948063","","","123","0.3037948063","","main_expt","0.4","","0.6","0.2091075756","","0.8","","0.2","0.4182090072","0.1884058447","","","","","",""
"159","","bandit","202","666209","0.0-163.0-0.0","03956182","wem/bandit_either","AMPMTF5IAAMK8","either","8","","","","","","","72","H","0","img/none_selected.jpg","0","0","1","","0.2446200253","","124","","0.2446200253","main_expt","0.4","0.2216111921","0.6","","0.4356016004","0.8","0.1876417206","0.2","","","","","","","",""
"98","","bandit","203","667835","0.0-164.0-0.0","03956182","wem/bandit_either","AMPMTF5IAAMK8","either","8","","","","","","","74","J","1","","0","0","1","0.1622020501","","","125","0.2464628806","","main_expt","0.4","","0.6","0.1622020501","","0.8","","0.2","0.403953628","0.1890564589","","","","","",""
"238","","bandit","204","669601","0.0-165.0-0.0","03956182","wem/bandit_either","AMPMTF5IAAMK8","either","8","","","","","","","74","J","1","","0","0","1","","0.173533554","","126","","0.281169445","main_expt","0.4","0.173533554","0.6","","0.4020675328","0.8","0.1659850756","0.2","","","","","","","",""
"383","","bandit","205","671511","0.0-166.0-0.0","03956182","wem/bandit_either","AMPMTF5IAAMK8","either","8","","","","","","","75","K","2","","0","0","1","0.338443572","","","127","0.290080064","","main_expt","0.4","","0.6","0.189829559","","0.8","","0.2","0.338443572","0.2006343121","","","","","",""
"295","","bandit","206","673332","0.0-167.0-0.0","03956182","wem/bandit_either","AMPMTF5IAAMK8","either","8","","","","","","","75","K","2","","1","0","0","0.323123489","","","128","0.3280989756","","main_expt","0.4","","0.6","0.1764696366","","0.8","","0.2","0.323123489","0.2637444583","","","","","",""
"298","","bandit","207","675170","0.0-168.0-0.0","03956182","wem/bandit_either","AMPMTF5IAAMK8","either","8","","","","","","","75","K","2","","0","0","1","","0.3615310162","","129","","0.3052704822","main_expt","0.4","0.172709194","0.6","","0.3615310162","0.8","0.2783394686","0.2","","","","","","","",""
"297","","bandit","208","676998","0.0-169.0-0.0","03956182","wem/bandit_either","AMPMTF5IAAMK8","either","8","","","","","","","75","K","2","","1","0","0","0.3667448715","","","130","0.314718742","","main_expt","0.4","","0.6","0.1407460215","","0.8","","0.2","0.3667448715","0.2674474002","","","","","",""
"293","","bandit","209","678832","0.0-170.0-0.0","03956182","wem/bandit_either","AMPMTF5IAAMK8","either","8","","","","","","","75","K","2","","0","0","1","0.341745941","","","131","0.2492347367","","main_expt","0.4","","0.6","0.143826562","","0.8","","0.2","0.341745941","0.2122920843","","","","","",""
"129","","bandit","210","680493","0.0-171.0-0.0","03956182","wem/bandit_either","AMPMTF5IAAMK8","either","8","","","","","","","75","K","2","","0","0","1","","0.2615325727","","132","","0.2495736985","main_expt","0.4","0.1862992663","0.6","","0.2615325727","0.8","0.1969346152","0.2","","","","","","","",""
"528","","bandit","211","682555","0.0-172.0-0.0","03956182","wem/bandit_either","AMPMTF5IAAMK8","either","8","","","","","","","75","K","2","","0","0","1","0.27905624","","","133","0.2487120015","","main_expt","0.4","","0.6","0.185648564","","0.8","","0.2","0.27905624","0.1390835973","","","","","",""
"420","","bandit","212","684501","0.0-173.0-0.0","03956182","wem/bandit_either","AMPMTF5IAAMK8","either","8","","","","","","","76","L","3","","0","0","1","","0.1437640715","","134","","0.3239420422","main_expt","0.4","0.2002276213","0.6","","0.2751163123","0.8","0.1437640715","0.2","","","","","","","",""
"238","","bandit","213","686263","0.0-174.0-0.0","03956182","wem/bandit_either","AMPMTF5IAAMK8","either","8","","","","","","","76","L","3","","0","0","1","","0.1175999949","","135","","0.3903525049","main_expt","0.4","0.2474552851","0.6","","0.2586507773","0.8","0.1175999949","0.2","","","","","","","",""
"351","","bandit","214","688145","0.0-175.0-0.0","03956182","wem/bandit_either","AMPMTF5IAAMK8","either","8","","","","","","","72","H","0","img/none_selected.jpg","0","0","1","","0.3703049055","","136","","0.3703049055","main_expt","0.4","0.2454982057","0.6","","0.2385277364","0.8","0.1108499649","0.2","","","","","","","",""
"271","","bandit","215","689950","0.0-176.0-0.0","03956182","wem/bandit_either","AMPMTF5IAAMK8","either","8","","","","","","","72","H","0","img/none_selected.jpg","0","0","1","","0.3657944308","","137","","0.3657944308","main_expt","0.4","0.2708690816","0.6","","0.1935782534","0.8","0.1208727618","0.2","","","","","","","",""
"464","","bandit","216","691942","0.0-177.0-0.0","03956182","wem/bandit_either","AMPMTF5IAAMK8","either","8","","","","","","","74","J","1","","1","0","0","0.2219039101","","","138","0.3452946514","","main_expt","0.4","","0.6","0.2219039101","","0.8","","0.2","0.14087624","0.1098805161","","","","","",""
"250","","bandit","217","693734","0.0-178.0-0.0","03956182","wem/bandit_either","AMPMTF5IAAMK8","either","8","","","","","","","74","J","1","","0","0","1","","0.2485571535","","139","","0.3225052804","main_expt","0.4","0.2485571535","0.6","","0.1340930794","0.8","0.1359731218","0.2","","","","","","","",""
"242","","bandit","218","695501","0.0-179.0-0.0","03956182","wem/bandit_either","AMPMTF5IAAMK8","either","8","","","","","","","74","J","1","","0","0","1","0.2605640439","","","140","0.2997250911","","main_expt","0.4","","0.6","0.2605640439","","0.8","","0.2","0.1170750994","0.1419248406","","","","","",""
"1001","","bandit","219","698024","0.0-180.0-0.0","03956182","wem/bandit_either","AMPMTF5IAAMK8","either","8","","","","","","","74","J","1","","0","0","1","0.2260680923","","","141","0.311933389","","main_expt","0.4","","0.6","0.2260680923","","0.8","","0.2","0.1316830279","0.1269577117","","","","","",""
"345","","bandit","220","699897","0.0-181.0-0.0","03956182","wem/bandit_either","AMPMTF5IAAMK8","either","8","","","","","","","75","K","2","","0","0","1","0.09490366034","","","142","0.3442568425","","main_expt","0.4","","0.6","0.2354846983","","0.8","","0.2","0.09490366034","0.1073819056","","","","","",""
"233","","bandit","221","701660","0.0-182.0-0.0","03956182","wem/bandit_either","AMPMTF5IAAMK8","either","8","","","","","","","75","K","2","","0","0","1","0.1246024154","","","143","0.3117203045","","main_expt","0.4","","0.6","0.2089358464","","0.8","","0.2","0.1246024154","0.1152767294","","","","","",""
"248","","bandit","222","703431","0.0-183.0-0.0","03956182","wem/bandit_either","AMPMTF5IAAMK8","either","8","","","","","","","76","L","3","","0","0","1","","0.1317444946","","144","","0.3080771123","main_expt","0.4","0.1844607625","0.6","","0.1179874238","0.8","0.1317444946","0.2","","","","","","","",""
"265","","bandit","223","705223","0.0-184.0-0.0","03956182","wem/bandit_either","AMPMTF5IAAMK8","either","8","","","","","","","76","L","3","","0","0","1","","0.1058600218","","145","","0.3146876691","main_expt","0.4","0.1940384654","0.6","","0.1211842963","0.8","0.1058600218","0.2","","","","","","","",""
"307","","bandit","224","707054","0.0-185.0-0.0","03956182","wem/bandit_either","AMPMTF5IAAMK8","either","8","","","","","","","72","H","0","img/none_selected.jpg","0","1","0","","0.3526806189","","146","","0.3526806189","main_expt","0.4","0.2532022814","0.6","","0.06212451067","0.8","0.1862633901","0.2","","","","","","","",""
"304","","bandit","225","708887","0.0-186.0-0.0","03956182","wem/bandit_either","AMPMTF5IAAMK8","either","8","","","","","","","72","H","0","img/none_selected.jpg","0","0","1","","0.3859334927","","147","","0.3859334927","main_expt","0.4","0.272856749","0.6","","0.05826033827","0.8","0.1944793183","0.2","","","","","","","",""
"54","","bandit","226","710480","0.0-187.0-0.0","03956182","wem/bandit_either","AMPMTF5IAAMK8","either","8","","","","","","","72","H","0","img/none_selected.jpg","0","1","0","","0.4089873985","","148","","0.4089873985","main_expt","0.4","0.2441255329","0.6","","0.04847575149","0.8","0.1572605535","0.2","","","","","","","",""
"292","","bandit","227","712302","0.0-188.0-0.0","03956182","wem/bandit_either","AMPMTF5IAAMK8","either","8","","","","","","","72","H","0","img/none_selected.jpg","0","0","1","","0.3317076441","","149","","0.3317076441","main_expt","0.4","0.2304797635","0.6","","0.07397138717","0.8","0.1632070519","0.2","","","","","","","",""
"279","","bandit","228","714111","0.0-189.0-0.0","03956182","wem/bandit_either","AMPMTF5IAAMK8","either","8","","","","","","","72","H","0","img/none_selected.jpg","0","0","1","0.2514439341","","","150","0.2514439341","","main_expt","0.4","","0.6","0.2645424191","","0.8","","0.2","0.1178437277","0.2162169298","","","","","",""
"200","","bandit","229","715862","0.0-190.0-0.0","03956182","wem/bandit_either","AMPMTF5IAAMK8","either","8","","","","","","","72","H","0","img/none_selected.jpg","0","0","1","","0.2209696772","","151","","0.2209696772","main_expt","0.4","0.2919476008","0.6","","0.1116740648","0.8","0.2806681102","0.2","","","","","","","",""
"218","","bandit","230","717609","0.0-191.0-0.0","03956182","wem/bandit_either","AMPMTF5IAAMK8","either","8","","","","","","","74","J","1","","0","1","0","","0.3004198658","","152","","0.2004300668","main_expt","0.4","0.3004198658","0.6","","0.09681320826","0.8","0.25223767","0.2","","","","","","","",""
"266","","bandit","231","719405","0.0-192.0-0.0","03956182","wem/bandit_either","AMPMTF5IAAMK8","either","8","","","","","","","74","J","1","","0","0","1","","0.2910243242","","153","","0.1803159607","main_expt","0.4","0.2910243242","0.6","","0.1162344283","0.8","0.2259503681","0.2","","","","","","","",""
"236","","bandit","232","721183","0.0-193.0-0.0","03956182","wem/bandit_either","AMPMTF5IAAMK8","either","8","","","","","","","74","J","1","","0","1","0","","0.2858680692","","154","","0.1793353988","main_expt","0.4","0.2858680692","0.6","","0.1441765144","0.8","0.2520515582","0.2","","","","","","","",""
"270","","bandit","233","722987","0.0-194.0-0.0","03956182","wem/bandit_either","AMPMTF5IAAMK8","either","8","","","","","","","74","J","1","","0","0","1","0.276906037","","","155","0.175125938","","main_expt","0.4","","0.6","0.276906037","","0.8","","0.2","0.1506434262","0.246895917","","","","","",""
"109","","bandit","234","724626","0.0-195.0-0.0","03956182","wem/bandit_either","AMPMTF5IAAMK8","either","8","","","","","","","74","J","1","","0","0","1","","0.3087514371","","156","","0.19004546","main_expt","0.4","0.3087514371","0.6","","0.1691825384","0.8","0.2067462234","0.2","","","","","","","",""
"36","","bandit","235","726201","0.0-196.0-0.0","03956182","wem/bandit_either","AMPMTF5IAAMK8","either","8","","","","","","","75","K","2","","0","0","1","0.1465267651","","","157","0.1538528063","","main_expt","0.4","","0.6","0.3400763937","","0.8","","0.2","0.1465267651","0.1736677602","","","","","",""
"150","","bandit","236","727871","0.0-197.0-0.0","03956182","wem/bandit_either","AMPMTF5IAAMK8","either","8","","","","","","","75","K","2","","0","0","1","0.1517260174","","","158","0.1624419901","","main_expt","0.4","","0.6","0.3388441277","","0.8","","0.2","0.1517260174","0.2437422656","","","","","",""
"23","","bandit","237","729431","0.0-198.0-0.0","03956182","wem/bandit_either","AMPMTF5IAAMK8","either","8","","","","","","","76","L","3","","0","0","1","","0.2627628197","","159","","0.1749682205","main_expt","0.4","0.3496437485","0.6","","0.143579764","0.8","0.2627628197","0.2","","","","","","","",""
"130","","bandit","238","731091","0.0-199.0-0.0","03956182","wem/bandit_either","AMPMTF5IAAMK8","either","8","","","","","","","76","L","3","","0","0","1","0.2532756584","","","160","0.2227833177","","main_expt","0.4","","0.6","0.3347491532","","0.8","","0.2","0.1701049762","0.2532756584","","","","","",""
"14","","bandit","239","732649","0.0-200.0-0.0","03956182","wem/bandit_either","AMPMTF5IAAMK8","either","8","","","","","","","72","H","0","img/none_selected.jpg","0","0","1","","0.1616195486","","161","","0.1616195486","main_expt","0.4","0.3036625801","0.6","","0.1596038406","0.8","0.2846030245","0.2","","","","","","","",""
"201","","bandit","240","734376","0.0-201.0-0.0","03956182","wem/bandit_either","AMPMTF5IAAMK8","either","8","","","","","","","72","H","0","img/none_selected.jpg","1","0","0","0.1440802068","","","162","0.1440802068","","main_expt","0.4","","0.6","0.2735804545","","0.8","","0.2","0.1186271452","0.2480450928","","","","","",""
"236","","bandit","241","736147","0.0-202.0-0.0","03956182","wem/bandit_either","AMPMTF5IAAMK8","either","8","","","","","","","72","H","0","img/none_selected.jpg","0","0","1","0.1349250059","","","163","0.1349250059","","main_expt","0.4","","0.6","0.2219233964","","0.8","","0.2","0.1460830151","0.3217860246","","","","","",""
"247","","bandit","242","737928","0.0-203.0-0.0","03956182","wem/bandit_either","AMPMTF5IAAMK8","either","8","","","","","","","72","H","0","img/none_selected.jpg","0","0","1","0.1482528248","","","164","0.1482528248","","main_expt","0.4","","0.6","0.2489701673","","0.8","","0.2","0.1924179555","0.3528623486","","","","","",""
"59","","bandit","243","739519","0.0-204.0-0.0","03956182","wem/bandit_either","AMPMTF5IAAMK8","either","8","","","","","","","72","H","0","img/none_selected.jpg","0","0","1","","0.1444116863","","165","","0.1444116863","main_expt","0.4","0.2424219606","0.6","","0.1909643941","0.8","0.3113737792","0.2","","","","","","","",""
"140","","bandit","244","741190","0.0-205.0-0.0","03956182","wem/bandit_either","AMPMTF5IAAMK8","either","8","","","","","","","74","J","1","","0","1","0","","0.1899742571","","166","","0.1621449425","main_expt","0.4","0.1899742571","0.6","","0.1917506842","0.8","0.2820045276","0.2","","","","","","","",""
"67","","bandit","245","742786","0.0-206.0-0.0","03956182","wem/bandit_either","AMPMTF5IAAMK8","either","8","","","","","","","74","J","1","","0","0","1","0.2298880826","","","167","0.1695256229","","main_expt","0.4","","0.6","0.2298880826","","0.8","","0.2","0.2238056512","0.2539690707","","","","","",""
"173","","bandit","246","744513","0.0-207.0-0.0","03956182","wem/bandit_either","AMPMTF5IAAMK8","either","8","","","","","","","74","J","1","","1","0","0","0.241220494","","","168","0.1712445676","","main_expt","0.4","","0.6","0.241220494","","0.8","","0.2","0.2132240521","0.2177565821","","","","","",""
"288","","bandit","247","746337","0.0-208.0-0.0","03956182","wem/bandit_either","AMPMTF5IAAMK8","either","8","","","","","","","74","J","1","","0","0","1","0.2113351254","","","169","0.191079104","","main_expt","0.4","","0.6","0.2113351254","","0.8","","0.2","0.1363713625","0.183214586","","","","","",""
"101","","bandit","248","747969","0.0-209.0-0.0","03956182","wem/bandit_either","AMPMTF5IAAMK8","either","8","","","","","","","74","J","1","","0","0","1","","0.2224744884","","170","","0.2227666825","main_expt","0.4","0.2224744884","0.6","","0.2007690262","0.8","0.1757282231","0.2","","","","","","","",""
"146","","bandit","249","749651","0.0-210.0-0.0","03956182","wem/bandit_either","AMPMTF5IAAMK8","either","8","","","","","","","75","K","2","","0","1","0","","0.1238998316","","171","","0.2719914804","main_expt","0.4","0.262177911","0.6","","0.1238998316","0.8","0.1679331046","0.2","","","","","","","",""
"285","","bandit","250","751467","0.0-211.0-0.0","03956182","wem/bandit_either","AMPMTF5IAAMK8","either","8","","","","","","","75","K","2","","0","0","1","0.09746419185","","","172","0.2330128459","","main_expt","0.4","","0.6","0.2822992514","","0.8","","0.2","0.09746419185","0.14560319","","","","","",""
"228","","bandit","251","753218","0.0-212.0-0.0","03956182","wem/bandit_either","AMPMTF5IAAMK8","either","8","","","","","","","75","K","2","","0","0","1","0.1018164217","","","173","0.2840251313","","main_expt","0.4","","0.6","0.2545762091","","0.8","","0.2","0.1018164217","0.1341549344","","","","","",""
"97","","bandit","252","754846","0.0-213.0-0.0","03956182","wem/bandit_either","AMPMTF5IAAMK8","either","8","","","","","","","74","J","1","","0","1","0","","0.2838184637","","174","","0.2739042306","main_expt","0.4","0.2838184637","0.6","","0.1401689619","0.8","0.1471305278","0.2","","","","","","","",""
"226","","bandit","253","756609","0.0-214.0-0.0","03956182","wem/bandit_either","AMPMTF5IAAMK8","either","8","","","","","","","74","J","1","","0","0","1","0.3002790513","","","175","0.3444735506","","main_expt","0.4","","0.6","0.3002790513","","0.8","","0.2","0.1697524679","0.173963405","","","","","",""
"132","","bandit","254","758289","0.0-215.0-0.0","03956182","wem/bandit_either","AMPMTF5IAAMK8","either","8","","","","","","","74","J","1","","0","1","0","","0.3771690292","","176","","0.3223017316","main_expt","0.4","0.3771690292","0.6","","0.1896898672","0.8","0.1821857965","0.2","","","","","","","",""
"214","","bandit","255","760036","0.0-216.0-0.0","03956182","wem/bandit_either","AMPMTF5IAAMK8","either","8","","","","","","","74","J","1","","0","0","1","","0.4047809956","","177","","0.2964924158","main_expt","0.4","0.4047809956","0.6","","0.2441254625","0.8","0.1444884472","0.2","","","","","","","",""
"182","","bandit","256","761751","0.0-217.0-0.0","03956182","wem/bandit_either","AMPMTF5IAAMK8","either","8","","","","","","","74","J","1","","0","0","1","","0.4344960837","","178","","0.2780576925","main_expt","0.4","0.4344960837","0.6","","0.2427722412","0.8","0.1207783293","0.2","","","","","","","",""
"38","","bandit","257","763323","0.0-218.0-0.0","03956182","wem/bandit_either","AMPMTF5IAAMK8","either","8","","","","","","","75","K","2","","0","0","1","","0.2284650367","","179","","0.2859751729","main_expt","0.4","0.4287912686","0.6","","0.2284650367","0.8","0.111585665","0.2","","","","","","","",""
"144","","bandit","258","765001","0.0-219.0-0.0","03956182","wem/bandit_either","AMPMTF5IAAMK8","either","8","","","","","","","75","K","2","","1","0","0","0.2694081366","","","180","0.283533164","","main_expt","0.4","","0.6","0.4294180747","","0.8","","0.2","0.2694081366","0.06891525065","","","","","",""
"225","","bandit","259","766775","0.0-220.0-0.0","03956182","wem/bandit_either","AMPMTF5IAAMK8","either","8","","","","","","","75","K","2","","0","0","1","0.2471628034","","","181","0.2430023428","","main_expt","0.4","","0.6","0.3887332701","","0.8","","0.2","0.2471628034","0.07407739619","","","","","",""
"125","","bandit","260","768431","0.0-221.0-0.0","03956182","wem/bandit_either","AMPMTF5IAAMK8","either","8","","","","","","","75","K","2","","0","0","1","0.275372354","","","182","0.223254837","","main_expt","0.4","","0.6","0.3910635387","","0.8","","0.2","0.275372354","0.07501704201","","","","","",""
"57","","bandit","261","770030","0.0-222.0-0.0","03956182","wem/bandit_either","AMPMTF5IAAMK8","either","8","","","","","","","76","L","3","","0","0","1","0.09354103142","","","183","0.2274286797","","main_expt","0.4","","0.6","0.3957792538","","0.8","","0.2","0.2378950907","0.09354103142","","","","","",""
"8","","bandit","262","771574","0.0-223.0-0.0","03956182","wem/bandit_either","AMPMTF5IAAMK8","either","8","","","","","","","76","L","3","","0","0","1","","0.06673830493","","184","","0.2485964068","main_expt","0.4","0.3777829694","0.6","","0.2611999536","0.8","0.06673830493","0.2","","","","","","","",""
"346","","bandit","263","773467","0.0-224.0-0.0","03956182","wem/bandit_either","AMPMTF5IAAMK8","either","8","","","","","","","72","H","0","img/none_selected.jpg","0","0","1","","0.2080173303","","185","","0.2080173303","main_expt","0.4","0.4130939835","0.6","","0.2799245071","0.8","0.08617836821","0.2","","","","","","","",""
"281","","bandit","264","775281","0.0-225.0-0.0","03956182","wem/bandit_either","AMPMTF5IAAMK8","either","8","","","","","","","72","H","0","img/none_selected.jpg","0","0","1","","0.2538883687","","186","","0.2538883687","main_expt","0.4","0.376930599","0.6","","0.2275386122","0.8","0.05054014018","0.2","","","","","","","",""
"153","","bandit","265","776962","0.0-226.0-0.0","03956182","wem/bandit_either","AMPMTF5IAAMK8","either","8","","","","","","","74","J","1","","0","1","0","","0.3934592684","","187","","0.2267652077","main_expt","0.4","0.3934592684","0.6","","0.2558518805","0.8","0.1101456656","0.2","","","","","","","",""
"265","","bandit","266","778755","0.0-227.0-0.0","03956182","wem/bandit_either","AMPMTF5IAAMK8","either","8","","","","","","","74","J","1","","1","0","0","0.4086060551","","","188","0.2583789709","","main_expt","0.4","","0.6","0.4086060551","","0.8","","0.2","0.2757393749","0.1076418148","","","","","",""
"159","","bandit","267","780447","0.0-228.0-0.0","03956182","wem/bandit_either","AMPMTF5IAAMK8","either","8","","","","","","","74","J","1","","0","0","1","","0.447145564","","189","","0.2329768584","main_expt","0.4","0.447145564","0.6","","0.3326758055","0.8","0.1230456027","0.2","","","","","","","",""
"214","","bandit","268","782196","0.0-229.0-0.0","03956182","wem/bandit_either","AMPMTF5IAAMK8","either","8","","","","","","","74","J","1","","0","1","0","","0.386091063","","190","","0.2002510669","main_expt","0.4","0.386091063","0.6","","0.332927569","0.8","0.1872873117","0.2","","","","","","","",""
"158","","bandit","269","783884","0.0-230.0-0.0","03956182","wem/bandit_either","AMPMTF5IAAMK8","either","8","","","","","","","74","J","1","","0","0","1","0.4221145333","","","191","0.2182600554","","main_expt","0.4","","0.6","0.4221145333","","0.8","","0.2","0.3859199101","0.1413073252","","","","","",""
"244","","bandit","270","785651","0.0-231.0-0.0","03956182","wem/bandit_either","AMPMTF5IAAMK8","either","8","","","","","","","74","J","1","","1","0","0","0.3913199708","","","192","0.2681613901","","main_expt","0.4","","0.6","0.3913199708","","0.8","","0.2","0.392668484","0.1868627967","","","","","",""
"279","","bandit","271","787465","0.0-232.0-0.0","03956182","wem/bandit_either","AMPMTF5IAAMK8","either","8","","","","","","","74","J","1","","0","1","0","","0.4013624592","","193","","0.3035027483","main_expt","0.4","0.4013624592","0.6","","0.3789843676","0.8","0.2312719224","0.2","","","","","","","",""
"227","","bandit","272","789219","0.0-233.0-0.0","03956182","wem/bandit_either","AMPMTF5IAAMK8","either","8","","","","","","","74","J","1","","1","0","0","0.3668237699","","","194","0.275531754","","main_expt","0.4","","0.6","0.3668237699","","0.8","","0.2","0.3689216281","0.2585201677","","","","","",""
"300","","bandit","273","791052","0.0-234.0-0.0","03956182","wem/bandit_either","AMPMTF5IAAMK8","either","8","","","","","","","74","J","1","","0","1","0","","0.3856266791","","195","","0.2716401532","main_expt","0.4","0.3856266791","0.6","","0.4136905162","0.8","0.2786104129","0.2","","","","","","","",""
"263","","bandit","274","792844","0.0-235.0-0.0","03956182","wem/bandit_either","AMPMTF5IAAMK8","either","8","","","","","","","74","J","1","","0","1","0","","0.3702439493","","196","","0.2814611543","main_expt","0.4","0.3702439493","0.6","","0.4258575101","0.8","0.2407834285","0.2","","","","","","","",""
"262","","bandit","275","794641","0.0-236.0-0.0","03956182","wem/bandit_either","AMPMTF5IAAMK8","either","8","","","","","","","74","J","1","","0","0","1","","0.3665926528","","197","","0.2588010394","main_expt","0.4","0.3665926528","0.6","","0.3976178043","0.8","0.2550568011","0.2","","","","","","","",""
"386","","bandit","276","796568","0.0-237.0-0.0","03956182","wem/bandit_either","AMPMTF5IAAMK8","either","8","","","","","","","74","J","1","","0","1","0","","0.3432124584","","198","","0.3094610495","main_expt","0.4","0.3432124584","0.6","","0.3802378075","0.8","0.3094863904","0.2","","","","","","","",""
"251","","bandit","277","798352","0.0-238.0-0.0","03956182","wem/bandit_either","AMPMTF5IAAMK8","either","8","","","","","","","74","J","1","","0","0","1","","0.4096574544","","199","","0.3139278769","main_expt","0.4","0.4096574544","0.6","","0.3926800246","0.8","0.3012985694","0.2","","","","","","","",""
"321","","bandit","278","800206","0.0-239.0-0.0","03956182","wem/bandit_either","AMPMTF5IAAMK8","either","8","","","","","","","74","J","1","","1","0","0","0.3799023259","","","200","0.3459706187","","main_expt","0.4","","0.6","0.3799023259","","0.8","","0.2","0.3814844917","0.3149132519","","","","","",""
"168","","bandit","279","801910","0.0-240.0-0.0","03956182","wem/bandit_either","AMPMTF5IAAMK8","either","8","","","","","","","74","J","1","","0","0","1","0.3513783521","","","201","0.3038365479","","main_expt","0.4","","0.6","0.3513783521","","0.8","","0.2","0.3831630738","0.3236307962","","","","","",""
"325","","bandit","280","803765","0.0-241.0-0.0","03956182","wem/bandit_either","AMPMTF5IAAMK8","either","8","","","","","","","74","J","1","","1","0","0","0.3439351057","","","202","0.2964599608","","main_expt","0.4","","0.6","0.3439351057","","0.8","","0.2","0.3957430938","0.3163717903","","","","","",""
"293","","bandit","281","805591","0.0-242.0-0.0","03956182","wem/bandit_either","AMPMTF5IAAMK8","either","8","","","","","","","74","J","1","","0","0","1","0.2615327891","","","203","0.280336616","","main_expt","0.4","","0.6","0.2615327891","","0.8","","0.2","0.4175506619","0.3165936227","","","","","",""
"413","","bandit","282","807557","0.0-243.0-0.0","03956182","wem/bandit_either","AMPMTF5IAAMK8","either","8","","","","","","","74","J","1","","0","0","1","0.2211517471","","","204","0.262900641","","main_expt","0.4","","0.6","0.2211517471","","0.8","","0.2","0.4356800279","0.3166231072","","","","","",""
"375","","bandit","283","809464","0.0-244.0-0.0","03956182","wem/bandit_either","AMPMTF5IAAMK8","either","8","","","","","","","74","J","1","","0","0","1","","0.1955747294","","205","","0.3403150927","main_expt","0.4","0.1955747294","0.6","","0.4342993254","0.8","0.2983153058","0.2","","","","","","","",""
"288","","bandit","284","811276","0.0-245.0-0.0","03956182","wem/bandit_either","AMPMTF5IAAMK8","either","8","","","","","","","74","J","1","","1","0","0","0.3137251184","","","206","0.3407188883","","main_expt","0.4","","0.6","0.3137251184","","0.8","","0.2","0.4515967499","0.255573156","","","","","",""
"221","","bandit","285","813036","0.0-246.0-0.0","03956182","wem/bandit_either","AMPMTF5IAAMK8","either","8","","","","","","","74","J","1","","0","0","1","0.2982459604","","","207","0.2955601217","","main_expt","0.4","","0.6","0.2982459604","","0.8","","0.2","0.4559700358","0.2816724171","","","","","",""
"151","","bandit","286","814721","0.0-247.0-0.0","03956182","wem/bandit_either","AMPMTF5IAAMK8","either","8","","","","","","","74","J","1","","1","0","0","0.2359404152","","","208","0.2832193826","","main_expt","0.4","","0.6","0.2359404152","","0.8","","0.2","0.4711787588","0.2462622089","","","","","",""
"254","","bandit","287","816506","0.0-248.0-0.0","03956182","wem/bandit_either","AMPMTF5IAAMK8","either","8","","","","","","","74","J","1","","0","0","1","0.2396635106","","","209","0.25637755","","main_expt","0.4","","0.6","0.2396635106","","0.8","","0.2","0.4859779177","0.2608633631","","","","","",""
"200","","bandit","288","818246","0.0-249.0-0.0","03956182","wem/bandit_either","AMPMTF5IAAMK8","either","8","","","","","","","74","J","1","","0","0","1","0.2320506775","","","210","0.2500912527","","main_expt","0.4","","0.6","0.2320506775","","0.8","","0.2","0.4798195452","0.2649708152","","","","","",""
"376","","bandit","289","820160","0.0-250.0-0.0","03956182","wem/bandit_either","AMPMTF5IAAMK8","either","8","","","","","","","74","J","1","","1","0","0","0.1894847828","","","211","0.2481129288","","main_expt","0.4","","0.6","0.1894847828","","0.8","","0.2","0.4754072522","0.2658594566","","","","","",""
"273","","bandit","290","821970","0.0-251.0-0.0","03956182","wem/bandit_either","AMPMTF5IAAMK8","either","8","","","","","","","74","J","1","","1","0","0","0.2330804604","","","212","0.3192168596","","main_expt","0.4","","0.6","0.2330804604","","0.8","","0.2","0.4780703898","0.2648449814","","","","","",""
"138","","bandit","291","823650","0.0-252.0-0.0","03956182","wem/bandit_either","AMPMTF5IAAMK8","either","8","","","","","","","74","J","1","","0","0","1","","0.2484053244","","213","","0.2361953268","main_expt","0.4","0.2484053244","0.6","","0.4883488692","0.8","0.286492297","0.2","","","","","","","",""
"250","","bandit","292","825447","0.0-253.0-0.0","03956182","wem/bandit_either","AMPMTF5IAAMK8","either","8","","","","","","","74","J","1","","0","0","1","","0.2182548364","","214","","0.2308921763","main_expt","0.4","0.2182548364","0.6","","0.4872562331","0.8","0.2540339129","0.2","","","","","","","",""
"354","","bandit","293","827337","0.0-254.0-0.0","03956182","wem/bandit_either","AMPMTF5IAAMK8","either","8","","","","","","","74","J","1","","0","0","1","0.1824073789","","","215","0.2161033537","","main_expt","0.4","","0.6","0.1824073789","","0.8","","0.2","0.4749609167","0.254651127","","","","","",""
"221","","bandit","294","829100","0.0-255.0-0.0","03956182","wem/bandit_either","AMPMTF5IAAMK8","either","8","","","","","","","74","J","1","","1","0","0","0.1923730387","","","216","0.1896756427","","main_expt","0.4","","0.6","0.1923730387","","0.8","","0.2","0.4798413464","0.3140517816","","","","","",""
"248","","bandit","295","830894","0.0-256.0-0.0","03956182","wem/bandit_either","AMPMTF5IAAMK8","either","8","","","","","","","74","J","1","","0","0","1","0.2266612446","","","217","0.1724286307","","main_expt","0.4","","0.6","0.2266612446","","0.8","","0.2","0.4865144435","0.3338676317","","","","","",""
"395","","bandit","296","832823","0.0-257.0-0.0","03956182","wem/bandit_either","AMPMTF5IAAMK8","either","8","","","","","","","74","J","1","","0","0","1","","0.1702705737","","218","","0.161168334","main_expt","0.4","0.1702705737","0.6","","0.4789145001","0.8","0.3397001125","0.2","","","","","","","",""
"80","","bandit","297","834433","0.0-258.0-0.0","03956182","wem/bandit_either","AMPMTF5IAAMK8","either","8","","","","","","","74","J","1","","0","0","1","0.1159766116","","","219","0.2021763003","","main_expt","0.4","","0.6","0.1159766116","","0.8","","0.2","0.4834748692","0.2982528089","","","","","",""
"303","","bandit","298","836261","0.0-259.0-0.0","03956182","wem/bandit_either","AMPMTF5IAAMK8","either","8","","","","","","","74","J","1","","0","0","1","","0.09529473055","","220","","0.2142164272","main_expt","0.4","0.09529473055","0.6","","0.4722371777","0.8","0.2770934022","0.2","","","","","","","",""
"210","","bandit","299","838006","0.0-260.0-0.0","03956182","wem/bandit_either","AMPMTF5IAAMK8","either","8","","","","","","","75","K","2","","1","0","0","0.4654689219","","","221","0.189068297","","main_expt","0.4","","0.6","0.09060922323","","0.8","","0.2","0.4654689219","0.2696770889","","","","","",""
"179","","bandit","300","839741","0.0-261.0-0.0","03956182","wem/bandit_either","AMPMTF5IAAMK8","either","8","","","","","","","75","K","2","","1","0","0","0.4533789701","","","222","0.2120997892","","main_expt","0.4","","0.6","0.1250772464","","0.8","","0.2","0.4533789701","0.3103502417","","","","","",""
"256","","bandit","301","841539","0.0-262.0-0.0","03956182","wem/bandit_either","AMPMTF5IAAMK8","either","8","","","","","","","75","K","2","","0","1","0","","0.4473019993","","223","","0.1937664477","main_expt","0.4","0.1177235221","0.6","","0.4473019993","0.8","0.3477728299","0.2","","","","","","","",""
"245","","bandit","302","843318","0.0-263.0-0.0","03956182","wem/bandit_either","AMPMTF5IAAMK8","either","8","","","","","","","75","K","2","","1","0","0","0.4651086175","","","224","0.2195846313","","main_expt","0.4","","0.6","0.1589673504","","0.8","","0.2","0.4651086175","0.3230244909","","","","","",""
"295","","bandit","303","845147","0.0-264.0-0.0","03956182","wem/bandit_either","AMPMTF5IAAMK8","either","8","","","","","","","75","K","2","","0","0","1","","0.4704934375","","225","","0.1973587738","main_expt","0.4","0.1582937281","0.6","","0.4704934375","0.8","0.3641913847","0.2","","","","","","","",""
"217","","bandit","304","846897","0.0-265.0-0.0","03956182","wem/bandit_either","AMPMTF5IAAMK8","either","8","","","","","","","75","K","2","","0","0","1","0.4545632724","","","226","0.2029059012","","main_expt","0.4","","0.6","0.1585786296","","0.8","","0.2","0.4545632724","0.3211822138","","","","","",""
"492","","bandit","305","848925","0.0-266.0-0.0","03956182","wem/bandit_either","AMPMTF5IAAMK8","either","8","","","","","","","75","K","2","","1","0","0","0.4313330006","","","227","0.1677618241","","main_expt","0.4","","0.6","0.1614007709","","0.8","","0.2","0.4313330006","0.3318596792","","","","","",""
"375","","bandit","306","850837","0.0-267.0-0.0","03956182","wem/bandit_either","AMPMTF5IAAMK8","either","8","","","","","","","75","K","2","","0","1","0","","0.4253897179","","228","","0.2079318551","main_expt","0.4","0.1160982884","0.6","","0.4253897179","0.8","0.3715738924","0.2","","","","","","","",""
"306","","bandit","307","852681","0.0-268.0-0.0","03956182","wem/bandit_either","AMPMTF5IAAMK8","either","8","","","","","","","75","K","2","","0","0","1","","0.4416009531","","229","","0.1860779256","main_expt","0.4","0.1327168588","0.6","","0.4416009531","0.8","0.3571583743","0.2","","","","","","","",""
"296","","bandit","308","854514","0.0-269.0-0.0","03956182","wem/bandit_either","AMPMTF5IAAMK8","either","8","","","","","","","75","K","2","","0","0","1","0.4612445757","","","230","0.1294985144","","main_expt","0.4","","0.6","0.1751239199","","0.8","","0.2","0.4612445757","0.3455313741","","","","","",""
"383","","bandit","309","856432","0.0-270.0-0.0","03956182","wem/bandit_either","AMPMTF5IAAMK8","either","8","","","","","","","75","K","2","","0","0","1","","0.4455927364","","231","","0.1424139305","main_expt","0.4","0.2080149414","0.6","","0.4455927364","0.8","0.3114256563","0.2","","","","","","","",""
"164","","bandit","310","858136","0.0-271.0-0.0","03956182","wem/bandit_either","AMPMTF5IAAMK8","either","8","","","","","","","76","L","3","","0","1","0","","0.3127001645","","232","","0.1777617008","main_expt","0.4","0.2305008548","0.6","","0.4449483857","0.8","0.3127001645","0.2","","","","","","","",""
"304","","bandit","311","859978","0.0-272.0-0.0","03956182","wem/bandit_either","AMPMTF5IAAMK8","either","8","","","","","","","76","L","3","","0","0","1","","0.2953609795","","233","","0.1408291819","main_expt","0.4","0.2331895239","0.6","","0.4570404202","0.8","0.2953609795","0.2","","","","","","","",""
"129","","bandit","312","861646","0.0-273.0-0.0","03956182","wem/bandit_either","AMPMTF5IAAMK8","either","8","","","","","","","76","L","3","","0","0","1","","0.2743769666","","234","","0.09563300426","main_expt","0.4","0.2007149185","0.6","","0.4785018613","0.8","0.2743769666","0.2","","","","","","","",""
"233","","bandit","313","863425","0.0-274.0-0.0","03956182","wem/bandit_either","AMPMTF5IAAMK8","either","8","","","","","","","72","H","0","img/none_selected.jpg","0","0","1","","0.06508254785","","235","","0.06508254785","main_expt","0.4","0.1428876463","0.6","","0.4708517218","0.8","0.2842570603","0.2","","","","","","","",""
"325","","bandit","314","865284","0.0-275.0-0.0","03956182","wem/bandit_either","AMPMTF5IAAMK8","either","8","","","","","","","72","H","0","img/none_selected.jpg","0","0","1","","0.05272484418","","236","","0.05272484418","main_expt","0.4","0.1327756685","0.6","","0.4721911582","0.8","0.3536106974","0.2","","","","","","","",""
"235","","bandit","315","867049","0.0-276.0-0.0","03956182","wem/bandit_either","AMPMTF5IAAMK8","either","8","","","","","","","72","H","0","img/none_selected.jpg","0","0","1","0.05000735717","","","237","0.05000735717","","main_expt","0.4","","0.6","0.1969646424","","0.8","","0.2","0.4567984566","0.3777879982","","","","","",""
"157","","bandit","316","868760","0.0-277.0-0.0","03956182","wem/bandit_either","AMPMTF5IAAMK8","either","8","","","","","","","74","J","1","","0","1","0","","0.2040955009","","238","","0.03409798278","main_expt","0.4","0.2040955009","0.6","","0.4601910044","0.8","0.3819628943","0.2","","","","","","","",""
"303","","bandit","317","870620","0.0-278.0-0.0","03956182","wem/bandit_either","AMPMTF5IAAMK8","either","8","","","","","","","74","J","1","","0","0","1","","0.1885012088","","239","","0.03555143528","main_expt","0.4","0.1885012088","0.6","","0.4663275819","0.8","0.3590612953","0.2","","","","","","","",""
"320","","bandit","318","872479","0.0-279.0-0.0","03956182","wem/bandit_either","AMPMTF5IAAMK8","either","8","","","","","","","74","J","1","","0","0","1","","0.1779850251","","240","","0.06633834621","main_expt","0.4","0.1779850251","0.6","","0.4781926851","0.8","0.3943681209","0.2","","","","","","","",""
"350","","bandit","319","874364","0.0-280.0-0.0","03956182","wem/bandit_either","AMPMTF5IAAMK8","either","8","","","","","","","75","K","2","","0","0","1","0.4813407325","","","241","0.0332650027","","main_expt","0.4","","0.6","0.2132761508","","0.8","","0.2","0.4813407325","0.4178476804","","","","","",""
"177","","bandit","320","876083","0.0-281.0-0.0","03956182","wem/bandit_either","AMPMTF5IAAMK8","either","8","","","","","","","75","K","2","","1","0","0","0.4758201438","","","242","0.03674005559","","main_expt","0.4","","0.6","0.2181708985","","0.8","","0.2","0.4758201438","0.4083523659","","","","","",""
"262","","bandit","321","877888","0.0-282.0-0.0","03956182","wem/bandit_either","AMPMTF5IAAMK8","either","8","","","","","","","75","K","2","","1","0","0","0.4739127226","","","243","0.02732183546","","main_expt","0.4","","0.6","0.1880751836","","0.8","","0.2","0.4739127226","0.4107673147","","","","","",""
"305","","bandit","322","879728","0.0-283.0-0.0","03956182","wem/bandit_either","AMPMTF5IAAMK8","either","8","","","","","","","75","K","2","","0","0","1","","0.4467527753","","244","","0.02742276317","main_expt","0.4","0.2693527465","0.6","","0.4467527753","0.8","0.3914084711","0.2","","","","","","","",""
"3","","bandit","323","881296","0.0-284.0-0.0","03956182","wem/bandit_either","AMPMTF5IAAMK8","either","8","","","","","","","75","K","2","","1","0","0","0.4492118003","","","245","0.03322496416","","main_expt","0.4","","0.6","0.2474629182","","0.8","","0.2","0.4492118003","0.4117032301","","","","","",""
"346","","bandit","324","883170","0.0-285.0-0.0","03956182","wem/bandit_either","AMPMTF5IAAMK8","either","8","","","","","","","75","K","2","","0","0","1","0.4702058379","","","246","0.0538648904","","main_expt","0.4","","0.6","0.3019125269","","0.8","","0.2","0.4702058379","0.4225436654","","","","","",""
"578","","bandit","325","885286","0.0-286.0-0.0","03956182","wem/bandit_either","AMPMTF5IAAMK8","either","8","","","","","","","75","K","2","","0","0","1","0.4717010128","","","247","0.05538537946","","main_expt","0.4","","0.6","0.3013832462","","0.8","","0.2","0.4717010128","0.4327875568","","","","","",""
"18","","bandit","326","886848","0.0-287.0-0.0","03956182","wem/bandit_either","AMPMTF5IAAMK8","either","8","","","","","","","76","L","3","","0","0","1","","0.4478523955","","248","","0.07377210468","main_expt","0.4","0.2917300956","0.6","","0.4750055548","0.8","0.4478523955","0.2","","","","","","","",""
"865","","bandit","327","889253","0.0-288.0-0.0","03956182","wem/bandit_either","AMPMTF5IAAMK8","either","8","","","","","","","76","L","3","","0","0","1","0.4221620221","","","249","0.07098242635","","main_expt","0.4","","0.6","0.2976682537","","0.8","","0.2","0.4608113614","0.4221620221","","","","","",""
"514","","bandit","328","891306","0.0-289.0-0.0","03956182","wem/bandit_either","AMPMTF5IAAMK8","either","8","","","","","","","72","H","0","img/none_selected.jpg","0","0","1","","0.08291081884","","250","","0.08291081884","main_expt","0.4","0.2921609534","0.6","","0.4361301801","0.8","0.3998447204","0.2","","","","","","","",""
"323","","bandit","329","893168","0.0-290.0-0.0","03956182","wem/bandit_either","AMPMTF5IAAMK8","either","8","","","","","","","72","H","0","img/none_selected.jpg","0","0","1","","0.07668358207","","251","","0.07668358207","main_expt","0.4","0.3026336231","0.6","","0.4203652199","0.8","0.4053116556","0.2","","","","","","","",""
"409","","bandit","330","895127","0.0-291.0-0.0","03956182","wem/bandit_either","AMPMTF5IAAMK8","either","8","","","","","","","74","J","1","","0","0","1","0.3303824841","","","252","0.05892609675","","main_expt","0.4","","0.6","0.3303824841","","0.8","","0.2","0.4465363659","0.3780439072","","","","","",""
"4944","","bandit","331","901614","0.0-292.0-0.0","03956182","wem/bandit_either","AMPMTF5IAAMK8","either","8","","","","","","","74","J","1","","0","0","1","0.3024212104","","","253","0.05309255245","","main_expt","0.4","","0.6","0.3024212104","","0.8","","0.2","0.4480562975","0.4356020742","","","","","",""
"448","","bandit","332","903600","0.0-293.0-0.0","03956182","wem/bandit_either","AMPMTF5IAAMK8","either","8","","","","","","","75","K","2","","0","0","1","0.4421075204","","","254","0.03865169821","","main_expt","0.4","","0.6","0.3110648486","","0.8","","0.2","0.4421075204","0.4576925499","","","","","",""
"214","","bandit","333","905354","0.0-294.0-0.0","03956182","wem/bandit_either","AMPMTF5IAAMK8","either","8","","","","","","","75","K","2","","1","0","0","0.4233433244","","","255","0.04471370441","","main_expt","0.4","","0.6","0.2494326665","","0.8","","0.2","0.4233433244","0.4745940057","","","","","",""
