"rt","responses","trial_type","trial_index","time_elapsed","internal_node_id","subjID","study","MID","cond","drift","key_press","expt_phase","target","like","value","connected","gems","bombs","no_reward","GemPrChosen","BombPrChosen","GainOverPainPr_0","GainOverPainPr_1","GainOverPainPr_2","GainOverPainPr_3","LosePr_0","LosePr_1","LosePr_2","LosePr_3","WinPr_0","WinPr_1","WinPr_2","WinPr_3","Q0","Q1","Q2","gender","age","ethnicity","respCharCode","respKey","respChoiceNum","respChoice","practice","trial_counter","trial_label"
"8589","{""Q0"":""A2CF2BD4Q0ZDJN""}","survey-text","0","8599","0.0-0.0","05294513","wem/bandit_either","A2CF2BD4Q0ZDJN","either","4","","","","","","","","","","","","","","","","","","","","","","","","","","","","","","","","","","","",""
"15578","","text","1","25181","0.0-1.0","05294513","wem/bandit_either","A2CF2BD4Q0ZDJN","either","4","32","","","","","","","","","","","","","","","","","","","","","","","","","","","","","","","","","","",""
"11256","","text","2","36440","0.0-2.0","05294513","wem/bandit_either","A2CF2BD4Q0ZDJN","either","4","32","","","","","","","","","","","","","","","","","","","","","","","","","","","","","","","","","","",""
"21512","","text","3","57954","0.0-3.0","05294513","wem/bandit_either","A2CF2BD4Q0ZDJN","either","4","32","","","","","","","","","","","","","","","","","","","","","","","","","","","","","","","","","","",""
"17862","","text","4","75818","0.0-4.0","05294513","wem/bandit_either","A2CF2BD4Q0ZDJN","either","4","32","","","","","","","","","","","","","","","","","","","","","","","","","","","","","","","","","","",""
"28358","","text","5","104178","0.0-5.0","05294513","wem/bandit_either","A2CF2BD4Q0ZDJN","either","4","32","","","","","","","","","","","","","","","","","","","","","","","","","","","","","","","","","","",""
"15652","","text","6","119833","0.0-6.0","05294513","wem/bandit_either","A2CF2BD4Q0ZDJN","either","4","32","","","","","","","","","","","","","","","","","","","","","","","","","","","","","","","","","","",""
"4609","","text","7","124443","0.0-7.0","05294513","wem/bandit_either","A2CF2BD4Q0ZDJN","either","4","32","","","","","","","","","","","","","","","","","","","","","","","","","","","","","","","","","","",""
"12440","","identification","8","136909","0.0-8.0-0.0","05294513","wem/bandit_either","A2CF2BD4Q0ZDJN","either","4","","identification_pre","the village of Zur","","","","","","","","","","","","","","","","","","","","","","","","","","","","","","","","",""
"6431","","identification","9","144350","0.0-8.0-1.0","05294513","wem/bandit_either","A2CF2BD4Q0ZDJN","either","4","","identification_pre","the village of Nyx","","","","","","","","","","","","","","","","","","","","","","","","","","","","","","","","",""
"12329","","text","10","157683","0.0-9.0","05294513","wem/bandit_either","A2CF2BD4Q0ZDJN","either","4","32","","","","","","","","","","","","","","","","","","","","","","","","","","","","","","","","","","",""
"5110","","text","11","162795","0.0-10.0","05294513","wem/bandit_either","A2CF2BD4Q0ZDJN","either","4","32","","","","","","","","","","","","","","","","","","","","","","","","","","","","","","","","","","",""
"4406","","text","12","167202","0.0-11.0","05294513","wem/bandit_either","A2CF2BD4Q0ZDJN","either","4","32","","","","","","","","","","","","","","","","","","","","","","","","","","","","","","","","","","",""
"5159","","text","13","172363","0.0-12.0","05294513","wem/bandit_either","A2CF2BD4Q0ZDJN","either","4","32","","","","","","","","","","","","","","","","","","","","","","","","","","","","","","","","","","",""
"8355","","bandit","14","182226","0.0-13.0-0.0","05294513","wem/bandit_either","A2CF2BD4Q0ZDJN","either","4","","","","","","","0","0","1","0","0","","","","","0","","","","0","","","","","","","","","","74","J","0","img/none_selected_demo.jpg","true","0",""
"1707","","bandit","15","185439","0.0-14.0-0.0","05294513","wem/bandit_either","A2CF2BD4Q0ZDJN","either","4","","","","","","","0","0","1","0","0","","","","","0","","","","0","","","","","","","","","","75","K","0","img/none_selected_demo.jpg","true","0",""
"13169","","text","16","198609","0.0-15.0","05294513","wem/bandit_either","A2CF2BD4Q0ZDJN","either","4","32","","","","","","","","","","","","","","","","","","","","","","","","","","","","","","","","","","",""
"10425","","text","17","209036","0.0-16.0","05294513","wem/bandit_either","A2CF2BD4Q0ZDJN","either","4","32","","","","","","","","","","","","","","","","","","","","","","","","","","","","","","","","","","",""
"7189","","text","18","216226","0.0-17.0","05294513","wem/bandit_either","A2CF2BD4Q0ZDJN","either","4","32","","","","","","","","","","","","","","","","","","","","","","","","","","","","","","","","","","",""
"5503","","text","19","221730","0.0-18.0","05294513","wem/bandit_either","A2CF2BD4Q0ZDJN","either","4","32","","","","","","","","","","","","","","","","","","","","","","","","","","","","","","","","","","",""
"1262","","bandit","20","224499","0.0-19.0-0.0","05294513","wem/bandit_either","A2CF2BD4Q0ZDJN","either","4","","","","","","","1","0","0","0.8","","0.5","0.5","","","","","","","0.8","0.2","","","","","","","","","74","J","0","img/none_selected_demo.jpg","true","0","80_20_practice"
"709","","bandit","21","226712","0.0-19.0-1.0","05294513","wem/bandit_either","A2CF2BD4Q0ZDJN","either","4","","","","","","","1","0","0","0.8","","0.5","0.5","","","","","","","0.8","0.2","","","","","","","","","74","J","0","img/none_selected_demo.jpg","true","0","80_20_practice"
"509","","bandit","22","228729","0.0-19.0-2.0","05294513","wem/bandit_either","A2CF2BD4Q0ZDJN","either","4","","","","","","","1","0","0","0.8","","0.5","0.5","","","","","","","0.8","0.2","","","","","","","","","74","J","0","img/none_selected_demo.jpg","true","0","80_20_practice"
"400","","bandit","23","230632","0.0-19.0-3.0","05294513","wem/bandit_either","A2CF2BD4Q0ZDJN","either","4","","","","","","","1","0","0","0.8","","0.5","0.5","","","","","","","0.8","0.2","","","","","","","","","74","J","0","img/none_selected_demo.jpg","true","0","80_20_practice"
"488","","bandit","24","232625","0.0-19.0-4.0","05294513","wem/bandit_either","A2CF2BD4Q0ZDJN","either","4","","","","","","","0","1","0","","0.8","0.5","0.5","","","0.8","0.2","","","","","","","","","","","","","74","J","0","img/none_selected_demo.jpg","true","0","80_20_practice"
"559","","bandit","25","234690","0.0-19.0-5.0","05294513","wem/bandit_either","A2CF2BD4Q0ZDJN","either","4","","","","","","","1","0","0","0.8","","0.5","0.5","","","","","","","0.8","0.2","","","","","","","","","74","J","0","img/none_selected_demo.jpg","true","0","80_20_practice"
"951","","bandit","26","237145","0.0-19.0-6.0","05294513","wem/bandit_either","A2CF2BD4Q0ZDJN","either","4","","","","","","","0","0","1","0.2","","0.5","0.5","","","","","","","0.8","0.2","","","","","","","","","75","K","1","","true","0","80_20_practice"
"350","","bandit","27","239002","0.0-19.0-7.0","05294513","wem/bandit_either","A2CF2BD4Q0ZDJN","either","4","","","","","","","1","0","0","0.8","","0.5","0.5","","","","","","","0.8","0.2","","","","","","","","","74","J","0","img/none_selected_demo.jpg","true","0","80_20_practice"
"374","","bandit","28","240888","0.0-19.0-8.0","05294513","wem/bandit_either","A2CF2BD4Q0ZDJN","either","4","","","","","","","1","0","0","0.8","","0.5","0.5","","","","","","","0.8","0.2","","","","","","","","","74","J","0","img/none_selected_demo.jpg","true","0","80_20_practice"
"534","","bandit","29","242930","0.0-19.0-9.0","05294513","wem/bandit_either","A2CF2BD4Q0ZDJN","either","4","","","","","","","1","0","0","0.8","","0.5","0.5","","","","","","","0.8","0.2","","","","","","","","","74","J","0","img/none_selected_demo.jpg","true","0","80_20_practice"
"643","","bandit","30","245082","0.0-19.0-10.0","05294513","wem/bandit_either","A2CF2BD4Q0ZDJN","either","4","","","","","","","0","1","0","","0.8","0.5","0.5","","","0.8","0.2","","","","","","","","","","","","","74","J","0","img/none_selected_demo.jpg","true","0","80_20_practice"
"294","","bandit","31","246881","0.0-19.0-11.0","05294513","wem/bandit_either","A2CF2BD4Q0ZDJN","either","4","","","","","","","0","1","0","","0.8","0.5","0.5","","","0.8","0.2","","","","","","","","","","","","","74","J","0","img/none_selected_demo.jpg","true","0","80_20_practice"
"910","","bandit","32","249297","0.0-19.0-12.0","05294513","wem/bandit_either","A2CF2BD4Q0ZDJN","either","4","","","","","","","0","1","0","","0.8","0.5","0.5","","","0.8","0.2","","","","","","","","","","","","","74","J","0","img/none_selected_demo.jpg","true","0","80_20_practice"
"774","","bandit","33","251577","0.0-19.0-13.0","05294513","wem/bandit_either","A2CF2BD4Q0ZDJN","either","4","","","","","","","1","0","0","0.8","","0.5","0.5","","","","","","","0.8","0.2","","","","","","","","","74","J","0","img/none_selected_demo.jpg","true","0","80_20_practice"
"1038","","bandit","34","254121","0.0-19.0-14.0","05294513","wem/bandit_either","A2CF2BD4Q0ZDJN","either","4","","","","","","","1","0","0","0.8","","0.5","0.5","","","","","","","0.8","0.2","","","","","","","","","74","J","0","img/none_selected_demo.jpg","true","0","80_20_practice"
"295","","bandit","35","255922","0.0-19.0-15.0","05294513","wem/bandit_either","A2CF2BD4Q0ZDJN","either","4","","","","","","","1","0","0","0.8","","0.5","0.5","","","","","","","0.8","0.2","","","","","","","","","74","J","0","img/none_selected_demo.jpg","true","0","80_20_practice"
"358","","bandit","36","257785","0.0-19.0-16.0","05294513","wem/bandit_either","A2CF2BD4Q0ZDJN","either","4","","","","","","","0","1","0","","0.8","0.5","0.5","","","0.8","0.2","","","","","","","","","","","","","74","J","0","img/none_selected_demo.jpg","true","0","80_20_practice"
"907","","bandit","37","260200","0.0-19.0-17.0","05294513","wem/bandit_either","A2CF2BD4Q0ZDJN","either","4","","","","","","","1","0","0","0.8","","0.5","0.5","","","","","","","0.8","0.2","","","","","","","","","74","J","0","img/none_selected_demo.jpg","true","0","80_20_practice"
"1128","","bandit","38","262833","0.0-19.0-18.0","05294513","wem/bandit_either","A2CF2BD4Q0ZDJN","either","4","","","","","","","1","0","0","0.8","","0.5","0.5","","","","","","","0.8","0.2","","","","","","","","","74","J","0","img/none_selected_demo.jpg","true","0","80_20_practice"
"1920","","bandit","39","266259","0.0-19.0-19.0","05294513","wem/bandit_either","A2CF2BD4Q0ZDJN","either","4","","","","","","","0","1","0","","0.8","0.5","0.5","","","0.8","0.2","","","","","","","","","","","","","74","J","0","img/none_selected_demo.jpg","true","0","80_20_practice"
"21748","","text","40","288010","0.0-20.0","05294513","wem/bandit_either","A2CF2BD4Q0ZDJN","either","4","32","","","","","","","","","","","","","","","","","","","","","","","","","","","","","","","","","","",""
"2175","","bandit","41","291689","0.0-21.0-0.0","05294513","wem/bandit_either","A2CF2BD4Q0ZDJN","either","4","","","","","","","1","0","0","1","0","","","","","0","1","","","1","0","","","","","","","","","74","J","0","img/none_selected_demo.jpg","true","0",""
"9318","","text","42","301010","0.0-22.0","05294513","wem/bandit_either","A2CF2BD4Q0ZDJN","either","4","32","","","","","","","","","","","","","","","","","","","","","","","","","","","","","","","","","","",""
"5182","","text","43","306195","0.0-23.0","05294513","wem/bandit_either","A2CF2BD4Q0ZDJN","either","4","32","","","","","","","","","","","","","","","","","","","","","","","","","","","","","","","","","","",""
"3676","","text","44","309875","0.0-24.0","05294513","wem/bandit_either","A2CF2BD4Q0ZDJN","either","4","32","","","","","","","","","","","","","","","","","","","","","","","","","","","","","","","","","","",""
"2996","","text","45","312873","0.0-25.0","05294513","wem/bandit_either","A2CF2BD4Q0ZDJN","either","4","32","","","","","","","","","","","","","","","","","","","","","","","","","","","","","","","","","","",""
"5001","","text","46","317876","0.0-26.0","05294513","wem/bandit_either","A2CF2BD4Q0ZDJN","either","4","32","","","","","","","","","","","","","","","","","","","","","","","","","","","","","","","","","","",""
"2820","","text","47","320699","0.0-27.0","05294513","wem/bandit_either","A2CF2BD4Q0ZDJN","either","4","32","","","","","","","","","","","","","","","","","","","","","","","","","","","","","","","","","","",""
"7981","","text","48","328681","0.0-28.0","05294513","wem/bandit_either","A2CF2BD4Q0ZDJN","either","4","32","","","","","","","","","","","","","","","","","","","","","","","","","","","","","","","","","","",""
"3592","","text","49","332276","0.0-29.0","05294513","wem/bandit_either","A2CF2BD4Q0ZDJN","either","4","32","","","","","","","","","","","","","","","","","","","","","","","","","","","","","","","","","","",""
"2515","","text","50","334794","0.0-30.0","05294513","wem/bandit_either","A2CF2BD4Q0ZDJN","either","4","32","","","","","","","","","","","","","","","","","","","","","","","","","","","","","","","","","","",""
"1725","","text","51","336522","0.0-31.0","05294513","wem/bandit_either","A2CF2BD4Q0ZDJN","either","4","32","","","","","","","","","","","","","","","","","","","","","","","","","","","","","","","","","","",""
"3036","","text","52","339561","0.0-32.0","05294513","wem/bandit_either","A2CF2BD4Q0ZDJN","either","4","32","","","","","","","","","","","","","","","","","","","","","","","","","","","","","","","","","","",""
"1134","","bandit","53","342202","0.0-33.0-0.0","05294513","wem/bandit_either","A2CF2BD4Q0ZDJN","either","4","","","","","","","0","1","0","","0.8","0.5","0.5","0.5","0.5","0.8","0.2","0.6","0.2","","","","","","","","","","","72","H","0","img/none_selected.jpg","true","0","full_practice"
"629","","bandit","54","344337","0.0-33.0-1.0","05294513","wem/bandit_either","A2CF2BD4Q0ZDJN","either","4","","","","","","","0","0","1","","0.8","0.5","0.5","0.5","0.5","0.8","0.2","0.6","0.2","","","","","","","","","","","72","H","0","img/none_selected.jpg","true","0","full_practice"
"678","","bandit","55","346520","0.0-33.0-2.0","05294513","wem/bandit_either","A2CF2BD4Q0ZDJN","either","4","","","","","","","0","0","1","","0.8","0.5","0.5","0.5","0.5","0.8","0.2","0.6","0.2","","","","","","","","","","","72","H","0","img/none_selected.jpg","true","0","full_practice"
"335","","bandit","56","348361","0.0-33.0-3.0","05294513","wem/bandit_either","A2CF2BD4Q0ZDJN","either","4","","","","","","","0","0","1","0.2","","0.5","0.5","0.5","0.5","","","","","0.8","0.2","0.6","0.2","","","","","","","74","J","1","","true","0","full_practice"
"413","","bandit","57","350281","0.0-33.0-4.0","05294513","wem/bandit_either","A2CF2BD4Q0ZDJN","either","4","","","","","","","0","0","1","","0.2","0.5","0.5","0.5","0.5","0.8","0.2","0.6","0.2","","","","","","","","","","","74","J","1","","true","0","full_practice"
"378","","bandit","58","352169","0.0-33.0-5.0","05294513","wem/bandit_either","A2CF2BD4Q0ZDJN","either","4","","","","","","","0","0","1","0.6","","0.5","0.5","0.5","0.5","","","","","0.8","0.2","0.6","0.2","","","","","","","75","K","2","","true","0","full_practice"
"389","","bandit","59","354079","0.0-33.0-6.0","05294513","wem/bandit_either","A2CF2BD4Q0ZDJN","either","4","","","","","","","0","1","0","","0.6","0.5","0.5","0.5","0.5","0.8","0.2","0.6","0.2","","","","","","","","","","","75","K","2","","true","0","full_practice"
"447","","bandit","60","356033","0.0-33.0-7.0","05294513","wem/bandit_either","A2CF2BD4Q0ZDJN","either","4","","","","","","","0","0","1","0.6","","0.5","0.5","0.5","0.5","","","","","0.8","0.2","0.6","0.2","","","","","","","75","K","2","","true","0","full_practice"
"639","","bandit","61","358177","0.0-33.0-8.0","05294513","wem/bandit_either","A2CF2BD4Q0ZDJN","either","4","","","","","","","0","0","1","","0.6","0.5","0.5","0.5","0.5","0.8","0.2","0.6","0.2","","","","","","","","","","","75","K","2","","true","0","full_practice"
"118","","bandit","62","359802","0.0-33.0-9.0","05294513","wem/bandit_either","A2CF2BD4Q0ZDJN","either","4","","","","","","","0","0","1","0.2","","0.5","0.5","0.5","0.5","","","","","0.8","0.2","0.6","0.2","","","","","","","76","L","3","","true","0","full_practice"
"367","","bandit","63","361673","0.0-33.0-10.0","05294513","wem/bandit_either","A2CF2BD4Q0ZDJN","either","4","","","","","","","0","0","1","","0.2","0.5","0.5","0.5","0.5","0.8","0.2","0.6","0.2","","","","","","","","","","","76","L","3","","true","0","full_practice"
"388","","bandit","64","363568","0.0-33.0-11.0","05294513","wem/bandit_either","A2CF2BD4Q0ZDJN","either","4","","","","","","","0","0","1","","0.2","0.5","0.5","0.5","0.5","0.8","0.2","0.6","0.2","","","","","","","","","","","76","L","3","","true","0","full_practice"
"428","","bandit","65","365506","0.0-33.0-12.0","05294513","wem/bandit_either","A2CF2BD4Q0ZDJN","either","4","","","","","","","0","0","1","","0.6","0.5","0.5","0.5","0.5","0.8","0.2","0.6","0.2","","","","","","","","","","","75","K","2","","true","0","full_practice"
"366","","bandit","66","367378","0.0-33.0-13.0","05294513","wem/bandit_either","A2CF2BD4Q0ZDJN","either","4","","","","","","","0","1","0","","0.2","0.5","0.5","0.5","0.5","0.8","0.2","0.6","0.2","","","","","","","","","","","74","J","1","","true","0","full_practice"
"494","","bandit","67","369381","0.0-33.0-14.0","05294513","wem/bandit_either","A2CF2BD4Q0ZDJN","either","4","","","","","","","0","0","1","","0.2","0.5","0.5","0.5","0.5","0.8","0.2","0.6","0.2","","","","","","","","","","","74","J","1","","true","0","full_practice"
"393","","bandit","68","371281","0.0-33.0-15.0","05294513","wem/bandit_either","A2CF2BD4Q0ZDJN","either","4","","","","","","","0","0","1","","0.2","0.5","0.5","0.5","0.5","0.8","0.2","0.6","0.2","","","","","","","","","","","74","J","1","","true","0","full_practice"
"487","","bandit","69","373273","0.0-33.0-16.0","05294513","wem/bandit_either","A2CF2BD4Q0ZDJN","either","4","","","","","","","1","0","0","0.8","","0.5","0.5","0.5","0.5","","","","","0.8","0.2","0.6","0.2","","","","","","","72","H","0","img/none_selected.jpg","true","0","full_practice"
"409","","bandit","70","375191","0.0-33.0-17.0","05294513","wem/bandit_either","A2CF2BD4Q0ZDJN","either","4","","","","","","","0","1","0","","0.8","0.5","0.5","0.5","0.5","0.8","0.2","0.6","0.2","","","","","","","","","","","72","H","0","img/none_selected.jpg","true","0","full_practice"
"398","","bandit","71","377097","0.0-33.0-18.0","05294513","wem/bandit_either","A2CF2BD4Q0ZDJN","either","4","","","","","","","1","0","0","0.8","","0.5","0.5","0.5","0.5","","","","","0.8","0.2","0.6","0.2","","","","","","","72","H","0","img/none_selected.jpg","true","0","full_practice"
"510","","bandit","72","379114","0.0-33.0-19.0","05294513","wem/bandit_either","A2CF2BD4Q0ZDJN","either","4","","","","","","","0","0","1","","0.8","0.5","0.5","0.5","0.5","0.8","0.2","0.6","0.2","","","","","","","","","","","72","H","0","img/none_selected.jpg","true","0","full_practice"
"4044","","text","73","383162","0.0-34.0","05294513","wem/bandit_either","A2CF2BD4Q0ZDJN","either","4","32","","","","","","","","","","","","","","","","","","","","","","","","","","","","","","","","","","",""
"26362","","text","74","410528","0.0-35.0","05294513","wem/bandit_either","A2CF2BD4Q0ZDJN","either","4","32","","","","","","","","","","","","","","","","","","","","","","","","","","","","","","","","","","",""
"9240","","text","75","419770","0.0-36.0","05294513","wem/bandit_either","A2CF2BD4Q0ZDJN","either","4","32","","","","","","","","","","","","","","","","","","","","","","","","","","","","","","","","","","",""
"6294","","text","76","426066","0.0-37.0","05294513","wem/bandit_either","A2CF2BD4Q0ZDJN","either","4","32","","","","","","","","","","","","","","","","","","","","","","","","","","","","","","","","","","",""
"3101","","text","77","429170","0.0-38.0","05294513","wem/bandit_either","A2CF2BD4Q0ZDJN","either","4","32","","","","","","","","","","","","","","","","","","","","","","","","","","","","","","","","","","",""
"4471","","text","78","433644","0.0-39.0","05294513","wem/bandit_either","A2CF2BD4Q0ZDJN","either","4","32","","","","","","","","","","","","","","","","","","","","","","","","","","","","","","","","","","",""
"1377","","bandit","79","436530","0.0-40.0-0.0","05294513","wem/bandit_either","A2CF2BD4Q0ZDJN","either","4","","","","","","","1","0","0","0.3894728165","","0.6","0.4","0.2","0.8","","","","","0.3894728165","0.2771551185","0.3525715257","0.3242650943","","","","","","","72","H","0","img/none_selected.jpg","","1","main_expt"
"469","","bandit","80","438505","0.0-41.0-0.0","05294513","wem/bandit_either","A2CF2BD4Q0ZDJN","either","4","","","","","","","1","0","0","0.363660736","","0.6","0.4","0.2","0.8","","","","","0.363660736","0.3030893157","0.390153736","0.3296228245","","","","","","","72","H","0","img/none_selected.jpg","","2","main_expt"
"398","","bandit","81","440408","0.0-42.0-0.0","05294513","wem/bandit_either","A2CF2BD4Q0ZDJN","either","4","","","","","","","0","0","1","0.3842171554","","0.6","0.4","0.2","0.8","","","","","0.3842171554","0.3211059343","0.3725447061","0.3102780753","","","","","","","72","H","0","img/none_selected.jpg","","3","main_expt"
"446","","bandit","82","442363","0.0-43.0-0.0","05294513","wem/bandit_either","A2CF2BD4Q0ZDJN","either","4","","","","","","","0","0","1","0.3831963053","","0.6","0.4","0.2","0.8","","","","","0.3831963053","0.2804386453","0.3431524481","0.2749892112","","","","","","","72","H","0","img/none_selected.jpg","","4","main_expt"
"396","","bandit","83","444265","0.0-44.0-0.0","05294513","wem/bandit_either","A2CF2BD4Q0ZDJN","either","4","","","","","","","0","1","0","","0.4056596471","0.6","0.4","0.2","0.8","0.4056596471","0.2609559086","0.3448007793","0.3037824898","","","","","","","","","","","72","H","0","img/none_selected.jpg","","5","main_expt"
"437","","bandit","84","446208","0.0-45.0-0.0","05294513","wem/bandit_either","A2CF2BD4Q0ZDJN","either","4","","","","","","","1","0","0","0.4409946319","","0.6","0.4","0.2","0.8","","","","","0.4409946319","0.2259287768","0.3980888019","0.3217417103","","","","","","","72","H","0","img/none_selected.jpg","","6","main_expt"
"551","","bandit","85","448266","0.0-46.0-0.0","05294513","wem/bandit_either","A2CF2BD4Q0ZDJN","either","4","","","","","","","1","0","0","0.3821747998","","0.6","0.4","0.2","0.8","","","","","0.3821747998","0.2433618728","0.3693121862","0.3018715163","","","","","","","72","H","0","img/none_selected.jpg","","7","main_expt"
"438","","bandit","86","450209","0.0-47.0-0.0","05294513","wem/bandit_either","A2CF2BD4Q0ZDJN","either","4","","","","","","","0","0","1","0.3841844813","","0.6","0.4","0.2","0.8","","","","","0.3841844813","0.2025356769","0.2933697555","0.3643645816","","","","","","","72","H","0","img/none_selected.jpg","","8","main_expt"
"527","","bandit","87","452252","0.0-48.0-0.0","05294513","wem/bandit_either","A2CF2BD4Q0ZDJN","either","4","","","","","","","0","0","1","0.3412237964","","0.6","0.4","0.2","0.8","","","","","0.3412237964","0.1441028094","0.3036212831","0.3418610374","","","","","","","72","H","0","img/none_selected.jpg","","9","main_expt"
"746","","bandit","88","454504","0.0-49.0-0.0","05294513","wem/bandit_either","A2CF2BD4Q0ZDJN","either","4","","","","","","","0","0","1","0.3256420777","","0.6","0.4","0.2","0.8","","","","","0.3256420777","0.1736005971","0.308020301","0.3190157878","","","","","","","72","H","0","img/none_selected.jpg","","10","main_expt"
"398","","bandit","89","456408","0.0-50.0-0.0","05294513","wem/bandit_either","A2CF2BD4Q0ZDJN","either","4","","","","","","","0","0","1","","0.3514007431","0.6","0.4","0.2","0.8","0.3514007431","0.1836365694","0.3065973113","0.2998731478","","","","","","","","","","","72","H","0","img/none_selected.jpg","","11","main_expt"
"391","","bandit","90","458304","0.0-51.0-0.0","05294513","wem/bandit_either","A2CF2BD4Q0ZDJN","either","4","","","","","","","0","1","0","","0.2143869662","0.6","0.4","0.2","0.8","0.3722032088","0.2143869662","0.3271859636","0.2942822571","","","","","","","","","","","74","J","1","","","12","main_expt"
"335","","bandit","91","460144","0.0-52.0-0.0","05294513","wem/bandit_either","A2CF2BD4Q0ZDJN","either","4","","","","","","","0","0","1","0.1637139448","","0.6","0.4","0.2","0.8","","","","","0.3681707299","0.1637139448","0.2761076709","0.3009212619","","","","","","","74","J","1","","","13","main_expt"
"380","","bandit","92","462031","0.0-53.0-0.0","05294513","wem/bandit_either","A2CF2BD4Q0ZDJN","either","4","","","","","","","0","1","0","","0.1488535162","0.6","0.4","0.2","0.8","0.3528222564","0.1488535162","0.2311164494","0.3227424667","","","","","","","","","","","74","J","1","","","14","main_expt"
"303","","bandit","93","463840","0.0-54.0-0.0","05294513","wem/bandit_either","A2CF2BD4Q0ZDJN","either","4","","","","","","","0","0","1","","0.1332411271","0.6","0.4","0.2","0.8","0.3738838661","0.1332411271","0.2905977425","0.3547546862","","","","","","","","","","","74","J","1","","","15","main_expt"
"399","","bandit","94","465744","0.0-55.0-0.0","05294513","wem/bandit_either","A2CF2BD4Q0ZDJN","either","4","","","","","","","0","0","1","","0.09882415698","0.6","0.4","0.2","0.8","0.3385239332","0.09882415698","0.2924554969","0.3241157583","","","","","","","","","","","74","J","1","","","16","main_expt"
"725","","bandit","95","467979","0.0-56.0-0.0","05294513","wem/bandit_either","A2CF2BD4Q0ZDJN","either","4","","","","","","","0","0","1","","0.1069157009","0.6","0.4","0.2","0.8","0.3111355138","0.1069157009","0.3114836302","0.3363410386","","","","","","","","","","","74","J","1","","","17","main_expt"
"179","","bandit","96","469664","0.0-57.0-0.0","05294513","wem/bandit_either","A2CF2BD4Q0ZDJN","either","4","","","","","","","0","0","1","0.3215333475","","0.6","0.4","0.2","0.8","","","","","0.3487767647","0.134958137","0.3215333475","0.3880947854","","","","","","","75","K","2","","","18","main_expt"
"383","","bandit","97","471555","0.0-58.0-0.0","05294513","wem/bandit_either","A2CF2BD4Q0ZDJN","either","4","","","","","","","0","0","1","","0.2733398822","0.6","0.4","0.2","0.8","0.3010303499","0.1230418706","0.2733398822","0.4116912081","","","","","","","","","","","75","K","2","","","19","main_expt"
"363","","bandit","98","473423","0.0-59.0-0.0","05294513","wem/bandit_either","A2CF2BD4Q0ZDJN","either","4","","","","","","","0","0","1","","0.2351410235","0.6","0.4","0.2","0.8","0.2907203997","0.09866604889","0.2351410235","0.3973894305","","","","","","","","","","","75","K","2","","","20","main_expt"
"664","","bandit","99","475593","0.0-60.0-0.0","05294513","wem/bandit_either","A2CF2BD4Q0ZDJN","either","4","","","","","","","0","0","1","","0.2257810982","0.6","0.4","0.2","0.8","0.3088108907","0.1021222834","0.2257810982","0.369037109","","","","","","","","","","","75","K","2","","","21","main_expt"
"134","","bandit","100","477234","0.0-61.0-0.0","05294513","wem/bandit_either","A2CF2BD4Q0ZDJN","either","4","","","","","","","0","1","0","","0.4179468344","0.6","0.4","0.2","0.8","0.349202701","0.1234138809","0.2221856846","0.4179468344","","","","","","","","","","","76","L","3","","","22","main_expt"
"523","","bandit","101","479264","0.0-62.0-0.0","05294513","wem/bandit_either","A2CF2BD4Q0ZDJN","either","4","","","","","","","0","1","0","","0.4276062926","0.6","0.4","0.2","0.8","0.3785068464","0.1030640584","0.2127124712","0.4276062926","","","","","","","","","","","76","L","3","","","23","main_expt"
"615","","bandit","102","481384","0.0-63.0-0.0","05294513","wem/bandit_either","A2CF2BD4Q0ZDJN","either","4","","","","","","","1","0","0","0.4078122208","","0.6","0.4","0.2","0.8","","","","","0.4012919653","0.1261035851","0.1882566648","0.4078122208","","","","","","","76","L","3","","","24","main_expt"
"454","","bandit","103","483344","0.0-64.0-0.0","05294513","wem/bandit_either","A2CF2BD4Q0ZDJN","either","4","","","","","","","0","0","1","","0.3950411191","0.6","0.4","0.2","0.8","0.400899794","0.1796705612","0.1273223766","0.3950411191","","","","","","","","","","","76","L","3","","","25","main_expt"
"390","","bandit","104","485241","0.0-65.0-0.0","05294513","wem/bandit_either","A2CF2BD4Q0ZDJN","either","4","","","","","","","0","0","1","0.4322303329","","0.6","0.4","0.2","0.8","","","","","0.4126274585","0.2414651519","0.15747458","0.4322303329","","","","","","","76","L","3","","","26","main_expt"
"909","","bandit","105","487656","0.0-66.0-0.0","05294513","wem/bandit_either","A2CF2BD4Q0ZDJN","either","4","","","","","","","0","0","1","0.4353643722","","0.6","0.4","0.2","0.8","","","","","0.3992263875","0.2005374927","0.1442684908","0.4353643722","","","","","","","76","L","3","","","27","main_expt"
"1038","","bandit","106","490200","0.0-67.0-0.0","05294513","wem/bandit_either","A2CF2BD4Q0ZDJN","either","4","","","","","","","0","0","1","","0.3846584236","0.6","0.4","0.2","0.8","0.3846584236","0.3197257227","0.2255404594","0.4464017809","","","","","","","","","","","72","H","0","img/none_selected.jpg","","28","main_expt"
"413","","bandit","107","492120","0.0-68.0-0.0","05294513","wem/bandit_either","A2CF2BD4Q0ZDJN","either","4","","","","","","","0","0","1","","0.3561298134","0.6","0.4","0.2","0.8","0.3561298134","0.3141869899","0.2730951691","0.4417109462","","","","","","","","","","","72","H","0","img/none_selected.jpg","","29","main_expt"
"414","","bandit","108","494041","0.0-69.0-0.0","05294513","wem/bandit_either","A2CF2BD4Q0ZDJN","either","4","","","","","","","1","0","0","0.4065908859","","0.6","0.4","0.2","0.8","","","","","0.3101363315","0.3445991012","0.2890412698","0.4065908859","","","","","","","76","L","3","","","30","main_expt"
"861","","bandit","109","496407","0.0-70.0-0.0","05294513","wem/bandit_either","A2CF2BD4Q0ZDJN","either","4","","","","","","","1","0","0","0.3954582793","","0.6","0.4","0.2","0.8","","","","","0.3322219809","0.3456655029","0.3309226042","0.3954582793","","","","","","","76","L","3","","","31","main_expt"
"452","","bandit","110","498367","0.0-71.0-0.0","05294513","wem/bandit_either","A2CF2BD4Q0ZDJN","either","4","","","","","","","0","0","1","0.3716723047","","0.6","0.4","0.2","0.8","","","","","0.3516269472","0.3826172224","0.3519301717","0.3716723047","","","","","","","76","L","3","","","32","main_expt"
"446","","bandit","111","500320","0.0-72.0-0.0","05294513","wem/bandit_either","A2CF2BD4Q0ZDJN","either","4","","","","","","","0","0","1","0.3799724366","","0.6","0.4","0.2","0.8","","","","","0.3852085553","0.3804083149","0.3414953842","0.3799724366","","","","","","","76","L","3","","","33","main_expt"
"590","","bandit","112","502417","0.0-73.0-0.0","05294513","wem/bandit_either","A2CF2BD4Q0ZDJN","either","4","","","","","","","0","0","1","0.3808178469","","0.6","0.4","0.2","0.8","","","","","0.4196644934","0.3808178469","0.2938412915","0.409480615","","","","","","","74","J","1","","","34","main_expt"
"414","","bandit","113","504340","0.0-74.0-0.0","05294513","wem/bandit_either","A2CF2BD4Q0ZDJN","either","4","","","","","","","0","0","1","0.376129724","","0.6","0.4","0.2","0.8","","","","","0.420891004","0.376129724","0.2256616696","0.3869649509","","","","","","","74","J","1","","","35","main_expt"
"494","","bandit","114","506343","0.0-75.0-0.0","05294513","wem/bandit_either","A2CF2BD4Q0ZDJN","either","4","","","","","","","0","0","1","","0.2525957923","0.6","0.4","0.2","0.8","0.3808881167","0.4027809904","0.2525957923","0.3045389962","","","","","","","","","","","75","K","2","","","36","main_expt"
"362","","bandit","115","508212","0.0-76.0-0.0","05294513","wem/bandit_either","A2CF2BD4Q0ZDJN","either","4","","","","","","","0","0","1","","0.2333373749","0.6","0.4","0.2","0.8","0.3634360393","0.3715556026","0.2333373749","0.2954217214","","","","","","","","","","","75","K","2","","","37","main_expt"
"202","","bandit","116","509920","0.0-77.0-0.0","05294513","wem/bandit_either","A2CF2BD4Q0ZDJN","either","4","","","","","","","0","1","0","","0.3432691328","0.6","0.4","0.2","0.8","0.3432691328","0.354842885","0.2126884676","0.2749906923","","","","","","","","","","","72","H","0","img/none_selected.jpg","","38","main_expt"
"463","","bandit","117","511890","0.0-78.0-0.0","05294513","wem/bandit_either","A2CF2BD4Q0ZDJN","either","4","","","","","","","1","0","0","0.3113322025","","0.6","0.4","0.2","0.8","","","","","0.3113322025","0.3066825603","0.212498526","0.2911873598","","","","","","","72","H","0","img/none_selected.jpg","","39","main_expt"
"420","","bandit","118","513817","0.0-79.0-0.0","05294513","wem/bandit_either","A2CF2BD4Q0ZDJN","either","4","","","","","","","0","0","1","0.3298138996","","0.6","0.4","0.2","0.8","","","","","0.3298138996","0.3208648015","0.2031275136","0.3066149412","","","","","","","72","H","0","img/none_selected.jpg","","40","main_expt"
"410","","bandit","119","515740","0.0-80.0-0.0","05294513","wem/bandit_either","A2CF2BD4Q0ZDJN","either","4","","","","","","","0","0","1","","0.3590557929","0.6","0.4","0.2","0.8","0.3590557929","0.2774570704","0.2409224204","0.2612722093","","","","","","","","","","","72","H","0","img/none_selected.jpg","","41","main_expt"
"218","","bandit","120","517465","0.0-81.0-0.0","05294513","wem/bandit_either","A2CF2BD4Q0ZDJN","either","4","","","","","","","1","0","0","0.3455434044","","0.6","0.4","0.2","0.8","","","","","0.3455434044","0.3092882543","0.2166695961","0.2579482203","","","","","","","72","H","0","img/none_selected.jpg","","42","main_expt"
"378","","bandit","121","519350","0.0-82.0-0.0","05294513","wem/bandit_either","A2CF2BD4Q0ZDJN","either","4","","","","","","","0","0","1","0.4020043176","","0.6","0.4","0.2","0.8","","","","","0.4020043176","0.3161251671","0.2314197793","0.2232302517","","","","","","","72","H","0","img/none_selected.jpg","","43","main_expt"
"311","","bandit","122","521168","0.0-83.0-0.0","05294513","wem/bandit_either","A2CF2BD4Q0ZDJN","either","4","","","","","","","0","0","1","","0.4088695108","0.6","0.4","0.2","0.8","0.4088695108","0.3032549762","0.1889371852","0.2435669349","","","","","","","","","","","72","H","0","img/none_selected.jpg","","44","main_expt"
"317","","bandit","123","522992","0.0-84.0-0.0","05294513","wem/bandit_either","A2CF2BD4Q0ZDJN","either","4","","","","","","","0","0","1","0.1885724617","","0.6","0.4","0.2","0.8","","","","","0.3914045207","0.3012359134","0.2152104473","0.1885724617","","","","","","","76","L","3","","","45","main_expt"
"343","","bandit","124","524841","0.0-85.0-0.0","05294513","wem/bandit_either","A2CF2BD4Q0ZDJN","either","4","","","","","","","0","0","1","","0.104230756","0.6","0.4","0.2","0.8","0.3682142312","0.2994346937","0.2260726972","0.104230756","","","","","","","","","","","76","L","3","","","46","main_expt"
"406","","bandit","125","526752","0.0-86.0-0.0","05294513","wem/bandit_either","A2CF2BD4Q0ZDJN","either","4","","","","","","","0","0","1","0.09013225529","","0.6","0.4","0.2","0.8","","","","","0.3462276735","0.3169549043","0.2330399618","0.09013225529","","","","","","","76","L","3","","","47","main_expt"
"1","","bandit","126","528261","0.0-87.0-0.0","05294513","wem/bandit_either","A2CF2BD4Q0ZDJN","either","4","","","","","","","1","0","0","0.3501405617","","0.6","0.4","0.2","0.8","","","","","0.3501405617","0.3137179834","0.2769685944","0.1066227192","","","","","","","72","H","0","img/none_selected.jpg","","48","main_expt"
"481","","bandit","127","530252","0.0-88.0-0.0","05294513","wem/bandit_either","A2CF2BD4Q0ZDJN","either","4","","","","","","","0","1","0","","0.3607669766","0.6","0.4","0.2","0.8","0.3607669766","0.3026837323","0.2954986192","0.1273062614","","","","","","","","","","","72","H","0","img/none_selected.jpg","","49","main_expt"
"1412","","bandit","128","533179","0.0-89.0-0.0","05294513","wem/bandit_either","A2CF2BD4Q0ZDJN","either","4","","","","","","","1","0","0","0.3776327681","","0.6","0.4","0.2","0.8","","","","","0.3776327681","0.2690248343","0.2730110453","0.08158159543","","","","","","","72","H","0","img/none_selected.jpg","","50","main_expt"
"883","","bandit","129","535569","0.0-90.0-0.0","05294513","wem/bandit_either","A2CF2BD4Q0ZDJN","either","4","","","","","","","1","0","0","0.3922012959","","0.6","0.4","0.2","0.8","","","","","0.3922012959","0.2407215714","0.2672659715","0.08035098666","","","","","","","72","H","0","img/none_selected.jpg","","51","main_expt"
"1157","","bandit","130","538232","0.0-91.0-0.0","05294513","wem/bandit_either","A2CF2BD4Q0ZDJN","either","4","","","","","","","0","0","1","","0.3532085343","0.6","0.4","0.2","0.8","0.3532085343","0.2758158767","0.2552972095","0.1007468434","","","","","","","","","","","72","H","0","img/none_selected.jpg","","52","main_expt"
"1037","","bandit","131","540782","0.0-92.0-0.0","05294513","wem/bandit_either","A2CF2BD4Q0ZDJN","either","4","","","","","","","0","0","1","","0.3597378762","0.6","0.4","0.2","0.8","0.3597378762","0.2661511239","0.1954439593","0.1479770317","","","","","","","","","","","72","H","0","img/none_selected.jpg","","53","main_expt"
"441","","bandit","132","542736","0.0-93.0-0.0","05294513","wem/bandit_either","A2CF2BD4Q0ZDJN","either","4","","","","","","","0","0","1","0.3553644404","","0.6","0.4","0.2","0.8","","","","","0.3553644404","0.250303373","0.1250298759","0.1450389045","","","","","","","72","H","0","img/none_selected.jpg","","54","main_expt"
"974","","bandit","133","545216","0.0-94.0-0.0","05294513","wem/bandit_either","A2CF2BD4Q0ZDJN","either","4","","","","","","","1","0","0","0.3427354451","","0.6","0.4","0.2","0.8","","","","","0.3427354451","0.1850572083","0.1224949652","0.1678096349","","","","","","","72","H","0","img/none_selected.jpg","","55","main_expt"
"5983","","bandit","134","552706","0.0-95.0-0.0","05294513","wem/bandit_either","A2CF2BD4Q0ZDJN","either","4","","","","","","","0","0","1","0.3158877586","","0.6","0.4","0.2","0.8","","","","","0.3158877586","0.2410157884","0.1312048923","0.1748395718","","","","","","","72","H","0","img/none_selected.jpg","","56","main_expt"
"228","","bandit","135","554439","0.0-96.0-0.0","05294513","wem/bandit_either","A2CF2BD4Q0ZDJN","either","4","","","","","","","0","0","1","0.3224611445","","0.6","0.4","0.2","0.8","","","","","0.3224611445","0.2657224069","0.14452077","0.146986137","","","","","","","72","H","0","img/none_selected.jpg","","57","main_expt"
"511","","bandit","136","556456","0.0-97.0-0.0","05294513","wem/bandit_either","A2CF2BD4Q0ZDJN","either","4","","","","","","","0","0","1","0.3378672788","","0.6","0.4","0.2","0.8","","","","","0.3378672788","0.2361308133","0.1198415177","0.1316135006","","","","","","","72","H","0","img/none_selected.jpg","","58","main_expt"
"430","","bandit","137","558391","0.0-98.0-0.0","05294513","wem/bandit_either","A2CF2BD4Q0ZDJN","either","4","","","","","","","0","0","1","","0.3438075972","0.6","0.4","0.2","0.8","0.3438075972","0.2078360154","0.1674914914","0.1776120447","","","","","","","","","","","72","H","0","img/none_selected.jpg","","59","main_expt"
"2094","","bandit","138","561991","0.0-99.0-0.0","05294513","wem/bandit_either","A2CF2BD4Q0ZDJN","either","4","","","","","","","0","0","1","0.2034864675","","0.6","0.4","0.2","0.8","","","","","0.2950987239","0.2256957235","0.147959707","0.2034864675","","","","","","","76","L","3","","","60","main_expt"
"53","","bandit","139","563554","0.0-100.0-0.0","05294513","wem/bandit_either","A2CF2BD4Q0ZDJN","either","4","","","","","","","1","0","0","0.1217284172","","0.6","0.4","0.2","0.8","","","","","0.2939622289","0.2713547376","0.1217284172","0.1325668513","","","","","","","75","K","2","","","61","main_expt"
"501","","bandit","140","565560","0.0-101.0-0.0","05294513","wem/bandit_either","A2CF2BD4Q0ZDJN","either","4","","","","","","","0","0","1","","0.1392905859","0.6","0.4","0.2","0.8","0.2907096119","0.2800078023","0.1392905859","0.125492747","","","","","","","","","","","75","K","2","","","62","main_expt"
"433","","bandit","141","567504","0.0-102.0-0.0","05294513","wem/bandit_either","A2CF2BD4Q0ZDJN","either","4","","","","","","","0","0","1","","0.1953314019","0.6","0.4","0.2","0.8","0.2696382907","0.362183352","0.1953314019","0.1081989139","","","","","","","","","","","75","K","2","","","63","main_expt"
"901","","bandit","142","569913","0.0-103.0-0.0","05294513","wem/bandit_either","A2CF2BD4Q0ZDJN","either","4","","","","","","","0","0","1","","0.2618523415","0.6","0.4","0.2","0.8","0.2496415039","0.3354395381","0.2618523415","0.09104284411","","","","","","","","","","","75","K","2","","","64","main_expt"
"21","","bandit","143","571439","0.0-104.0-0.0","05294513","wem/bandit_either","A2CF2BD4Q0ZDJN","either","4","","","","","","","0","0","1","","0.2893845237","0.6","0.4","0.2","0.8","0.2364994079","0.2893845237","0.2686672798","0.1264903162","","","","","","","","","","","74","J","1","","","65","main_expt"
"462","","bandit","144","573407","0.0-105.0-0.0","05294513","wem/bandit_either","A2CF2BD4Q0ZDJN","either","4","","","","","","","0","1","0","","0.2355717356","0.6","0.4","0.2","0.8","0.2541683514","0.2355717356","0.2451656397","0.1665937301","","","","","","","","","","","74","J","1","","","66","main_expt"
"456","","bandit","145","575370","0.0-106.0-0.0","05294513","wem/bandit_either","A2CF2BD4Q0ZDJN","either","4","","","","","","","0","0","1","0.2848755716","","0.6","0.4","0.2","0.8","","","","","0.2985471382","0.2848755716","0.2445320338","0.1740025863","","","","","","","74","J","1","","","67","main_expt"
"514","","bandit","146","577392","0.0-107.0-0.0","05294513","wem/bandit_either","A2CF2BD4Q0ZDJN","either","4","","","","","","","0","0","1","0.3341158043","","0.6","0.4","0.2","0.8","","","","","0.3391290389","0.3341158043","0.2261158315","0.2300011382","","","","","","","74","J","1","","","68","main_expt"
"394","","bandit","147","579296","0.0-108.0-0.0","05294513","wem/bandit_either","A2CF2BD4Q0ZDJN","either","4","","","","","","","0","0","1","","0.3253412689","0.6","0.4","0.2","0.8","0.3114764975","0.3253412689","0.1627286519","0.1768594062","","","","","","","","","","","74","J","1","","","69","main_expt"
"830","","bandit","148","581633","0.0-109.0-0.0","05294513","wem/bandit_either","A2CF2BD4Q0ZDJN","either","4","","","","","","","1","0","0","0.3280915152","","0.6","0.4","0.2","0.8","","","","","0.3056328376","0.3280915152","0.1301009224","0.1906145184","","","","","","","74","J","1","","","70","main_expt"
"329","","bandit","149","583476","0.0-110.0-0.0","05294513","wem/bandit_either","A2CF2BD4Q0ZDJN","either","4","","","","","","","0","0","1","0.3772643828","","0.6","0.4","0.2","0.8","","","","","0.3445325487","0.3772643828","0.1356707761","0.1451664327","","","","","","","74","J","1","","","71","main_expt"
"635","","bandit","150","585622","0.0-111.0-0.0","05294513","wem/bandit_either","A2CF2BD4Q0ZDJN","either","4","","","","","","","0","1","0","","0.4074174212","0.6","0.4","0.2","0.8","0.364612409","0.4074174212","0.1045412551","0.1091447996","","","","","","","","","","","74","J","1","","","72","main_expt"
"519","","bandit","151","587649","0.0-112.0-0.0","05294513","wem/bandit_either","A2CF2BD4Q0ZDJN","either","4","","","","","","","0","0","1","","0.3736299767","0.6","0.4","0.2","0.8","0.4454774056","0.3736299767","0.0867882282","0.1248737042","","","","","","","","","","","74","J","1","","","73","main_expt"
"490","","bandit","152","589652","0.0-113.0-0.0","05294513","wem/bandit_either","A2CF2BD4Q0ZDJN","either","4","","","","","","","0","0","1","","0.383211712","0.6","0.4","0.2","0.8","0.4492830973","0.383211712","0.1018359722","0.1073746888","","","","","","","","","","","74","J","1","","","74","main_expt"
"530","","bandit","153","591688","0.0-114.0-0.0","05294513","wem/bandit_either","A2CF2BD4Q0ZDJN","either","4","","","","","","","1","0","0","0.449321966","","0.6","0.4","0.2","0.8","","","","","0.449321966","0.3681962321","0.09443707336","0.1051395745","","","","","","","72","H","0","img/none_selected.jpg","","75","main_expt"
"539","","bandit","154","593739","0.0-115.0-0.0","05294513","wem/bandit_either","A2CF2BD4Q0ZDJN","either","4","","","","","","","1","0","0","0.4299726132","","0.6","0.4","0.2","0.8","","","","","0.4299726132","0.3574328021","0.08768691443","0.09171451076","","","","","","","72","H","0","img/none_selected.jpg","","76","main_expt"
"478","","bandit","155","595728","0.0-116.0-0.0","05294513","wem/bandit_either","A2CF2BD4Q0ZDJN","either","4","","","","","","","1","0","0","0.4349340462","","0.6","0.4","0.2","0.8","","","","","0.4349340462","0.4041720962","0.07744448812","0.1256070833","","","","","","","72","H","0","img/none_selected.jpg","","77","main_expt"
"420","","bandit","156","597657","0.0-117.0-0.0","05294513","wem/bandit_either","A2CF2BD4Q0ZDJN","either","4","","","","","","","0","0","1","","0.4112950215","0.6","0.4","0.2","0.8","0.4112950215","0.4000946746","0.05712631425","0.1398604905","","","","","","","","","","","72","H","0","img/none_selected.jpg","","78","main_expt"
"546","","bandit","157","599711","0.0-118.0-0.0","05294513","wem/bandit_either","A2CF2BD4Q0ZDJN","either","4","","","","","","","0","0","1","","0.4123046053","0.6","0.4","0.2","0.8","0.4123046053","0.425248604","0.03981704588","0.1303191282","","","","","","","","","","","72","H","0","img/none_selected.jpg","","79","main_expt"
"702","","bandit","158","601921","0.0-119.0-0.0","05294513","wem/bandit_either","A2CF2BD4Q0ZDJN","either","4","","","","","","","0","0","1","0.4345430878","","0.6","0.4","0.2","0.8","","","","","0.4345430878","0.4263383456","0.02961196177","0.1491340647","","","","","","","72","H","0","img/none_selected.jpg","","80","main_expt"
"509","","bandit","159","603936","0.0-120.0-0.0","05294513","wem/bandit_either","A2CF2BD4Q0ZDJN","either","4","","","","","","","0","0","1","","0.4255274095","0.6","0.4","0.2","0.8","0.4255274095","0.4377411966","0.0408206899","0.1484119081","","","","","","","","","","","72","H","0","img/none_selected.jpg","","81","main_expt"
"500","","bandit","160","605946","0.0-121.0-0.0","05294513","wem/bandit_either","A2CF2BD4Q0ZDJN","either","4","","","","","","","0","0","1","0.4266934287","","0.6","0.4","0.2","0.8","","","","","0.4266934287","0.4263216968","0.03491361241","0.135460029","","","","","","","72","H","0","img/none_selected.jpg","","82","main_expt"
"515","","bandit","161","607968","0.0-122.0-0.0","05294513","wem/bandit_either","A2CF2BD4Q0ZDJN","either","4","","","","","","","0","0","1","0.4321646522","","0.6","0.4","0.2","0.8","","","","","0.4321646522","0.4536492548","0.01881925386","0.09497461961","","","","","","","72","H","0","img/none_selected.jpg","","83","main_expt"
"479","","bandit","162","609954","0.0-123.0-0.0","05294513","wem/bandit_either","A2CF2BD4Q0ZDJN","either","4","","","","","","","0","0","1","","0.0956585677","0.6","0.4","0.2","0.8","0.43129245","0.4344769981","0.03441768066","0.0956585677","","","","","","","","","","","76","L","3","","","84","main_expt"
"379","","bandit","163","611839","0.0-124.0-0.0","05294513","wem/bandit_either","A2CF2BD4Q0ZDJN","either","4","","","","","","","0","0","1","0.08427930603","","0.6","0.4","0.2","0.8","","","","","0.4307495417","0.4167097255","0.04015732792","0.08427930603","","","","","","","76","L","3","","","85","main_expt"
"412","","bandit","164","613759","0.0-125.0-0.0","05294513","wem/bandit_either","A2CF2BD4Q0ZDJN","either","4","","","","","","","0","0","1","0.09540141202","","0.6","0.4","0.2","0.8","","","","","0.4327415212","0.4215971904","0.0462821445","0.09540141202","","","","","","","76","L","3","","","86","main_expt"
"624","","bandit","165","615889","0.0-126.0-0.0","05294513","wem/bandit_either","A2CF2BD4Q0ZDJN","either","4","","","","","","","0","0","1","","0.06504543429","0.6","0.4","0.2","0.8","0.4507305815","0.3962725568","0.07236867375","0.06504543429","","","","","","","","","","","76","L","3","","","87","main_expt"
"732","","bandit","166","618126","0.0-127.0-0.0","05294513","wem/bandit_either","A2CF2BD4Q0ZDJN","either","4","","","","","","","0","0","1","0.1132918069","","0.6","0.4","0.2","0.8","","","","","0.4571393315","0.4038430626","0.1132918069","0.05894337134","","","","","","","75","K","2","","","88","main_expt"
"383","","bandit","167","620018","0.0-128.0-0.0","05294513","wem/bandit_either","A2CF2BD4Q0ZDJN","either","4","","","","","","","0","1","0","","0.1466354559","0.6","0.4","0.2","0.8","0.4639779763","0.4247877058","0.1466354559","0.06803635399","","","","","","","","","","","75","K","2","","","89","main_expt"
"379","","bandit","168","621903","0.0-129.0-0.0","05294513","wem/bandit_either","A2CF2BD4Q0ZDJN","either","4","","","","","","","0","0","1","0.1746819083","","0.6","0.4","0.2","0.8","","","","","0.4620017245","0.4196700557","0.1746819083","0.09657856289","","","","","","","75","K","2","","","90","main_expt"
"446","","bandit","169","623855","0.0-130.0-0.0","05294513","wem/bandit_either","A2CF2BD4Q0ZDJN","either","4","","","","","","","0","0","1","","0.1864657318","0.6","0.4","0.2","0.8","0.4492963398","0.401758082","0.1864657318","0.08522031428","","","","","","","","","","","75","K","2","","","91","main_expt"
"694","","bandit","170","626056","0.0-131.0-0.0","05294513","wem/bandit_either","A2CF2BD4Q0ZDJN","either","4","","","","","","","0","0","1","0.2124622091","","0.6","0.4","0.2","0.8","","","","","0.462009279","0.3422099147","0.2124622091","0.07078380504","","","","","","","75","K","2","","","92","main_expt"
"1267","","bandit","171","628832","0.0-132.0-0.0","05294513","wem/bandit_either","A2CF2BD4Q0ZDJN","either","4","","","","","","","0","1","0","","0.3279059742","0.6","0.4","0.2","0.8","0.4363090379","0.3279059742","0.245786276","0.0564278809","","","","","","","","","","","74","J","1","","","93","main_expt"
"350","","bandit","172","630689","0.0-133.0-0.0","05294513","wem/bandit_either","A2CF2BD4Q0ZDJN","either","4","","","","","","","0","0","1","","0.3155724737","0.6","0.4","0.2","0.8","0.4457519602","0.3155724737","0.2316759231","0.06067733924","","","","","","","","","","","74","J","1","","","94","main_expt"
"445","","bandit","173","632639","0.0-134.0-0.0","05294513","wem/bandit_either","A2CF2BD4Q0ZDJN","either","4","","","","","","","0","0","1","0.3519625041","","0.6","0.4","0.2","0.8","","","","","0.4231248902","0.3519625041","0.2231756969","0.08632751489","","","","","","","74","J","1","","","95","main_expt"
"918","","bandit","174","635063","0.0-135.0-0.0","05294513","wem/bandit_either","A2CF2BD4Q0ZDJN","either","4","","","","","","","0","1","0","","0.3661455107","0.6","0.4","0.2","0.8","0.4210676831","0.3661455107","0.1957128212","0.08481729553","","","","","","","","","","","74","J","1","","","96","main_expt"
"884","","bandit","175","637456","0.0-136.0-0.0","05294513","wem/bandit_either","A2CF2BD4Q0ZDJN","either","4","","","","","","","0","0","1","0.3558031673","","0.6","0.4","0.2","0.8","","","","","0.4022895305","0.3558031673","0.1638116915","0.08386440452","","","","","","","74","J","1","","","97","main_expt"
"1171","","bandit","176","640135","0.0-137.0-0.0","05294513","wem/bandit_either","A2CF2BD4Q0ZDJN","either","4","","","","","","","0","0","1","","0.3558230887","0.6","0.4","0.2","0.8","0.4187351015","0.3558230887","0.1405816365","0.0940701929","","","","","","","","","","","74","J","1","","","98","main_expt"
"591","","bandit","177","642231","0.0-138.0-0.0","05294513","wem/bandit_either","A2CF2BD4Q0ZDJN","either","4","","","","","","","1","0","0","0.3064708089","","0.6","0.4","0.2","0.8","","","","","0.3981340028","0.3064708089","0.1435678602","0.1285058524","","","","","","","74","J","1","","","99","main_expt"
"606","","bandit","178","644347","0.0-139.0-0.0","05294513","wem/bandit_either","A2CF2BD4Q0ZDJN","either","4","","","","","","","1","0","0","0.352498313","","0.6","0.4","0.2","0.8","","","","","0.3520446815","0.352498313","0.1478754355","0.065882019","","","","","","","74","J","1","","","100","main_expt"
"448","","bandit","179","646304","0.0-140.0-0.0","05294513","wem/bandit_either","A2CF2BD4Q0ZDJN","either","4","","","","","","","0","0","1","","0.3511810171","0.6","0.4","0.2","0.8","0.3715523215","0.3511810171","0.1532559328","0.05692140794","","","","","","","","","","","74","J","1","","","101","main_expt"
"477","","bandit","180","648288","0.0-141.0-0.0","05294513","wem/bandit_either","A2CF2BD4Q0ZDJN","either","4","","","","","","","0","0","1","","0.3246867477","0.6","0.4","0.2","0.8","0.3966955113","0.3246867477","0.15857411","0.04322280369","","","","","","","","","","","74","J","1","","","102","main_expt"
"508","","bandit","181","650304","0.0-142.0-0.0","05294513","wem/bandit_either","A2CF2BD4Q0ZDJN","either","4","","","","","","","0","1","0","","0.2827689756","0.6","0.4","0.2","0.8","0.3865714765","0.2827689756","0.1552377357","0.05121437093","","","","","","","","","","","74","J","1","","","103","main_expt"
"1094","","bandit","182","652904","0.0-143.0-0.0","05294513","wem/bandit_either","A2CF2BD4Q0ZDJN","either","4","","","","","","","0","0","1","","0.3307995119","0.6","0.4","0.2","0.8","0.3440646931","0.3307995119","0.1584193753","0.06548077564","","","","","","","","","","","74","J","1","","","104","main_expt"
"501","","bandit","183","654913","0.0-144.0-0.0","05294513","wem/bandit_either","A2CF2BD4Q0ZDJN","either","4","","","","","","","0","0","1","","0.3078297571","0.6","0.4","0.2","0.8","0.330981063","0.3078297571","0.192058402","0.07577357845","","","","","","","","","","","74","J","1","","","105","main_expt"
"892","","bandit","184","657312","0.0-145.0-0.0","05294513","wem/bandit_either","A2CF2BD4Q0ZDJN","either","4","","","","","","","0","0","1","","0.3202685942","0.6","0.4","0.2","0.8","0.3317280627","0.3202685942","0.1562344916","0.09041352565","","","","","","","","","","","74","J","1","","","106","main_expt"
"372","","bandit","185","659192","0.0-146.0-0.0","05294513","wem/bandit_either","A2CF2BD4Q0ZDJN","either","4","","","","","","","0","0","1","","0.3163418234","0.6","0.4","0.2","0.8","0.2760665195","0.3163418234","0.1493116313","0.1184921167","","","","","","","","","","","74","J","1","","","107","main_expt"
"720","","bandit","186","661425","0.0-147.0-0.0","05294513","wem/bandit_either","A2CF2BD4Q0ZDJN","either","4","","","","","","","0","0","1","","0.2826301941","0.6","0.4","0.2","0.8","0.2826301941","0.3425943818","0.1357435498","0.1057615429","","","","","","","","","","","72","H","0","img/none_selected.jpg","","108","main_expt"
"403","","bandit","187","663336","0.0-148.0-0.0","05294513","wem/bandit_either","A2CF2BD4Q0ZDJN","either","4","","","","","","","0","0","1","","0.318117281","0.6","0.4","0.2","0.8","0.318117281","0.2852030557","0.1164074326","0.1464484126","","","","","","","","","","","72","H","0","img/none_selected.jpg","","109","main_expt"
"844","","bandit","188","665688","0.0-149.0-0.0","05294513","wem/bandit_either","A2CF2BD4Q0ZDJN","either","4","","","","","","","0","0","1","","0.3358587519","0.6","0.4","0.2","0.8","0.3358587519","0.3392406975","0.1444451916","0.1641354829","","","","","","","","","","","72","H","0","img/none_selected.jpg","","110","main_expt"
"332","","bandit","189","667527","0.0-150.0-0.0","05294513","wem/bandit_either","A2CF2BD4Q0ZDJN","either","4","","","","","","","0","0","1","0.3031660534","","0.6","0.4","0.2","0.8","","","","","0.3031660534","0.3023411017","0.09905323685","0.1386891192","","","","","","","72","H","0","img/none_selected.jpg","","111","main_expt"
"373","","bandit","190","669407","0.0-151.0-0.0","05294513","wem/bandit_either","A2CF2BD4Q0ZDJN","either","4","","","","","","","0","0","1","0.2773548355","","0.6","0.4","0.2","0.8","","","","","0.2773548355","0.296849772","0.09652445584","0.1847512065","","","","","","","72","H","0","img/none_selected.jpg","","112","main_expt"
"165","","bandit","191","671080","0.0-152.0-0.0","05294513","wem/bandit_either","A2CF2BD4Q0ZDJN","either","4","","","","","","","0","0","1","0.1304555333","","0.6","0.4","0.2","0.8","","","","","0.2370758425","0.2673419259","0.09961189632","0.1304555333","","","","","","","76","L","3","","","113","main_expt"
"520","","bandit","192","673113","0.0-153.0-0.0","05294513","wem/bandit_either","A2CF2BD4Q0ZDJN","either","4","","","","","","","0","0","1","0.1770102637","","0.6","0.4","0.2","0.8","","","","","0.1821928837","0.2670531803","0.1036139638","0.1770102637","","","","","","","76","L","3","","","114","main_expt"
"1151","","bandit","193","675786","0.0-154.0-0.0","05294513","wem/bandit_either","A2CF2BD4Q0ZDJN","either","4","","","","","","","0","0","1","0.0968506792","","0.6","0.4","0.2","0.8","","","","","0.1315453283","0.2825009356","0.0968506792","0.1564651975","","","","","","","75","K","2","","","115","main_expt"
"399","","bandit","194","677696","0.0-155.0-0.0","05294513","wem/bandit_either","A2CF2BD4Q0ZDJN","either","4","","","","","","","0","0","1","","0.08782875681","0.6","0.4","0.2","0.8","0.1102777544","0.3237719372","0.08782875681","0.1665702367","","","","","","","","","","","75","K","2","","","116","main_expt"
"1014","","bandit","195","680215","0.0-156.0-0.0","05294513","wem/bandit_either","A2CF2BD4Q0ZDJN","either","4","","","","","","","0","0","1","","0.3154846423","0.6","0.4","0.2","0.8","0.1101610351","0.3154846423","0.06031800864","0.1530687496","","","","","","","","","","","74","J","1","","","117","main_expt"
"437","","bandit","196","682159","0.0-157.0-0.0","05294513","wem/bandit_either","A2CF2BD4Q0ZDJN","either","4","","","","","","","0","0","1","0.2584508078","","0.6","0.4","0.2","0.8","","","","","0.122460482","0.2584508078","0.05633053331","0.1674206906","","","","","","","74","J","1","","","118","main_expt"
"436","","bandit","197","684102","0.0-158.0-0.0","05294513","wem/bandit_either","A2CF2BD4Q0ZDJN","either","4","","","","","","","0","0","1","0.2141905193","","0.6","0.4","0.2","0.8","","","","","0.1451868924","0.2141905193","0.07530514027","0.1990215448","","","","","","","74","J","1","","","119","main_expt"
"509","","bandit","198","686122","0.0-159.0-0.0","05294513","wem/bandit_either","A2CF2BD4Q0ZDJN","either","4","","","","","","","0","0","1","0.2341954374","","0.6","0.4","0.2","0.8","","","","","0.09092593383","0.2341954374","0.09639595661","0.2208640619","","","","","","","74","J","1","","","120","main_expt"
"351","","bandit","199","687983","0.0-160.0-0.0","05294513","wem/bandit_either","A2CF2BD4Q0ZDJN","either","4","","","","","","","0","0","1","0.1886372651","","0.6","0.4","0.2","0.8","","","","","0.1080456108","0.1886372651","0.1421799471","0.2602917539","","","","","","","74","J","1","","","121","main_expt"
"826","","bandit","200","690320","0.0-161.0-0.0","05294513","wem/bandit_either","A2CF2BD4Q0ZDJN","either","4","","","","","","","0","0","1","","0.1624760489","0.6","0.4","0.2","0.8","0.1169053248","0.1597592322","0.1624760489","0.2512498235","","","","","","","","","","","75","K","2","","","122","main_expt"
"411","","bandit","201","692243","0.0-162.0-0.0","05294513","wem/bandit_either","A2CF2BD4Q0ZDJN","either","4","","","","","","","0","0","1","","0.1640214383","0.6","0.4","0.2","0.8","0.1571594809","0.1895266442","0.1640214383","0.2266242761","","","","","","","","","","","75","K","2","","","123","main_expt"
"416","","bandit","202","694168","0.0-163.0-0.0","05294513","wem/bandit_either","A2CF2BD4Q0ZDJN","either","4","","","","","","","0","0","1","","0.2014340991","0.6","0.4","0.2","0.8","0.2231804049","0.2042850732","0.2014340991","0.2373824638","","","","","","","","","","","75","K","2","","","124","main_expt"
"1532","","bandit","203","697208","0.0-164.0-0.0","05294513","wem/bandit_either","A2CF2BD4Q0ZDJN","either","4","","","","","","","1","0","0","0.2538727107","","0.6","0.4","0.2","0.8","","","","","0.2232794356","0.1812515389","0.2229229076","0.2538727107","","","","","","","76","L","3","","","125","main_expt"
"396","","bandit","204","699112","0.0-165.0-0.0","05294513","wem/bandit_either","A2CF2BD4Q0ZDJN","either","4","","","","","","","0","0","1","0.290219491","","0.6","0.4","0.2","0.8","","","","","0.2316903634","0.1694736183","0.2324712723","0.290219491","","","","","","","76","L","3","","","126","main_expt"
"396","","bandit","205","701016","0.0-166.0-0.0","05294513","wem/bandit_either","A2CF2BD4Q0ZDJN","either","4","","","","","","","0","0","1","0.2542505169","","0.6","0.4","0.2","0.8","","","","","0.2337524142","0.1624528765","0.2628391623","0.2542505169","","","","","","","76","L","3","","","127","main_expt"
"436","","bandit","206","702961","0.0-167.0-0.0","05294513","wem/bandit_either","A2CF2BD4Q0ZDJN","either","4","","","","","","","0","0","1","0.2582316027","","0.6","0.4","0.2","0.8","","","","","0.2198210178","0.1632982916","0.2654356302","0.2582316027","","","","","","","76","L","3","","","128","main_expt"
"681","","bandit","207","705151","0.0-168.0-0.0","05294513","wem/bandit_either","A2CF2BD4Q0ZDJN","either","4","","","","","","","0","0","1","0.3267566011","","0.6","0.4","0.2","0.8","","","","","0.2280168395","0.2264598068","0.2070569149","0.3267566011","","","","","","","76","L","3","","","129","main_expt"
"453","","bandit","208","707112","0.0-169.0-0.0","05294513","wem/bandit_either","A2CF2BD4Q0ZDJN","either","4","","","","","","","0","0","1","0.3323271388","","0.6","0.4","0.2","0.8","","","","","0.243895296","0.202760285","0.2579182239","0.3323271388","","","","","","","76","L","3","","","130","main_expt"
"435","","bandit","209","709057","0.0-170.0-0.0","05294513","wem/bandit_either","A2CF2BD4Q0ZDJN","either","4","","","","","","","1","0","0","0.2666668646","","0.6","0.4","0.2","0.8","","","","","0.2164454501","0.1585094705","0.2329110821","0.2666668646","","","","","","","76","L","3","","","131","main_expt"
"543","","bandit","210","711112","0.0-171.0-0.0","05294513","wem/bandit_either","A2CF2BD4Q0ZDJN","either","4","","","","","","","1","0","0","0.2359119393","","0.6","0.4","0.2","0.8","","","","","0.200468731","0.1304261544","0.2400232435","0.2359119393","","","","","","","76","L","3","","","132","main_expt"
"365","","bandit","211","712983","0.0-172.0-0.0","05294513","wem/bandit_either","A2CF2BD4Q0ZDJN","either","4","","","","","","","0","0","1","0.2540740643","","0.6","0.4","0.2","0.8","","","","","0.2038597077","0.09339990826","0.2084798617","0.2540740643","","","","","","","76","L","3","","","133","main_expt"
"460","","bandit","212","714954","0.0-173.0-0.0","05294513","wem/bandit_either","A2CF2BD4Q0ZDJN","either","4","","","","","","","0","0","1","","0.2414927735","0.6","0.4","0.2","0.8","0.2263269307","0.08524612959","0.2034544","0.2414927735","","","","","","","","","","","76","L","3","","","134","main_expt"
"377","","bandit","213","716841","0.0-174.0-0.0","05294513","wem/bandit_either","A2CF2BD4Q0ZDJN","either","4","","","","","","","0","0","1","0.2632369982","","0.6","0.4","0.2","0.8","","","","","0.2686469146","0.0622033461","0.2088958693","0.2632369982","","","","","","","76","L","3","","","135","main_expt"
"438","","bandit","214","718792","0.0-175.0-0.0","05294513","wem/bandit_either","A2CF2BD4Q0ZDJN","either","4","","","","","","","0","0","1","","0.3032623762","0.6","0.4","0.2","0.8","0.3170393738","0.05632890875","0.2573758916","0.3032623762","","","","","","","","","","","76","L","3","","","136","main_expt"
"396","","bandit","215","720695","0.0-176.0-0.0","05294513","wem/bandit_either","A2CF2BD4Q0ZDJN","either","4","","","","","","","1","0","0","0.338962466","","0.6","0.4","0.2","0.8","","","","","0.338962466","0.06052980877","0.2467438462","0.2984046037","","","","","","","72","H","0","img/none_selected.jpg","","137","main_expt"
"573","","bandit","216","722779","0.0-177.0-0.0","05294513","wem/bandit_either","A2CF2BD4Q0ZDJN","either","4","","","","","","","0","0","1","","0.3586643031","0.6","0.4","0.2","0.8","0.3586643031","0.1038497792","0.2221944767","0.3110629865","","","","","","","","","","","72","H","0","img/none_selected.jpg","","138","main_expt"
"613","","bandit","217","724905","0.0-178.0-0.0","05294513","wem/bandit_either","A2CF2BD4Q0ZDJN","either","4","","","","","","","0","0","1","","0.3430902759","0.6","0.4","0.2","0.8","0.3430902759","0.08561062373","0.2750517365","0.3048373826","","","","","","","","","","","72","H","0","img/none_selected.jpg","","139","main_expt"
"555","","bandit","218","726968","0.0-179.0-0.0","05294513","wem/bandit_either","A2CF2BD4Q0ZDJN","either","4","","","","","","","1","0","0","0.3777112835","","0.6","0.4","0.2","0.8","","","","","0.3777112835","0.08025295029","0.277474309","0.3163642845","","","","","","","72","H","0","img/none_selected.jpg","","140","main_expt"
"412","","bandit","219","728887","0.0-180.0-0.0","05294513","wem/bandit_either","A2CF2BD4Q0ZDJN","either","4","","","","","","","0","0","1","","0.4276051364","0.6","0.4","0.2","0.8","0.4276051364","0.09309891757","0.2932007391","0.2213861514","","","","","","","","","","","72","H","0","img/none_selected.jpg","","141","main_expt"
"453","","bandit","220","730848","0.0-181.0-0.0","05294513","wem/bandit_either","A2CF2BD4Q0ZDJN","either","4","","","","","","","0","1","0","","0.4312347149","0.6","0.4","0.2","0.8","0.4312347149","0.1107976638","0.3001807938","0.2492613222","","","","","","","","","","","72","H","0","img/none_selected.jpg","","142","main_expt"
"1024","","bandit","221","733386","0.0-182.0-0.0","05294513","wem/bandit_either","A2CF2BD4Q0ZDJN","either","4","","","","","","","1","0","0","0.386657586","","0.6","0.4","0.2","0.8","","","","","0.386657586","0.09575525052","0.3640878437","0.2645663874","","","","","","","72","H","0","img/none_selected.jpg","","143","main_expt"
"898","","bandit","222","735791","0.0-183.0-0.0","05294513","wem/bandit_either","A2CF2BD4Q0ZDJN","either","4","","","","","","","0","1","0","","0.3409851627","0.6","0.4","0.2","0.8","0.3409851627","0.07222794989","0.2706796495","0.2928215939","","","","","","","","","","","72","H","0","img/none_selected.jpg","","144","main_expt"
"2452","","bandit","223","739753","0.0-184.0-0.0","05294513","wem/bandit_either","A2CF2BD4Q0ZDJN","either","4","","","","","","","1","0","0","0.3538709708","","0.6","0.4","0.2","0.8","","","","","0.3538709708","0.03203798906","0.2359726437","0.3178979655","","","","","","","72","H","0","img/none_selected.jpg","","145","main_expt"
"564","","bandit","224","741834","0.0-185.0-0.0","05294513","wem/bandit_either","A2CF2BD4Q0ZDJN","either","4","","","","","","","0","0","1","0.2745956728","","0.6","0.4","0.2","0.8","","","","","0.2745956728","0.03073079809","0.2200332621","0.2850957273","","","","","","","72","H","0","img/none_selected.jpg","","146","main_expt"
"1026","","bandit","225","744370","0.0-186.0-0.0","05294513","wem/bandit_either","A2CF2BD4Q0ZDJN","either","4","","","","","","","0","0","1","0.2375793476","","0.6","0.4","0.2","0.8","","","","","0.2375793476","0.05105424151","0.1957794229","0.2483519338","","","","","","","72","H","0","img/none_selected.jpg","","147","main_expt"
"408","","bandit","226","746287","0.0-187.0-0.0","05294513","wem/bandit_either","A2CF2BD4Q0ZDJN","either","4","","","","","","","0","0","1","","0.2954602587","0.6","0.4","0.2","0.8","0.2954602587","0.04045355104","0.1790722045","0.2309770791","","","","","","","","","","","72","H","0","img/none_selected.jpg","","148","main_expt"
"468","","bandit","227","748265","0.0-188.0-0.0","05294513","wem/bandit_either","A2CF2BD4Q0ZDJN","either","4","","","","","","","1","0","0","0.3435099865","","0.6","0.4","0.2","0.8","","","","","0.3435099865","0.06416506337","0.2189150546","0.1759049641","","","","","","","72","H","0","img/none_selected.jpg","","149","main_expt"
"506","","bandit","228","750280","0.0-189.0-0.0","05294513","wem/bandit_either","A2CF2BD4Q0ZDJN","either","4","","","","","","","0","1","0","","0.268900415","0.6","0.4","0.2","0.8","0.268900415","0.07819388902","0.2119229637","0.1910702346","","","","","","","","","","","72","H","0","img/none_selected.jpg","","150","main_expt"
"452","","bandit","229","752243","0.0-190.0-0.0","05294513","wem/bandit_either","A2CF2BD4Q0ZDJN","either","4","","","","","","","0","0","1","0.2326488896","","0.6","0.4","0.2","0.8","","","","","0.2326488896","0.1186979887","0.2472398003","0.1799178466","","","","","","","72","H","0","img/none_selected.jpg","","151","main_expt"
"431","","bandit","230","754185","0.0-191.0-0.0","05294513","wem/bandit_either","A2CF2BD4Q0ZDJN","either","4","","","","","","","0","0","1","","0.2768057641","0.6","0.4","0.2","0.8","0.2768057641","0.1084773402","0.2148428051","0.1826140084","","","","","","","","","","","72","H","0","img/none_selected.jpg","","152","main_expt"
"468","","bandit","231","756161","0.0-192.0-0.0","05294513","wem/bandit_either","A2CF2BD4Q0ZDJN","either","4","","","","","","","0","0","1","0.2997660112","","0.6","0.4","0.2","0.8","","","","","0.2997660112","0.1314289417","0.1598057249","0.147924298","","","","","","","72","H","0","img/none_selected.jpg","","153","main_expt"
"432","","bandit","232","758106","0.0-193.0-0.0","05294513","wem/bandit_either","A2CF2BD4Q0ZDJN","either","4","","","","","","","1","0","0","0.3196464983","","0.6","0.4","0.2","0.8","","","","","0.3196464983","0.1354051011","0.1489099923","0.1388357139","","","","","","","72","H","0","img/none_selected.jpg","","154","main_expt"
"579","","bandit","233","760192","0.0-194.0-0.0","05294513","wem/bandit_either","A2CF2BD4Q0ZDJN","either","4","","","","","","","0","1","0","","0.3141654429","0.6","0.4","0.2","0.8","0.3141654429","0.1085215933","0.1502541116","0.1658398244","","","","","","","","","","","72","H","0","img/none_selected.jpg","","155","main_expt"
"419","","bandit","234","762121","0.0-195.0-0.0","05294513","wem/bandit_either","A2CF2BD4Q0ZDJN","either","4","","","","","","","0","0","1","","0.2667217688","0.6","0.4","0.2","0.8","0.2667217688","0.1383379057","0.1605084188","0.1104921729","","","","","","","","","","","72","H","0","img/none_selected.jpg","","156","main_expt"
"453","","bandit","235","764081","0.0-196.0-0.0","05294513","wem/bandit_either","A2CF2BD4Q0ZDJN","either","4","","","","","","","0","1","0","","0.2867075714","0.6","0.4","0.2","0.8","0.2867075714","0.1428990181","0.1684101418","0.09530810267","","","","","","","","","","","72","H","0","img/none_selected.jpg","","157","main_expt"
"579","","bandit","236","766167","0.0-197.0-0.0","05294513","wem/bandit_either","A2CF2BD4Q0ZDJN","either","4","","","","","","","0","0","1","","0.2788639118","0.6","0.4","0.2","0.8","0.2788639118","0.07455979893","0.1807688322","0.1211627972","","","","","","","","","","","72","H","0","img/none_selected.jpg","","158","main_expt"
"517","","bandit","237","768194","0.0-198.0-0.0","05294513","wem/bandit_either","A2CF2BD4Q0ZDJN","either","4","","","","","","","0","0","1","","0.3020710819","0.6","0.4","0.2","0.8","0.3020710819","0.1009372764","0.1516426412","0.1012897464","","","","","","","","","","","72","H","0","img/none_selected.jpg","","159","main_expt"
"593","","bandit","238","770295","0.0-199.0-0.0","05294513","wem/bandit_either","A2CF2BD4Q0ZDJN","either","4","","","","","","","0","0","1","0.3404227007","","0.6","0.4","0.2","0.8","","","","","0.3404227007","0.05118862797","0.1638698877","0.1188035868","","","","","","","72","H","0","img/none_selected.jpg","","160","main_expt"
"580","","bandit","239","772383","0.0-200.0-0.0","05294513","wem/bandit_either","A2CF2BD4Q0ZDJN","either","4","","","","","","","0","0","1","","0.2876249865","0.6","0.4","0.2","0.8","0.2876249865","0.05265847637","0.1645359983","0.1606836622","","","","","","","","","","","72","H","0","img/none_selected.jpg","","161","main_expt"
"573","","bandit","240","774466","0.0-201.0-0.0","05294513","wem/bandit_either","A2CF2BD4Q0ZDJN","either","4","","","","","","","0","0","1","0.2401308511","","0.6","0.4","0.2","0.8","","","","","0.2401308511","0.07938684611","0.2509918509","0.1859884171","","","","","","","72","H","0","img/none_selected.jpg","","162","main_expt"
"539","","bandit","241","776512","0.0-202.0-0.0","05294513","wem/bandit_either","A2CF2BD4Q0ZDJN","either","4","","","","","","","0","0","1","0.2486605046","","0.6","0.4","0.2","0.8","","","","","0.2486605046","0.0970900163","0.1883685458","0.2528258464","","","","","","","72","H","0","img/none_selected.jpg","","163","main_expt"
"533","","bandit","242","778553","0.0-203.0-0.0","05294513","wem/bandit_either","A2CF2BD4Q0ZDJN","either","4","","","","","","","0","0","1","0.22675384","","0.6","0.4","0.2","0.8","","","","","0.22675384","0.07401968201","0.2179532334","0.2515292425","","","","","","","72","H","0","img/none_selected.jpg","","164","main_expt"
"450","","bandit","243","780512","0.0-204.0-0.0","05294513","wem/bandit_either","A2CF2BD4Q0ZDJN","either","4","","","","","","","0","0","1","0.2841151948","","0.6","0.4","0.2","0.8","","","","","0.2841151948","0.06633104104","0.2143704678","0.2068970429","","","","","","","72","H","0","img/none_selected.jpg","","165","main_expt"
"523","","bandit","244","782543","0.0-205.0-0.0","05294513","wem/bandit_either","A2CF2BD4Q0ZDJN","either","4","","","","","","","0","0","1","","0.2842980464","0.6","0.4","0.2","0.8","0.2842980464","0.05309652092","0.2175899085","0.1413778631","","","","","","","","","","","72","H","0","img/none_selected.jpg","","166","main_expt"
"716","","bandit","245","784768","0.0-206.0-0.0","05294513","wem/bandit_either","A2CF2BD4Q0ZDJN","either","4","","","","","","","0","0","1","","0.3007590714","0.6","0.4","0.2","0.8","0.3007590714","0.07357446968","0.2137120923","0.1999497975","","","","","","","","","","","72","H","0","img/none_selected.jpg","","167","main_expt"
"576","","bandit","246","786855","0.0-207.0-0.0","05294513","wem/bandit_either","A2CF2BD4Q0ZDJN","either","4","","","","","","","0","0","1","","0.2884936601","0.6","0.4","0.2","0.8","0.2884936601","0.1054325378","0.2331560811","0.1696145944","","","","","","","","","","","72","H","0","img/none_selected.jpg","","168","main_expt"
"710","","bandit","247","789071","0.0-208.0-0.0","05294513","wem/bandit_either","A2CF2BD4Q0ZDJN","either","4","","","","","","","0","0","1","0.1338518967","","0.6","0.4","0.2","0.8","","","","","0.2803439438","0.08536867429","0.2367963754","0.1338518967","","","","","","","76","L","3","","","169","main_expt"
"346","","bandit","248","790927","0.0-209.0-0.0","05294513","wem/bandit_either","A2CF2BD4Q0ZDJN","either","4","","","","","","","0","0","1","","0.1307598277","0.6","0.4","0.2","0.8","0.3010437192","0.1083432756","0.2378050175","0.1307598277","","","","","","","","","","","76","L","3","","","170","main_expt"
"491","","bandit","249","792927","0.0-210.0-0.0","05294513","wem/bandit_either","A2CF2BD4Q0ZDJN","either","4","","","","","","","1","0","0","0.1200375331","","0.6","0.4","0.2","0.8","","","","","0.3243802095","0.09185370626","0.2253696972","0.1200375331","","","","","","","76","L","3","","","171","main_expt"
"346","","bandit","250","794784","0.0-211.0-0.0","05294513","wem/bandit_either","A2CF2BD4Q0ZDJN","either","4","","","","","","","0","0","1","0.07514546963","","0.6","0.4","0.2","0.8","","","","","0.3140094691","0.09458096772","0.2903394368","0.07514546963","","","","","","","76","L","3","","","172","main_expt"
"406","","bandit","251","796706","0.0-212.0-0.0","05294513","wem/bandit_either","A2CF2BD4Q0ZDJN","either","4","","","","","","","0","0","1","0.07704486673","","0.6","0.4","0.2","0.8","","","","","0.2433770114","0.1016296913","0.2384828248","0.07704486673","","","","","","","76","L","3","","","173","main_expt"
"367","","bandit","252","798583","0.0-213.0-0.0","05294513","wem/bandit_either","A2CF2BD4Q0ZDJN","either","4","","","","","","","0","0","1","","0.04061738922","0.6","0.4","0.2","0.8","0.2080779891","0.117107939","0.2823111034","0.04061738922","","","","","","","","","","","76","L","3","","","174","main_expt"
"981","","bandit","253","801074","0.0-214.0-0.0","05294513","wem/bandit_either","A2CF2BD4Q0ZDJN","either","4","","","","","","","0","0","1","","0.02968316822","0.6","0.4","0.2","0.8","0.2211365803","0.1254773658","0.292147578","0.02968316822","","","","","","","","","","","76","L","3","","","175","main_expt"
"364","","bandit","254","802950","0.0-215.0-0.0","05294513","wem/bandit_either","A2CF2BD4Q0ZDJN","either","4","","","","","","","0","0","1","0.04419366322","","0.6","0.4","0.2","0.8","","","","","0.231280906","0.1518856622","0.2928295457","0.04419366322","","","","","","","76","L","3","","","176","main_expt"
"488","","bandit","255","804947","0.0-216.0-0.0","05294513","wem/bandit_either","A2CF2BD4Q0ZDJN","either","4","","","","","","","0","1","0","","0.297241693","0.6","0.4","0.2","0.8","0.1689881391","0.1502483312","0.297241693","0.04140429262","","","","","","","","","","","75","K","2","","","177","main_expt"
"1191","","bandit","256","807647","0.0-217.0-0.0","05294513","wem/bandit_either","A2CF2BD4Q0ZDJN","either","4","","","","","","","0","0","1","","0.276241128","0.6","0.4","0.2","0.8","0.1699404395","0.2073149786","0.276241128","0.06103489621","","","","","","","","","","","75","K","2","","","178","main_expt"
"1539","","bandit","257","810696","0.0-218.0-0.0","05294513","wem/bandit_either","A2CF2BD4Q0ZDJN","either","4","","","","","","","0","1","0","","0.2405339857","0.6","0.4","0.2","0.8","0.1571972967","0.1928578162","0.2405339857","0.053608248","","","","","","","","","","","75","K","2","","","179","main_expt"
"386","","bandit","258","812591","0.0-219.0-0.0","05294513","wem/bandit_either","A2CF2BD4Q0ZDJN","either","4","","","","","","","0","0","1","","0.233428307","0.6","0.4","0.2","0.8","0.1567782565","0.1412953234","0.233428307","0.06289379635","","","","","","","","","","","75","K","2","","","180","main_expt"
"443","","bandit","259","814542","0.0-220.0-0.0","05294513","wem/bandit_either","A2CF2BD4Q0ZDJN","either","4","","","","","","","0","0","1","","0.1459310114","0.6","0.4","0.2","0.8","0.1492691696","0.1258774719","0.1459310114","0.07748386732","","","","","","","","","","","75","K","2","","","181","main_expt"
"804","","bandit","260","816854","0.0-221.0-0.0","05294513","wem/bandit_either","A2CF2BD4Q0ZDJN","either","4","","","","","","","0","0","1","0.1796360657","","0.6","0.4","0.2","0.8","","","","","0.1609613705","0.1121960069","0.1796360657","0.096714051","","","","","","","75","K","2","","","182","main_expt"
"419","","bandit","261","818784","0.0-222.0-0.0","05294513","wem/bandit_either","A2CF2BD4Q0ZDJN","either","4","","","","","","","0","0","1","","0.1907874973","0.6","0.4","0.2","0.8","0.1982891881","0.08335286121","0.1907874973","0.05351369794","","","","","","","","","","","75","K","2","","","183","main_expt"
"404","","bandit","262","820699","0.0-223.0-0.0","05294513","wem/bandit_either","A2CF2BD4Q0ZDJN","either","4","","","","","","","0","0","1","0.1451627339","","0.6","0.4","0.2","0.8","","","","","0.1703318442","0.1085923678","0.1451627339","0.08854511538","","","","","","","75","K","2","","","184","main_expt"
"723","","bandit","263","822934","0.0-224.0-0.0","05294513","wem/bandit_either","A2CF2BD4Q0ZDJN","either","4","","","","","","","1","0","0","0.1113654269","","0.6","0.4","0.2","0.8","","","","","0.09566746086","0.1113654269","0.1692531577","0.136385666","","","","","","","74","J","1","","","185","main_expt"
"348","","bandit","264","824790","0.0-225.0-0.0","05294513","wem/bandit_either","A2CF2BD4Q0ZDJN","either","4","","","","","","","0","0","1","0.1383531569","","0.6","0.4","0.2","0.8","","","","","0.1254261761","0.1383531569","0.1885113298","0.1848043888","","","","","","","74","J","1","","","186","main_expt"
"494","","bandit","265","826791","0.0-226.0-0.0","05294513","wem/bandit_either","A2CF2BD4Q0ZDJN","either","4","","","","","","","0","0","1","0.1739713275","","0.6","0.4","0.2","0.8","","","","","0.1081798115","0.1739713275","0.2088125345","0.1640989128","","","","","","","74","J","1","","","187","main_expt"
"482","","bandit","266","828784","0.0-227.0-0.0","05294513","wem/bandit_either","A2CF2BD4Q0ZDJN","either","4","","","","","","","0","0","1","","0.1926366302","0.6","0.4","0.2","0.8","0.08529062399","0.1926366302","0.2228369986","0.1301402021","","","","","","","","","","","74","J","1","","","188","main_expt"
"435","","bandit","267","830726","0.0-228.0-0.0","05294513","wem/bandit_either","A2CF2BD4Q0ZDJN","either","4","","","","","","","0","0","1","0.2499935398","","0.6","0.4","0.2","0.8","","","","","0.07250281893","0.2499935398","0.2567428292","0.1980942663","","","","","","","74","J","1","","","189","main_expt"
"534","","bandit","268","832768","0.0-229.0-0.0","05294513","wem/bandit_either","A2CF2BD4Q0ZDJN","either","4","","","","","","","0","1","0","","0.2367317824","0.6","0.4","0.2","0.8","0.07895395147","0.2367317824","0.3177850294","0.1842725295","","","","","","","","","","","74","J","1","","","190","main_expt"
"340","","bandit","269","834619","0.0-230.0-0.0","05294513","wem/bandit_either","A2CF2BD4Q0ZDJN","either","4","","","","","","","0","1","0","","0.2515026666","0.6","0.4","0.2","0.8","0.06204701637","0.2515026666","0.2876912335","0.2087081259","","","","","","","","","","","74","J","1","","","191","main_expt"
"512","","bandit","270","836640","0.0-231.0-0.0","05294513","wem/bandit_either","A2CF2BD4Q0ZDJN","either","4","","","","","","","0","0","1","0.2451916405","","0.6","0.4","0.2","0.8","","","","","0.064067899","0.2451916405","0.2383873749","0.1800110976","","","","","","","74","J","1","","","192","main_expt"
"485","","bandit","271","838640","0.0-232.0-0.0","05294513","wem/bandit_either","A2CF2BD4Q0ZDJN","either","4","","","","","","","0","0","1","0.2353451433","","0.6","0.4","0.2","0.8","","","","","0.1286650472","0.2353451433","0.24690957","0.1519186298","","","","","","","74","J","1","","","193","main_expt"
"626","","bandit","272","840776","0.0-233.0-0.0","05294513","wem/bandit_either","A2CF2BD4Q0ZDJN","either","4","","","","","","","0","0","1","","0.307075739","0.6","0.4","0.2","0.8","0.1746490116","0.307075739","0.2728455101","0.1431656489","","","","","","","","","","","74","J","1","","","194","main_expt"
"474","","bandit","273","842760","0.0-234.0-0.0","05294513","wem/bandit_either","A2CF2BD4Q0ZDJN","either","4","","","","","","","0","0","1","","0.3011001907","0.6","0.4","0.2","0.8","0.129035247","0.3011001907","0.2421292151","0.1868251083","","","","","","","","","","","74","J","1","","","195","main_expt"
"635","","bandit","274","844904","0.0-235.0-0.0","05294513","wem/bandit_either","A2CF2BD4Q0ZDJN","either","4","","","","","","","0","0","1","","0.2861216794","0.6","0.4","0.2","0.8","0.09052040682","0.2861216794","0.2598052724","0.176624335","","","","","","","","","","","74","J","1","","","196","main_expt"
"515","","bandit","275","846927","0.0-236.0-0.0","05294513","wem/bandit_either","A2CF2BD4Q0ZDJN","either","4","","","","","","","0","0","1","","0.2121549007","0.6","0.4","0.2","0.8","0.08675464884","0.2121549007","0.2540930088","0.2383323772","","","","","","","","","","","74","J","1","","","197","main_expt"
"420","","bandit","276","848855","0.0-237.0-0.0","05294513","wem/bandit_either","A2CF2BD4Q0ZDJN","either","4","","","","","","","0","1","0","","0.260340052","0.6","0.4","0.2","0.8","0.09429549835","0.260340052","0.2460150375","0.260618614","","","","","","","","","","","74","J","1","","","198","main_expt"
"717","","bandit","277","851079","0.0-238.0-0.0","05294513","wem/bandit_either","A2CF2BD4Q0ZDJN","either","4","","","","","","","0","0","1","0.3009562829","","0.6","0.4","0.2","0.8","","","","","0.09303778716","0.3009562829","0.2217343644","0.2935067364","","","","","","","74","J","1","","","199","main_expt"
"852","","bandit","278","853443","0.0-239.0-0.0","05294513","wem/bandit_either","A2CF2BD4Q0ZDJN","either","4","","","","","","","0","0","1","","0.3430896668","0.6","0.4","0.2","0.8","0.07354084322","0.3430896668","0.2830302048","0.362920627","","","","","","","","","","","74","J","1","","","200","main_expt"
"896","","bandit","279","855847","0.0-240.0-0.0","05294513","wem/bandit_either","A2CF2BD4Q0ZDJN","either","4","","","","","","","0","0","1","0.08115367452","","0.6","0.4","0.2","0.8","","","","","0.08115367452","0.2973668079","0.3175621279","0.3119044903","","","","","","","72","H","0","img/none_selected.jpg","","201","main_expt"
"481","","bandit","280","857841","0.0-241.0-0.0","05294513","wem/bandit_either","A2CF2BD4Q0ZDJN","either","4","","","","","","","0","0","1","0.0774842685","","0.6","0.4","0.2","0.8","","","","","0.0774842685","0.3219337599","0.3049471546","0.3095695708","","","","","","","72","H","0","img/none_selected.jpg","","202","main_expt"
"922","","bandit","281","860270","0.0-242.0-0.0","05294513","wem/bandit_either","A2CF2BD4Q0ZDJN","either","4","","","","","","","0","0","1","","0.09704724367","0.6","0.4","0.2","0.8","0.09704724367","0.3229991028","0.2975042969","0.3005459379","","","","","","","","","","","72","H","0","img/none_selected.jpg","","203","main_expt"
"578","","bandit","282","862359","0.0-243.0-0.0","05294513","wem/bandit_either","A2CF2BD4Q0ZDJN","either","4","","","","","","","0","0","1","0.1224111047","","0.6","0.4","0.2","0.8","","","","","0.1224111047","0.3077995671","0.2268457719","0.3116824409","","","","","","","72","H","0","img/none_selected.jpg","","204","main_expt"
"572","","bandit","283","864438","0.0-244.0-0.0","05294513","wem/bandit_either","A2CF2BD4Q0ZDJN","either","4","","","","","","","0","0","1","","0.1627664319","0.6","0.4","0.2","0.8","0.1627664319","0.3070199156","0.2582085449","0.3291635812","","","","","","","","","","","72","H","0","img/none_selected.jpg","","205","main_expt"
"396","","bandit","284","866348","0.0-245.0-0.0","05294513","wem/bandit_either","A2CF2BD4Q0ZDJN","either","4","","","","","","","1","0","0","0.4008790519","","0.6","0.4","0.2","0.8","","","","","0.1604236747","0.3109683939","0.2841247045","0.4008790519","","","","","","","76","L","3","","","206","main_expt"
"695","","bandit","285","868583","0.0-246.0-0.0","05294513","wem/bandit_either","A2CF2BD4Q0ZDJN","either","4","","","","","","","0","0","1","0.4202180382","","0.6","0.4","0.2","0.8","","","","","0.126388554","0.2845075958","0.3333225396","0.4202180382","","","","","","","76","L","3","","","207","main_expt"
"497","","bandit","286","870592","0.0-247.0-0.0","05294513","wem/bandit_either","A2CF2BD4Q0ZDJN","either","4","","","","","","","1","0","0","0.4168586074","","0.6","0.4","0.2","0.8","","","","","0.1602309633","0.2419557814","0.290219871","0.4168586074","","","","","","","76","L","3","","","208","main_expt"
"507","","bandit","287","872607","0.0-248.0-0.0","05294513","wem/bandit_either","A2CF2BD4Q0ZDJN","either","4","","","","","","","0","0","1","0.3949328033","","0.6","0.4","0.2","0.8","","","","","0.2009997365","0.2449545816","0.3426384504","0.3949328033","","","","","","","76","L","3","","","209","main_expt"
"529","","bandit","288","874646","0.0-249.0-0.0","05294513","wem/bandit_either","A2CF2BD4Q0ZDJN","either","4","","","","","","","0","0","1","","0.41782505","0.6","0.4","0.2","0.8","0.1997114924","0.2176860071","0.2932754766","0.41782505","","","","","","","","","","","76","L","3","","","210","main_expt"
"546","","bandit","289","876704","0.0-250.0-0.0","05294513","wem/bandit_either","A2CF2BD4Q0ZDJN","either","4","","","","","","","0","0","1","0.4377941382","","0.6","0.4","0.2","0.8","","","","","0.2631807131","0.2460847292","0.2522206247","0.4377941382","","","","","","","76","L","3","","","211","main_expt"
"520","","bandit","290","878736","0.0-251.0-0.0","05294513","wem/bandit_either","A2CF2BD4Q0ZDJN","either","4","","","","","","","1","0","0","0.4619006446","","0.6","0.4","0.2","0.8","","","","","0.2008991105","0.2017704833","0.2323705111","0.4619006446","","","","","","","76","L","3","","","212","main_expt"
"1147","","bandit","291","881390","0.0-252.0-0.0","05294513","wem/bandit_either","A2CF2BD4Q0ZDJN","either","4","","","","","","","0","0","1","0.4508737721","","0.6","0.4","0.2","0.8","","","","","0.1656487101","0.1891715169","0.2815580385","0.4508737721","","","","","","","76","L","3","","","213","main_expt"
"461","","bandit","292","883360","0.0-253.0-0.0","05294513","wem/bandit_either","A2CF2BD4Q0ZDJN","either","4","","","","","","","0","0","1","","0.4639731149","0.6","0.4","0.2","0.8","0.213788386","0.1819308411","0.2955812139","0.4639731149","","","","","","","","","","","76","L","3","","","214","main_expt"
"771","","bandit","293","885638","0.0-254.0-0.0","05294513","wem/bandit_either","A2CF2BD4Q0ZDJN","either","4","","","","","","","0","0","1","0.4690757113","","0.6","0.4","0.2","0.8","","","","","0.2206736926","0.1406935411","0.2988647484","0.4690757113","","","","","","","76","L","3","","","215","main_expt"
"1084","","bandit","294","888231","0.0-255.0-0.0","05294513","wem/bandit_either","A2CF2BD4Q0ZDJN","either","4","","","","","","","1","0","0","0.4685680314","","0.6","0.4","0.2","0.8","","","","","0.2270120675","0.206739756","0.3361974059","0.4685680314","","","","","","","76","L","3","","","216","main_expt"
"1987","","bandit","295","891726","0.0-256.0-0.0","05294513","wem/bandit_either","A2CF2BD4Q0ZDJN","either","4","","","","","","","1","0","0","0.4873952874","","0.6","0.4","0.2","0.8","","","","","0.2561581829","0.178624692","0.2764506131","0.4873952874","","","","","","","76","L","3","","","217","main_expt"
"1456","","bandit","296","894689","0.0-257.0-0.0","05294513","wem/bandit_either","A2CF2BD4Q0ZDJN","either","4","","","","","","","0","0","1","","0.4790671899","0.6","0.4","0.2","0.8","0.2785758431","0.2021641755","0.299893698","0.4790671899","","","","","","","","","","","76","L","3","","","218","main_expt"
"1234","","bandit","297","897431","0.0-258.0-0.0","05294513","wem/bandit_either","A2CF2BD4Q0ZDJN","either","4","","","","","","","0","0","1","0.4769795117","","0.6","0.4","0.2","0.8","","","","","0.2707863597","0.2076996705","0.3213687962","0.4769795117","","","","","","","76","L","3","","","219","main_expt"
"516","","bandit","298","899456","0.0-259.0-0.0","05294513","wem/bandit_either","A2CF2BD4Q0ZDJN","either","4","","","","","","","0","0","1","0.4746148145","","0.6","0.4","0.2","0.8","","","","","0.2262269101","0.2479045362","0.3782095139","0.4746148145","","","","","","","76","L","3","","","220","main_expt"
"1016","","bandit","299","901982","0.0-260.0-0.0","05294513","wem/bandit_either","A2CF2BD4Q0ZDJN","either","4","","","","","","","1","0","0","0.4789253058","","0.6","0.4","0.2","0.8","","","","","0.2522421151","0.251163546","0.3572699546","0.4789253058","","","","","","","76","L","3","","","221","main_expt"
"587","","bandit","300","904079","0.0-261.0-0.0","05294513","wem/bandit_either","A2CF2BD4Q0ZDJN","either","4","","","","","","","1","0","0","0.4765400837","","0.6","0.4","0.2","0.8","","","","","0.2323100388","0.2653622565","0.332217079","0.4765400837","","","","","","","76","L","3","","","222","main_expt"
"1035","","bandit","301","906624","0.0-262.0-0.0","05294513","wem/bandit_either","A2CF2BD4Q0ZDJN","either","4","","","","","","","1","0","0","0.4872993944","","0.6","0.4","0.2","0.8","","","","","0.2013525365","0.2034578964","0.3327789551","0.4872993944","","","","","","","76","L","3","","","223","main_expt"
"1625","","bandit","302","909760","0.0-263.0-0.0","05294513","wem/bandit_either","A2CF2BD4Q0ZDJN","either","4","","","","","","","0","1","0","","0.4864577786","0.6","0.4","0.2","0.8","0.2017363432","0.1176985371","0.3720138676","0.4864577786","","","","","","","","","","","76","L","3","","","224","main_expt"
"1547","","bandit","303","912814","0.0-264.0-0.0","05294513","wem/bandit_either","A2CF2BD4Q0ZDJN","either","4","","","","","","","0","0","1","0.4815865163","","0.6","0.4","0.2","0.8","","","","","0.1608447522","0.08531446518","0.4035982493","0.4815865163","","","","","","","76","L","3","","","225","main_expt"
"917","","bandit","304","915240","0.0-265.0-0.0","05294513","wem/bandit_either","A2CF2BD4Q0ZDJN","either","4","","","","","","","1","0","0","0.4781941344","","0.6","0.4","0.2","0.8","","","","","0.2023183299","0.0901010045","0.3538577565","0.4781941344","","","","","","","76","L","3","","","226","main_expt"
"1419","","bandit","305","918168","0.0-266.0-0.0","05294513","wem/bandit_either","A2CF2BD4Q0ZDJN","either","4","","","","","","","0","1","0","","0.4742279627","0.6","0.4","0.2","0.8","0.1555458008","0.06499555022","0.4205879778","0.4742279627","","","","","","","","","","","76","L","3","","","227","main_expt"
"2434","","bandit","306","922111","0.0-267.0-0.0","05294513","wem/bandit_either","A2CF2BD4Q0ZDJN","either","4","","","","","","","1","0","0","0.4597327255","","0.6","0.4","0.2","0.8","","","","","0.1210896773","0.06967502077","0.4082381823","0.4597327255","","","","","","","76","L","3","","","228","main_expt"
"585","","bandit","307","924207","0.0-268.0-0.0","05294513","wem/bandit_either","A2CF2BD4Q0ZDJN","either","4","","","","","","","1","0","0","0.4733003713","","0.6","0.4","0.2","0.8","","","","","0.1206830913","0.07642173418","0.4274963613","0.4733003713","","","","","","","76","L","3","","","229","main_expt"
"1700","","bandit","308","927418","0.0-269.0-0.0","05294513","wem/bandit_either","A2CF2BD4Q0ZDJN","either","4","","","","","","","1","0","0","0.4832022084","","0.6","0.4","0.2","0.8","","","","","0.1334008039","0.04973788902","0.4362488765","0.4832022084","","","","","","","76","L","3","","","230","main_expt"
"2953","","bandit","309","931881","0.0-270.0-0.0","05294513","wem/bandit_either","A2CF2BD4Q0ZDJN","either","4","","","","","","","0","0","1","0.4802630573","","0.6","0.4","0.2","0.8","","","","","0.1048467088","0.07419495466","0.4420629534","0.4802630573","","","","","","","76","L","3","","","231","main_expt"
"585","","bandit","310","933974","0.0-271.0-0.0","05294513","wem/bandit_either","A2CF2BD4Q0ZDJN","either","4","","","","","","","0","0","1","0.4739318499","","0.6","0.4","0.2","0.8","","","","","0.1184002818","0.08125260149","0.4287414635","0.4739318499","","","","","","","76","L","3","","","232","main_expt"
"1001","","bandit","311","936490","0.0-272.0-0.0","05294513","wem/bandit_either","A2CF2BD4Q0ZDJN","either","4","","","","","","","0","0","1","","0.4709765286","0.6","0.4","0.2","0.8","0.08533064469","0.06057073796","0.4395511981","0.4709765286","","","","","","","","","","","76","L","3","","","233","main_expt"
"980","","bandit","312","938983","0.0-273.0-0.0","05294513","wem/bandit_either","A2CF2BD4Q0ZDJN","either","4","","","","","","","0","0","1","0.4658145356","","0.6","0.4","0.2","0.8","","","","","0.1190123434","0.1037411708","0.4479240545","0.4658145356","","","","","","","76","L","3","","","234","main_expt"
"1515","","bandit","313","942007","0.0-274.0-0.0","05294513","wem/bandit_either","A2CF2BD4Q0ZDJN","either","4","","","","","","","1","0","0","0.4312508187","","0.6","0.4","0.2","0.8","","","","","0.1392024459","0.1267441937","0.4476644646","0.4312508187","","","","","","","76","L","3","","","235","main_expt"
"1037","","bandit","314","944552","0.0-275.0-0.0","05294513","wem/bandit_either","A2CF2BD4Q0ZDJN","either","4","","","","","","","0","0","1","0.4323277229","","0.6","0.4","0.2","0.8","","","","","0.1076242464","0.1002206095","0.457106966","0.4323277229","","","","","","","76","L","3","","","236","main_expt"
"664","","bandit","315","946725","0.0-276.0-0.0","05294513","wem/bandit_either","A2CF2BD4Q0ZDJN","either","4","","","","","","","0","0","1","","0.4517679415","0.6","0.4","0.2","0.8","0.1539911713","0.08353940566","0.4097288684","0.4517679415","","","","","","","","","","","76","L","3","","","237","main_expt"
"725","","bandit","316","948959","0.0-277.0-0.0","05294513","wem/bandit_either","A2CF2BD4Q0ZDJN","either","4","","","","","","","1","0","0","0.4476427196","","0.6","0.4","0.2","0.8","","","","","0.1833253983","0.07847158511","0.4530646831","0.4476427196","","","","","","","76","L","3","","","238","main_expt"
"1612","","bandit","317","952081","0.0-278.0-0.0","05294513","wem/bandit_either","A2CF2BD4Q0ZDJN","either","4","","","","","","","1","0","0","0.4421551546","","0.6","0.4","0.2","0.8","","","","","0.185515968","0.1132310855","0.4532148127","0.4421551546","","","","","","","76","L","3","","","239","main_expt"
"1109","","bandit","318","954703","0.0-279.0-0.0","05294513","wem/bandit_either","A2CF2BD4Q0ZDJN","either","4","","","","","","","1","0","0","0.4205303603","","0.6","0.4","0.2","0.8","","","","","0.2545144829","0.130249024","0.4456906816","0.4205303603","","","","","","","76","L","3","","","240","main_expt"
"822","","bandit","319","957037","0.0-280.0-0.0","05294513","wem/bandit_either","A2CF2BD4Q0ZDJN","either","4","","","","","","","1","0","0","0.4304808994","","0.6","0.4","0.2","0.8","","","","","0.1902236802","0.1356270161","0.4515134246","0.4304808994","","","","","","","76","L","3","","","241","main_expt"
"1301","","bandit","320","959849","0.0-281.0-0.0","05294513","wem/bandit_either","A2CF2BD4Q0ZDJN","either","4","","","","","","","1","0","0","0.4318168925","","0.6","0.4","0.2","0.8","","","","","0.2196571485","0.1402569013","0.4640222466","0.4318168925","","","","","","","76","L","3","","","242","main_expt"
"871","","bandit","321","962231","0.0-282.0-0.0","05294513","wem/bandit_either","A2CF2BD4Q0ZDJN","either","4","","","","","","","0","0","1","0.4437639365","","0.6","0.4","0.2","0.8","","","","","0.2691755858","0.1851652895","0.4305348251","0.4437639365","","","","","","","76","L","3","","","243","main_expt"
"1130","","bandit","322","964871","0.0-283.0-0.0","05294513","wem/bandit_either","A2CF2BD4Q0ZDJN","either","4","","","","","","","0","0","1","0.4444545885","","0.6","0.4","0.2","0.8","","","","","0.2689580194","0.1871667761","0.4444417595","0.4444545885","","","","","","","76","L","3","","","244","main_expt"
"948","","bandit","323","967335","0.0-284.0-0.0","05294513","wem/bandit_either","A2CF2BD4Q0ZDJN","either","4","","","","","","","0","1","0","","0.445216333","0.6","0.4","0.2","0.8","0.1935089033","0.1881322931","0.4468105605","0.445216333","","","","","","","","","","","76","L","3","","","245","main_expt"
"931","","bandit","324","969775","0.0-285.0-0.0","05294513","wem/bandit_either","A2CF2BD4Q0ZDJN","either","4","","","","","","","1","0","0","0.4767449203","","0.6","0.4","0.2","0.8","","","","","0.1466547275","0.187853128","0.4453418505","0.4767449203","","","","","","","76","L","3","","","246","main_expt"
"1288","","bandit","325","972575","0.0-286.0-0.0","05294513","wem/bandit_either","A2CF2BD4Q0ZDJN","either","4","","","","","","","0","0","1","0.4530054638","","0.6","0.4","0.2","0.8","","","","","0.1275107348","0.1952756904","0.4426138654","0.4530054638","","","","","","","76","L","3","","","247","main_expt"
"1770","","bandit","326","975855","0.0-287.0-0.0","05294513","wem/bandit_either","A2CF2BD4Q0ZDJN","either","4","","","","","","","0","1","0","","0.4326938674","0.6","0.4","0.2","0.8","0.107785627","0.1722543521","0.464375056","0.4326938674","","","","","","","","","","","76","L","3","","","248","main_expt"
"688","","bandit","327","978053","0.0-288.0-0.0","05294513","wem/bandit_either","A2CF2BD4Q0ZDJN","either","4","","","","","","","1","0","0","0.4276367863","","0.6","0.4","0.2","0.8","","","","","0.1169449123","0.1935833679","0.4416705694","0.4276367863","","","","","","","76","L","3","","","249","main_expt"
"1276","","bandit","328","980844","0.0-289.0-0.0","05294513","wem/bandit_either","A2CF2BD4Q0ZDJN","either","4","","","","","","","0","0","1","0.4602627553","","0.6","0.4","0.2","0.8","","","","","0.1474950258","0.1783221165","0.4352039605","0.4602627553","","","","","","","76","L","3","","","250","main_expt"
"827","","bandit","329","983191","0.0-290.0-0.0","05294513","wem/bandit_either","A2CF2BD4Q0ZDJN","either","4","","","","","","","0","0","1","0.4429671406","","0.6","0.4","0.2","0.8","","","","","0.1272017844","0.2191654692","0.4625669079","0.4429671406","","","","","","","76","L","3","","","251","main_expt"
