"rt","responses","trial_type","trial_index","time_elapsed","internal_node_id","subjID","study","MID","cond","drift","key_press","expt_phase","target","like","value","connected","respCharCode","respKey","respChoiceNum","respChoice","gems","bombs","no_reward","GemPrChosen","BombPrChosen","practice","trial_counter","WinPr_0","LosePr_0","trial_label","GainOverPainPr_0","LosePr_1","GainOverPainPr_1","WinPr_1","LosePr_2","GainOverPainPr_2","LosePr_3","GainOverPainPr_3","WinPr_2","WinPr_3","Q0","Q1","Q2","gender","age","ethnicity"
"1951","{""Q0"":""AOAZMLP27GD81""}","survey-text","0","1961","0.0-0.0","05753215","wem/bandit_either","AOAZMLP27GD81","either","3","","","","","","","","","","","","","","","","","","","","","","","","","","","","","","","","","","","",""
"8889","","text","1","11855","0.0-1.0","05753215","wem/bandit_either","AOAZMLP27GD81","either","3","32","","","","","","","","","","","","","","","","","","","","","","","","","","","","","","","","","","",""
"6511","","text","2","18366","0.0-2.0","05753215","wem/bandit_either","AOAZMLP27GD81","either","3","32","","","","","","","","","","","","","","","","","","","","","","","","","","","","","","","","","","",""
"17063","","text","3","35432","0.0-3.0","05753215","wem/bandit_either","AOAZMLP27GD81","either","3","32","","","","","","","","","","","","","","","","","","","","","","","","","","","","","","","","","","",""
"11134","","text","4","46568","0.0-4.0","05753215","wem/bandit_either","AOAZMLP27GD81","either","3","32","","","","","","","","","","","","","","","","","","","","","","","","","","","","","","","","","","",""
"10565","","text","5","57134","0.0-5.0","05753215","wem/bandit_either","AOAZMLP27GD81","either","3","32","","","","","","","","","","","","","","","","","","","","","","","","","","","","","","","","","","",""
"8126","","text","6","65262","0.0-6.0","05753215","wem/bandit_either","AOAZMLP27GD81","either","3","32","","","","","","","","","","","","","","","","","","","","","","","","","","","","","","","","","","",""
"4231","","text","7","69494","0.0-7.0","05753215","wem/bandit_either","AOAZMLP27GD81","either","3","32","","","","","","","","","","","","","","","","","","","","","","","","","","","","","","","","","","",""
"47428","","identification","8","116935","0.0-8.0-0.0","05753215","wem/bandit_either","AOAZMLP27GD81","either","3","","identification_pre","the village of Zur","6","6","6","","","","","","","","","","","","","","","","","","","","","","","","","","","","","",""
"6330","","identification","9","124288","0.0-8.0-1.0","05753215","wem/bandit_either","AOAZMLP27GD81","either","3","","identification_pre","the village of Nyx","0","0","0","","","","","","","","","","","","","","","","","","","","","","","","","","","","","",""
"5980","","text","10","131272","0.0-9.0","05753215","wem/bandit_either","AOAZMLP27GD81","either","3","32","","","","","","","","","","","","","","","","","","","","","","","","","","","","","","","","","","",""
"2812","","text","11","134086","0.0-10.0","05753215","wem/bandit_either","AOAZMLP27GD81","either","3","32","","","","","","","","","","","","","","","","","","","","","","","","","","","","","","","","","","",""
"2096","","text","12","136183","0.0-11.0","05753215","wem/bandit_either","AOAZMLP27GD81","either","3","32","","","","","","","","","","","","","","","","","","","","","","","","","","","","","","","","","","",""
"4255","","text","13","140440","0.0-12.0","05753215","wem/bandit_either","AOAZMLP27GD81","either","3","32","","","","","","","","","","","","","","","","","","","","","","","","","","","","","","","","","","",""
"3127","","bandit","14","145083","0.0-13.0-0.0","05753215","wem/bandit_either","AOAZMLP27GD81","either","3","","","","","","","74","J","0","img/none_selected_demo.jpg","0","0","1","0","0","true","0","0","0","","","","","","","","","","","","","","","","",""
"2012","","bandit","15","148607","0.0-14.0-0.0","05753215","wem/bandit_either","AOAZMLP27GD81","either","3","","","","","","","75","K","0","img/none_selected_demo.jpg","0","0","1","0","0","true","0","0","0","","","","","","","","","","","","","","","","",""
"3670","","text","16","152280","0.0-15.0","05753215","wem/bandit_either","AOAZMLP27GD81","either","3","32","","","","","","","","","","","","","","","","","","","","","","","","","","","","","","","","","","",""
"9253","","text","17","161535","0.0-16.0","05753215","wem/bandit_either","AOAZMLP27GD81","either","3","32","","","","","","","","","","","","","","","","","","","","","","","","","","","","","","","","","","",""
"7693","","text","18","169231","0.0-17.0","05753215","wem/bandit_either","AOAZMLP27GD81","either","3","32","","","","","","","","","","","","","","","","","","","","","","","","","","","","","","","","","","",""
"1959","","text","19","171190","0.0-18.0","05753215","wem/bandit_either","AOAZMLP27GD81","either","3","32","","","","","","","","","","","","","","","","","","","","","","","","","","","","","","","","","","",""
"630","","bandit","20","173324","0.0-19.0-0.0","05753215","wem/bandit_either","AOAZMLP27GD81","either","3","","","","","","","74","J","0","img/none_selected_demo.jpg","0","1","0","","0.8","true","0","","0.8","80_20_practice","0.5","0.2","0.5","","","","","","","","","","","","",""
"999","","bandit","21","175829","0.0-19.0-1.0","05753215","wem/bandit_either","AOAZMLP27GD81","either","3","","","","","","","74","J","0","img/none_selected_demo.jpg","0","1","0","","0.8","true","0","","0.8","80_20_practice","0.5","0.2","0.5","","","","","","","","","","","","",""
"301","","bandit","22","177637","0.0-19.0-2.0","05753215","wem/bandit_either","AOAZMLP27GD81","either","3","","","","","","","75","K","1","","0","0","1","0.2","","true","0","0.8","","80_20_practice","0.5","","0.5","0.2","","","","","","","","","","","",""
"359","","bandit","23","179502","0.0-19.0-3.0","05753215","wem/bandit_either","AOAZMLP27GD81","either","3","","","","","","","75","K","1","","0","0","1","0.2","","true","0","0.8","","80_20_practice","0.5","","0.5","0.2","","","","","","","","","","","",""
"213","","bandit","24","181224","0.0-19.0-4.0","05753215","wem/bandit_either","AOAZMLP27GD81","either","3","","","","","","","74","J","0","img/none_selected_demo.jpg","1","0","0","0.8","","true","0","0.8","","80_20_practice","0.5","","0.5","0.2","","","","","","","","","","","",""
"284","","bandit","25","183013","0.0-19.0-5.0","05753215","wem/bandit_either","AOAZMLP27GD81","either","3","","","","","","","74","J","0","img/none_selected_demo.jpg","1","0","0","0.8","","true","0","0.8","","80_20_practice","0.5","","0.5","0.2","","","","","","","","","","","",""
"294","","bandit","26","184814","0.0-19.0-6.0","05753215","wem/bandit_either","AOAZMLP27GD81","either","3","","","","","","","74","J","0","img/none_selected_demo.jpg","0","1","0","","0.8","true","0","","0.8","80_20_practice","0.5","0.2","0.5","","","","","","","","","","","","",""
"236","","bandit","27","186558","0.0-19.0-7.0","05753215","wem/bandit_either","AOAZMLP27GD81","either","3","","","","","","","74","J","0","img/none_selected_demo.jpg","0","0","1","","0.8","true","0","","0.8","80_20_practice","0.5","0.2","0.5","","","","","","","","","","","","",""
"132","","bandit","28","188198","0.0-19.0-8.0","05753215","wem/bandit_either","AOAZMLP27GD81","either","3","","","","","","","74","J","0","img/none_selected_demo.jpg","0","1","0","","0.8","true","0","","0.8","80_20_practice","0.5","0.2","0.5","","","","","","","","","","","","",""
"220","","bandit","29","189925","0.0-19.0-9.0","05753215","wem/bandit_either","AOAZMLP27GD81","either","3","","","","","","","74","J","0","img/none_selected_demo.jpg","1","0","0","0.8","","true","0","0.8","","80_20_practice","0.5","","0.5","0.2","","","","","","","","","","","",""
"164","","bandit","30","191599","0.0-19.0-10.0","05753215","wem/bandit_either","AOAZMLP27GD81","either","3","","","","","","","74","J","0","img/none_selected_demo.jpg","0","0","1","","0.8","true","0","","0.8","80_20_practice","0.5","0.2","0.5","","","","","","","","","","","","",""
"339","","bandit","31","193447","0.0-19.0-11.0","05753215","wem/bandit_either","AOAZMLP27GD81","either","3","","","","","","","74","J","0","img/none_selected_demo.jpg","0","1","0","","0.8","true","0","","0.8","80_20_practice","0.5","0.2","0.5","","","","","","","","","","","","",""
"331","","bandit","32","195285","0.0-19.0-12.0","05753215","wem/bandit_either","AOAZMLP27GD81","either","3","","","","","","","74","J","0","img/none_selected_demo.jpg","0","1","0","","0.8","true","0","","0.8","80_20_practice","0.5","0.2","0.5","","","","","","","","","","","","",""
"211","","bandit","33","197007","0.0-19.0-13.0","05753215","wem/bandit_either","AOAZMLP27GD81","either","3","","","","","","","74","J","0","img/none_selected_demo.jpg","0","1","0","","0.8","true","0","","0.8","80_20_practice","0.5","0.2","0.5","","","","","","","","","","","","",""
"257","","bandit","34","198774","0.0-19.0-14.0","05753215","wem/bandit_either","AOAZMLP27GD81","either","3","","","","","","","74","J","0","img/none_selected_demo.jpg","0","1","0","","0.8","true","0","","0.8","80_20_practice","0.5","0.2","0.5","","","","","","","","","","","","",""
"307","","bandit","35","200590","0.0-19.0-15.0","05753215","wem/bandit_either","AOAZMLP27GD81","either","3","","","","","","","74","J","0","img/none_selected_demo.jpg","0","1","0","","0.8","true","0","","0.8","80_20_practice","0.5","0.2","0.5","","","","","","","","","","","","",""
"269","","bandit","36","202365","0.0-19.0-16.0","05753215","wem/bandit_either","AOAZMLP27GD81","either","3","","","","","","","74","J","0","img/none_selected_demo.jpg","0","0","1","","0.8","true","0","","0.8","80_20_practice","0.5","0.2","0.5","","","","","","","","","","","","",""
"236","","bandit","37","204112","0.0-19.0-17.0","05753215","wem/bandit_either","AOAZMLP27GD81","either","3","","","","","","","74","J","0","img/none_selected_demo.jpg","0","1","0","","0.8","true","0","","0.8","80_20_practice","0.5","0.2","0.5","","","","","","","","","","","","",""
"227","","bandit","38","205846","0.0-19.0-18.0","05753215","wem/bandit_either","AOAZMLP27GD81","either","3","","","","","","","74","J","0","img/none_selected_demo.jpg","0","0","1","","0.8","true","0","","0.8","80_20_practice","0.5","0.2","0.5","","","","","","","","","","","","",""
"109","","bandit","39","207464","0.0-19.0-19.0","05753215","wem/bandit_either","AOAZMLP27GD81","either","3","","","","","","","74","J","0","img/none_selected_demo.jpg","1","0","0","0.8","","true","0","0.8","","80_20_practice","0.5","","0.5","0.2","","","","","","","","","","","",""
"2605","","text","40","210071","0.0-20.0","05753215","wem/bandit_either","AOAZMLP27GD81","either","3","32","","","","","","","","","","","","","","","","","","","","","","","","","","","","","","","","","","",""
"1587","","bandit","41","213166","0.0-21.0-0.0","05753215","wem/bandit_either","AOAZMLP27GD81","either","3","","","","","","","74","J","0","img/none_selected_demo.jpg","1","0","0","1","0","true","0","1","0","","","1","","0","","","","","","","","","","","",""
"2020","","text","42","215190","0.0-22.0","05753215","wem/bandit_either","AOAZMLP27GD81","either","3","32","","","","","","","","","","","","","","","","","","","","","","","","","","","","","","","","","","",""
"4503","","text","43","219694","0.0-23.0","05753215","wem/bandit_either","AOAZMLP27GD81","either","3","32","","","","","","","","","","","","","","","","","","","","","","","","","","","","","","","","","","",""
"2264","","text","44","221960","0.0-24.0","05753215","wem/bandit_either","AOAZMLP27GD81","either","3","32","","","","","","","","","","","","","","","","","","","","","","","","","","","","","","","","","","",""
"3163","","text","45","225127","0.0-25.0","05753215","wem/bandit_either","AOAZMLP27GD81","either","3","32","","","","","","","","","","","","","","","","","","","","","","","","","","","","","","","","","","",""
"8901","","text","46","234030","0.0-26.0","05753215","wem/bandit_either","AOAZMLP27GD81","either","3","32","","","","","","","","","","","","","","","","","","","","","","","","","","","","","","","","","","",""
"3326","","text","47","237358","0.0-27.0","05753215","wem/bandit_either","AOAZMLP27GD81","either","3","32","","","","","","","","","","","","","","","","","","","","","","","","","","","","","","","","","","",""
"4703","","text","48","242063","0.0-28.0","05753215","wem/bandit_either","AOAZMLP27GD81","either","3","32","","","","","","","","","","","","","","","","","","","","","","","","","","","","","","","","","","",""
"3228","","text","49","245294","0.0-29.0","05753215","wem/bandit_either","AOAZMLP27GD81","either","3","32","","","","","","","","","","","","","","","","","","","","","","","","","","","","","","","","","","",""
"3711","","text","50","249007","0.0-30.0","05753215","wem/bandit_either","AOAZMLP27GD81","either","3","32","","","","","","","","","","","","","","","","","","","","","","","","","","","","","","","","","","",""
"3028","","text","51","252039","0.0-31.0","05753215","wem/bandit_either","AOAZMLP27GD81","either","3","32","","","","","","","","","","","","","","","","","","","","","","","","","","","","","","","","","","",""
"3374","","text","52","255416","0.0-32.0","05753215","wem/bandit_either","AOAZMLP27GD81","either","3","32","","","","","","","","","","","","","","","","","","","","","","","","","","","","","","","","","","",""
"1190","","bandit","53","258118","0.0-33.0-0.0","05753215","wem/bandit_either","AOAZMLP27GD81","either","3","","","","","","","72","H","0","img/none_selected.jpg","0","1","0","","0.8","true","0","","0.8","full_practice","0.5","0.2","0.5","","0.6","0.5","0.2","0.5","","","","","","","",""
"201","","bandit","54","259829","0.0-33.0-1.0","05753215","wem/bandit_either","AOAZMLP27GD81","either","3","","","","","","","72","H","0","img/none_selected.jpg","0","1","0","","0.8","true","0","","0.8","full_practice","0.5","0.2","0.5","","0.6","0.5","0.2","0.5","","","","","","","",""
"320","","bandit","55","261654","0.0-33.0-2.0","05753215","wem/bandit_either","AOAZMLP27GD81","either","3","","","","","","","72","H","0","img/none_selected.jpg","1","0","0","0.8","","true","0","0.8","","full_practice","0.5","","0.5","0.2","","0.5","","0.5","0.6","0.2","","","","","",""
"137","","bandit","56","263304","0.0-33.0-3.0","05753215","wem/bandit_either","AOAZMLP27GD81","either","3","","","","","","","72","H","0","img/none_selected.jpg","1","0","0","0.8","","true","0","0.8","","full_practice","0.5","","0.5","0.2","","0.5","","0.5","0.6","0.2","","","","","",""
"205","","bandit","57","265020","0.0-33.0-4.0","05753215","wem/bandit_either","AOAZMLP27GD81","either","3","","","","","","","72","H","0","img/none_selected.jpg","0","1","0","","0.8","true","0","","0.8","full_practice","0.5","0.2","0.5","","0.6","0.5","0.2","0.5","","","","","","","",""
"212","","bandit","58","266741","0.0-33.0-5.0","05753215","wem/bandit_either","AOAZMLP27GD81","either","3","","","","","","","72","H","0","img/none_selected.jpg","0","0","1","0.8","","true","0","0.8","","full_practice","0.5","","0.5","0.2","","0.5","","0.5","0.6","0.2","","","","","",""
"232","","bandit","59","268479","0.0-33.0-6.0","05753215","wem/bandit_either","AOAZMLP27GD81","either","3","","","","","","","72","H","0","img/none_selected.jpg","0","1","0","","0.8","true","0","","0.8","full_practice","0.5","0.2","0.5","","0.6","0.5","0.2","0.5","","","","","","","",""
"211","","bandit","60","270198","0.0-33.0-7.0","05753215","wem/bandit_either","AOAZMLP27GD81","either","3","","","","","","","72","H","0","img/none_selected.jpg","1","0","0","0.8","","true","0","0.8","","full_practice","0.5","","0.5","0.2","","0.5","","0.5","0.6","0.2","","","","","",""
"273","","bandit","61","271980","0.0-33.0-8.0","05753215","wem/bandit_either","AOAZMLP27GD81","either","3","","","","","","","72","H","0","img/none_selected.jpg","1","0","0","0.8","","true","0","0.8","","full_practice","0.5","","0.5","0.2","","0.5","","0.5","0.6","0.2","","","","","",""
"192","","bandit","62","273680","0.0-33.0-9.0","05753215","wem/bandit_either","AOAZMLP27GD81","either","3","","","","","","","72","H","0","img/none_selected.jpg","0","1","0","","0.8","true","0","","0.8","full_practice","0.5","0.2","0.5","","0.6","0.5","0.2","0.5","","","","","","","",""
"233","","bandit","63","275422","0.0-33.0-10.0","05753215","wem/bandit_either","AOAZMLP27GD81","either","3","","","","","","","72","H","0","img/none_selected.jpg","0","1","0","","0.8","true","0","","0.8","full_practice","0.5","0.2","0.5","","0.6","0.5","0.2","0.5","","","","","","","",""
"226","","bandit","64","277157","0.0-33.0-11.0","05753215","wem/bandit_either","AOAZMLP27GD81","either","3","","","","","","","72","H","0","img/none_selected.jpg","0","1","0","","0.8","true","0","","0.8","full_practice","0.5","0.2","0.5","","0.6","0.5","0.2","0.5","","","","","","","",""
"223","","bandit","65","278886","0.0-33.0-12.0","05753215","wem/bandit_either","AOAZMLP27GD81","either","3","","","","","","","72","H","0","img/none_selected.jpg","0","1","0","","0.8","true","0","","0.8","full_practice","0.5","0.2","0.5","","0.6","0.5","0.2","0.5","","","","","","","",""
"61","","bandit","66","280454","0.0-33.0-13.0","05753215","wem/bandit_either","AOAZMLP27GD81","either","3","","","","","","","72","H","0","img/none_selected.jpg","0","1","0","","0.8","true","0","","0.8","full_practice","0.5","0.2","0.5","","0.6","0.5","0.2","0.5","","","","","","","",""
"142","","bandit","67","282102","0.0-33.0-14.0","05753215","wem/bandit_either","AOAZMLP27GD81","either","3","","","","","","","72","H","0","img/none_selected.jpg","1","0","0","0.8","","true","0","0.8","","full_practice","0.5","","0.5","0.2","","0.5","","0.5","0.6","0.2","","","","","",""
"81","","bandit","68","283695","0.0-33.0-15.0","05753215","wem/bandit_either","AOAZMLP27GD81","either","3","","","","","","","72","H","0","img/none_selected.jpg","1","0","0","0.8","","true","0","0.8","","full_practice","0.5","","0.5","0.2","","0.5","","0.5","0.6","0.2","","","","","",""
"193","","bandit","69","285400","0.0-33.0-16.0","05753215","wem/bandit_either","AOAZMLP27GD81","either","3","","","","","","","72","H","0","img/none_selected.jpg","1","0","0","0.8","","true","0","0.8","","full_practice","0.5","","0.5","0.2","","0.5","","0.5","0.6","0.2","","","","","",""
"139","","bandit","70","287046","0.0-33.0-17.0","05753215","wem/bandit_either","AOAZMLP27GD81","either","3","","","","","","","72","H","0","img/none_selected.jpg","1","0","0","0.8","","true","0","0.8","","full_practice","0.5","","0.5","0.2","","0.5","","0.5","0.6","0.2","","","","","",""
"135","","bandit","71","288685","0.0-33.0-18.0","05753215","wem/bandit_either","AOAZMLP27GD81","either","3","","","","","","","72","H","0","img/none_selected.jpg","0","0","1","","0.8","true","0","","0.8","full_practice","0.5","0.2","0.5","","0.6","0.5","0.2","0.5","","","","","","","",""
"223","","bandit","72","290415","0.0-33.0-19.0","05753215","wem/bandit_either","AOAZMLP27GD81","either","3","","","","","","","72","H","0","img/none_selected.jpg","0","0","1","","0.8","true","0","","0.8","full_practice","0.5","0.2","0.5","","0.6","0.5","0.2","0.5","","","","","","","",""
"2740","","text","73","293166","0.0-34.0","05753215","wem/bandit_either","AOAZMLP27GD81","either","3","32","","","","","","","","","","","","","","","","","","","","","","","","","","","","","","","","","","",""
"14197","","text","74","308367","0.0-35.0","05753215","wem/bandit_either","AOAZMLP27GD81","either","3","32","","","","","","","","","","","","","","","","","","","","","","","","","","","","","","","","","","",""
"9757","","text","75","318127","0.0-36.0","05753215","wem/bandit_either","AOAZMLP27GD81","either","3","32","","","","","","","","","","","","","","","","","","","","","","","","","","","","","","","","","","",""
"3123","","text","76","321255","0.0-37.0","05753215","wem/bandit_either","AOAZMLP27GD81","either","3","32","","","","","","","","","","","","","","","","","","","","","","","","","","","","","","","","","","",""
"3045","","text","77","324303","0.0-38.0","05753215","wem/bandit_either","AOAZMLP27GD81","either","3","32","","","","","","","","","","","","","","","","","","","","","","","","","","","","","","","","","","",""
"2518","","text","78","326825","0.0-39.0","05753215","wem/bandit_either","AOAZMLP27GD81","either","3","32","","","","","","","","","","","","","","","","","","","","","","","","","","","","","","","","","","",""
"705","","bandit","79","329039","0.0-40.0-0.0","05753215","wem/bandit_either","AOAZMLP27GD81","either","3","","","","","","","72","H","0","img/none_selected.jpg","0","1","0","","0.07685641067","","1","","0.07685641067","main_expt","0.6","0.4870892339","0.4","","0.1426046982","0.8","0.1646489015","0.2","","","","","","","",""
"222","","bandit","80","330766","0.0-41.0-0.0","05753215","wem/bandit_either","AOAZMLP27GD81","either","3","","","","","","","72","H","0","img/none_selected.jpg","0","0","1","0.08388143876","","","2","0.08388143876","","main_expt","0.6","","0.4","0.4875162112","","0.8","","0.2","0.1597004976","0.2180431119","","","","","",""
"238","","bandit","81","332510","0.0-42.0-0.0","05753215","wem/bandit_either","AOAZMLP27GD81","either","3","","","","","","","72","H","0","img/none_selected.jpg","0","1","0","","0.06528774038","","3","","0.06528774038","main_expt","0.6","0.4909945117","0.4","","0.1381850853","0.8","0.2294217256","0.2","","","","","","","",""
"253","","bandit","82","334272","0.0-43.0-0.0","05753215","wem/bandit_either","AOAZMLP27GD81","either","3","","","","","","","72","H","0","img/none_selected.jpg","0","0","1","","0.07987899881","","4","","0.07987899881","main_expt","0.6","0.482579304","0.4","","0.1787932262","0.8","0.2162119515","0.2","","","","","","","",""
"265","","bandit","83","336046","0.0-44.0-0.0","05753215","wem/bandit_either","AOAZMLP27GD81","either","3","","","","","","","72","H","0","img/none_selected.jpg","0","0","1","","0.0432391811","","5","","0.0432391811","main_expt","0.6","0.4887913002","0.4","","0.1795032464","0.8","0.2246316054","0.2","","","","","","","",""
"105","","bandit","84","337656","0.0-45.0-0.0","05753215","wem/bandit_either","AOAZMLP27GD81","either","3","","","","","","","74","J","1","","1","0","0","0.4887860333","","","6","0.03467601655","","main_expt","0.6","","0.4","0.4887860333","","0.8","","0.2","0.164375756","0.2061018479","","","","","",""
"81","","bandit","85","339246","0.0-46.0-0.0","05753215","wem/bandit_either","AOAZMLP27GD81","either","3","","","","","","","74","J","1","","0","0","1","","0.4901971563","","7","","0.05033951668","main_expt","0.6","0.4901971563","0.4","","0.204957223","0.8","0.1795347326","0.2","","","","","","","",""
"271","","bandit","86","341022","0.0-47.0-0.0","05753215","wem/bandit_either","AOAZMLP27GD81","either","3","","","","","","","74","J","1","","0","0","1","","0.4862230721","","8","","0.07676355645","main_expt","0.6","0.4862230721","0.4","","0.2162036531","0.8","0.1290452752","0.2","","","","","","","",""
"294","","bandit","87","342822","0.0-48.0-0.0","05753215","wem/bandit_either","AOAZMLP27GD81","either","3","","","","","","","74","J","1","","1","0","0","0.4759730645","","","9","0.08620859221","","main_expt","0.6","","0.4","0.4759730645","","0.8","","0.2","0.2167418122","0.1559184374","","","","","",""
"258","","bandit","88","344593","0.0-49.0-0.0","05753215","wem/bandit_either","AOAZMLP27GD81","either","3","","","","","","","74","J","1","","1","0","0","0.4560980466","","","10","0.1103839657","","main_expt","0.6","","0.4","0.4560980466","","0.8","","0.2","0.1607923637","0.1381514788","","","","","",""
"254","","bandit","89","346359","0.0-50.0-0.0","05753215","wem/bandit_either","AOAZMLP27GD81","either","3","","","","","","","74","J","1","","0","0","1","","0.4775116046","","11","","0.1334948588","main_expt","0.6","0.4775116046","0.4","","0.1386410957","0.8","0.1271140015","0.2","","","","","","","",""
"242","","bandit","90","348110","0.0-51.0-0.0","05753215","wem/bandit_either","AOAZMLP27GD81","either","3","","","","","","","75","K","2","","0","0","1","0.1718380738","","","12","0.1535602519","","main_expt","0.6","","0.4","0.4705073552","","0.8","","0.2","0.1718380738","0.1854664659","","","","","",""
"55","","bandit","91","349672","0.0-52.0-0.0","05753215","wem/bandit_either","AOAZMLP27GD81","either","3","","","","","","","75","K","2","","0","0","1","","0.1686303413","","13","","0.127854239","main_expt","0.6","0.4851887342","0.4","","0.1686303413","0.8","0.1869952656","0.2","","","","","","","",""
"208","","bandit","92","351390","0.0-53.0-0.0","05753215","wem/bandit_either","AOAZMLP27GD81","either","3","","","","","","","75","K","2","","1","0","0","0.1460019496","","","14","0.1507911491","","main_expt","0.6","","0.4","0.4731273917","","0.8","","0.2","0.1460019496","0.2035171393","","","","","",""
"231","","bandit","93","353126","0.0-54.0-0.0","05753215","wem/bandit_either","AOAZMLP27GD81","either","3","","","","","","","75","K","2","","0","0","1","0.1667614464","","","15","0.1741212098","","main_expt","0.6","","0.4","0.4585867004","","0.8","","0.2","0.1667614464","0.2800299461","","","","","",""
"139","","bandit","94","354775","0.0-55.0-0.0","05753215","wem/bandit_either","AOAZMLP27GD81","either","3","","","","","","","76","L","3","","0","0","1","","0.2725454461","","16","","0.1918308831","main_expt","0.6","0.4366533258","0.4","","0.1973644546","0.8","0.2725454461","0.2","","","","","","","",""
"233","","bandit","95","356519","0.0-56.0-0.0","05753215","wem/bandit_either","AOAZMLP27GD81","either","3","","","","","","","76","L","3","","0","0","1","","0.1570621471","","17","","0.1950212473","main_expt","0.6","0.4405228744","0.4","","0.1873415792","0.8","0.1570621471","0.2","","","","","","","",""
"127","","bandit","96","358151","0.0-57.0-0.0","05753215","wem/bandit_either","AOAZMLP27GD81","either","3","","","","","","","76","L","3","","1","0","0","0.1968188506","","","18","0.2094813194","","main_expt","0.6","","0.4","0.4678551263","","0.8","","0.2","0.1875860444","0.1968188506","","","","","",""
"256","","bandit","97","359919","0.0-58.0-0.0","05753215","wem/bandit_either","AOAZMLP27GD81","either","3","","","","","","","76","L","3","","0","1","0","","0.2439518204","","19","","0.2628959394","main_expt","0.6","0.466140525","0.4","","0.1988439388","0.8","0.2439518204","0.2","","","","","","","",""
"268","","bandit","98","361696","0.0-59.0-0.0","05753215","wem/bandit_either","AOAZMLP27GD81","either","3","","","","","","","76","L","3","","0","1","0","","0.2806117898","","20","","0.2116504525","main_expt","0.6","0.4094087999","0.4","","0.1813993393","0.8","0.2806117898","0.2","","","","","","","",""
"136","","bandit","99","363343","0.0-60.0-0.0","05753215","wem/bandit_either","AOAZMLP27GD81","either","3","","","","","","","76","L","3","","0","0","1","0.2658005831","","","21","0.1904426465","","main_expt","0.6","","0.4","0.4386974508","","0.8","","0.2","0.2012004452","0.2658005831","","","","","",""
"97","","bandit","100","364948","0.0-61.0-0.0","05753215","wem/bandit_either","AOAZMLP27GD81","either","3","","","","","","","74","J","1","","0","0","1","0.4505723784","","","22","0.1581796968","","main_expt","0.6","","0.4","0.4505723784","","0.8","","0.2","0.1958646163","0.2774390086","","","","","",""
"212","","bandit","101","366670","0.0-62.0-0.0","05753215","wem/bandit_either","AOAZMLP27GD81","either","3","","","","","","","74","J","1","","0","1","0","","0.4568000239","","23","","0.2039009352","main_expt","0.6","0.4568000239","0.4","","0.2626819079","0.8","0.2795917474","0.2","","","","","","","",""
"30","","bandit","102","368206","0.0-63.0-0.0","05753215","wem/bandit_either","AOAZMLP27GD81","either","3","","","","","","","74","J","1","","0","0","1","0.4518339256","","","24","0.228339491","","main_expt","0.6","","0.4","0.4518339256","","0.8","","0.2","0.2906682881","0.2981059477","","","","","",""
"256","","bandit","103","369971","0.0-64.0-0.0","05753215","wem/bandit_either","AOAZMLP27GD81","either","3","","","","","","","74","J","1","","0","0","1","","0.4120159309","","25","","0.2602465224","main_expt","0.6","0.4120159309","0.4","","0.3270173502","0.8","0.3272059922","0.2","","","","","","","",""
"178","","bandit","104","371656","0.0-65.0-0.0","05753215","wem/bandit_either","AOAZMLP27GD81","either","3","","","","","","","72","H","0","img/none_selected.jpg","0","0","1","0.1939420306","","","26","0.1939420306","","main_expt","0.6","","0.4","0.4134154185","","0.8","","0.2","0.2951289915","0.3369826645","","","","","",""
"273","","bandit","105","373439","0.0-66.0-0.0","05753215","wem/bandit_either","AOAZMLP27GD81","either","3","","","","","","","72","H","0","img/none_selected.jpg","0","0","1","0.2387331149","","","27","0.2387331149","","main_expt","0.6","","0.4","0.4031068294","","0.8","","0.2","0.3520126272","0.2531212506","","","","","",""
"333","","bandit","106","375279","0.0-67.0-0.0","05753215","wem/bandit_either","AOAZMLP27GD81","either","3","","","","","","","74","J","1","","0","0","1","","0.4305883772","","28","","0.2183458617","main_expt","0.6","0.4305883772","0.4","","0.3369287003","0.8","0.2170461037","0.2","","","","","","","",""
"301","","bandit","107","377086","0.0-68.0-0.0","05753215","wem/bandit_either","AOAZMLP27GD81","either","3","","","","","","","74","J","1","","0","0","1","0.4383329838","","","29","0.2151501268","","main_expt","0.6","","0.4","0.4383329838","","0.8","","0.2","0.3591799128","0.2346211465","","","","","",""
"237","","bandit","108","378831","0.0-69.0-0.0","05753215","wem/bandit_either","AOAZMLP27GD81","either","3","","","","","","","75","K","2","","0","0","1","0.3324285477","","","30","0.2267233056","","main_expt","0.6","","0.4","0.4233276099","","0.8","","0.2","0.3324285477","0.2450860663","","","","","",""
"294","","bandit","109","380630","0.0-70.0-0.0","05753215","wem/bandit_either","AOAZMLP27GD81","either","3","","","","","","","76","L","3","","0","0","1","","0.2141169407","","31","","0.2663701676","main_expt","0.6","0.4016185005","0.4","","0.327032362","0.8","0.2141169407","0.2","","","","","","","",""
"188","","bandit","110","382326","0.0-71.0-0.0","05753215","wem/bandit_either","AOAZMLP27GD81","either","3","","","","","","","76","L","3","","0","0","1","","0.2347854155","","32","","0.275969473","main_expt","0.6","0.4134940178","0.4","","0.3230905041","0.8","0.2347854155","0.2","","","","","","","",""
"146","","bandit","111","383983","0.0-72.0-0.0","05753215","wem/bandit_either","AOAZMLP27GD81","either","3","","","","","","","76","L","3","","0","1","0","","0.246596708","","33","","0.3365270118","main_expt","0.6","0.4331174495","0.4","","0.2969008969","0.8","0.246596708","0.2","","","","","","","",""
"207","","bandit","112","385696","0.0-73.0-0.0","05753215","wem/bandit_either","AOAZMLP27GD81","either","3","","","","","","","76","L","3","","0","0","1","","0.1914370393","","34","","0.2916301021","main_expt","0.6","0.4454497031","0.4","","0.2536392951","0.8","0.1914370393","0.2","","","","","","","",""
"151","","bandit","113","387359","0.0-74.0-0.0","05753215","wem/bandit_either","AOAZMLP27GD81","either","3","","","","","","","75","K","2","","0","0","1","0.2336030597","","","35","0.3236538836","","main_expt","0.6","","0.4","0.4419706984","","0.8","","0.2","0.2336030597","0.1408207185","","","","","",""
"573","","bandit","114","389437","0.0-75.0-0.0","05753215","wem/bandit_either","AOAZMLP27GD81","either","3","","","","","","","75","K","2","","0","0","1","0.3110392291","","","36","0.3317439785","","main_expt","0.6","","0.4","0.4205940312","","0.8","","0.2","0.3110392291","0.09539735145","","","","","",""
"133","","bandit","115","391076","0.0-76.0-0.0","05753215","wem/bandit_either","AOAZMLP27GD81","either","3","","","","","","","74","J","1","","0","0","1","0.4227305347","","","37","0.3620900841","","main_expt","0.6","","0.4","0.4227305347","","0.8","","0.2","0.3354302382","0.08867332122","","","","","",""
"54","","bandit","116","392638","0.0-77.0-0.0","05753215","wem/bandit_either","AOAZMLP27GD81","either","3","","","","","","","74","J","1","","0","1","0","","0.3904174821","","38","","0.3649119955","main_expt","0.6","0.3904174821","0.4","","0.3359947902","0.8","0.0804097964","0.2","","","","","","","",""
"229","","bandit","117","394373","0.0-78.0-0.0","05753215","wem/bandit_either","AOAZMLP27GD81","either","3","","","","","","","74","J","1","","0","1","0","","0.3704092514","","39","","0.3993258453","main_expt","0.6","0.3704092514","0.4","","0.3719467902","0.8","0.1092906338","0.2","","","","","","","",""
"186","","bandit","118","396071","0.0-79.0-0.0","05753215","wem/bandit_either","AOAZMLP27GD81","either","3","","","","","","","74","J","1","","0","1","0","","0.3250394812","","40","","0.43145226","main_expt","0.6","0.3250394812","0.4","","0.37180955","0.8","0.08771014895","0.2","","","","","","","",""
"252","","bandit","119","397829","0.0-80.0-0.0","05753215","wem/bandit_either","AOAZMLP27GD81","either","3","","","","","","","74","J","1","","1","0","0","0.3633775572","","","41","0.3925837484","","main_expt","0.6","","0.4","0.3633775572","","0.8","","0.2","0.3972707938","0.1065106481","","","","","",""
"252","","bandit","120","399590","0.0-81.0-0.0","05753215","wem/bandit_either","AOAZMLP27GD81","either","3","","","","","","","74","J","1","","0","0","1","","0.3708570881","","42","","0.4020613291","main_expt","0.6","0.3708570881","0.4","","0.3981555674","0.8","0.0926848955","0.2","","","","","","","",""
"136","","bandit","121","401238","0.0-82.0-0.0","05753215","wem/bandit_either","AOAZMLP27GD81","either","3","","","","","","","74","J","1","","1","0","0","0.3852030547","","","43","0.4199094288","","main_expt","0.6","","0.4","0.3852030547","","0.8","","0.2","0.3698022864","0.09213729174","","","","","",""
"174","","bandit","122","402918","0.0-83.0-0.0","05753215","wem/bandit_either","AOAZMLP27GD81","either","3","","","","","","","74","J","1","","0","0","1","0.3653477133","","","44","0.4362917367","","main_expt","0.6","","0.4","0.3653477133","","0.8","","0.2","0.3278340923","0.0950319608","","","","","",""
"150","","bandit","123","404581","0.0-84.0-0.0","05753215","wem/bandit_either","AOAZMLP27GD81","either","3","","","","","","","74","J","1","","0","1","0","","0.3423722135","","45","","0.4310393502","main_expt","0.6","0.3423722135","0.4","","0.4004869948","0.8","0.07917944011","0.2","","","","","","","",""
"186","","bandit","124","406278","0.0-85.0-0.0","05753215","wem/bandit_either","AOAZMLP27GD81","either","3","","","","","","","74","J","1","","0","0","1","0.2713785315","","","46","0.4301719659","","main_expt","0.6","","0.4","0.2713785315","","0.8","","0.2","0.4389658195","0.08528552535","","","","","",""
"2","","bandit","125","407789","0.0-86.0-0.0","05753215","wem/bandit_either","AOAZMLP27GD81","either","3","","","","","","","74","J","1","","0","0","1","","0.2675382036","","47","","0.4274268526","main_expt","0.6","0.2675382036","0.4","","0.4294918489","0.8","0.08303267599","0.2","","","","","","","",""
"287","","bandit","126","409583","0.0-87.0-0.0","05753215","wem/bandit_either","AOAZMLP27GD81","either","3","","","","","","","74","J","1","","0","0","1","","0.3006553151","","48","","0.4559220927","main_expt","0.6","0.3006553151","0.4","","0.3948346084","0.8","0.1183490009","0.2","","","","","","","",""
"281","","bandit","127","411373","0.0-88.0-0.0","05753215","wem/bandit_either","AOAZMLP27GD81","either","3","","","","","","","72","H","0","img/none_selected.jpg","0","0","1","","0.4362936898","","49","","0.4362936898","main_expt","0.6","0.2865645246","0.4","","0.4226663974","0.8","0.09831357925","0.2","","","","","","","",""
"233","","bandit","128","413118","0.0-89.0-0.0","05753215","wem/bandit_either","AOAZMLP27GD81","either","3","","","","","","","72","H","0","img/none_selected.jpg","0","0","1","0.4001593617","","","50","0.4001593617","","main_expt","0.6","","0.4","0.2842330123","","0.8","","0.2","0.3943232949","0.0896163698","","","","","",""
"589","","bandit","129","415213","0.0-90.0-0.0","05753215","wem/bandit_either","AOAZMLP27GD81","either","3","","","","","","","72","H","0","img/none_selected.jpg","0","0","1","0.3737598101","","","51","0.3737598101","","main_expt","0.6","","0.4","0.2933637591","","0.8","","0.2","0.3911898034","0.08239790895","","","","","",""
"264","","bandit","130","416991","0.0-91.0-0.0","05753215","wem/bandit_either","AOAZMLP27GD81","either","3","","","","","","","72","H","0","img/none_selected.jpg","1","0","0","0.3490564905","","","52","0.3490564905","","main_expt","0.6","","0.4","0.2802127762","","0.8","","0.2","0.3897106723","0.06509061927","","","","","",""
"126","","bandit","131","418630","0.0-92.0-0.0","05753215","wem/bandit_either","AOAZMLP27GD81","either","3","","","","","","","72","H","0","img/none_selected.jpg","0","0","1","","0.3606416198","","53","","0.3606416198","main_expt","0.6","0.2567133084","0.4","","0.3977919118","0.8","0.05503049918","0.2","","","","","","","",""
"207","","bandit","132","420350","0.0-93.0-0.0","05753215","wem/bandit_either","AOAZMLP27GD81","either","3","","","","","","","74","J","1","","0","0","1","0.304436262","","","54","0.3920172378","","main_expt","0.6","","0.4","0.304436262","","0.8","","0.2","0.3803623479","0.06606451817","","","","","",""
"151","","bandit","133","422013","0.0-94.0-0.0","05753215","wem/bandit_either","AOAZMLP27GD81","either","3","","","","","","","72","H","0","img/none_selected.jpg","0","0","1","","0.3841867886","","55","","0.3841867886","main_expt","0.6","0.3050376594","0.4","","0.3898030924","0.8","0.0812436444","0.2","","","","","","","",""
"214","","bandit","134","423736","0.0-95.0-0.0","05753215","wem/bandit_either","AOAZMLP27GD81","either","3","","","","","","","72","H","0","img/none_selected.jpg","0","0","1","","0.3752679739","","56","","0.3752679739","main_expt","0.6","0.2874076515","0.4","","0.4332266089","0.8","0.05752214818","0.2","","","","","","","",""
"21","","bandit","135","425271","0.0-96.0-0.0","05753215","wem/bandit_either","AOAZMLP27GD81","either","3","","","","","","","72","H","0","img/none_selected.jpg","0","0","1","","0.3595388075","","57","","0.3595388075","main_expt","0.6","0.2633226407","0.4","","0.4598680415","0.8","0.05957573693","0.2","","","","","","","",""
"347","","bandit","136","427125","0.0-97.0-0.0","05753215","wem/bandit_either","AOAZMLP27GD81","either","3","","","","","","","72","H","0","img/none_selected.jpg","0","0","1","0.2926617498","","","58","0.2926617498","","main_expt","0.6","","0.4","0.282557186","","0.8","","0.2","0.4510058242","0.08347810371","","","","","",""
"75","","bandit","137","428710","0.0-98.0-0.0","05753215","wem/bandit_either","AOAZMLP27GD81","either","3","","","","","","","74","J","1","","1","0","0","0.2675679041","","","59","0.2854140482","","main_expt","0.6","","0.4","0.2675679041","","0.8","","0.2","0.4587464736","0.1166757522","","","","","",""
"176","","bandit","138","430399","0.0-99.0-0.0","05753215","wem/bandit_either","AOAZMLP27GD81","either","3","","","","","","","74","J","1","","0","0","1","","0.2654645802","","60","","0.2767785787","main_expt","0.6","0.2654645802","0.4","","0.4534111386","0.8","0.1223048521","0.2","","","","","","","",""
"317","","bandit","139","432232","0.0-100.0-0.0","05753215","wem/bandit_either","AOAZMLP27GD81","either","3","","","","","","","74","J","1","","0","1","0","","0.2326588137","","61","","0.3110110239","main_expt","0.6","0.2326588137","0.4","","0.4581751116","0.8","0.1341525672","0.2","","","","","","","",""
"134","","bandit","140","433877","0.0-101.0-0.0","05753215","wem/bandit_either","AOAZMLP27GD81","either","3","","","","","","","74","J","1","","0","0","1","","0.2430345153","","62","","0.2739379344","main_expt","0.6","0.2430345153","0.4","","0.4447189615","0.8","0.1748443247","0.2","","","","","","","",""
"271","","bandit","141","435664","0.0-102.0-0.0","05753215","wem/bandit_either","AOAZMLP27GD81","either","3","","","","","","","74","J","1","","0","0","1","","0.2682261916","","63","","0.2518438402","main_expt","0.6","0.2682261916","0.4","","0.4351057758","0.8","0.1872250423","0.2","","","","","","","",""
"174","","bandit","142","437350","0.0-103.0-0.0","05753215","wem/bandit_either","AOAZMLP27GD81","either","3","","","","","","","75","K","2","","0","1","0","","0.4559228662","","64","","0.216118181","main_expt","0.6","0.3136585585","0.4","","0.4559228662","0.8","0.1592276408","0.2","","","","","","","",""
"282","","bandit","143","439141","0.0-104.0-0.0","05753215","wem/bandit_either","AOAZMLP27GD81","either","3","","","","","","","75","K","2","","1","0","0","0.4526438492","","","65","0.1961712117","","main_expt","0.6","","0.4","0.3208042698","","0.8","","0.2","0.4526438492","0.1881419285","","","","","",""
"237","","bandit","144","440886","0.0-105.0-0.0","05753215","wem/bandit_either","AOAZMLP27GD81","either","3","","","","","","","75","K","2","","1","0","0","0.4604690516","","","66","0.1821057022","","main_expt","0.6","","0.4","0.3550213758","","0.8","","0.2","0.4604690516","0.2075830042","","","","","",""
"342","","bandit","145","442743","0.0-106.0-0.0","05753215","wem/bandit_either","AOAZMLP27GD81","either","3","","","","","","","75","K","2","","1","0","0","0.4479534522","","","67","0.2221692745","","main_expt","0.6","","0.4","0.2883445083","","0.8","","0.2","0.4479534522","0.210321401","","","","","",""
"150","","bandit","146","444406","0.0-107.0-0.0","05753215","wem/bandit_either","AOAZMLP27GD81","either","3","","","","","","","75","K","2","","0","0","1","0.4420076102","","","68","0.2385328342","","main_expt","0.6","","0.4","0.2492112051","","0.8","","0.2","0.4420076102","0.1740681144","","","","","",""
"246","","bandit","147","446165","0.0-108.0-0.0","05753215","wem/bandit_either","AOAZMLP27GD81","either","3","","","","","","","75","K","2","","0","0","1","0.3840886122","","","69","0.2693988132","","main_expt","0.6","","0.4","0.1725364023","","0.8","","0.2","0.3840886122","0.1495678232","","","","","",""
"233","","bandit","148","447910","0.0-109.0-0.0","05753215","wem/bandit_either","AOAZMLP27GD81","either","3","","","","","","","75","K","2","","1","0","0","0.3764426572","","","70","0.2633889128","","main_expt","0.6","","0.4","0.2081322216","","0.8","","0.2","0.3764426572","0.1594524764","","","","","",""
"243","","bandit","149","449680","0.0-110.0-0.0","05753215","wem/bandit_either","AOAZMLP27GD81","either","3","","","","","","","75","K","2","","0","0","1","0.3925575972","","","71","0.2881785301","","main_expt","0.6","","0.4","0.2222096595","","0.8","","0.2","0.3925575972","0.1308665948","","","","","",""
"47","","bandit","150","451241","0.0-111.0-0.0","05753215","wem/bandit_either","AOAZMLP27GD81","either","3","","","","","","","75","K","2","","1","0","0","0.4055717031","","","72","0.3496752211","","main_expt","0.6","","0.4","0.2276413934","","0.8","","0.2","0.4055717031","0.1413665491","","","","","",""
"354","","bandit","151","453110","0.0-112.0-0.0","05753215","wem/bandit_either","AOAZMLP27GD81","either","3","","","","","","","75","K","2","","0","0","1","0.4313753627","","","73","0.3662649551","","main_expt","0.6","","0.4","0.202726327","","0.8","","0.2","0.4313753627","0.1562096843","","","","","",""
"363","","bandit","152","454981","0.0-113.0-0.0","05753215","wem/bandit_either","AOAZMLP27GD81","either","3","","","","","","","75","K","2","","0","0","1","0.4294283137","","","74","0.3318597218","","main_expt","0.6","","0.4","0.2465356434","","0.8","","0.2","0.4294283137","0.1601549975","","","","","",""
"744","","bandit","153","457239","0.0-114.0-0.0","05753215","wem/bandit_either","AOAZMLP27GD81","either","3","","","","","","","76","L","3","","0","0","1","","0.1962365409","","75","","0.3129946244","main_expt","0.6","0.2780880013","0.4","","0.4114775526","0.8","0.1962365409","0.2","","","","","","","",""
"14","","bandit","154","458767","0.0-115.0-0.0","05753215","wem/bandit_either","AOAZMLP27GD81","either","3","","","","","","","76","L","3","","0","0","1","","0.2315068675","","76","","0.3299880354","main_expt","0.6","0.230570622","0.4","","0.4038916894","0.8","0.2315068675","0.2","","","","","","","",""
"309","","bandit","155","460582","0.0-116.0-0.0","05753215","wem/bandit_either","AOAZMLP27GD81","either","3","","","","","","","76","L","3","","0","0","1","","0.1749603823","","77","","0.2704336052","main_expt","0.6","0.1747897532","0.4","","0.4028298088","0.8","0.1749603823","0.2","","","","","","","",""
"248","","bandit","156","462341","0.0-117.0-0.0","05753215","wem/bandit_either","AOAZMLP27GD81","either","3","","","","","","","75","K","2","","1","0","0","0.4004321452","","","78","0.2489008917","","main_expt","0.6","","0.4","0.2009150394","","0.8","","0.2","0.4004321452","0.2091975686","","","","","",""
"304","","bandit","157","464160","0.0-118.0-0.0","05753215","wem/bandit_either","AOAZMLP27GD81","either","3","","","","","","","75","K","2","","1","0","0","0.3909827091","","","79","0.2182462247","","main_expt","0.6","","0.4","0.2090883318","","0.8","","0.2","0.3909827091","0.2699334682","","","","","",""
"258","","bandit","158","465927","0.0-119.0-0.0","05753215","wem/bandit_either","AOAZMLP27GD81","either","3","","","","","","","75","K","2","","0","0","1","0.4289339141","","","80","0.1591694045","","main_expt","0.6","","0.4","0.215522018","","0.8","","0.2","0.4289339141","0.2712134299","","","","","",""
"157","","bandit","159","467598","0.0-120.0-0.0","05753215","wem/bandit_either","AOAZMLP27GD81","either","3","","","","","","","75","K","2","","0","1","0","","0.4256341571","","81","","0.1661146317","main_expt","0.6","0.2655955182","0.4","","0.4256341571","0.8","0.2563236188","0.2","","","","","","","",""
"157","","bandit","160","469261","0.0-121.0-0.0","05753215","wem/bandit_either","AOAZMLP27GD81","either","3","","","","","","","75","K","2","","0","0","1","0.4153375647","","","82","0.2249160828","","main_expt","0.6","","0.4","0.2642342948","","0.8","","0.2","0.4153375647","0.2474856626","","","","","",""
"88","","bandit","161","470855","0.0-122.0-0.0","05753215","wem/bandit_either","AOAZMLP27GD81","either","3","","","","","","","75","K","2","","0","0","1","0.4239102097","","","83","0.2194800234","","main_expt","0.6","","0.4","0.2615040017","","0.8","","0.2","0.4239102097","0.2338037125","","","","","",""
"98","","bandit","162","472461","0.0-123.0-0.0","05753215","wem/bandit_either","AOAZMLP27GD81","either","3","","","","","","","75","K","2","","0","0","1","0.4021041833","","","84","0.2020024956","","main_expt","0.6","","0.4","0.3136368113","","0.8","","0.2","0.4021041833","0.2929655049","","","","","",""
"2103","","bandit","163","476079","0.0-124.0-0.0","05753215","wem/bandit_either","AOAZMLP27GD81","either","3","","","","","","","75","K","2","","0","0","1","","0.4322374594","","85","","0.1639230135","main_expt","0.6","0.2433538552","0.4","","0.4322374594","0.8","0.2755572306","0.2","","","","","","","",""
"428","","bandit","164","478023","0.0-125.0-0.0","05753215","wem/bandit_either","AOAZMLP27GD81","either","3","","","","","","","75","K","2","","0","0","1","0.4247618508","","","86","0.1423092638","","main_expt","0.6","","0.4","0.2583740773","","0.8","","0.2","0.4247618508","0.2706615249","","","","","",""
"35","","bandit","165","479566","0.0-126.0-0.0","05753215","wem/bandit_either","AOAZMLP27GD81","either","3","","","","","","","74","J","1","","0","1","0","","0.2656778135","","87","","0.1623313408","main_expt","0.6","0.2656778135","0.4","","0.4130492334","0.8","0.3259805539","0.2","","","","","","","",""
"205","","bandit","166","481286","0.0-127.0-0.0","05753215","wem/bandit_either","AOAZMLP27GD81","either","3","","","","","","","74","J","1","","0","0","1","","0.2565525481","","88","","0.1459946163","main_expt","0.6","0.2565525481","0.4","","0.3883747858","0.8","0.3471137027","0.2","","","","","","","",""
"149","","bandit","167","482943","0.0-128.0-0.0","05753215","wem/bandit_either","AOAZMLP27GD81","either","3","","","","","","","74","J","1","","0","0","1","0.2471999074","","","89","0.1684807643","","main_expt","0.6","","0.4","0.2471999074","","0.8","","0.2","0.3950807547","0.3715311126","","","","","",""
"109","","bandit","168","484567","0.0-129.0-0.0","05753215","wem/bandit_either","AOAZMLP27GD81","either","3","","","","","","","74","J","1","","0","0","1","0.2204199549","","","90","0.1937692241","","main_expt","0.6","","0.4","0.2204199549","","0.8","","0.2","0.420982679","0.3571728809","","","","","",""
"101","","bandit","169","486182","0.0-130.0-0.0","05753215","wem/bandit_either","AOAZMLP27GD81","either","3","","","","","","","72","H","0","img/none_selected.jpg","0","0","1","0.1670397906","","","91","0.1670397906","","main_expt","0.6","","0.4","0.2013548925","","0.8","","0.2","0.4012606491","0.3348642023","","","","","",""
"222","","bandit","170","487910","0.0-131.0-0.0","05753215","wem/bandit_either","AOAZMLP27GD81","either","3","","","","","","","72","H","0","img/none_selected.jpg","0","1","0","","0.1936095216","","92","","0.1936095216","main_expt","0.6","0.174921714","0.4","","0.3950870333","0.8","0.3551195155","0.2","","","","","","","",""
"120","","bandit","171","489543","0.0-132.0-0.0","05753215","wem/bandit_either","AOAZMLP27GD81","either","3","","","","","","","72","H","0","img/none_selected.jpg","0","0","1","","0.2399824117","","93","","0.2399824117","main_expt","0.6","0.1972058505","0.4","","0.3797372222","0.8","0.3494458231","0.2","","","","","","","",""
"79","","bandit","172","491136","0.0-133.0-0.0","05753215","wem/bandit_either","AOAZMLP27GD81","either","3","","","","","","","72","H","0","img/none_selected.jpg","1","0","0","0.242536602","","","94","0.242536602","","main_expt","0.6","","0.4","0.2144007407","","0.8","","0.2","0.3346339076","0.3759818745","","","","","",""
"83","","bandit","173","492735","0.0-134.0-0.0","05753215","wem/bandit_either","AOAZMLP27GD81","either","3","","","","","","","72","H","0","img/none_selected.jpg","0","1","0","","0.3081296623","","95","","0.3081296623","main_expt","0.6","0.2025691914","0.4","","0.3433005441","0.8","0.3467088588","0.2","","","","","","","",""
"205","","bandit","174","494456","0.0-135.0-0.0","05753215","wem/bandit_either","AOAZMLP27GD81","either","3","","","","","","","72","H","0","img/none_selected.jpg","0","0","1","","0.371766452","","96","","0.371766452","main_expt","0.6","0.1750118246","0.4","","0.2900415689","0.8","0.3520186383","0.2","","","","","","","",""
"71","","bandit","175","496037","0.0-136.0-0.0","05753215","wem/bandit_either","AOAZMLP27GD81","either","3","","","","","","","72","H","0","img/none_selected.jpg","0","0","1","0.3737721809","","","97","0.3737721809","","main_expt","0.6","","0.4","0.2433812568","","0.8","","0.2","0.3136050561","0.342216001","","","","","",""
"144","","bandit","176","497695","0.0-137.0-0.0","05753215","wem/bandit_either","AOAZMLP27GD81","either","3","","","","","","","72","H","0","img/none_selected.jpg","1","0","0","0.3662625892","","","98","0.3662625892","","main_expt","0.6","","0.4","0.1834100281","","0.8","","0.2","0.3236610102","0.3775958225","","","","","",""
"140","","bandit","177","499341","0.0-138.0-0.0","05753215","wem/bandit_either","AOAZMLP27GD81","either","3","","","","","","","72","H","0","img/none_selected.jpg","0","1","0","","0.3912879072","","99","","0.3912879072","main_expt","0.6","0.146161558","0.4","","0.3116662608","0.8","0.3490624926","0.2","","","","","","","",""
"131","","bandit","178","500988","0.0-139.0-0.0","05753215","wem/bandit_either","AOAZMLP27GD81","either","3","","","","","","","72","H","0","img/none_selected.jpg","0","0","1","","0.3916888764","","100","","0.3916888764","main_expt","0.6","0.1186266926","0.4","","0.3806420769","0.8","0.3418910903","0.2","","","","","","","",""
"127","","bandit","179","502622","0.0-140.0-0.0","05753215","wem/bandit_either","AOAZMLP27GD81","either","3","","","","","","","74","J","1","","0","0","1","0.1467879228","","","101","0.3803758031","","main_expt","0.6","","0.4","0.1467879228","","0.8","","0.2","0.3825052475","0.3544055354","","","","","",""
"341","","bandit","180","504479","0.0-141.0-0.0","05753215","wem/bandit_either","AOAZMLP27GD81","either","3","","","","","","","74","J","1","","0","0","1","0.1336514036","","","102","0.3685266224","","main_expt","0.6","","0.4","0.1336514036","","0.8","","0.2","0.3799327693","0.3580864163","","","","","",""
"130","","bandit","181","506118","0.0-142.0-0.0","05753215","wem/bandit_either","AOAZMLP27GD81","either","3","","","","","","","75","K","2","","1","0","0","0.3502018886","","","103","0.3754978655","","main_expt","0.6","","0.4","0.1325092095","","0.8","","0.2","0.3502018886","0.336528594","","","","","",""
"206","","bandit","182","507841","0.0-143.0-0.0","05753215","wem/bandit_either","AOAZMLP27GD81","either","3","","","","","","","75","K","2","","0","0","1","0.3443431466","","","104","0.4033056484","","main_expt","0.6","","0.4","0.1162839287","","0.8","","0.2","0.3443431466","0.3190078166","","","","","",""
"266","","bandit","183","509622","0.0-144.0-0.0","05753215","wem/bandit_either","AOAZMLP27GD81","either","3","","","","","","","75","K","2","","0","0","1","0.3551378046","","","105","0.3617388181","","main_expt","0.6","","0.4","0.115620258","","0.8","","0.2","0.3551378046","0.3100940773","","","","","",""
"220","","bandit","184","511351","0.0-145.0-0.0","05753215","wem/bandit_either","AOAZMLP27GD81","either","3","","","","","","","75","K","2","","0","0","1","0.3177956882","","","106","0.3656875331","","main_expt","0.6","","0.4","0.1102569517","","0.8","","0.2","0.3177956882","0.2964842485","","","","","",""
"189","","bandit","185","513046","0.0-146.0-0.0","05753215","wem/bandit_either","AOAZMLP27GD81","either","3","","","","","","","75","K","2","","1","0","0","0.3463124521","","","107","0.3478183852","","main_expt","0.6","","0.4","0.110599846","","0.8","","0.2","0.3463124521","0.3224579283","","","","","",""
"162","","bandit","186","514721","0.0-147.0-0.0","05753215","wem/bandit_either","AOAZMLP27GD81","either","3","","","","","","","75","K","2","","0","0","1","0.330790185","","","108","0.3715517583","","main_expt","0.6","","0.4","0.1647947233","","0.8","","0.2","0.330790185","0.3365568187","","","","","",""
"167","","bandit","187","516398","0.0-148.0-0.0","05753215","wem/bandit_either","AOAZMLP27GD81","either","3","","","","","","","76","L","3","","0","1","0","","0.3200824859","","109","","0.3713851569","main_expt","0.6","0.146095753","0.4","","0.3259779601","0.8","0.3200824859","0.2","","","","","","","",""
"200","","bandit","188","518110","0.0-149.0-0.0","05753215","wem/bandit_either","AOAZMLP27GD81","either","3","","","","","","","76","L","3","","0","0","1","","0.3179471713","","110","","0.3401672382","main_expt","0.6","0.1691954855","0.4","","0.3169053314","0.8","0.3179471713","0.2","","","","","","","",""
"100","","bandit","189","519726","0.0-150.0-0.0","05753215","wem/bandit_either","AOAZMLP27GD81","either","3","","","","","","","76","L","3","","0","0","1","","0.3168158386","","111","","0.3242328008","main_expt","0.6","0.1690298198","0.4","","0.342138516","0.8","0.3168158386","0.2","","","","","","","",""
"163","","bandit","190","521398","0.0-151.0-0.0","05753215","wem/bandit_either","AOAZMLP27GD81","either","3","","","","","","","76","L","3","","0","1","0","","0.3551606626","","112","","0.2991119965","main_expt","0.6","0.2196992501","0.4","","0.3597886873","0.8","0.3551606626","0.2","","","","","","","",""
"19","","bandit","191","522925","0.0-152.0-0.0","05753215","wem/bandit_either","AOAZMLP27GD81","either","3","","","","","","","76","L","3","","0","0","1","","0.3615444015","","113","","0.3364281798","main_expt","0.6","0.2723467559","0.4","","0.3580549124","0.8","0.3615444015","0.2","","","","","","","",""
"77","","bandit","192","524512","0.0-153.0-0.0","05753215","wem/bandit_either","AOAZMLP27GD81","either","3","","","","","","","76","L","3","","0","0","1","","0.4043222556","","114","","0.3495122724","main_expt","0.6","0.2470985199","0.4","","0.3556181037","0.8","0.4043222556","0.2","","","","","","","",""
"151","","bandit","193","526175","0.0-154.0-0.0","05753215","wem/bandit_either","AOAZMLP27GD81","either","3","","","","","","","76","L","3","","0","0","1","0.4179696435","","","115","0.324938203","","main_expt","0.6","","0.4","0.2482590513","","0.8","","0.2","0.3489042174","0.4179696435","","","","","",""
"11","","bandit","194","527703","0.0-155.0-0.0","05753215","wem/bandit_either","AOAZMLP27GD81","either","3","","","","","","","75","K","2","","0","0","1","0.3466245191","","","116","0.3227512736","","main_expt","0.6","","0.4","0.1992012358","","0.8","","0.2","0.3466245191","0.4324393975","","","","","",""
"44","","bandit","195","529253","0.0-156.0-0.0","05753215","wem/bandit_either","AOAZMLP27GD81","either","3","","","","","","","75","K","2","","0","0","1","0.3581754781","","","117","0.2585209305","","main_expt","0.6","","0.4","0.216355905","","0.8","","0.2","0.3581754781","0.4290779421","","","","","",""
"110","","bandit","196","530869","0.0-157.0-0.0","05753215","wem/bandit_either","AOAZMLP27GD81","either","3","","","","","","","74","J","1","","0","0","1","0.1715453935","","","118","0.2817260076","","main_expt","0.6","","0.4","0.1715453935","","0.8","","0.2","0.283939031","0.4459264202","","","","","",""
"164","","bandit","197","532550","0.0-158.0-0.0","05753215","wem/bandit_either","AOAZMLP27GD81","either","3","","","","","","","74","J","1","","0","0","1","","0.1843456939","","119","","0.328214026","main_expt","0.6","0.1843456939","0.4","","0.2992634423","0.8","0.436995295","0.2","","","","","","","",""
"64","","bandit","198","534134","0.0-159.0-0.0","05753215","wem/bandit_either","AOAZMLP27GD81","either","3","","","","","","","72","H","0","img/none_selected.jpg","0","1","0","","0.3355603121","","120","","0.3355603121","main_expt","0.6","0.1848061615","0.4","","0.1878150733","0.8","0.4151314625","0.2","","","","","","","",""
"86","","bandit","199","535726","0.0-160.0-0.0","05753215","wem/bandit_either","AOAZMLP27GD81","either","3","","","","","","","72","H","0","img/none_selected.jpg","0","1","0","","0.3829587724","","121","","0.3829587724","main_expt","0.6","0.1679578636","0.4","","0.1447458933","0.8","0.4384064527","0.2","","","","","","","",""
"228","","bandit","200","537462","0.0-161.0-0.0","05753215","wem/bandit_either","AOAZMLP27GD81","either","3","","","","","","","72","H","0","img/none_selected.jpg","0","0","1","","0.3995678287","","122","","0.3995678287","main_expt","0.6","0.197295971","0.4","","0.1176060398","0.8","0.4417589501","0.2","","","","","","","",""
"1133","","bandit","201","540103","0.0-162.0-0.0","05753215","wem/bandit_either","AOAZMLP27GD81","either","3","","","","","","","72","H","0","img/none_selected.jpg","0","0","1","","0.3656739583","","123","","0.3656739583","main_expt","0.6","0.2184653352","0.4","","0.1097677055","0.8","0.4017154396","0.2","","","","","","","",""
"300","","bandit","202","541919","0.0-163.0-0.0","05753215","wem/bandit_either","AOAZMLP27GD81","either","3","","","","","","","72","H","0","img/none_selected.jpg","0","0","1","0.3862549257","","","124","0.3862549257","","main_expt","0.6","","0.4","0.2147868977","","0.8","","0.2","0.08048168986","0.3619070526","","","","","",""
"147","","bandit","203","543582","0.0-164.0-0.0","05753215","wem/bandit_either","AOAZMLP27GD81","either","3","","","","","","","74","J","1","","0","0","1","0.1667936559","","","125","0.3593796239","","main_expt","0.6","","0.4","0.1667936559","","0.8","","0.2","0.07842900555","0.3567490645","","","","","",""
"299","","bandit","204","545390","0.0-165.0-0.0","05753215","wem/bandit_either","AOAZMLP27GD81","either","3","","","","","","","74","J","1","","0","0","1","","0.1453295256","","126","","0.3413194209","main_expt","0.6","0.1453295256","0.4","","0.08318363027","0.8","0.3558473019","0.2","","","","","","","",""
"197","","bandit","205","547102","0.0-166.0-0.0","05753215","wem/bandit_either","AOAZMLP27GD81","either","3","","","","","","","75","K","2","","0","1","0","","0.06812438963","","127","","0.3369929262","main_expt","0.6","0.1635755653","0.4","","0.06812438963","0.8","0.3543069734","0.2","","","","","","","",""
"266","","bandit","206","548877","0.0-167.0-0.0","05753215","wem/bandit_either","AOAZMLP27GD81","either","3","","","","","","","75","K","2","","0","0","1","0.08303766286","","","128","0.2922989636","","main_expt","0.6","","0.4","0.1872639566","","0.8","","0.2","0.08303766286","0.3328374851","","","","","",""
"278","","bandit","207","550670","0.0-168.0-0.0","05753215","wem/bandit_either","AOAZMLP27GD81","either","3","","","","","","","75","K","2","","0","0","1","0.09047360051","","","129","0.3095146075","","main_expt","0.6","","0.4","0.2032718864","","0.8","","0.2","0.09047360051","0.3238683282","","","","","",""
"213","","bandit","208","552391","0.0-169.0-0.0","05753215","wem/bandit_either","AOAZMLP27GD81","either","3","","","","","","","75","K","2","","0","0","1","0.131542256","","","130","0.3068425872","","main_expt","0.6","","0.4","0.2025864764","","0.8","","0.2","0.131542256","0.2750329062","","","","","",""
"100","","bandit","209","554006","0.0-170.0-0.0","05753215","wem/bandit_either","AOAZMLP27GD81","either","3","","","","","","","76","L","3","","0","0","1","","0.2751886228","","131","","0.3112504131","main_expt","0.6","0.2158584071","0.4","","0.1492019489","0.8","0.2751886228","0.2","","","","","","","",""
"188","","bandit","210","555703","0.0-171.0-0.0","05753215","wem/bandit_either","AOAZMLP27GD81","either","3","","","","","","","76","L","3","","0","0","1","","0.2729729886","","132","","0.3595653039","main_expt","0.6","0.2105840197","0.4","","0.1571188116","0.8","0.2729729886","0.2","","","","","","","",""
"277","","bandit","211","557494","0.0-172.0-0.0","05753215","wem/bandit_either","AOAZMLP27GD81","either","3","","","","","","","76","L","3","","0","1","0","","0.3248088544","","133","","0.3873527377","main_expt","0.6","0.2328486735","0.4","","0.2021073832","0.8","0.3248088544","0.2","","","","","","","",""
"261","","bandit","212","559261","0.0-173.0-0.0","05753215","wem/bandit_either","AOAZMLP27GD81","either","3","","","","","","","76","L","3","","0","0","1","","0.3596446835","","134","","0.3973884711","main_expt","0.6","0.2589092944","0.4","","0.2693148074","0.8","0.3596446835","0.2","","","","","","","",""
"573","","bandit","213","561351","0.0-174.0-0.0","05753215","wem/bandit_either","AOAZMLP27GD81","either","3","","","","","","","72","H","0","img/none_selected.jpg","0","0","1","","0.4080523157","","135","","0.4080523157","main_expt","0.6","0.2637326353","0.4","","0.2625780805","0.8","0.318377279","0.2","","","","","","","",""
"45","","bandit","214","562911","0.0-175.0-0.0","05753215","wem/bandit_either","AOAZMLP27GD81","either","3","","","","","","","72","H","0","img/none_selected.jpg","0","0","1","0.4176503084","","","136","0.4176503084","","main_expt","0.6","","0.4","0.2718680576","","0.8","","0.2","0.2981707722","0.3160887017","","","","","",""
"109","","bandit","215","564533","0.0-176.0-0.0","05753215","wem/bandit_either","AOAZMLP27GD81","either","3","","","","","","","74","J","1","","0","0","1","","0.2919957672","","137","","0.3859803947","main_expt","0.6","0.2919957672","0.4","","0.3148158286","0.8","0.2883225013","0.2","","","","","","","",""
"292","","bandit","216","566343","0.0-177.0-0.0","05753215","wem/bandit_either","AOAZMLP27GD81","either","3","","","","","","","74","J","1","","0","0","1","0.3193993407","","","138","0.358492916","","main_expt","0.6","","0.4","0.3193993407","","0.8","","0.2","0.3111523267","0.3009152141","","","","","",""
"169","","bandit","217","568023","0.0-178.0-0.0","05753215","wem/bandit_either","AOAZMLP27GD81","either","3","","","","","","","72","H","0","img/none_selected.jpg","0","0","1","","0.3608756281","","139","","0.3608756281","main_expt","0.6","0.3404434035","0.4","","0.3034593298","0.8","0.293720077","0.2","","","","","","","",""
"86","","bandit","218","569622","0.0-179.0-0.0","05753215","wem/bandit_either","AOAZMLP27GD81","either","3","","","","","","","72","H","0","img/none_selected.jpg","0","0","1","0.3421836092","","","140","0.3421836092","","main_expt","0.6","","0.4","0.3278052243","","0.8","","0.2","0.2507495005","0.286059761","","","","","",""
"61","","bandit","219","571189","0.0-180.0-0.0","05753215","wem/bandit_either","AOAZMLP27GD81","either","3","","","","","","","75","K","2","","0","0","1","0.2220694513","","","141","0.3737340371","","main_expt","0.6","","0.4","0.3038906839","","0.8","","0.2","0.2220694513","0.2931724706","","","","","",""
"182","","bandit","220","572878","0.0-181.0-0.0","05753215","wem/bandit_either","AOAZMLP27GD81","either","3","","","","","","","75","K","2","","0","0","1","0.2119249064","","","142","0.3461121542","","main_expt","0.6","","0.4","0.2924195757","","0.8","","0.2","0.2119249064","0.2182180164","","","","","",""
"36","","bandit","221","574422","0.0-182.0-0.0","05753215","wem/bandit_either","AOAZMLP27GD81","either","3","","","","","","","76","L","3","","0","0","1","","0.2015475508","","143","","0.3305931074","main_expt","0.6","0.2816149275","0.4","","0.2665135591","0.8","0.2015475508","0.2","","","","","","","",""
"194","","bandit","222","576126","0.0-183.0-0.0","05753215","wem/bandit_either","AOAZMLP27GD81","either","3","","","","","","","76","L","3","","0","1","0","","0.2074070562","","144","","0.3561039987","main_expt","0.6","0.2355525614","0.4","","0.2854155153","0.8","0.2074070562","0.2","","","","","","","",""
"252","","bandit","223","577886","0.0-184.0-0.0","05753215","wem/bandit_either","AOAZMLP27GD81","either","3","","","","","","","76","L","3","","0","0","1","","0.1415368311","","145","","0.3648023512","main_expt","0.6","0.2185662272","0.4","","0.2521048148","0.8","0.1415368311","0.2","","","","","","","",""
"261","","bandit","224","579663","0.0-185.0-0.0","05753215","wem/bandit_either","AOAZMLP27GD81","either","3","","","","","","","76","L","3","","0","0","1","0.1549520657","","","146","0.3450315","","main_expt","0.6","","0.4","0.2209315791","","0.8","","0.2","0.2321266643","0.1549520657","","","","","",""
"251","","bandit","225","581423","0.0-186.0-0.0","05753215","wem/bandit_either","AOAZMLP27GD81","either","3","","","","","","","76","L","3","","0","0","1","0.1469310363","","","147","0.2720321141","","main_expt","0.6","","0.4","0.2889766311","","0.8","","0.2","0.3159383216","0.1469310363","","","","","",""
"283","","bandit","226","583222","0.0-187.0-0.0","05753215","wem/bandit_either","AOAZMLP27GD81","either","3","","","","","","","76","L","3","","0","0","1","","0.1332828417","","148","","0.2598972664","main_expt","0.6","0.2859466156","0.4","","0.2673485129","0.8","0.1332828417","0.2","","","","","","","",""
"35","","bandit","227","584774","0.0-188.0-0.0","05753215","wem/bandit_either","AOAZMLP27GD81","either","3","","","","","","","76","L","3","","0","0","1","","0.1102010463","","149","","0.2343157719","main_expt","0.6","0.2588478233","0.4","","0.3348600541","0.8","0.1102010463","0.2","","","","","","","",""
"190","","bandit","228","586469","0.0-189.0-0.0","05753215","wem/bandit_either","AOAZMLP27GD81","either","3","","","","","","","75","K","2","","1","0","0","0.3659656834","","","150","0.2451363599","","main_expt","0.6","","0.4","0.2224653457","","0.8","","0.2","0.3659656834","0.1356103494","","","","","",""
"234","","bandit","229","588214","0.0-190.0-0.0","05753215","wem/bandit_either","AOAZMLP27GD81","either","3","","","","","","","75","K","2","","0","0","1","0.36397653","","","151","0.2053737132","","main_expt","0.6","","0.4","0.2387237716","","0.8","","0.2","0.36397653","0.1621229287","","","","","",""
"233","","bandit","230","589961","0.0-191.0-0.0","05753215","wem/bandit_either","AOAZMLP27GD81","either","3","","","","","","","75","K","2","","1","0","0","0.3710672623","","","152","0.2396242378","","main_expt","0.6","","0.4","0.2519133504","","0.8","","0.2","0.3710672623","0.1412745606","","","","","",""
"129","","bandit","231","591607","0.0-192.0-0.0","05753215","wem/bandit_either","AOAZMLP27GD81","either","3","","","","","","","75","K","2","","0","0","1","0.3828607765","","","153","0.2923277395","","main_expt","0.6","","0.4","0.3078499427","","0.8","","0.2","0.3828607765","0.1707580034","","","","","",""
"24","","bandit","232","593150","0.0-193.0-0.0","05753215","wem/bandit_either","AOAZMLP27GD81","either","3","","","","","","","75","K","2","","0","0","1","","0.3526468527","","154","","0.3166515581","main_expt","0.6","0.3283820497","0.4","","0.3526468527","0.8","0.1717455462","0.2","","","","","","","",""
"203","","bandit","233","594870","0.0-194.0-0.0","05753215","wem/bandit_either","AOAZMLP27GD81","either","3","","","","","","","75","K","2","","0","0","1","0.3865981945","","","155","0.3194616596","","main_expt","0.6","","0.4","0.3303057687","","0.8","","0.2","0.3865981945","0.1785539081","","","","","",""
"107","","bandit","234","596486","0.0-195.0-0.0","05753215","wem/bandit_either","AOAZMLP27GD81","either","3","","","","","","","75","K","2","","0","0","1","0.4328422877","","","156","0.3767011333","","main_expt","0.6","","0.4","0.3178912443","","0.8","","0.2","0.4328422877","0.2175815231","","","","","",""
"204","","bandit","235","598198","0.0-196.0-0.0","05753215","wem/bandit_either","AOAZMLP27GD81","either","3","","","","","","","74","J","1","","0","0","1","","0.3236874272","","157","","0.3853144204","main_expt","0.6","0.3236874272","0.4","","0.4224906378","0.8","0.216674397","0.2","","","","","","","",""
"96","","bandit","236","599807","0.0-197.0-0.0","05753215","wem/bandit_either","AOAZMLP27GD81","either","3","","","","","","","74","J","1","","0","0","1","","0.3731337511","","158","","0.3519128793","main_expt","0.6","0.3731337511","0.4","","0.4428847078","0.8","0.2184316938","0.2","","","","","","","",""
"224","","bandit","237","601551","0.0-198.0-0.0","05753215","wem/bandit_either","AOAZMLP27GD81","either","3","","","","","","","74","J","1","","0","0","1","","0.3758107074","","159","","0.3255157266","main_expt","0.6","0.3758107074","0.4","","0.4498083842","0.8","0.2603966468","0.2","","","","","","","",""
"137","","bandit","238","603200","0.0-199.0-0.0","05753215","wem/bandit_either","AOAZMLP27GD81","either","3","","","","","","","72","H","0","img/none_selected.jpg","0","0","1","","0.379238532","","160","","0.379238532","main_expt","0.6","0.3494215766","0.4","","0.4319550234","0.8","0.2242017374","0.2","","","","","","","",""
"207","","bandit","239","604927","0.0-200.0-0.0","05753215","wem/bandit_either","AOAZMLP27GD81","either","3","","","","","","","72","H","0","img/none_selected.jpg","0","0","1","","0.3776335756","","161","","0.3776335756","main_expt","0.6","0.3327111917","0.4","","0.4417514389","0.8","0.2014027125","0.2","","","","","","","",""
"168","","bandit","240","606614","0.0-201.0-0.0","05753215","wem/bandit_either","AOAZMLP27GD81","either","3","","","","","","","72","H","0","img/none_selected.jpg","0","0","1","0.2955751891","","","162","0.2955751891","","main_expt","0.6","","0.4","0.3171011618","","0.8","","0.2","0.4081293495","0.2038621466","","","","","",""
"221","","bandit","241","608350","0.0-202.0-0.0","05753215","wem/bandit_either","AOAZMLP27GD81","either","3","","","","","","","75","K","2","","0","0","1","0.4265776113","","","163","0.30851492","","main_expt","0.6","","0.4","0.364183239","","0.8","","0.2","0.4265776113","0.1238136799","","","","","",""
"167","","bandit","242","610029","0.0-203.0-0.0","05753215","wem/bandit_either","AOAZMLP27GD81","either","3","","","","","","","75","K","2","","0","0","1","","0.427472809","","164","","0.3074756362","main_expt","0.6","0.3917374524","0.4","","0.427472809","0.8","0.1104941302","0.2","","","","","","","",""
"214","","bandit","243","611758","0.0-204.0-0.0","05753215","wem/bandit_either","AOAZMLP27GD81","either","3","","","","","","","75","K","2","","0","0","1","","0.4016343469","","165","","0.2743039079","main_expt","0.6","0.3629360172","0.4","","0.4016343469","0.8","0.1099358877","0.2","","","","","","","",""
"243","","bandit","244","613510","0.0-205.0-0.0","05753215","wem/bandit_either","AOAZMLP27GD81","either","3","","","","","","","76","L","3","","0","0","1","","0.08082918558","","166","","0.2900226329","main_expt","0.6","0.3697042915","0.4","","0.3578169927","0.8","0.08082918558","0.2","","","","","","","",""
"77","","bandit","245","615103","0.0-206.0-0.0","05753215","wem/bandit_either","AOAZMLP27GD81","either","3","","","","","","","76","L","3","","0","0","1","0.08539074978","","","167","0.3444017494","","main_expt","0.6","","0.4","0.3626443337","","0.8","","0.2","0.3346076013","0.08539074978","","","","","",""
"265","","bandit","246","616887","0.0-207.0-0.0","05753215","wem/bandit_either","AOAZMLP27GD81","either","3","","","","","","","76","L","3","","0","0","1","","0.1307687804","","168","","0.3934904689","main_expt","0.6","0.3488380128","0.4","","0.36326211","0.8","0.1307687804","0.2","","","","","","","",""
"243","","bandit","247","618648","0.0-208.0-0.0","05753215","wem/bandit_either","AOAZMLP27GD81","either","3","","","","","","","75","K","2","","1","0","0","0.3389060657","","","169","0.3712778229","","main_expt","0.6","","0.4","0.3338465455","","0.8","","0.2","0.3389060657","0.09435724838","","","","","",""
"203","","bandit","248","620357","0.0-209.0-0.0","05753215","wem/bandit_either","AOAZMLP27GD81","either","3","","","","","","","75","K","2","","1","0","0","0.3820287301","","","170","0.3348119161","","main_expt","0.6","","0.4","0.3675902536","","0.8","","0.2","0.3820287301","0.09371103674","","","","","",""
"251","","bandit","249","622117","0.0-210.0-0.0","05753215","wem/bandit_either","AOAZMLP27GD81","either","3","","","","","","","75","K","2","","0","0","1","","0.3738350687","","171","","0.3697689907","main_expt","0.6","0.3663425941","0.4","","0.3738350687","0.8","0.0912992704","0.2","","","","","","","",""
"285","","bandit","250","623910","0.0-211.0-0.0","05753215","wem/bandit_either","AOAZMLP27GD81","either","3","","","","","","","75","K","2","","0","0","1","","0.3449486646","","172","","0.3438364448","main_expt","0.6","0.3571019768","0.4","","0.3449486646","0.8","0.1053216192","0.2","","","","","","","",""
"200","","bandit","251","625621","0.0-212.0-0.0","05753215","wem/bandit_either","AOAZMLP27GD81","either","3","","","","","","","75","K","2","","0","0","1","0.3754463001","","","173","0.4064517123","","main_expt","0.6","","0.4","0.383943734","","0.8","","0.2","0.3754463001","0.1119971747","","","","","",""
"234","","bandit","252","627368","0.0-213.0-0.0","05753215","wem/bandit_either","AOAZMLP27GD81","either","3","","","","","","","75","K","2","","1","0","0","0.3983783957","","","174","0.4266345201","","main_expt","0.6","","0.4","0.378453819","","0.8","","0.2","0.3983783957","0.1049574405","","","","","",""
"196","","bandit","253","629079","0.0-214.0-0.0","05753215","wem/bandit_either","AOAZMLP27GD81","either","3","","","","","","","75","K","2","","1","0","0","0.4176958341","","","175","0.4413212306","","main_expt","0.6","","0.4","0.3577460836","","0.8","","0.2","0.4176958341","0.07351671593","","","","","",""
"170","","bandit","254","630767","0.0-215.0-0.0","05753215","wem/bandit_either","AOAZMLP27GD81","either","3","","","","","","","75","K","2","","0","0","1","","0.4336280271","","176","","0.438548454","main_expt","0.6","0.3346789668","0.4","","0.4336280271","0.8","0.06097876817","0.2","","","","","","","",""
"256","","bandit","255","632535","0.0-216.0-0.0","05753215","wem/bandit_either","AOAZMLP27GD81","either","3","","","","","","","75","K","2","","1","0","0","0.3863917124","","","177","0.4350726265","","main_expt","0.6","","0.4","0.3720341948","","0.8","","0.2","0.3863917124","0.05873143133","","","","","",""
"153","","bandit","256","634206","0.0-217.0-0.0","05753215","wem/bandit_either","AOAZMLP27GD81","either","3","","","","","","","75","K","2","","0","0","1","0.3826512014","","","178","0.4029859975","","main_expt","0.6","","0.4","0.4243236705","","0.8","","0.2","0.3826512014","0.07829718294","","","","","",""
"67","","bandit","257","635791","0.0-218.0-0.0","05753215","wem/bandit_either","AOAZMLP27GD81","either","3","","","","","","","75","K","2","","0","0","1","0.3681046487","","","179","0.3738585124","","main_expt","0.6","","0.4","0.4396564102","","0.8","","0.2","0.3681046487","0.05868413977","","","","","",""
"178","","bandit","258","637487","0.0-219.0-0.0","05753215","wem/bandit_either","AOAZMLP27GD81","either","3","","","","","","","75","K","2","","0","1","0","","0.374340785","","180","","0.3884150149","main_expt","0.6","0.4501825932","0.4","","0.374340785","0.8","0.04540529238","0.2","","","","","","","",""
"285","","bandit","259","639279","0.0-220.0-0.0","05753215","wem/bandit_either","AOAZMLP27GD81","either","3","","","","","","","75","K","2","","0","0","1","0.3844034803","","","181","0.3977335033","","main_expt","0.6","","0.4","0.4527537228","","0.8","","0.2","0.3844034803","0.04810206047","","","","","",""
"417","","bandit","260","641215","0.0-221.0-0.0","05753215","wem/bandit_either","AOAZMLP27GD81","either","3","","","","","","","75","K","2","","1","0","0","0.3569363444","","","182","0.4194204302","","main_expt","0.6","","0.4","0.4733821952","","0.8","","0.2","0.3569363444","0.0564969073","","","","","",""
"273","","bandit","261","642999","0.0-222.0-0.0","05753215","wem/bandit_either","AOAZMLP27GD81","either","3","","","","","","","75","K","2","","0","0","1","0.3930074682","","","183","0.4050300101","","main_expt","0.6","","0.4","0.4741352064","","0.8","","0.2","0.3930074682","0.06674959941","","","","","",""
"192","","bandit","262","644711","0.0-223.0-0.0","05753215","wem/bandit_either","AOAZMLP27GD81","either","3","","","","","","","75","K","2","","0","1","0","","0.4105724965","","184","","0.4272992256","main_expt","0.6","0.4835015011","0.4","","0.4105724965","0.8","0.05730522946","0.2","","","","","","","",""
"153","","bandit","263","646374","0.0-224.0-0.0","05753215","wem/bandit_either","AOAZMLP27GD81","either","3","","","","","","","75","K","2","","0","0","1","0.4230276401","","","185","0.4213026748","","main_expt","0.6","","0.4","0.4907566516","","0.8","","0.2","0.4230276401","0.0759668512","","","","","",""
"169","","bandit","264","648061","0.0-225.0-0.0","05753215","wem/bandit_either","AOAZMLP27GD81","either","3","","","","","","","75","K","2","","1","0","0","0.4243078066","","","186","0.3729626057","","main_expt","0.6","","0.4","0.4777100538","","0.8","","0.2","0.4243078066","0.0736669194","","","","","",""
"255","","bandit","265","649823","0.0-226.0-0.0","05753215","wem/bandit_either","AOAZMLP27GD81","either","3","","","","","","","75","K","2","","0","0","1","0.419104652","","","187","0.4022080601","","main_expt","0.6","","0.4","0.4751658893","","0.8","","0.2","0.419104652","0.1020870739","","","","","",""
"129","","bandit","266","651470","0.0-227.0-0.0","05753215","wem/bandit_either","AOAZMLP27GD81","either","3","","","","","","","75","K","2","","1","0","0","0.3917910895","","","188","0.4218987807","","main_expt","0.6","","0.4","0.4711403756","","0.8","","0.2","0.3917910895","0.110066606","","","","","",""
"165","","bandit","267","653144","0.0-228.0-0.0","05753215","wem/bandit_either","AOAZMLP27GD81","either","3","","","","","","","75","K","2","","0","0","1","0.3696037293","","","189","0.4284519853","","main_expt","0.6","","0.4","0.4848283219","","0.8","","0.2","0.3696037293","0.1616324423","","","","","",""
"141","","bandit","268","654797","0.0-229.0-0.0","05753215","wem/bandit_either","AOAZMLP27GD81","either","3","","","","","","","75","K","2","","0","1","0","","0.3722688899","","190","","0.4104863902","main_expt","0.6","0.4906713727","0.4","","0.3722688899","0.8","0.1401199573","0.2","","","","","","","",""
"244","","bandit","269","656549","0.0-230.0-0.0","05753215","wem/bandit_either","AOAZMLP27GD81","either","3","","","","","","","75","K","2","","0","0","1","","0.3956575009","","191","","0.4071825693","main_expt","0.6","0.4944082075","0.4","","0.3956575009","0.8","0.1782786715","0.2","","","","","","","",""
"277","","bandit","270","658334","0.0-231.0-0.0","05753215","wem/bandit_either","AOAZMLP27GD81","either","3","","","","","","","75","K","2","","0","0","1","0.3843500594","","","192","0.4172763132","","main_expt","0.6","","0.4","0.4922337742","","0.8","","0.2","0.3843500594","0.203517815","","","","","",""
"178","","bandit","271","660031","0.0-232.0-0.0","05753215","wem/bandit_either","AOAZMLP27GD81","either","3","","","","","","","75","K","2","","0","0","1","","0.3801723293","","193","","0.3965334946","main_expt","0.6","0.4887356563","0.4","","0.3801723293","0.8","0.172030281","0.2","","","","","","","",""
"128","","bandit","272","661678","0.0-233.0-0.0","05753215","wem/bandit_either","AOAZMLP27GD81","either","3","","","","","","","75","K","2","","0","0","1","0.3871645121","","","194","0.383316574","","main_expt","0.6","","0.4","0.4850955297","","0.8","","0.2","0.3871645121","0.1813301739","","","","","",""
"132","","bandit","273","663328","0.0-234.0-0.0","05753215","wem/bandit_either","AOAZMLP27GD81","either","3","","","","","","","75","K","2","","1","0","0","0.3633903175","","","195","0.3965345796","","main_expt","0.6","","0.4","0.4848341758","","0.8","","0.2","0.3633903175","0.2284295163","","","","","",""
"190","","bandit","274","665031","0.0-235.0-0.0","05753215","wem/bandit_either","AOAZMLP27GD81","either","3","","","","","","","75","K","2","","1","0","0","0.3811675741","","","196","0.3978469093","","main_expt","0.6","","0.4","0.490049139","","0.8","","0.2","0.3811675741","0.2501246714","","","","","",""
"185","","bandit","275","666734","0.0-236.0-0.0","05753215","wem/bandit_either","AOAZMLP27GD81","either","3","","","","","","","75","K","2","","1","0","0","0.3487868089","","","197","0.3172926233","","main_expt","0.6","","0.4","0.4912643012","","0.8","","0.2","0.3487868089","0.3150809007","","","","","",""
"204","","bandit","276","668446","0.0-237.0-0.0","05753215","wem/bandit_either","AOAZMLP27GD81","either","3","","","","","","","75","K","2","","0","0","1","0.2986771554","","","198","0.3113170709","","main_expt","0.6","","0.4","0.4793615714","","0.8","","0.2","0.2986771554","0.3442077965","","","","","",""
"66","","bandit","277","670030","0.0-238.0-0.0","05753215","wem/bandit_either","AOAZMLP27GD81","either","3","","","","","","","75","K","2","","0","0","1","0.3481418533","","","199","0.3066116159","","main_expt","0.6","","0.4","0.4661622676","","0.8","","0.2","0.3481418533","0.3675051223","","","","","",""
"277","","bandit","278","671822","0.0-239.0-0.0","05753215","wem/bandit_either","AOAZMLP27GD81","either","3","","","","","","","75","K","2","","0","0","1","","0.353319573","","200","","0.2521122026","main_expt","0.6","0.4479238565","0.4","","0.353319573","0.8","0.3044821291","0.2","","","","","","","",""
"154","","bandit","279","673494","0.0-240.0-0.0","05753215","wem/bandit_either","AOAZMLP27GD81","either","3","","","","","","","75","K","2","","0","0","1","0.3676338631","","","201","0.2679963248","","main_expt","0.6","","0.4","0.4429166455","","0.8","","0.2","0.3676338631","0.3013824411","","","","","",""
"265","","bandit","280","675270","0.0-241.0-0.0","05753215","wem/bandit_either","AOAZMLP27GD81","either","3","","","","","","","75","K","2","","0","0","1","","0.311657493","","202","","0.2076546236","main_expt","0.6","0.442820363","0.4","","0.311657493","0.8","0.3001954661","0.2","","","","","","","",""
"58","","bandit","281","676846","0.0-242.0-0.0","05753215","wem/bandit_either","AOAZMLP27GD81","either","3","","","","","","","74","J","1","","0","1","0","","0.4539008368","","203","","0.1881707852","main_expt","0.6","0.4539008368","0.4","","0.3364041998","0.8","0.3189156814","0.2","","","","","","","",""
"164","","bandit","282","678526","0.0-243.0-0.0","05753215","wem/bandit_either","AOAZMLP27GD81","either","3","","","","","","","74","J","1","","0","0","1","0.4163307037","","","204","0.2057853427","","main_expt","0.6","","0.4","0.4163307037","","0.8","","0.2","0.3148670147","0.3162062407","","","","","",""
"267","","bandit","283","680311","0.0-244.0-0.0","05753215","wem/bandit_either","AOAZMLP27GD81","either","3","","","","","","","74","J","1","","0","0","1","","0.4045388199","","205","","0.2564451259","main_expt","0.6","0.4045388199","0.4","","0.3293187519","0.8","0.347278619","0.2","","","","","","","",""
"166","","bandit","284","681989","0.0-245.0-0.0","05753215","wem/bandit_either","AOAZMLP27GD81","either","3","","","","","","","74","J","1","","0","1","0","","0.4083422121","","206","","0.3082896296","main_expt","0.6","0.4083422121","0.4","","0.2705077244","0.8","0.2970129147","0.2","","","","","","","",""
"244","","bandit","285","683745","0.0-246.0-0.0","05753215","wem/bandit_either","AOAZMLP27GD81","either","3","","","","","","","74","J","1","","0","0","1","","0.4033585138","","207","","0.3235103938","main_expt","0.6","0.4033585138","0.4","","0.3083591011","0.8","0.3331481178","0.2","","","","","","","",""
"193","","bandit","286","685449","0.0-247.0-0.0","05753215","wem/bandit_either","AOAZMLP27GD81","either","3","","","","","","","72","H","0","img/none_selected.jpg","0","0","1","","0.3563539536","","208","","0.3563539536","main_expt","0.6","0.3753320851","0.4","","0.2489273718","0.8","0.3195917859","0.2","","","","","","","",""
"131","","bandit","287","687095","0.0-248.0-0.0","05753215","wem/bandit_either","AOAZMLP27GD81","either","3","","","","","","","72","H","0","img/none_selected.jpg","1","0","0","0.3821305916","","","209","0.3821305916","","main_expt","0.6","","0.4","0.3864970555","","0.8","","0.2","0.2224321457","0.3642345195","","","","","",""
"218","","bandit","288","688823","0.0-249.0-0.0","05753215","wem/bandit_either","AOAZMLP27GD81","either","3","","","","","","","72","H","0","img/none_selected.jpg","0","0","1","","0.4067483812","","210","","0.4067483812","main_expt","0.6","0.3894881908","0.4","","0.2184729634","0.8","0.3518797164","0.2","","","","","","","",""
"160","","bandit","289","690505","0.0-250.0-0.0","05753215","wem/bandit_either","AOAZMLP27GD81","either","3","","","","","","","72","H","0","img/none_selected.jpg","0","0","1","0.376825818","","","211","0.376825818","","main_expt","0.6","","0.4","0.4052823736","","0.8","","0.2","0.2178464352","0.3781537602","","","","","",""
"102","","bandit","290","692127","0.0-251.0-0.0","05753215","wem/bandit_either","AOAZMLP27GD81","either","3","","","","","","","72","H","0","img/none_selected.jpg","0","0","1","","0.3481764155","","212","","0.3481764155","main_expt","0.6","0.3783189977","0.4","","0.1644702768","0.8","0.3773353051","0.2","","","","","","","",""
"146","","bandit","291","693792","0.0-252.0-0.0","05753215","wem/bandit_either","AOAZMLP27GD81","either","3","","","","","","","76","L","3","","0","0","1","","0.3448860985","","213","","0.3239198888","main_expt","0.6","0.3804187243","0.4","","0.1271660564","0.8","0.3448860985","0.2","","","","","","","",""
"204","","bandit","292","695511","0.0-253.0-0.0","05753215","wem/bandit_either","AOAZMLP27GD81","either","3","","","","","","","76","L","3","","0","1","0","","0.3622000499","","214","","0.3592643085","main_expt","0.6","0.3964056757","0.4","","0.1368129038","0.8","0.3622000499","0.2","","","","","","","",""
"251","","bandit","293","697270","0.0-254.0-0.0","05753215","wem/bandit_either","AOAZMLP27GD81","either","3","","","","","","","76","L","3","","0","1","0","","0.3408682726","","215","","0.3482739819","main_expt","0.6","0.3939862607","0.4","","0.07615368859","0.8","0.3408682726","0.2","","","","","","","",""
"248","","bandit","294","699030","0.0-255.0-0.0","05753215","wem/bandit_either","AOAZMLP27GD81","either","3","","","","","","","76","L","3","","0","0","1","","0.328819006","","216","","0.2972527025","main_expt","0.6","0.4062496234","0.4","","0.07711559412","0.8","0.328819006","0.2","","","","","","","",""
"228","","bandit","295","700776","0.0-256.0-0.0","05753215","wem/bandit_either","AOAZMLP27GD81","either","3","","","","","","","76","L","3","","0","0","1","","0.3229374792","","217","","0.2850944341","main_expt","0.6","0.3440498305","0.4","","0.07728173513","0.8","0.3229374792","0.2","","","","","","","",""
"286","","bandit","296","702583","0.0-257.0-0.0","05753215","wem/bandit_either","AOAZMLP27GD81","either","3","","","","","","","76","L","3","","0","1","0","","0.3616220652","","218","","0.2483413171","main_expt","0.6","0.3198020565","0.4","","0.07919919155","0.8","0.3616220652","0.2","","","","","","","",""
"259","","bandit","297","704351","0.0-258.0-0.0","05753215","wem/bandit_either","AOAZMLP27GD81","either","3","","","","","","","76","L","3","","0","0","1","","0.3591176528","","219","","0.2680513607","main_expt","0.6","0.3078290176","0.4","","0.1270410367","0.8","0.3591176528","0.2","","","","","","","",""
"193","","bandit","298","706062","0.0-259.0-0.0","05753215","wem/bandit_either","AOAZMLP27GD81","either","3","","","","","","","76","L","3","","0","1","0","","0.2758994579","","220","","0.304668496","main_expt","0.6","0.2961895162","0.4","","0.1117499599","0.8","0.2758994579","0.2","","","","","","","",""
"49","","bandit","299","707630","0.0-260.0-0.0","05753215","wem/bandit_either","AOAZMLP27GD81","either","3","","","","","","","76","L","3","","0","0","1","0.3119987931","","","221","0.2773284289","","main_expt","0.6","","0.4","0.2658603678","","0.8","","0.2","0.1186324211","0.3119987931","","","","","",""
"179","","bandit","300","709318","0.0-261.0-0.0","05753215","wem/bandit_either","AOAZMLP27GD81","either","3","","","","","","","76","L","3","","0","0","1","","0.3106374463","","222","","0.2152506718","main_expt","0.6","0.274695037","0.4","","0.1141050397","0.8","0.3106374463","0.2","","","","","","","",""
"149","","bandit","301","710987","0.0-262.0-0.0","05753215","wem/bandit_either","AOAZMLP27GD81","either","3","","","","","","","74","J","1","","0","0","1","0.2210940289","","","223","0.2445797097","","main_expt","0.6","","0.4","0.2210940289","","0.8","","0.2","0.1007228699","0.3131570504","","","","","",""
"133","","bandit","302","712645","0.0-263.0-0.0","05753215","wem/bandit_either","AOAZMLP27GD81","either","3","","","","","","","74","J","1","","0","0","1","","0.1843933297","","224","","0.2559263424","main_expt","0.6","0.1843933297","0.4","","0.1380584308","0.8","0.3025994915","0.2","","","","","","","",""
"236","","bandit","303","714391","0.0-264.0-0.0","05753215","wem/bandit_either","AOAZMLP27GD81","either","3","","","","","","","74","J","1","","0","0","1","","0.212211923","","225","","0.2702522324","main_expt","0.6","0.212211923","0.4","","0.1393521225","0.8","0.2994132709","0.2","","","","","","","",""
"88","","bandit","304","715997","0.0-265.0-0.0","05753215","wem/bandit_either","AOAZMLP27GD81","either","3","","","","","","","74","J","1","","0","1","0","","0.2315036379","","226","","0.2646860425","main_expt","0.6","0.2315036379","0.4","","0.2094269877","0.8","0.2866794375","0.2","","","","","","","",""
"238","","bandit","305","717748","0.0-266.0-0.0","05753215","wem/bandit_either","AOAZMLP27GD81","either","3","","","","","","","74","J","1","","0","0","1","0.2646353212","","","227","0.269556559","","main_expt","0.6","","0.4","0.2646353212","","0.8","","0.2","0.2959232149","0.2299222882","","","","","",""
"109","","bandit","306","719365","0.0-267.0-0.0","05753215","wem/bandit_either","AOAZMLP27GD81","either","3","","","","","","","72","H","0","img/none_selected.jpg","1","0","0","0.2498152532","","","228","0.2498152532","","main_expt","0.6","","0.4","0.2443517867","","0.8","","0.2","0.374355758","0.2991813551","","","","","",""
"236","","bandit","307","721110","0.0-268.0-0.0","05753215","wem/bandit_either","AOAZMLP27GD81","either","3","","","","","","","72","H","0","img/none_selected.jpg","0","0","1","","0.2495566458","","229","","0.2495566458","main_expt","0.6","0.2569692975","0.4","","0.3876740502","0.8","0.3295538921","0.2","","","","","","","",""
"241","","bandit","308","722861","0.0-269.0-0.0","05753215","wem/bandit_either","AOAZMLP27GD81","either","3","","","","","","","72","H","0","img/none_selected.jpg","0","0","1","0.2134382902","","","230","0.2134382902","","main_expt","0.6","","0.4","0.2490290172","","0.8","","0.2","0.3341674595","0.2713593359","","","","","",""
"242","","bandit","309","724624","0.0-270.0-0.0","05753215","wem/bandit_either","AOAZMLP27GD81","either","3","","","","","","","76","L","3","","0","0","1","","0.2746975787","","231","","0.2099205747","main_expt","0.6","0.2368643707","0.4","","0.3558281537","0.8","0.2746975787","0.2","","","","","","","",""
"160","","bandit","310","726303","0.0-271.0-0.0","05753215","wem/bandit_either","AOAZMLP27GD81","either","3","","","","","","","75","K","2","","0","0","1","","0.3293076861","","232","","0.1598609145","main_expt","0.6","0.2857324616","0.4","","0.3293076861","0.8","0.2817934899","0.2","","","","","","","",""
"159","","bandit","311","727982","0.0-272.0-0.0","05753215","wem/bandit_either","AOAZMLP27GD81","either","3","","","","","","","75","K","2","","0","1","0","","0.3271309306","","233","","0.1472569172","main_expt","0.6","0.226619475","0.4","","0.3271309306","0.8","0.3139736629","0.2","","","","","","","",""
"214","","bandit","312","729717","0.0-273.0-0.0","05753215","wem/bandit_either","AOAZMLP27GD81","either","3","","","","","","","75","K","2","","0","0","1","","0.3510228885","","234","","0.1123375355","main_expt","0.6","0.2448251662","0.4","","0.3510228885","0.8","0.3332560948","0.2","","","","","","","",""
"7","","bandit","313","731247","0.0-274.0-0.0","05753215","wem/bandit_either","AOAZMLP27GD81","either","3","","","","","","","74","J","1","","0","0","1","","0.2996798263","","235","","0.1562424728","main_expt","0.6","0.2996798263","0.4","","0.3346663699","0.8","0.3475281657","0.2","","","","","","","",""
"268","","bandit","314","733038","0.0-275.0-0.0","05753215","wem/bandit_either","AOAZMLP27GD81","either","3","","","","","","","75","K","2","","0","0","1","","0.332043614","","236","","0.1623269298","main_expt","0.6","0.3220329496","0.4","","0.332043614","0.8","0.3170984437","0.2","","","","","","","",""
"2","","bandit","315","734561","0.0-276.0-0.0","05753215","wem/bandit_either","AOAZMLP27GD81","either","3","","","","","","","74","J","1","","0","0","1","0.3672390457","","","237","0.1362759337","","main_expt","0.6","","0.4","0.3672390457","","0.8","","0.2","0.2780661838","0.3611259067","","","","","",""
"20","","bandit","316","736102","0.0-277.0-0.0","05753215","wem/bandit_either","AOAZMLP27GD81","either","3","","","","","","","75","K","2","","1","0","0","0.3071002506","","","238","0.1282223372","","main_expt","0.6","","0.4","0.3702030288","","0.8","","0.2","0.3071002506","0.3449339383","","","","","",""
"221","","bandit","317","737840","0.0-278.0-0.0","05753215","wem/bandit_either","AOAZMLP27GD81","either","3","","","","","","","75","K","2","","0","0","1","0.3101279526","","","239","0.08262393641","","main_expt","0.6","","0.4","0.3486367063","","0.8","","0.2","0.3101279526","0.3006984684","","","","","",""
"243","","bandit","318","739606","0.0-279.0-0.0","05753215","wem/bandit_either","AOAZMLP27GD81","either","3","","","","","","","74","J","1","","0","0","1","","0.3422639114","","240","","0.09366491666","main_expt","0.6","0.3422639114","0.4","","0.3071576631","0.8","0.3355390738","0.2","","","","","","","",""
"126","","bandit","319","741255","0.0-280.0-0.0","05753215","wem/bandit_either","AOAZMLP27GD81","either","3","","","","","","","72","H","0","img/none_selected.jpg","0","0","1","","0.09778426954","","241","","0.09778426954","main_expt","0.6","0.3703795114","0.4","","0.3213727252","0.8","0.3513118525","0.2","","","","","","","",""
"515","","bandit","320","743279","0.0-281.0-0.0","05753215","wem/bandit_either","AOAZMLP27GD81","either","3","","","","","","","76","L","3","","0","0","1","","0.2871404103","","242","","0.0684580113","main_expt","0.6","0.3362310887","0.4","","0.3303042821","0.8","0.2871404103","0.2","","","","","","","",""
"290","","bandit","321","745078","0.0-282.0-0.0","05753215","wem/bandit_either","AOAZMLP27GD81","either","3","","","","","","","76","L","3","","0","0","1","","0.2582353252","","243","","0.05756719403","main_expt","0.6","0.3855302341","0.4","","0.386578507","0.8","0.2582353252","0.2","","","","","","","",""
"295","","bandit","322","746887","0.0-283.0-0.0","05753215","wem/bandit_either","AOAZMLP27GD81","either","3","","","","","","","76","L","3","","0","1","0","","0.2108553612","","244","","0.07954378931","main_expt","0.6","0.3504604058","0.4","","0.3582196724","0.8","0.2108553612","0.2","","","","","","","",""
"251","","bandit","323","748662","0.0-284.0-0.0","05753215","wem/bandit_either","AOAZMLP27GD81","either","3","","","","","","","76","L","3","","0","0","1","","0.190308294","","245","","0.07668718344","main_expt","0.6","0.3586275713","0.4","","0.3626170977","0.8","0.190308294","0.2","","","","","","","",""
"78","","bandit","324","750262","0.0-285.0-0.0","05753215","wem/bandit_either","AOAZMLP27GD81","either","3","","","","","","","76","L","3","","0","0","1","","0.2079876503","","246","","0.08627194322","main_expt","0.6","0.3202710015","0.4","","0.2778980274","0.8","0.2079876503","0.2","","","","","","","",""
"249","","bandit","325","752024","0.0-286.0-0.0","05753215","wem/bandit_either","AOAZMLP27GD81","either","3","","","","","","","72","H","0","img/none_selected.jpg","1","0","0","0.1009858539","","","247","0.1009858539","","main_expt","0.6","","0.4","0.2874587678","","0.8","","0.2","0.2864864277","0.2053262284","","","","","",""
"203","","bandit","326","753742","0.0-287.0-0.0","05753215","wem/bandit_either","AOAZMLP27GD81","either","3","","","","","","","72","H","0","img/none_selected.jpg","0","0","1","0.1044033157","","","248","0.1044033157","","main_expt","0.6","","0.4","0.2703076155","","0.8","","0.2","0.2883304048","0.2699327364","","","","","",""
"225","","bandit","327","755479","0.0-288.0-0.0","05753215","wem/bandit_either","AOAZMLP27GD81","either","3","","","","","","","72","H","0","img/none_selected.jpg","0","0","1","","0.07254640656","","249","","0.07254640656","main_expt","0.6","0.2212833967","0.4","","0.3034325887","0.8","0.2917851334","0.2","","","","","","","",""
"251","","bandit","328","757241","0.0-289.0-0.0","05753215","wem/bandit_either","AOAZMLP27GD81","either","3","","","","","","","72","H","0","img/none_selected.jpg","0","0","1","0.09512939239","","","250","0.09512939239","","main_expt","0.6","","0.4","0.2174917034","","0.8","","0.2","0.2582013927","0.2530543584","","","","","",""
"177","","bandit","329","758926","0.0-290.0-0.0","05753215","wem/bandit_either","AOAZMLP27GD81","either","3","","","","","","","72","H","0","img/none_selected.jpg","0","0","1","0.06759478125","","","251","0.06759478125","","main_expt","0.6","","0.4","0.2008338107","","0.8","","0.2","0.2337836179","0.2345859063","","","","","",""
"181","","bandit","330","760631","0.0-291.0-0.0","05753215","wem/bandit_either","AOAZMLP27GD81","either","3","","","","","","","74","J","1","","1","0","0","0.2294508047","","","252","0.05682902113","","main_expt","0.6","","0.4","0.2294508047","","0.8","","0.2","0.2477033955","0.2407419433","","","","","",""
"172","","bandit","331","762327","0.0-292.0-0.0","05753215","wem/bandit_either","AOAZMLP27GD81","either","3","","","","","","","74","J","1","","1","0","0","0.2678406235","","","253","0.04662337877","","main_expt","0.6","","0.4","0.2678406235","","0.8","","0.2","0.2187012899","0.2016139721","","","","","",""
"231","","bandit","332","764079","0.0-293.0-0.0","05753215","wem/bandit_either","AOAZMLP27GD81","either","3","","","","","","","74","J","1","","0","0","1","0.3248943382","","","254","0.05613237953","","main_expt","0.6","","0.4","0.3248943382","","0.8","","0.2","0.2247734494","0.2204455337","","","","","",""
