"rt","responses","trial_type","trial_index","time_elapsed","internal_node_id","subjID","study","MID","cond","drift","key_press","expt_phase","target","like","value","connected","respCharCode","respKey","respChoiceNum","respChoice","gems","bombs","no_reward","GemPrChosen","BombPrChosen","practice","trial_counter","WinPr_0","LosePr_0","trial_label","GainOverPainPr_0","WinPr_1","GainOverPainPr_1","LosePr_1","WinPr_2","GainOverPainPr_2","WinPr_3","GainOverPainPr_3","LosePr_2","LosePr_3","Q0","Q1","Q2","gender","age","ethnicity"
"2317","{""Q0"":""A1GV0UZU0T2ORS""}","survey-text","0","2323","0.0-0.0","06238679","wem/bandit_either","A1GV0UZU0T2ORS","either","7","","","","","","","","","","","","","","","","","","","","","","","","","","","","","","","","","","","",""
"12707","","text","1","16035","0.0-1.0","06238679","wem/bandit_either","A1GV0UZU0T2ORS","either","7","32","","","","","","","","","","","","","","","","","","","","","","","","","","","","","","","","","","",""
"13350","","text","2","29387","0.0-2.0","06238679","wem/bandit_either","A1GV0UZU0T2ORS","either","7","32","","","","","","","","","","","","","","","","","","","","","","","","","","","","","","","","","","",""
"26658","","text","3","56046","0.0-3.0","06238679","wem/bandit_either","A1GV0UZU0T2ORS","either","7","32","","","","","","","","","","","","","","","","","","","","","","","","","","","","","","","","","","",""
"11381","","text","4","67429","0.0-4.0","06238679","wem/bandit_either","A1GV0UZU0T2ORS","either","7","32","","","","","","","","","","","","","","","","","","","","","","","","","","","","","","","","","","",""
"12765","","text","5","80194","0.0-5.0","06238679","wem/bandit_either","A1GV0UZU0T2ORS","either","7","32","","","","","","","","","","","","","","","","","","","","","","","","","","","","","","","","","","",""
"3434","","text","6","83630","0.0-6.0","06238679","wem/bandit_either","A1GV0UZU0T2ORS","either","7","32","","","","","","","","","","","","","","","","","","","","","","","","","","","","","","","","","","",""
"2991","","text","7","86622","0.0-7.0","06238679","wem/bandit_either","A1GV0UZU0T2ORS","either","7","32","","","","","","","","","","","","","","","","","","","","","","","","","","","","","","","","","","",""
"7595","","identification","8","94230","0.0-8.0-0.0","06238679","wem/bandit_either","A1GV0UZU0T2ORS","either","7","","identification_pre","the village of Zur","6","6","6","","","","","","","","","","","","","","","","","","","","","","","","","","","","","",""
"4469","","identification","9","99715","0.0-8.0-1.0","06238679","wem/bandit_either","A1GV0UZU0T2ORS","either","7","","identification_pre","the village of Nyx","1","1","1","","","","","","","","","","","","","","","","","","","","","","","","","","","","","",""
"17707","","text","10","118424","0.0-9.0","06238679","wem/bandit_either","A1GV0UZU0T2ORS","either","7","32","","","","","","","","","","","","","","","","","","","","","","","","","","","","","","","","","","",""
"3471","","text","11","121897","0.0-10.0","06238679","wem/bandit_either","A1GV0UZU0T2ORS","either","7","32","","","","","","","","","","","","","","","","","","","","","","","","","","","","","","","","","","",""
"2149","","text","12","124048","0.0-11.0","06238679","wem/bandit_either","A1GV0UZU0T2ORS","either","7","32","","","","","","","","","","","","","","","","","","","","","","","","","","","","","","","","","","",""
"2257","","text","13","126306","0.0-12.0","06238679","wem/bandit_either","A1GV0UZU0T2ORS","either","7","32","","","","","","","","","","","","","","","","","","","","","","","","","","","","","","","","","","",""
"4115","","bandit","14","131938","0.0-13.0-0.0","06238679","wem/bandit_either","A1GV0UZU0T2ORS","either","7","","","","","","","74","J","0","img/none_selected_demo.jpg","0","0","1","0","0","true","0","0","0","","","","","","","","","","","","","","","","",""
"917","","bandit","15","134368","0.0-14.0-0.0","06238679","wem/bandit_either","A1GV0UZU0T2ORS","either","7","","","","","","","75","K","0","img/none_selected_demo.jpg","0","0","1","0","0","true","0","0","0","","","","","","","","","","","","","","","","",""
"6938","","text","16","141308","0.0-15.0","06238679","wem/bandit_either","A1GV0UZU0T2ORS","either","7","32","","","","","","","","","","","","","","","","","","","","","","","","","","","","","","","","","","",""
"6624","","text","17","147933","0.0-16.0","06238679","wem/bandit_either","A1GV0UZU0T2ORS","either","7","32","","","","","","","","","","","","","","","","","","","","","","","","","","","","","","","","","","",""
"4099","","text","18","152033","0.0-17.0","06238679","wem/bandit_either","A1GV0UZU0T2ORS","either","7","32","","","","","","","","","","","","","","","","","","","","","","","","","","","","","","","","","","",""
"3062","","text","19","155097","0.0-18.0","06238679","wem/bandit_either","A1GV0UZU0T2ORS","either","7","32","","","","","","","","","","","","","","","","","","","","","","","","","","","","","","","","","","",""
"669","","bandit","20","157277","0.0-19.0-0.0","06238679","wem/bandit_either","A1GV0UZU0T2ORS","either","7","","","","","","","74","J","0","img/none_selected_demo.jpg","0","0","1","0.8","","true","0","0.8","","80_20_practice","0.5","0.2","0.5","","","","","","","","","","","","",""
"160","","bandit","21","158949","0.0-19.0-1.0","06238679","wem/bandit_either","A1GV0UZU0T2ORS","either","7","","","","","","","75","K","1","","0","0","1","","0.2","true","0","","0.8","80_20_practice","0.5","","0.5","0.2","","","","","","","","","","","",""
"98","","bandit","22","160560","0.0-19.0-2.0","06238679","wem/bandit_either","A1GV0UZU0T2ORS","either","7","","","","","","","74","J","0","img/none_selected_demo.jpg","0","1","0","","0.8","true","0","","0.8","80_20_practice","0.5","","0.5","0.2","","","","","","","","","","","",""
"79","","bandit","23","162150","0.0-19.0-3.0","06238679","wem/bandit_either","A1GV0UZU0T2ORS","either","7","","","","","","","74","J","0","img/none_selected_demo.jpg","1","0","0","0.8","","true","0","0.8","","80_20_practice","0.5","0.2","0.5","","","","","","","","","","","","",""
"96","","bandit","24","163758","0.0-19.0-4.0","06238679","wem/bandit_either","A1GV0UZU0T2ORS","either","7","","","","","","","74","J","0","img/none_selected_demo.jpg","1","0","0","0.8","","true","0","0.8","","80_20_practice","0.5","0.2","0.5","","","","","","","","","","","","",""
"336","","bandit","25","165605","0.0-19.0-5.0","06238679","wem/bandit_either","A1GV0UZU0T2ORS","either","7","","","","","","","74","J","0","img/none_selected_demo.jpg","1","0","0","0.8","","true","0","0.8","","80_20_practice","0.5","0.2","0.5","","","","","","","","","","","","",""
"219","","bandit","26","167335","0.0-19.0-6.0","06238679","wem/bandit_either","A1GV0UZU0T2ORS","either","7","","","","","","","74","J","0","img/none_selected_demo.jpg","0","0","1","","0.8","true","0","","0.8","80_20_practice","0.5","","0.5","0.2","","","","","","","","","","","",""
"73","","bandit","27","168919","0.0-19.0-7.0","06238679","wem/bandit_either","A1GV0UZU0T2ORS","either","7","","","","","","","74","J","0","img/none_selected_demo.jpg","0","0","1","","0.8","true","0","","0.8","80_20_practice","0.5","","0.5","0.2","","","","","","","","","","","",""
"9","","bandit","28","170437","0.0-19.0-8.0","06238679","wem/bandit_either","A1GV0UZU0T2ORS","either","7","","","","","","","74","J","0","img/none_selected_demo.jpg","1","0","0","0.8","","true","0","0.8","","80_20_practice","0.5","0.2","0.5","","","","","","","","","","","","",""
"262","","bandit","29","172211","0.0-19.0-9.0","06238679","wem/bandit_either","A1GV0UZU0T2ORS","either","7","","","","","","","74","J","0","img/none_selected_demo.jpg","1","0","0","0.8","","true","0","0.8","","80_20_practice","0.5","0.2","0.5","","","","","","","","","","","","",""
"213","","bandit","30","173930","0.0-19.0-10.0","06238679","wem/bandit_either","A1GV0UZU0T2ORS","either","7","","","","","","","74","J","0","img/none_selected_demo.jpg","1","0","0","0.8","","true","0","0.8","","80_20_practice","0.5","0.2","0.5","","","","","","","","","","","","",""
"285","","bandit","31","175723","0.0-19.0-11.0","06238679","wem/bandit_either","A1GV0UZU0T2ORS","either","7","","","","","","","74","J","0","img/none_selected_demo.jpg","1","0","0","0.8","","true","0","0.8","","80_20_practice","0.5","0.2","0.5","","","","","","","","","","","","",""
"228","","bandit","32","177459","0.0-19.0-12.0","06238679","wem/bandit_either","A1GV0UZU0T2ORS","either","7","","","","","","","74","J","0","img/none_selected_demo.jpg","0","0","1","","0.8","true","0","","0.8","80_20_practice","0.5","","0.5","0.2","","","","","","","","","","","",""
"460","","bandit","33","179426","0.0-19.0-13.0","06238679","wem/bandit_either","A1GV0UZU0T2ORS","either","7","","","","","","","74","J","0","img/none_selected_demo.jpg","0","0","1","","0.8","true","0","","0.8","80_20_practice","0.5","","0.5","0.2","","","","","","","","","","","",""
"469","","bandit","34","181404","0.0-19.0-14.0","06238679","wem/bandit_either","A1GV0UZU0T2ORS","either","7","","","","","","","75","K","1","","0","1","0","","0.2","true","0","","0.8","80_20_practice","0.5","","0.5","0.2","","","","","","","","","","","",""
"75","","bandit","35","182991","0.0-19.0-15.0","06238679","wem/bandit_either","A1GV0UZU0T2ORS","either","7","","","","","","","75","K","1","","0","0","1","","0.2","true","0","","0.8","80_20_practice","0.5","","0.5","0.2","","","","","","","","","","","",""
"56","","bandit","36","184556","0.0-19.0-16.0","06238679","wem/bandit_either","A1GV0UZU0T2ORS","either","7","","","","","","","74","J","0","img/none_selected_demo.jpg","0","1","0","","0.8","true","0","","0.8","80_20_practice","0.5","","0.5","0.2","","","","","","","","","","","",""
"586","","bandit","37","186655","0.0-19.0-17.0","06238679","wem/bandit_either","A1GV0UZU0T2ORS","either","7","","","","","","","74","J","0","img/none_selected_demo.jpg","0","1","0","","0.8","true","0","","0.8","80_20_practice","0.5","","0.5","0.2","","","","","","","","","","","",""
"336","","bandit","38","188500","0.0-19.0-18.0","06238679","wem/bandit_either","A1GV0UZU0T2ORS","either","7","","","","","","","74","J","0","img/none_selected_demo.jpg","0","1","0","","0.8","true","0","","0.8","80_20_practice","0.5","","0.5","0.2","","","","","","","","","","","",""
"355","","bandit","39","190365","0.0-19.0-19.0","06238679","wem/bandit_either","A1GV0UZU0T2ORS","either","7","","","","","","","74","J","0","img/none_selected_demo.jpg","0","0","1","0.8","","true","0","0.8","","80_20_practice","0.5","0.2","0.5","","","","","","","","","","","","",""
"2877","","text","40","193243","0.0-20.0","06238679","wem/bandit_either","A1GV0UZU0T2ORS","either","7","32","","","","","","","","","","","","","","","","","","","","","","","","","","","","","","","","","","",""
"1476","","bandit","41","196228","0.0-21.0-0.0","06238679","wem/bandit_either","A1GV0UZU0T2ORS","either","7","","","","","","","74","J","0","img/none_selected_demo.jpg","1","0","0","1","0","true","0","1","0","","","0","","1","","","","","","","","","","","",""
"37557","","text","42","233789","0.0-22.0","06238679","wem/bandit_either","A1GV0UZU0T2ORS","either","7","32","","","","","","","","","","","","","","","","","","","","","","","","","","","","","","","","","","",""
"2437","","text","43","236228","0.0-23.0","06238679","wem/bandit_either","A1GV0UZU0T2ORS","either","7","32","","","","","","","","","","","","","","","","","","","","","","","","","","","","","","","","","","",""
"1615","","text","44","237844","0.0-24.0","06238679","wem/bandit_either","A1GV0UZU0T2ORS","either","7","32","","","","","","","","","","","","","","","","","","","","","","","","","","","","","","","","","","",""
"2063","","text","45","239908","0.0-25.0","06238679","wem/bandit_either","A1GV0UZU0T2ORS","either","7","32","","","","","","","","","","","","","","","","","","","","","","","","","","","","","","","","","","",""
"9056","","text","46","248966","0.0-26.0","06238679","wem/bandit_either","A1GV0UZU0T2ORS","either","7","32","","","","","","","","","","","","","","","","","","","","","","","","","","","","","","","","","","",""
"1213","","text","47","250182","0.0-27.0","06238679","wem/bandit_either","A1GV0UZU0T2ORS","either","7","32","","","","","","","","","","","","","","","","","","","","","","","","","","","","","","","","","","",""
"3806","","text","48","253990","0.0-28.0","06238679","wem/bandit_either","A1GV0UZU0T2ORS","either","7","32","","","","","","","","","","","","","","","","","","","","","","","","","","","","","","","","","","",""
"3264","","text","49","257255","0.0-29.0","06238679","wem/bandit_either","A1GV0UZU0T2ORS","either","7","32","","","","","","","","","","","","","","","","","","","","","","","","","","","","","","","","","","",""
"2687","","text","50","259945","0.0-30.0","06238679","wem/bandit_either","A1GV0UZU0T2ORS","either","7","32","","","","","","","","","","","","","","","","","","","","","","","","","","","","","","","","","","",""
"1333","","text","51","261280","0.0-31.0","06238679","wem/bandit_either","A1GV0UZU0T2ORS","either","7","32","","","","","","","","","","","","","","","","","","","","","","","","","","","","","","","","","","",""
"974","","text","52","262256","0.0-32.0","06238679","wem/bandit_either","A1GV0UZU0T2ORS","either","7","32","","","","","","","","","","","","","","","","","","","","","","","","","","","","","","","","","","",""
"652","","bandit","53","264420","0.0-33.0-0.0","06238679","wem/bandit_either","A1GV0UZU0T2ORS","either","7","","","","","","","72","H","0","img/none_selected.jpg","1","0","0","0.8","","true","0","0.8","","full_practice","0.5","0.2","0.5","","0.6","0.5","0.2","0.5","","","","","","","",""
"369","","bandit","54","266302","0.0-33.0-1.0","06238679","wem/bandit_either","A1GV0UZU0T2ORS","either","7","","","","","","","72","H","0","img/none_selected.jpg","0","1","0","","0.8","true","0","","0.8","full_practice","0.5","","0.5","0.2","","0.5","","0.5","0.6","0.2","","","","","",""
"328","","bandit","55","268142","0.0-33.0-2.0","06238679","wem/bandit_either","A1GV0UZU0T2ORS","either","7","","","","","","","72","H","0","img/none_selected.jpg","0","1","0","","0.8","true","0","","0.8","full_practice","0.5","","0.5","0.2","","0.5","","0.5","0.6","0.2","","","","","",""
"359","","bandit","56","270012","0.0-33.0-3.0","06238679","wem/bandit_either","A1GV0UZU0T2ORS","either","7","","","","","","","72","H","0","img/none_selected.jpg","1","0","0","0.8","","true","0","0.8","","full_practice","0.5","0.2","0.5","","0.6","0.5","0.2","0.5","","","","","","","",""
"259","","bandit","57","271782","0.0-33.0-4.0","06238679","wem/bandit_either","A1GV0UZU0T2ORS","either","7","","","","","","","72","H","0","img/none_selected.jpg","0","0","1","","0.8","true","0","","0.8","full_practice","0.5","","0.5","0.2","","0.5","","0.5","0.6","0.2","","","","","",""
"167","","bandit","58","273460","0.0-33.0-5.0","06238679","wem/bandit_either","A1GV0UZU0T2ORS","either","7","","","","","","","72","H","0","img/none_selected.jpg","1","0","0","0.8","","true","0","0.8","","full_practice","0.5","0.2","0.5","","0.6","0.5","0.2","0.5","","","","","","","",""
"203","","bandit","59","275171","0.0-33.0-6.0","06238679","wem/bandit_either","A1GV0UZU0T2ORS","either","7","","","","","","","72","H","0","img/none_selected.jpg","0","1","0","","0.8","true","0","","0.8","full_practice","0.5","","0.5","0.2","","0.5","","0.5","0.6","0.2","","","","","",""
"274","","bandit","60","276954","0.0-33.0-7.0","06238679","wem/bandit_either","A1GV0UZU0T2ORS","either","7","","","","","","","72","H","0","img/none_selected.jpg","0","1","0","","0.8","true","0","","0.8","full_practice","0.5","","0.5","0.2","","0.5","","0.5","0.6","0.2","","","","","",""
"132","","bandit","61","278594","0.0-33.0-8.0","06238679","wem/bandit_either","A1GV0UZU0T2ORS","either","7","","","","","","","72","H","0","img/none_selected.jpg","1","0","0","0.8","","true","0","0.8","","full_practice","0.5","0.2","0.5","","0.6","0.5","0.2","0.5","","","","","","","",""
"275","","bandit","62","280380","0.0-33.0-9.0","06238679","wem/bandit_either","A1GV0UZU0T2ORS","either","7","","","","","","","72","H","0","img/none_selected.jpg","1","0","0","0.8","","true","0","0.8","","full_practice","0.5","0.2","0.5","","0.6","0.5","0.2","0.5","","","","","","","",""
"139","","bandit","63","282028","0.0-33.0-10.0","06238679","wem/bandit_either","A1GV0UZU0T2ORS","either","7","","","","","","","72","H","0","img/none_selected.jpg","1","0","0","0.8","","true","0","0.8","","full_practice","0.5","0.2","0.5","","0.6","0.5","0.2","0.5","","","","","","","",""
"281","","bandit","64","283823","0.0-33.0-11.0","06238679","wem/bandit_either","A1GV0UZU0T2ORS","either","7","","","","","","","72","H","0","img/none_selected.jpg","0","0","1","","0.8","true","0","","0.8","full_practice","0.5","","0.5","0.2","","0.5","","0.5","0.6","0.2","","","","","",""
"207","","bandit","65","285540","0.0-33.0-12.0","06238679","wem/bandit_either","A1GV0UZU0T2ORS","either","7","","","","","","","74","J","1","","0","0","1","","0.2","true","0","","0.8","full_practice","0.5","","0.5","0.2","","0.5","","0.5","0.6","0.2","","","","","",""
"121","","bandit","66","287171","0.0-33.0-13.0","06238679","wem/bandit_either","A1GV0UZU0T2ORS","either","7","","","","","","","76","L","3","","0","1","0","","0.2","true","0","","0.8","full_practice","0.5","","0.5","0.2","","0.5","","0.5","0.6","0.2","","","","","",""
"132","","bandit","67","288816","0.0-33.0-14.0","06238679","wem/bandit_either","A1GV0UZU0T2ORS","either","7","","","","","","","76","L","3","","0","1","0","","0.2","true","0","","0.8","full_practice","0.5","","0.5","0.2","","0.5","","0.5","0.6","0.2","","","","","",""
"286","","bandit","68","290614","0.0-33.0-15.0","06238679","wem/bandit_either","A1GV0UZU0T2ORS","either","7","","","","","","","76","L","3","","0","0","1","","0.2","true","0","","0.8","full_practice","0.5","","0.5","0.2","","0.5","","0.5","0.6","0.2","","","","","",""
"121","","bandit","69","292246","0.0-33.0-16.0","06238679","wem/bandit_either","A1GV0UZU0T2ORS","either","7","","","","","","","76","L","3","","0","0","1","0.2","","true","0","0.8","","full_practice","0.5","0.2","0.5","","0.6","0.5","0.2","0.5","","","","","","","",""
"32","","bandit","70","293792","0.0-33.0-17.0","06238679","wem/bandit_either","A1GV0UZU0T2ORS","either","7","","","","","","","75","K","2","","1","0","0","0.6","","true","0","0.8","","full_practice","0.5","0.2","0.5","","0.6","0.5","0.2","0.5","","","","","","","",""
"150","","bandit","71","295450","0.0-33.0-18.0","06238679","wem/bandit_either","A1GV0UZU0T2ORS","either","7","","","","","","","75","K","2","","0","0","1","0.6","","true","0","0.8","","full_practice","0.5","0.2","0.5","","0.6","0.5","0.2","0.5","","","","","","","",""
"92","","bandit","72","297052","0.0-33.0-19.0","06238679","wem/bandit_either","A1GV0UZU0T2ORS","either","7","","","","","","","75","K","2","","1","0","0","0.6","","true","0","0.8","","full_practice","0.5","0.2","0.5","","0.6","0.5","0.2","0.5","","","","","","","",""
"2313","","text","73","299370","0.0-34.0","06238679","wem/bandit_either","A1GV0UZU0T2ORS","either","7","32","","","","","","","","","","","","","","","","","","","","","","","","","","","","","","","","","","",""
"10521","","text","74","310896","0.0-35.0","06238679","wem/bandit_either","A1GV0UZU0T2ORS","either","7","32","","","","","","","","","","","","","","","","","","","","","","","","","","","","","","","","","","",""
"8153","","text","75","319052","0.0-36.0","06238679","wem/bandit_either","A1GV0UZU0T2ORS","either","7","32","","","","","","","","","","","","","","","","","","","","","","","","","","","","","","","","","","",""
"3979","","text","76","323032","0.0-37.0","06238679","wem/bandit_either","A1GV0UZU0T2ORS","either","7","32","","","","","","","","","","","","","","","","","","","","","","","","","","","","","","","","","","",""
"3062","","text","77","326096","0.0-38.0","06238679","wem/bandit_either","A1GV0UZU0T2ORS","either","7","32","","","","","","","","","","","","","","","","","","","","","","","","","","","","","","","","","","",""
"2830","","text","78","328928","0.0-39.0","06238679","wem/bandit_either","A1GV0UZU0T2ORS","either","7","32","","","","","","","","","","","","","","","","","","","","","","","","","","","","","","","","","","",""
"1181","","bandit","79","331623","0.0-40.0-0.0","06238679","wem/bandit_either","A1GV0UZU0T2ORS","either","7","","","","","","","72","H","0","img/none_selected.jpg","0","0","1","","0.1952616071","","1","","0.1952616071","main_expt","0.4","","0.8","0.01738065524","","0.2","","0.6","0.1480066451","0.06530018083","","","","","",""
"503","","bandit","80","333636","0.0-41.0-0.0","06238679","wem/bandit_either","A1GV0UZU0T2ORS","either","7","","","","","","","75","K","2","","0","0","1","","0.1053714073","","2","","0.1652234336","main_expt","0.4","","0.8","0.0196943787","","0.2","","0.6","0.1053714073","0.1011701763","","","","","",""
"410","","bandit","81","335559","0.0-42.0-0.0","06238679","wem/bandit_either","A1GV0UZU0T2ORS","either","7","","","","","","","74","J","1","","0","0","1","0.01678573497","","","3","0.1347382479","","main_expt","0.4","0.01678573497","0.8","","0.1460078221","0.2","0.09486719381","0.6","","","","","","","",""
"95","","bandit","82","337163","0.0-43.0-0.0","06238679","wem/bandit_either","A1GV0UZU0T2ORS","either","7","","","","","","","76","L","3","","0","0","1","0.06705802814","","","4","0.1684625442","","main_expt","0.4","0.02981965743","0.8","","0.1866138214","0.2","0.06705802814","0.6","","","","","","","",""
"202","","bandit","83","338878","0.0-44.0-0.0","06238679","wem/bandit_either","A1GV0UZU0T2ORS","either","7","","","","","","","72","H","0","img/none_selected.jpg","0","0","1","0.1792029032","","","5","0.1792029032","","main_expt","0.4","0.02600208211","0.8","","0.2445348717","0.2","0.0822298525","0.6","","","","","","","",""
"200","","bandit","84","340586","0.0-45.0-0.0","06238679","wem/bandit_either","A1GV0UZU0T2ORS","either","7","","","","","","","75","K","2","","0","0","1","","0.2546962146","","6","","0.2153873139","main_expt","0.4","","0.8","0.02332436933","","0.2","","0.6","0.2546962146","0.09162209411","","","","","",""
"243","","bandit","85","342339","0.0-46.0-0.0","06238679","wem/bandit_either","A1GV0UZU0T2ORS","either","7","","","","","","","76","L","3","","0","0","1","","0.1028820098","","7","","0.1757762721","main_expt","0.4","","0.8","0.02864040813","","0.2","","0.6","0.2344841702","0.1028820098","","","","","",""
"203","","bandit","86","344051","0.0-47.0-0.0","06238679","wem/bandit_either","A1GV0UZU0T2ORS","either","7","","","","","","","74","J","1","","0","0","1","0.02951264166","","","8","0.2241229746","","main_expt","0.4","0.02951264166","0.8","","0.2473344203","0.2","0.1532270122","0.6","","","","","","","",""
"314","","bandit","87","345880","0.0-48.0-0.0","06238679","wem/bandit_either","A1GV0UZU0T2ORS","either","7","","","","","","","75","K","2","","0","0","1","","0.2642160399","","9","","0.2199426203","main_expt","0.4","","0.8","0.02997011939","","0.2","","0.6","0.2642160399","0.2131450397","","","","","",""
"173","","bandit","88","347564","0.0-49.0-0.0","06238679","wem/bandit_either","A1GV0UZU0T2ORS","either","7","","","","","","","72","H","0","img/none_selected.jpg","0","0","1","0.1520686932","","","10","0.1520686932","","main_expt","0.4","0.02489651457","0.8","","0.2104627424","0.2","0.2985754635","0.6","","","","","","","",""
"210","","bandit","89","349282","0.0-50.0-0.0","06238679","wem/bandit_either","A1GV0UZU0T2ORS","either","7","","","","","","","76","L","3","","0","0","1","0.2924640086","","","11","0.2013349999","","main_expt","0.4","0.01651058827","0.8","","0.219372878","0.2","0.2924640086","0.6","","","","","","","",""
"236","","bandit","90","351029","0.0-51.0-0.0","06238679","wem/bandit_either","A1GV0UZU0T2ORS","either","7","","","","","","","74","J","1","","0","0","1","0.02341729431","","","12","0.2156800105","","main_expt","0.4","0.02341729431","0.8","","0.2105839871","0.2","0.3264291113","0.6","","","","","","","",""
"176","","bandit","91","352718","0.0-52.0-0.0","06238679","wem/bandit_either","A1GV0UZU0T2ORS","either","7","","","","","","","74","J","1","","0","0","1","0.0257410372","","","13","0.1833947696","","main_expt","0.4","0.0257410372","0.8","","0.2511698571","0.2","0.3254913314","0.6","","","","","","","",""
"231","","bandit","92","354460","0.0-53.0-0.0","06238679","wem/bandit_either","A1GV0UZU0T2ORS","either","7","","","","","","","72","H","0","img/none_selected.jpg","0","1","0","","0.243643366","","14","","0.243643366","main_expt","0.4","","0.8","0.02570014082","","0.2","","0.6","0.2158977649","0.3428504842","","","","","",""
"322","","bandit","93","356295","0.0-54.0-0.0","06238679","wem/bandit_either","A1GV0UZU0T2ORS","either","7","","","","","","","72","H","0","img/none_selected.jpg","0","0","1","","0.2265365198","","15","","0.2265365198","main_expt","0.4","","0.8","0.04268316416","","0.2","","0.6","0.2762480727","0.3244047679","","","","","",""
"374","","bandit","94","358181","0.0-55.0-0.0","06238679","wem/bandit_either","A1GV0UZU0T2ORS","either","7","","","","","","","72","H","0","img/none_selected.jpg","0","0","1","0.2484951132","","","16","0.2484951132","","main_expt","0.4","0.04667408308","0.8","","0.3202890724","0.2","0.3025313629","0.6","","","","","","","",""
"249","","bandit","95","359941","0.0-56.0-0.0","06238679","wem/bandit_either","A1GV0UZU0T2ORS","either","7","","","","","","","74","J","1","","0","0","1","","0.0506688767","","17","","0.2570267238","main_expt","0.4","","0.8","0.0506688767","","0.2","","0.6","0.3680552247","0.3291216938","","","","","",""
"490","","bandit","96","361943","0.0-57.0-0.0","06238679","wem/bandit_either","A1GV0UZU0T2ORS","either","7","","","","","","","75","K","2","","0","1","0","","0.3968593921","","18","","0.287418789","main_expt","0.4","","0.8","0.02988526167","","0.2","","0.6","0.3968593921","0.2987881532","","","","","",""
"422","","bandit","97","363876","0.0-58.0-0.0","06238679","wem/bandit_either","A1GV0UZU0T2ORS","either","7","","","","","","","75","K","2","","0","0","1","","0.4192996399","","19","","0.2338710899","main_expt","0.4","","0.8","0.03476350355","","0.2","","0.6","0.4192996399","0.281207523","","","","","",""
"363","","bandit","98","365748","0.0-59.0-0.0","06238679","wem/bandit_either","A1GV0UZU0T2ORS","either","7","","","","","","","76","L","3","","1","0","0","0.291129981","","","20","0.2335293464","","main_expt","0.4","0.0233687216","0.8","","0.4362768361","0.2","0.291129981","0.6","","","","","","","",""
"444","","bandit","99","367702","0.0-60.0-0.0","06238679","wem/bandit_either","A1GV0UZU0T2ORS","either","7","","","","","","","76","L","3","","1","0","0","0.2729578326","","","21","0.2434826965","","main_expt","0.4","0.01272547494","0.8","","0.4599691003","0.2","0.2729578326","0.6","","","","","","","",""
"688","","bandit","100","369903","0.0-61.0-0.0","06238679","wem/bandit_either","A1GV0UZU0T2ORS","either","7","","","","","","","76","L","3","","0","0","1","0.2805141014","","","22","0.2702300591","","main_expt","0.4","0.01739491555","0.8","","0.44353765","0.2","0.2805141014","0.6","","","","","","","",""
"311","","bandit","101","371725","0.0-62.0-0.0","06238679","wem/bandit_either","A1GV0UZU0T2ORS","either","7","","","","","","","76","L","3","","1","0","0","0.3016389313","","","23","0.2424740502","","main_expt","0.4","0.006692102231","0.8","","0.4105594395","0.2","0.3016389313","0.6","","","","","","","",""
"322","","bandit","102","373559","0.0-63.0-0.0","06238679","wem/bandit_either","A1GV0UZU0T2ORS","either","7","","","","","","","76","L","3","","0","0","1","0.2475621169","","","24","0.1754503809","","main_expt","0.4","0.01209419849","0.8","","0.4243351486","0.2","0.2475621169","0.6","","","","","","","",""
"495","","bandit","103","375567","0.0-64.0-0.0","06238679","wem/bandit_either","A1GV0UZU0T2ORS","either","7","","","","","","","75","K","2","","0","0","1","","0.4172780312","","25","","0.2023019753","main_expt","0.4","","0.8","0.009734580702","","0.2","","0.6","0.4172780312","0.2607476102","","","","","",""
"127","","bandit","104","377204","0.0-65.0-0.0","06238679","wem/bandit_either","A1GV0UZU0T2ORS","either","7","","","","","","","74","J","1","","0","0","1","","0.008596148908","","26","","0.1887270612","main_expt","0.4","","0.8","0.008596148908","","0.2","","0.6","0.3981062588","0.292589008","","","","","",""
"660","","bandit","105","379377","0.0-66.0-0.0","06238679","wem/bandit_either","A1GV0UZU0T2ORS","either","7","","","","","","","72","H","0","img/none_selected.jpg","0","0","1","","0.2526986378","","27","","0.2526986378","main_expt","0.4","","0.8","0.01380650739","","0.2","","0.6","0.3889188119","0.2978950393","","","","","",""
"318","","bandit","106","381205","0.0-67.0-0.0","06238679","wem/bandit_either","A1GV0UZU0T2ORS","either","7","","","","","","","72","H","0","img/none_selected.jpg","0","0","1","0.2536033627","","","28","0.2536033627","","main_expt","0.4","0.01160852189","0.8","","0.3699095679","0.2","0.337392419","0.6","","","","","","","",""
"562","","bandit","107","383278","0.0-68.0-0.0","06238679","wem/bandit_either","A1GV0UZU0T2ORS","either","7","","","","","","","76","L","3","","0","0","1","0.3830759015","","","29","0.258258936","","main_expt","0.4","0.02858314752","0.8","","0.4087832773","0.2","0.3830759015","0.6","","","","","","","",""
"257","","bandit","108","385048","0.0-69.0-0.0","06238679","wem/bandit_either","A1GV0UZU0T2ORS","either","7","","","","","","","74","J","1","","0","0","1","0.0265596094","","","30","0.3152574144","","main_expt","0.4","0.0265596094","0.8","","0.4162513677","0.2","0.3778881599","0.6","","","","","","","",""
"320","","bandit","109","386880","0.0-70.0-0.0","06238679","wem/bandit_either","A1GV0UZU0T2ORS","either","7","","","","","","","75","K","2","","0","0","1","","0.43337534","","31","","0.3508579725","main_expt","0.4","","0.8","0.02828816112","","0.2","","0.6","0.43337534","0.3585458117","","","","","",""
"343","","bandit","110","388732","0.0-71.0-0.0","06238679","wem/bandit_either","A1GV0UZU0T2ORS","either","7","","","","","","","72","H","0","img/none_selected.jpg","0","0","1","0.3902021543","","","32","0.3902021543","","main_expt","0.4","0.03857304495","0.8","","0.4399105216","0.2","0.3511664436","0.6","","","","","","","",""
"299","","bandit","111","390540","0.0-72.0-0.0","06238679","wem/bandit_either","A1GV0UZU0T2ORS","either","7","","","","","","","76","L","3","","0","0","1","0.3924960189","","","33","0.4112626521","","main_expt","0.4","0.02642959278","0.8","","0.3859623535","0.2","0.3924960189","0.6","","","","","","","",""
"787","","bandit","112","392840","0.0-73.0-0.0","06238679","wem/bandit_either","A1GV0UZU0T2ORS","either","7","","","","","","","75","K","2","","0","0","1","","0.4231921331","","34","","0.3912589523","main_expt","0.4","","0.8","0.06800028167","","0.2","","0.6","0.4231921331","0.3713907517","","","","","",""
"566","","bandit","113","394917","0.0-74.0-0.0","06238679","wem/bandit_either","A1GV0UZU0T2ORS","either","7","","","","","","","74","J","1","","0","0","1","0.05710280771","","","35","0.3663646496","","main_expt","0.4","0.05710280771","0.8","","0.3950458867","0.2","0.3929004689","0.6","","","","","","","",""
"194","","bandit","114","396623","0.0-75.0-0.0","06238679","wem/bandit_either","A1GV0UZU0T2ORS","either","7","","","","","","","72","H","0","img/none_selected.jpg","0","0","1","","0.3045225128","","36","","0.3045225128","main_expt","0.4","","0.8","0.07756943076","","0.2","","0.6","0.4005306787","0.3820467604","","","","","",""
"519","","bandit","115","398656","0.0-76.0-0.0","06238679","wem/bandit_either","A1GV0UZU0T2ORS","either","7","","","","","","","74","J","1","","0","0","1","","0.06074629621","","37","","0.2806474599","main_expt","0.4","","0.8","0.06074629621","","0.2","","0.6","0.3972735937","0.3948022939","","","","","",""
"471","","bandit","116","400641","0.0-77.0-0.0","06238679","wem/bandit_either","A1GV0UZU0T2ORS","either","7","","","","","","","75","K","2","","0","1","0","","0.38339591","","38","","0.3558759705","main_expt","0.4","","0.8","0.07063042774","","0.2","","0.6","0.38339591","0.3769579019","","","","","",""
"494","","bandit","117","402649","0.0-78.0-0.0","06238679","wem/bandit_either","A1GV0UZU0T2ORS","either","7","","","","","","","75","K","2","","0","1","0","","0.3906354184","","39","","0.3194138052","main_expt","0.4","","0.8","0.06209293178","","0.2","","0.6","0.3906354184","0.4030344636","","","","","",""
"518","","bandit","118","404681","0.0-79.0-0.0","06238679","wem/bandit_either","A1GV0UZU0T2ORS","either","7","","","","","","","75","K","2","","0","0","1","0.3623676206","","","40","0.3549086085","","main_expt","0.4","0.06952578958","0.8","","0.3623676206","0.2","0.3622335218","0.6","","","","","","","",""
"422","","bandit","119","406615","0.0-80.0-0.0","06238679","wem/bandit_either","A1GV0UZU0T2ORS","either","7","","","","","","","75","K","2","","0","0","1","0.3873704927","","","41","0.3452113815","","main_expt","0.4","0.1291245709","0.8","","0.3873704927","0.2","0.3911596719","0.6","","","","","","","",""
"425","","bandit","120","408553","0.0-81.0-0.0","06238679","wem/bandit_either","A1GV0UZU0T2ORS","either","7","","","","","","","75","K","2","","0","0","1","","0.359823116","","42","","0.3522960267","main_expt","0.4","","0.8","0.1174523948","","0.2","","0.6","0.359823116","0.3921858285","","","","","",""
"190","","bandit","121","410254","0.0-82.0-0.0","06238679","wem/bandit_either","A1GV0UZU0T2ORS","either","7","","","","","","","76","L","3","","0","1","0","","0.3831213528","","43","","0.3093122096","main_expt","0.4","","0.8","0.1201484523","","0.2","","0.6","0.3710191411","0.3831213528","","","","","",""
"331","","bandit","122","412095","0.0-83.0-0.0","06238679","wem/bandit_either","A1GV0UZU0T2ORS","either","7","","","","","","","76","L","3","","0","0","1","","0.3518708159","","44","","0.3026159556","main_expt","0.4","","0.8","0.09958360536","","0.2","","0.6","0.3874065465","0.3518708159","","","","","",""
"194","","bandit","123","413801","0.0-84.0-0.0","06238679","wem/bandit_either","A1GV0UZU0T2ORS","either","7","","","","","","","76","L","3","","0","0","1","0.3122870636","","","45","0.3336294247","","main_expt","0.4","0.05173655998","0.8","","0.3851533971","0.2","0.3122870636","0.6","","","","","","","",""
"326","","bandit","124","415640","0.0-85.0-0.0","06238679","wem/bandit_either","A1GV0UZU0T2ORS","either","7","","","","","","","72","H","0","img/none_selected.jpg","0","1","0","","0.3400222736","","46","","0.3400222736","main_expt","0.4","","0.8","0.05945041096","","0.2","","0.6","0.4055883719","0.2635721956","","","","","",""
"296","","bandit","125","417447","0.0-86.0-0.0","06238679","wem/bandit_either","A1GV0UZU0T2ORS","either","7","","","","","","","72","H","0","img/none_selected.jpg","0","0","1","0.328707825","","","47","0.328707825","","main_expt","0.4","0.04375763727","0.8","","0.3671593179","0.2","0.2856785865","0.6","","","","","","","",""
"239","","bandit","126","419200","0.0-87.0-0.0","06238679","wem/bandit_either","A1GV0UZU0T2ORS","either","7","","","","","","","72","H","0","img/none_selected.jpg","0","0","1","","0.3307690822","","48","","0.3307690822","main_expt","0.4","","0.8","0.0666370861","","0.2","","0.6","0.3198203038","0.2649087478","","","","","",""
"239","","bandit","127","420953","0.0-88.0-0.0","06238679","wem/bandit_either","A1GV0UZU0T2ORS","either","7","","","","","","","76","L","3","","0","0","1","","0.2462979357","","49","","0.3438067684","main_expt","0.4","","0.8","0.08266213623","","0.2","","0.6","0.3111357295","0.2462979357","","","","","",""
"207","","bandit","128","422672","0.0-89.0-0.0","06238679","wem/bandit_either","A1GV0UZU0T2ORS","either","7","","","","","","","74","J","1","","1","0","0","0.08795051988","","","50","0.4037002216","","main_expt","0.4","0.08795051988","0.8","","0.3196682981","0.2","0.2490076798","0.6","","","","","","","",""
"288","","bandit","129","424471","0.0-90.0-0.0","06238679","wem/bandit_either","A1GV0UZU0T2ORS","either","7","","","","","","","74","J","1","","0","0","1","0.07533366945","","","51","0.3557518394","","main_expt","0.4","0.07533366945","0.8","","0.3088596379","0.2","0.305209751","0.6","","","","","","","",""
"360","","bandit","130","426345","0.0-91.0-0.0","06238679","wem/bandit_either","A1GV0UZU0T2ORS","either","7","","","","","","","75","K","2","","0","0","1","","0.3060924957","","52","","0.3254324358","main_expt","0.4","","0.8","0.06506638851","","0.2","","0.6","0.3060924957","0.3087204988","","","","","",""
"239","","bandit","131","428093","0.0-92.0-0.0","06238679","wem/bandit_either","A1GV0UZU0T2ORS","either","7","","","","","","","74","J","1","","0","0","1","","0.06562792832","","53","","0.2952150256","main_expt","0.4","","0.8","0.06562792832","","0.2","","0.6","0.3229319808","0.2984188648","","","","","",""
"161","","bandit","132","429765","0.0-93.0-0.0","06238679","wem/bandit_either","A1GV0UZU0T2ORS","either","7","","","","","","","74","J","1","","0","0","1","","0.04630081711","","54","","0.300320608","main_expt","0.4","","0.8","0.04630081711","","0.2","","0.6","0.3280138586","0.3353917468","","","","","",""
"236","","bandit","133","431513","0.0-94.0-0.0","06238679","wem/bandit_either","A1GV0UZU0T2ORS","either","7","","","","","","","72","H","0","img/none_selected.jpg","0","0","1","0.2985084879","","","55","0.2985084879","","main_expt","0.4","0.03868373719","0.8","","0.2777260571","0.2","0.3259144651","0.6","","","","","","","",""
"320","","bandit","134","433347","0.0-95.0-0.0","06238679","wem/bandit_either","A1GV0UZU0T2ORS","either","7","","","","","","","72","H","0","img/none_selected.jpg","0","0","1","0.2607009345","","","56","0.2607009345","","main_expt","0.4","0.06235362297","0.8","","0.1791004868","0.2","0.3259049121","0.6","","","","","","","",""
"518","","bandit","135","435374","0.0-96.0-0.0","06238679","wem/bandit_either","A1GV0UZU0T2ORS","either","7","","","","","","","76","L","3","","0","0","1","","0.3687904078","","57","","0.2565854794","main_expt","0.4","","0.8","0.04639461243","","0.2","","0.6","0.2182265394","0.3687904078","","","","","",""
"1034","","bandit","136","437922","0.0-97.0-0.0","06238679","wem/bandit_either","A1GV0UZU0T2ORS","either","7","","","","","","","75","K","2","","0","1","0","","0.2970860181","","58","","0.319121847","main_expt","0.4","","0.8","0.08954448139","","0.2","","0.6","0.2970860181","0.3422038875","","","","","",""
"262","","bandit","137","439698","0.0-98.0-0.0","06238679","wem/bandit_either","A1GV0UZU0T2ORS","either","7","","","","","","","75","K","2","","0","0","1","0.3249685468","","","59","0.3269923399","","main_expt","0.4","0.07390342289","0.8","","0.3249685468","0.2","0.3771421139","0.6","","","","","","","",""
"182","","bandit","138","441393","0.0-99.0-0.0","06238679","wem/bandit_either","A1GV0UZU0T2ORS","either","7","","","","","","","76","L","3","","0","0","1","0.3620124399","","","60","0.3150968823","","main_expt","0.4","0.05801548519","0.8","","0.2931470039","0.2","0.3620124399","0.6","","","","","","","",""
"481","","bandit","139","443382","0.0-100.0-0.0","06238679","wem/bandit_either","A1GV0UZU0T2ORS","either","7","","","","","","","74","J","1","","0","0","1","0.07333263924","","","61","0.324539239","","main_expt","0.4","0.07333263924","0.8","","0.2646536279","0.2","0.3958116198","0.6","","","","","","","",""
"553","","bandit","140","445446","0.0-101.0-0.0","06238679","wem/bandit_either","A1GV0UZU0T2ORS","either","7","","","","","","","72","H","0","img/none_selected.jpg","0","0","1","","0.3066306166","","62","","0.3066306166","main_expt","0.4","","0.8","0.07563430262","","0.2","","0.6","0.242461968","0.3615218546","","","","","",""
"211","","bandit","141","447170","0.0-102.0-0.0","06238679","wem/bandit_either","A1GV0UZU0T2ORS","either","7","","","","","","","75","K","2","","0","0","1","0.2206683029","","","63","0.3068900116","","main_expt","0.4","0.06826526778","0.8","","0.2206683029","0.2","0.3574266064","0.6","","","","","","","",""
"382","","bandit","142","449062","0.0-103.0-0.0","06238679","wem/bandit_either","A1GV0UZU0T2ORS","either","7","","","","","","","76","L","3","","0","0","1","","0.3541915859","","64","","0.2936494982","main_expt","0.4","","0.8","0.1175271989","","0.2","","0.6","0.2288959862","0.3541915859","","","","","",""
"59","","bandit","143","450632","0.0-104.0-0.0","06238679","wem/bandit_either","A1GV0UZU0T2ORS","either","7","","","","","","","74","J","1","","0","0","1","0.1273865191","","","65","0.290236101","","main_expt","0.4","0.1273865191","0.8","","0.2346523549","0.2","0.3339820985","0.6","","","","","","","",""
"344","","bandit","144","452487","0.0-105.0-0.0","06238679","wem/bandit_either","A1GV0UZU0T2ORS","either","7","","","","","","","75","K","2","","0","0","1","","0.1881688105","","66","","0.2512036594","main_expt","0.4","","0.8","0.09075088943","","0.2","","0.6","0.1881688105","0.3195467083","","","","","",""
"171","","bandit","145","454171","0.0-106.0-0.0","06238679","wem/bandit_either","A1GV0UZU0T2ORS","either","7","","","","","","","72","H","0","img/none_selected.jpg","1","0","0","0.263747572","","","67","0.263747572","","main_expt","0.4","0.08077075725","0.8","","0.231043846","0.2","0.3477383846","0.6","","","","","","","",""
"142","","bandit","146","455825","0.0-107.0-0.0","06238679","wem/bandit_either","A1GV0UZU0T2ORS","either","7","","","","","","","72","H","0","img/none_selected.jpg","0","0","1","0.2892519303","","","68","0.2892519303","","main_expt","0.4","0.08810311296","0.8","","0.2576664243","0.2","0.3365352069","0.6","","","","","","","",""
"312","","bandit","147","457648","0.0-108.0-0.0","06238679","wem/bandit_either","A1GV0UZU0T2ORS","either","7","","","","","","","72","H","0","img/none_selected.jpg","0","1","0","","0.2383664846","","69","","0.2383664846","main_expt","0.4","","0.8","0.1260156682","","0.2","","0.6","0.2183283259","0.3148812039","","","","","",""
"314","","bandit","148","459471","0.0-109.0-0.0","06238679","wem/bandit_either","A1GV0UZU0T2ORS","either","7","","","","","","","72","H","0","img/none_selected.jpg","0","0","1","0.2497111545","","","70","0.2497111545","","main_expt","0.4","0.08773951932","0.8","","0.2260484764","0.2","0.3154014692","0.6","","","","","","","",""
"291","","bandit","149","461270","0.0-110.0-0.0","06238679","wem/bandit_either","A1GV0UZU0T2ORS","either","7","","","","","","","72","H","0","img/none_selected.jpg","1","0","0","0.2095843002","","","71","0.2095843002","","main_expt","0.4","0.1154304285","0.8","","0.3196469567","0.2","0.219815459","0.6","","","","","","","",""
"386","","bandit","150","463169","0.0-111.0-0.0","06238679","wem/bandit_either","A1GV0UZU0T2ORS","either","7","","","","","","","72","H","0","img/none_selected.jpg","0","0","1","0.1972488467","","","72","0.1972488467","","main_expt","0.4","0.10097247","0.8","","0.3644141189","0.2","0.2623730272","0.6","","","","","","","",""
"226","","bandit","151","464904","0.0-112.0-0.0","06238679","wem/bandit_either","A1GV0UZU0T2ORS","either","7","","","","","","","72","H","0","img/none_selected.jpg","0","0","1","","0.15494396","","73","","0.15494396","main_expt","0.4","","0.8","0.0746930591","","0.2","","0.6","0.4081842109","0.2639805735","","","","","",""
"194","","bandit","152","466609","0.0-113.0-0.0","06238679","wem/bandit_either","A1GV0UZU0T2ORS","either","7","","","","","","","72","H","0","img/none_selected.jpg","0","0","1","","0.1324790415","","74","","0.1324790415","main_expt","0.4","","0.8","0.1124392477","","0.2","","0.6","0.4506698749","0.2770925356","","","","","",""
"160","","bandit","153","468282","0.0-114.0-0.0","06238679","wem/bandit_either","A1GV0UZU0T2ORS","either","7","","","","","","","74","J","1","","0","0","1","0.113494578","","","75","0.179195356","","main_expt","0.4","0.113494578","0.8","","0.454520075","0.2","0.2796652475","0.6","","","","","","","",""
"94","","bandit","154","469886","0.0-115.0-0.0","06238679","wem/bandit_either","A1GV0UZU0T2ORS","either","7","","","","","","","76","L","3","","1","0","0","0.3153427244","","","76","0.215808919","","main_expt","0.4","0.1469344428","0.8","","0.466199952","0.2","0.3153427244","0.6","","","","","","","",""
"154","","bandit","155","471551","0.0-116.0-0.0","06238679","wem/bandit_either","A1GV0UZU0T2ORS","either","7","","","","","","","76","L","3","","0","0","1","0.3676911864","","","77","0.2312347408","","main_expt","0.4","0.2152215887","0.8","","0.4402141775","0.2","0.3676911864","0.6","","","","","","","",""
"363","","bandit","156","473425","0.0-117.0-0.0","06238679","wem/bandit_either","A1GV0UZU0T2ORS","either","7","","","","","","","76","L","3","","1","0","0","0.3434277392","","","78","0.2197025874","","main_expt","0.4","0.2055177618","0.8","","0.4525957793","0.2","0.3434277392","0.6","","","","","","","",""
"185","","bandit","157","475122","0.0-118.0-0.0","06238679","wem/bandit_either","A1GV0UZU0T2ORS","either","7","","","","","","","76","L","3","","0","0","1","0.3758616161","","","79","0.2227420924","","main_expt","0.4","0.222262525","0.8","","0.4630799716","0.2","0.3758616161","0.6","","","","","","","",""
"264","","bandit","158","476897","0.0-119.0-0.0","06238679","wem/bandit_either","A1GV0UZU0T2ORS","either","7","","","","","","","76","L","3","","0","1","0","","0.3862393514","","80","","0.2283057493","main_expt","0.4","","0.8","0.2700860438","","0.2","","0.6","0.423693353","0.3862393514","","","","","",""
"240","","bandit","159","478651","0.0-120.0-0.0","06238679","wem/bandit_either","A1GV0UZU0T2ORS","either","7","","","","","","","76","L","3","","1","0","0","0.3593770893","","","81","0.2721525977","","main_expt","0.4","0.2642688004","0.8","","0.4319112677","0.2","0.3593770893","0.6","","","","","","","",""
"47","","bandit","160","480208","0.0-121.0-0.0","06238679","wem/bandit_either","A1GV0UZU0T2ORS","either","7","","","","","","","76","L","3","","0","0","1","","0.4035110645","","82","","0.2850237184","main_expt","0.4","","0.8","0.2824164754","","0.2","","0.6","0.441827487","0.4035110645","","","","","",""
"90","","bandit","161","481811","0.0-122.0-0.0","06238679","wem/bandit_either","A1GV0UZU0T2ORS","either","7","","","","","","","76","L","3","","0","0","1","","0.3719627038","","83","","0.3236436683","main_expt","0.4","","0.8","0.2819095575","","0.2","","0.6","0.4288861504","0.3719627038","","","","","",""
"143","","bandit","162","483464","0.0-123.0-0.0","06238679","wem/bandit_either","A1GV0UZU0T2ORS","either","7","","","","","","","75","K","2","","0","1","0","","0.4350385517","","84","","0.3339638593","main_expt","0.4","","0.8","0.2589745902","","0.2","","0.6","0.4350385517","0.3349288927","","","","","",""
"226","","bandit","163","485202","0.0-124.0-0.0","06238679","wem/bandit_either","A1GV0UZU0T2ORS","either","7","","","","","","","75","K","2","","0","1","0","","0.4255505645","","85","","0.3795022601","main_expt","0.4","","0.8","0.3626504113","","0.2","","0.6","0.4255505645","0.3247899262","","","","","",""
"151","","bandit","164","486866","0.0-125.0-0.0","06238679","wem/bandit_either","A1GV0UZU0T2ORS","either","7","","","","","","","75","K","2","","0","0","1","","0.4330938692","","86","","0.3835523064","main_expt","0.4","","0.8","0.3598915268","","0.2","","0.6","0.4330938692","0.3443557019","","","","","",""
"320","","bandit","165","488697","0.0-126.0-0.0","06238679","wem/bandit_either","A1GV0UZU0T2ORS","either","7","","","","","","","75","K","2","","0","0","1","0.4548398529","","","87","0.3772514457","","main_expt","0.4","0.3433052933","0.8","","0.4548398529","0.2","0.3648776167","0.6","","","","","","","",""
"138","","bandit","166","490348","0.0-127.0-0.0","06238679","wem/bandit_either","A1GV0UZU0T2ORS","either","7","","","","","","","75","K","2","","0","1","0","","0.4493124031","","88","","0.3766830519","main_expt","0.4","","0.8","0.4022938878","","0.2","","0.6","0.4493124031","0.3609631839","","","","","",""
"117","","bandit","167","491980","0.0-128.0-0.0","06238679","wem/bandit_either","A1GV0UZU0T2ORS","either","7","","","","","","","75","K","2","","0","1","0","","0.4161110063","","89","","0.3537755119","main_expt","0.4","","0.8","0.4141493151","","0.2","","0.6","0.4161110063","0.3636167192","","","","","",""
"110","","bandit","168","493604","0.0-129.0-0.0","06238679","wem/bandit_either","A1GV0UZU0T2ORS","either","7","","","","","","","75","K","2","","0","0","1","0.405260856","","","90","0.3014761449","","main_expt","0.4","0.4136124289","0.8","","0.405260856","0.2","0.3563441379","0.6","","","","","","","",""
"269","","bandit","169","495387","0.0-130.0-0.0","06238679","wem/bandit_either","A1GV0UZU0T2ORS","either","7","","","","","","","75","K","2","","0","1","0","","0.3827048226","","91","","0.2694038268","main_expt","0.4","","0.8","0.4184852842","","0.2","","0.6","0.3827048226","0.3389138503","","","","","",""
"294","","bandit","170","497193","0.0-131.0-0.0","06238679","wem/bandit_either","A1GV0UZU0T2ORS","either","7","","","","","","","75","K","2","","0","0","1","","0.3552182969","","92","","0.2651536323","main_expt","0.4","","0.8","0.4456808576","","0.2","","0.6","0.3552182969","0.3263360165","","","","","",""
"257","","bandit","171","498964","0.0-132.0-0.0","06238679","wem/bandit_either","A1GV0UZU0T2ORS","either","7","","","","","","","75","K","2","","0","0","1","","0.3286897504","","93","","0.1997208586","main_expt","0.4","","0.8","0.4355219805","","0.2","","0.6","0.3286897504","0.2844131911","","","","","",""
"246","","bandit","172","500723","0.0-133.0-0.0","06238679","wem/bandit_either","A1GV0UZU0T2ORS","either","7","","","","","","","75","K","2","","0","0","1","0.3422490236","","","94","0.2442555344","","main_expt","0.4","0.4609821192","0.8","","0.3422490236","0.2","0.2978465223","0.6","","","","","","","",""
"228","","bandit","173","502468","0.0-134.0-0.0","06238679","wem/bandit_either","A1GV0UZU0T2ORS","either","7","","","","","","","74","J","1","","0","1","0","","0.4419374505","","95","","0.2638839348","main_expt","0.4","","0.8","0.4419374505","","0.2","","0.6","0.3160161054","0.2638723705","","","","","",""
"358","","bandit","174","504336","0.0-135.0-0.0","06238679","wem/bandit_either","A1GV0UZU0T2ORS","either","7","","","","","","","74","J","1","","1","0","0","0.39438674","","","96","0.2265245807","","main_expt","0.4","0.39438674","0.8","","0.2945538732","0.2","0.2276010735","0.6","","","","","","","",""
"265","","bandit","175","506115","0.0-136.0-0.0","06238679","wem/bandit_either","A1GV0UZU0T2ORS","either","7","","","","","","","74","J","1","","1","0","0","0.3617668419","","","97","0.1969189177","","main_expt","0.4","0.3617668419","0.8","","0.393563827","0.2","0.2045446072","0.6","","","","","","","",""
"103","","bandit","176","507730","0.0-137.0-0.0","06238679","wem/bandit_either","A1GV0UZU0T2ORS","either","7","","","","","","","74","J","1","","0","0","1","0.3737913853","","","98","0.1761144245","","main_expt","0.4","0.3737913853","0.8","","0.4046254927","0.2","0.2436418828","0.6","","","","","","","",""
"288","","bandit","177","509529","0.0-138.0-0.0","06238679","wem/bandit_either","A1GV0UZU0T2ORS","either","7","","","","","","","74","J","1","","0","0","1","0.4221129479","","","99","0.1211630765","","main_expt","0.4","0.4221129479","0.8","","0.3659012549","0.2","0.2473144087","0.6","","","","","","","",""
"322","","bandit","178","511364","0.0-139.0-0.0","06238679","wem/bandit_either","A1GV0UZU0T2ORS","either","7","","","","","","","74","J","1","","1","0","0","0.3857893684","","","100","0.1257326749","","main_expt","0.4","0.3857893684","0.8","","0.400368336","0.2","0.2707360286","0.6","","","","","","","",""
"487","","bandit","179","513360","0.0-140.0-0.0","06238679","wem/bandit_either","A1GV0UZU0T2ORS","either","7","","","","","","","74","J","1","","0","1","0","","0.3635527264","","101","","0.09975532208","main_expt","0.4","","0.8","0.3635527264","","0.2","","0.6","0.4367931528","0.3250409822","","","","","",""
"281","","bandit","180","515154","0.0-141.0-0.0","06238679","wem/bandit_either","A1GV0UZU0T2ORS","either","7","","","","","","","74","J","1","","0","0","1","","0.3738375489","","102","","0.1127414424","main_expt","0.4","","0.8","0.3738375489","","0.2","","0.6","0.4371155326","0.3088580598","","","","","",""
"152","","bandit","181","516820","0.0-142.0-0.0","06238679","wem/bandit_either","A1GV0UZU0T2ORS","either","7","","","","","","","72","H","0","img/none_selected.jpg","0","0","1","0.1232600734","","","103","0.1232600734","","main_expt","0.4","0.3860163181","0.8","","0.388648264","0.2","0.2901001995","0.6","","","","","","","",""
"207","","bandit","182","518534","0.0-143.0-0.0","06238679","wem/bandit_either","A1GV0UZU0T2ORS","either","7","","","","","","","75","K","2","","0","0","1","","0.3718469433","","104","","0.08156843846","main_expt","0.4","","0.8","0.390692362","","0.2","","0.6","0.3718469433","0.309645936","","","","","",""
"85","","bandit","183","520129","0.0-144.0-0.0","06238679","wem/bandit_either","A1GV0UZU0T2ORS","either","7","","","","","","","74","J","1","","0","0","1","0.4139082553","","","105","0.08245659199","","main_expt","0.4","0.4139082553","0.8","","0.3920304628","0.2","0.3386062745","0.6","","","","","","","",""
"425","","bandit","184","522069","0.0-145.0-0.0","06238679","wem/bandit_either","A1GV0UZU0T2ORS","either","7","","","","","","","76","L","3","","1","0","0","0.3827539061","","","106","0.1276639339","","main_expt","0.4","0.3295275825","0.8","","0.3733497125","0.2","0.3827539061","0.6","","","","","","","",""
"239","","bandit","185","523821","0.0-146.0-0.0","06238679","wem/bandit_either","A1GV0UZU0T2ORS","either","7","","","","","","","76","L","3","","0","0","1","0.3401355396","","","107","0.1812689745","","main_expt","0.4","0.3499712774","0.8","","0.3878439861","0.2","0.3401355396","0.6","","","","","","","",""
"437","","bandit","186","525772","0.0-147.0-0.0","06238679","wem/bandit_either","A1GV0UZU0T2ORS","either","7","","","","","","","76","L","3","","0","0","1","0.3258039352","","","108","0.2187982558","","main_expt","0.4","0.2666891207","0.8","","0.3529013302","0.2","0.3258039352","0.6","","","","","","","",""
"664","","bandit","187","527950","0.0-148.0-0.0","06238679","wem/bandit_either","A1GV0UZU0T2ORS","either","7","","","","","","","76","L","3","","0","1","0","","0.374919859","","109","","0.2201216928","main_expt","0.4","","0.8","0.2575067634","","0.2","","0.6","0.3457683734","0.374919859","","","","","",""
"501","","bandit","188","529964","0.0-149.0-0.0","06238679","wem/bandit_either","A1GV0UZU0T2ORS","either","7","","","","","","","76","L","3","","0","1","0","","0.3656186065","","110","","0.1789817232","main_expt","0.4","","0.8","0.2664913793","","0.2","","0.6","0.3316873257","0.3656186065","","","","","",""
"263","","bandit","189","531739","0.0-150.0-0.0","06238679","wem/bandit_either","A1GV0UZU0T2ORS","either","7","","","","","","","76","L","3","","1","0","0","0.3649701027","","","111","0.2404947452","","main_expt","0.4","0.2233446911","0.8","","0.3434945318","0.2","0.3649701027","0.6","","","","","","","",""
"302","","bandit","190","533557","0.0-151.0-0.0","06238679","wem/bandit_either","A1GV0UZU0T2ORS","either","7","","","","","","","76","L","3","","1","0","0","0.3371716456","","","112","0.2959558532","","main_expt","0.4","0.2170082082","0.8","","0.2729480053","0.2","0.3371716456","0.6","","","","","","","",""
"286","","bandit","191","535357","0.0-152.0-0.0","06238679","wem/bandit_either","A1GV0UZU0T2ORS","either","7","","","","","","","76","L","3","","0","0","1","0.2587224119","","","113","0.2966985553","","main_expt","0.4","0.1912277411","0.8","","0.2579672073","0.2","0.2587224119","0.6","","","","","","","",""
"166","","bandit","192","537037","0.0-153.0-0.0","06238679","wem/bandit_either","A1GV0UZU0T2ORS","either","7","","","","","","","75","K","2","","0","0","1","0.24654084","","","114","0.3289730608","","main_expt","0.4","0.1691995451","0.8","","0.24654084","0.2","0.2384324947","0.6","","","","","","","",""
"207","","bandit","193","538753","0.0-154.0-0.0","06238679","wem/bandit_either","A1GV0UZU0T2ORS","either","7","","","","","","","74","J","1","","0","0","1","0.1263730162","","","115","0.2783705844","","main_expt","0.4","0.1263730162","0.8","","0.246649757","0.2","0.2705755989","0.6","","","","","","","",""
"281","","bandit","194","540546","0.0-155.0-0.0","06238679","wem/bandit_either","A1GV0UZU0T2ORS","either","7","","","","","","","72","H","0","img/none_selected.jpg","0","0","1","","0.2990421824","","116","","0.2990421824","main_expt","0.4","","0.8","0.1130092975","","0.2","","0.6","0.2190482835","0.2666822","","","","","",""
"168","","bandit","195","542230","0.0-156.0-0.0","06238679","wem/bandit_either","A1GV0UZU0T2ORS","either","7","","","","","","","76","L","3","","0","0","1","0.2664749026","","","117","0.3214730448","","main_expt","0.4","0.1317362661","0.8","","0.1860086181","0.2","0.2664749026","0.6","","","","","","","",""
"382","","bandit","196","544122","0.0-157.0-0.0","06238679","wem/bandit_either","A1GV0UZU0T2ORS","either","7","","","","","","","74","J","1","","1","0","0","0.08460291254","","","118","0.3996160597","","main_expt","0.4","0.08460291254","0.8","","0.1765749983","0.2","0.285497096","0.6","","","","","","","",""
"162","","bandit","197","545796","0.0-158.0-0.0","06238679","wem/bandit_either","A1GV0UZU0T2ORS","either","7","","","","","","","74","J","1","","0","0","1","0.09168363065","","","119","0.4143362638","","main_expt","0.4","0.09168363065","0.8","","0.1840588368","0.2","0.3004427434","0.6","","","","","","","",""
"415","","bandit","198","547723","0.0-159.0-0.0","06238679","wem/bandit_either","A1GV0UZU0T2ORS","either","7","","","","","","","74","J","1","","0","0","1","0.06729372802","","","120","0.372340151","","main_expt","0.4","0.06729372802","0.8","","0.1988357929","0.2","0.2419855731","0.6","","","","","","","",""
"969","","bandit","199","550207","0.0-160.0-0.0","06238679","wem/bandit_either","A1GV0UZU0T2ORS","either","7","","","","","","","75","K","2","","0","0","1","","0.2315674","","121","","0.3910424524","main_expt","0.4","","0.8","0.08346408207","","0.2","","0.6","0.2315674","0.3054132847","","","","","",""
"268","","bandit","200","551989","0.0-161.0-0.0","06238679","wem/bandit_either","A1GV0UZU0T2ORS","either","7","","","","","","","72","H","0","img/none_selected.jpg","0","1","0","","0.3813410711","","122","","0.3813410711","main_expt","0.4","","0.8","0.05632743158","","0.2","","0.6","0.2041322171","0.2473202095","","","","","",""
"78","","bandit","201","553579","0.0-162.0-0.0","06238679","wem/bandit_either","A1GV0UZU0T2ORS","either","7","","","","","","","72","H","0","img/none_selected.jpg","0","0","1","0.4247291795","","","123","0.4247291795","","main_expt","0.4","0.05516745574","0.8","","0.1945268209","0.2","0.2909195989","0.6","","","","","","","",""
"1337","","bandit","202","556427","0.0-163.0-0.0","06238679","wem/bandit_either","A1GV0UZU0T2ORS","either","7","","","","","","","72","H","0","img/none_selected.jpg","1","0","0","0.4311179713","","","124","0.4311179713","","main_expt","0.4","0.05528311039","0.8","","0.2206749142","0.2","0.3493750294","0.6","","","","","","","",""
"177","","bandit","203","558119","0.0-164.0-0.0","06238679","wem/bandit_either","A1GV0UZU0T2ORS","either","7","","","","","","","72","H","0","img/none_selected.jpg","0","0","1","0.4085782939","","","125","0.4085782939","","main_expt","0.4","0.07149807259","0.8","","0.212012295","0.2","0.3883668019","0.6","","","","","","","",""
"221","","bandit","204","559855","0.0-165.0-0.0","06238679","wem/bandit_either","A1GV0UZU0T2ORS","either","7","","","","","","","72","H","0","img/none_selected.jpg","0","0","1","","0.4110861309","","126","","0.4110861309","main_expt","0.4","","0.8","0.1137803622","","0.2","","0.6","0.1656684785","0.3888129637","","","","","",""
"150","","bandit","205","561515","0.0-166.0-0.0","06238679","wem/bandit_either","A1GV0UZU0T2ORS","either","7","","","","","","","72","H","0","img/none_selected.jpg","0","0","1","","0.4214671818","","127","","0.4214671818","main_expt","0.4","","0.8","0.1003054442","","0.2","","0.6","0.1685301808","0.3659195129","","","","","",""
"154","","bandit","206","563181","0.0-167.0-0.0","06238679","wem/bandit_either","A1GV0UZU0T2ORS","either","7","","","","","","","74","J","1","","0","0","1","0.1378169536","","","128","0.36889317","","main_expt","0.4","0.1378169536","0.8","","0.1703551811","0.2","0.3689954399","0.6","","","","","","","",""
"349","","bandit","207","565043","0.0-168.0-0.0","06238679","wem/bandit_either","A1GV0UZU0T2ORS","either","7","","","","","","","76","L","3","","0","0","1","","0.3600340942","","129","","0.3840267129","main_expt","0.4","","0.8","0.1333081235","","0.2","","0.6","0.1624753709","0.3600340942","","","","","",""
"289","","bandit","208","566843","0.0-169.0-0.0","06238679","wem/bandit_either","A1GV0UZU0T2ORS","either","7","","","","","","","75","K","2","","0","0","1","","0.2335662737","","130","","0.3809677701","main_expt","0.4","","0.8","0.1682212827","","0.2","","0.6","0.2335662737","0.3580797835","","","","","",""
"418","","bandit","209","568771","0.0-170.0-0.0","06238679","wem/bandit_either","A1GV0UZU0T2ORS","either","7","","","","","","","76","L","3","","0","0","1","","0.3785893338","","131","","0.3681933818","main_expt","0.4","","0.8","0.2193829955","","0.2","","0.6","0.240441026","0.3785893338","","","","","",""
"33","","bandit","210","570316","0.0-171.0-0.0","06238679","wem/bandit_either","A1GV0UZU0T2ORS","either","7","","","","","","","75","K","2","","0","0","1","","0.2266699971","","132","","0.3664045944","main_expt","0.4","","0.8","0.2693349046","","0.2","","0.6","0.2266699971","0.3764735404","","","","","",""
"760","","bandit","211","572589","0.0-172.0-0.0","06238679","wem/bandit_either","A1GV0UZU0T2ORS","either","7","","","","","","","76","L","3","","0","0","1","0.3433534211","","","133","0.4046437197","","main_expt","0.4","0.2576546077","0.8","","0.1994193025","0.2","0.3433534211","0.6","","","","","","","",""
"2415","","bandit","212","576516","0.0-173.0-0.0","06238679","wem/bandit_either","A1GV0UZU0T2ORS","either","7","","","","","","","75","K","2","","0","1","0","","0.1891464922","","134","","0.364490756","main_expt","0.4","","0.8","0.2412372273","","0.2","","0.6","0.1891464922","0.3606247271","","","","","",""
"288","","bandit","213","578315","0.0-174.0-0.0","06238679","wem/bandit_either","A1GV0UZU0T2ORS","either","7","","","","","","","75","K","2","","0","0","1","","0.1614798668","","135","","0.311914316","main_expt","0.4","","0.8","0.2198641054","","0.2","","0.6","0.1614798668","0.3268624306","","","","","",""
"530","","bandit","214","580359","0.0-175.0-0.0","06238679","wem/bandit_either","A1GV0UZU0T2ORS","either","7","","","","","","","74","J","1","","0","0","1","","0.2504132697","","136","","0.2653901568","main_expt","0.4","","0.8","0.2504132697","","0.2","","0.6","0.1880386222","0.2854606769","","","","","",""
"117","","bandit","215","581990","0.0-176.0-0.0","06238679","wem/bandit_either","A1GV0UZU0T2ORS","either","7","","","","","","","75","K","2","","0","0","1","","0.1961818793","","137","","0.2413295316","main_expt","0.4","","0.8","0.1912230989","","0.2","","0.6","0.1961818793","0.3311747399","","","","","",""
"313","","bandit","216","583813","0.0-177.0-0.0","06238679","wem/bandit_either","A1GV0UZU0T2ORS","either","7","","","","","","","72","H","0","img/none_selected.jpg","0","0","1","","0.2060295423","","138","","0.2060295423","main_expt","0.4","","0.8","0.1576256809","","0.2","","0.6","0.2857678963","0.2570785188","","","","","",""
"289","","bandit","217","585612","0.0-178.0-0.0","06238679","wem/bandit_either","A1GV0UZU0T2ORS","either","7","","","","","","","76","L","3","","0","0","1","0.2858060749","","","139","0.1809645164","","main_expt","0.4","0.1019788138","0.8","","0.3449131854","0.2","0.2858060749","0.6","","","","","","","",""
"529","","bandit","218","587656","0.0-179.0-0.0","06238679","wem/bandit_either","A1GV0UZU0T2ORS","either","7","","","","","","","72","H","0","img/none_selected.jpg","0","0","1","","0.1843216893","","140","","0.1843216893","main_expt","0.4","","0.8","0.07754087054","","0.2","","0.6","0.2537716732","0.2975559752","","","","","",""
"213","","bandit","219","589380","0.0-180.0-0.0","06238679","wem/bandit_either","A1GV0UZU0T2ORS","either","7","","","","","","","74","J","1","","0","0","1","0.09489610577","","","141","0.1651876155","","main_expt","0.4","0.09489610577","0.8","","0.2858111263","0.2","0.2802168405","0.6","","","","","","","",""
"280","","bandit","220","591174","0.0-181.0-0.0","06238679","wem/bandit_either","A1GV0UZU0T2ORS","either","7","","","","","","","75","K","2","","0","0","1","","0.303049367","","142","","0.1536427928","main_expt","0.4","","0.8","0.09601428546","","0.2","","0.6","0.303049367","0.2231986748","","","","","",""
"272","","bandit","221","592955","0.0-182.0-0.0","06238679","wem/bandit_either","A1GV0UZU0T2ORS","either","7","","","","","","","72","H","0","img/none_selected.jpg","0","0","1","0.1546140226","","","143","0.1546140226","","main_expt","0.4","0.08301142993","0.8","","0.2969419413","0.2","0.2032880393","0.6","","","","","","","",""
"209","","bandit","222","594680","0.0-183.0-0.0","06238679","wem/bandit_either","A1GV0UZU0T2ORS","either","7","","","","","","","76","L","3","","1","0","0","0.1967741464","","","144","0.1746031107","","main_expt","0.4","0.09599686985","0.8","","0.3128690494","0.2","0.1967741464","0.6","","","","","","","",""
"173","","bandit","223","596364","0.0-184.0-0.0","06238679","wem/bandit_either","A1GV0UZU0T2ORS","either","7","","","","","","","76","L","3","","0","0","1","0.2283154954","","","145","0.2021387556","","main_expt","0.4","0.07499383622","0.8","","0.2991796355","0.2","0.2283154954","0.6","","","","","","","",""
"177","","bandit","224","598053","0.0-185.0-0.0","06238679","wem/bandit_either","A1GV0UZU0T2ORS","either","7","","","","","","","76","L","3","","0","0","1","0.2118700154","","","146","0.2504344391","","main_expt","0.4","0.09566861","0.8","","0.3163763193","0.2","0.2118700154","0.6","","","","","","","",""
"409","","bandit","225","599975","0.0-186.0-0.0","06238679","wem/bandit_either","A1GV0UZU0T2ORS","either","7","","","","","","","76","L","3","","0","0","1","","0.210437557","","147","","0.2437718569","main_expt","0.4","","0.8","0.08578591382","","0.2","","0.6","0.3198025905","0.210437557","","","","","",""
"326","","bandit","226","601815","0.0-187.0-0.0","06238679","wem/bandit_either","A1GV0UZU0T2ORS","either","7","","","","","","","74","J","1","","0","1","0","","0.1147887709","","148","","0.2446677265","main_expt","0.4","","0.8","0.1147887709","","0.2","","0.6","0.2588245921","0.2370661354","","","","","",""
"295","","bandit","227","603621","0.0-188.0-0.0","06238679","wem/bandit_either","A1GV0UZU0T2ORS","either","7","","","","","","","74","J","1","","0","0","1","0.1378203382","","","149","0.2911002833","","main_expt","0.4","0.1378203382","0.8","","0.248712437","0.2","0.2430363771","0.6","","","","","","","",""
"353","","bandit","228","605489","0.0-189.0-0.0","06238679","wem/bandit_either","A1GV0UZU0T2ORS","either","7","","","","","","","74","J","1","","0","0","1","","0.1414499273","","150","","0.3529655025","main_expt","0.4","","0.8","0.1414499273","","0.2","","0.6","0.179144869","0.2242182381","","","","","",""
"443","","bandit","229","607445","0.0-190.0-0.0","06238679","wem/bandit_either","A1GV0UZU0T2ORS","either","7","","","","","","","75","K","2","","0","1","0","","0.1545669956","","151","","0.3885741111","main_expt","0.4","","0.8","0.07852348772","","0.2","","0.6","0.1545669956","0.1997145133","","","","","",""
"343","","bandit","230","609303","0.0-191.0-0.0","06238679","wem/bandit_either","A1GV0UZU0T2ORS","either","7","","","","","","","75","K","2","","0","0","1","","0.1651714415","","152","","0.3690499696","main_expt","0.4","","0.8","0.08485793113","","0.2","","0.6","0.1651714415","0.2195927633","","","","","",""
"334","","bandit","231","611149","0.0-192.0-0.0","06238679","wem/bandit_either","A1GV0UZU0T2ORS","either","7","","","","","","","74","J","1","","0","0","1","0.1083789561","","","153","0.3710492515","","main_expt","0.4","0.1083789561","0.8","","0.2396245514","0.2","0.2121816628","0.6","","","","","","","",""
"175","","bandit","232","612839","0.0-193.0-0.0","06238679","wem/bandit_either","A1GV0UZU0T2ORS","either","7","","","","","","","75","K","2","","0","0","1","0.2085838567","","","154","0.3483335413","","main_expt","0.4","0.109098481","0.8","","0.2085838567","0.2","0.1830588608","0.6","","","","","","","",""
"360","","bandit","233","614708","0.0-194.0-0.0","06238679","wem/bandit_either","A1GV0UZU0T2ORS","either","7","","","","","","","75","K","2","","0","0","1","","0.1864274254","","155","","0.3343760247","main_expt","0.4","","0.8","0.1758262092","","0.2","","0.6","0.1864274254","0.2031423662","","","","","",""
"250","","bandit","234","616475","0.0-195.0-0.0","06238679","wem/bandit_either","A1GV0UZU0T2ORS","either","7","","","","","","","72","H","0","img/none_selected.jpg","1","0","0","0.3742013553","","","156","0.3742013553","","main_expt","0.4","0.2046597001","0.8","","0.1750870897","0.2","0.2022731065","0.6","","","","","","","",""
"354","","bandit","235","618342","0.0-196.0-0.0","06238679","wem/bandit_either","A1GV0UZU0T2ORS","either","7","","","","","","","72","H","0","img/none_selected.jpg","0","0","1","","0.3620366094","","157","","0.3620366094","main_expt","0.4","","0.8","0.1774751899","","0.2","","0.6","0.1321985386","0.1826661219","","","","","",""
"344","","bandit","236","620199","0.0-197.0-0.0","06238679","wem/bandit_either","A1GV0UZU0T2ORS","either","7","","","","","","","72","H","0","img/none_selected.jpg","0","1","0","","0.3671714071","","158","","0.3671714071","main_expt","0.4","","0.8","0.1612033886","","0.2","","0.6","0.1341899746","0.1658993888","","","","","",""
"399","","bandit","237","622110","0.0-198.0-0.0","06238679","wem/bandit_either","A1GV0UZU0T2ORS","either","7","","","","","","","72","H","0","img/none_selected.jpg","0","0","1","","0.4015988616","","159","","0.4015988616","main_expt","0.4","","0.8","0.1586838935","","0.2","","0.6","0.1567784951","0.1620079643","","","","","",""
"200","","bandit","238","623822","0.0-199.0-0.0","06238679","wem/bandit_either","A1GV0UZU0T2ORS","either","7","","","","","","","72","H","0","img/none_selected.jpg","1","0","0","0.4004877553","","","160","0.4004877553","","main_expt","0.4","0.2159944071","0.8","","0.1615549635","0.2","0.2453635642","0.6","","","","","","","",""
"241","","bandit","239","625575","0.0-200.0-0.0","06238679","wem/bandit_either","A1GV0UZU0T2ORS","either","7","","","","","","","72","H","0","img/none_selected.jpg","1","0","0","0.4095849454","","","161","0.4095849454","","main_expt","0.4","0.2105769377","0.8","","0.1854631015","0.2","0.2456373749","0.6","","","","","","","",""
"263","","bandit","240","627352","0.0-201.0-0.0","06238679","wem/bandit_either","A1GV0UZU0T2ORS","either","7","","","","","","","72","H","0","img/none_selected.jpg","0","0","1","0.3978002783","","","162","0.3978002783","","main_expt","0.4","0.2006925765","0.8","","0.21229469","0.2","0.2460125232","0.6","","","","","","","",""
"310","","bandit","241","629175","0.0-202.0-0.0","06238679","wem/bandit_either","A1GV0UZU0T2ORS","either","7","","","","","","","72","H","0","img/none_selected.jpg","0","1","0","","0.4180552148","","163","","0.4180552148","main_expt","0.4","","0.8","0.2365124807","","0.2","","0.6","0.162194177","0.2013568893","","","","","",""
"343","","bandit","242","631032","0.0-203.0-0.0","06238679","wem/bandit_either","A1GV0UZU0T2ORS","either","7","","","","","","","72","H","0","img/none_selected.jpg","0","1","0","","0.4407560021","","164","","0.4407560021","main_expt","0.4","","0.8","0.2157370886","","0.2","","0.6","0.1535707797","0.1933595846","","","","","",""
"535","","bandit","243","633082","0.0-204.0-0.0","06238679","wem/bandit_either","A1GV0UZU0T2ORS","either","7","","","","","","","72","H","0","img/none_selected.jpg","1","0","0","0.4582960521","","","165","0.4582960521","","main_expt","0.4","0.2166787898","0.8","","0.2315934193","0.2","0.167552211","0.6","","","","","","","",""
"251","","bandit","244","634846","0.0-205.0-0.0","06238679","wem/bandit_either","A1GV0UZU0T2ORS","either","7","","","","","","","72","H","0","img/none_selected.jpg","0","0","1","0.4337500892","","","166","0.4337500892","","main_expt","0.4","0.1846262972","0.8","","0.2579087381","0.2","0.1311237951","0.6","","","","","","","",""
"337","","bandit","245","636697","0.0-206.0-0.0","06238679","wem/bandit_either","A1GV0UZU0T2ORS","either","7","","","","","","","75","K","2","","0","1","0","","0.2496457694","","167","","0.4537582576","main_expt","0.4","","0.8","0.1888750078","","0.2","","0.6","0.2496457694","0.1714029316","","","","","",""
"414","","bandit","246","638626","0.0-207.0-0.0","06238679","wem/bandit_either","A1GV0UZU0T2ORS","either","7","","","","","","","75","K","2","","0","0","1","","0.234558796","","168","","0.4473485534","main_expt","0.4","","0.8","0.2315683769","","0.2","","0.6","0.234558796","0.1494402723","","","","","",""
"277","","bandit","247","640413","0.0-208.0-0.0","06238679","wem/bandit_either","A1GV0UZU0T2ORS","either","7","","","","","","","75","K","2","","0","0","1","","0.2458600006","","169","","0.4471591033","main_expt","0.4","","0.8","0.2018123945","","0.2","","0.6","0.2458600006","0.1819888556","","","","","",""
"337","","bandit","248","642265","0.0-209.0-0.0","06238679","wem/bandit_either","A1GV0UZU0T2ORS","either","7","","","","","","","72","H","0","img/none_selected.jpg","0","0","1","0.4581839475","","","170","0.4581839475","","main_expt","0.4","0.139238222","0.8","","0.2214583157","0.2","0.2329206984","0.6","","","","","","","",""
"342","","bandit","249","644118","0.0-210.0-0.0","06238679","wem/bandit_either","A1GV0UZU0T2ORS","either","7","","","","","","","76","L","3","","0","0","1","0.2000607923","","","171","0.4674995421","","main_expt","0.4","0.1466511374","0.8","","0.296208115","0.2","0.2000607923","0.6","","","","","","","",""
"257","","bandit","250","645886","0.0-211.0-0.0","06238679","wem/bandit_either","A1GV0UZU0T2ORS","either","7","","","","","","","74","J","1","","0","0","1","0.1348290388","","","172","0.4455620345","","main_expt","0.4","0.1348290388","0.8","","0.3062379281","0.2","0.2342957318","0.6","","","","","","","",""
"160","","bandit","251","647560","0.0-212.0-0.0","06238679","wem/bandit_either","A1GV0UZU0T2ORS","either","7","","","","","","","72","H","0","img/none_selected.jpg","0","1","0","","0.4471610379","","173","","0.4471610379","main_expt","0.4","","0.8","0.1521691919","","0.2","","0.6","0.2498067723","0.2189308077","","","","","",""
"142","","bandit","252","649214","0.0-213.0-0.0","06238679","wem/bandit_either","A1GV0UZU0T2ORS","either","7","","","","","","","72","H","0","img/none_selected.jpg","0","0","1","0.4496576915","","","174","0.4496576915","","main_expt","0.4","0.2191935525","0.8","","0.1803522277","0.2","0.2373932689","0.6","","","","","","","",""
"250","","bandit","253","650979","0.0-214.0-0.0","06238679","wem/bandit_either","A1GV0UZU0T2ORS","either","7","","","","","","","72","H","0","img/none_selected.jpg","1","0","0","0.4715297358","","","175","0.4715297358","","main_expt","0.4","0.219961305","0.8","","0.2014319342","0.2","0.2160264752","0.6","","","","","","","",""
"291","","bandit","254","652783","0.0-215.0-0.0","06238679","wem/bandit_either","A1GV0UZU0T2ORS","either","7","","","","","","","72","H","0","img/none_selected.jpg","1","0","0","0.477956151","","","176","0.477956151","","main_expt","0.4","0.1882485239","0.8","","0.2122003168","0.2","0.1990604306","0.6","","","","","","","",""
"200","","bandit","255","654496","0.0-216.0-0.0","06238679","wem/bandit_either","A1GV0UZU0T2ORS","either","7","","","","","","","72","H","0","img/none_selected.jpg","0","1","0","","0.4563721206","","177","","0.4563721206","main_expt","0.4","","0.8","0.1644902553","","0.2","","0.6","0.2629069455","0.1729978196","","","","","",""
"254","","bandit","256","656261","0.0-217.0-0.0","06238679","wem/bandit_either","A1GV0UZU0T2ORS","either","7","","","","","","","72","H","0","img/none_selected.jpg","0","0","1","","0.4409869931","","178","","0.4409869931","main_expt","0.4","","0.8","0.1713669852","","0.2","","0.6","0.2336104206","0.1633080779","","","","","",""
"275","","bandit","257","658047","0.0-218.0-0.0","06238679","wem/bandit_either","A1GV0UZU0T2ORS","either","7","","","","","","","72","H","0","img/none_selected.jpg","0","0","1","","0.4243126063","","179","","0.4243126063","main_expt","0.4","","0.8","0.2263400462","","0.2","","0.6","0.1887504226","0.1243251356","","","","","",""
"432","","bandit","258","659995","0.0-219.0-0.0","06238679","wem/bandit_either","A1GV0UZU0T2ORS","either","7","","","","","","","72","H","0","img/none_selected.jpg","0","0","1","","0.4312830743","","180","","0.4312830743","main_expt","0.4","","0.8","0.2036870175","","0.2","","0.6","0.138376641","0.1150149055","","","","","",""
"444","","bandit","259","661951","0.0-220.0-0.0","06238679","wem/bandit_either","A1GV0UZU0T2ORS","either","7","","","","","","","72","H","0","img/none_selected.jpg","0","0","1","","0.4433127893","","181","","0.4433127893","main_expt","0.4","","0.8","0.1934599198","","0.2","","0.6","0.1883992559","0.1407924877","","","","","",""
"257","","bandit","260","663722","0.0-221.0-0.0","06238679","wem/bandit_either","A1GV0UZU0T2ORS","either","7","","","","","","","76","L","3","","0","0","1","","0.09672650852","","182","","0.440136403","main_expt","0.4","","0.8","0.2424515525","","0.2","","0.6","0.128889003","0.09672650852","","","","","",""
"301","","bandit","261","665539","0.0-222.0-0.0","06238679","wem/bandit_either","A1GV0UZU0T2ORS","either","7","","","","","","","72","H","0","img/none_selected.jpg","0","0","1","","0.4347693449","","183","","0.4347693449","main_expt","0.4","","0.8","0.1961777535","","0.2","","0.6","0.1748769843","0.09888002855","","","","","",""
"341","","bandit","262","667393","0.0-223.0-0.0","06238679","wem/bandit_either","A1GV0UZU0T2ORS","either","7","","","","","","","74","J","1","","0","0","1","0.1489283113","","","184","0.4277130926","","main_expt","0.4","0.1489283113","0.8","","0.1945994373","0.2","0.07200145298","0.6","","","","","","","",""
"301","","bandit","263","669206","0.0-224.0-0.0","06238679","wem/bandit_either","A1GV0UZU0T2ORS","either","7","","","","","","","75","K","2","","0","0","1","0.1644748654","","","185","0.3956248437","","main_expt","0.4","0.1499965078","0.8","","0.1644748654","0.2","0.09476413333","0.6","","","","","","","",""
"1","","bandit","264","670717","0.0-225.0-0.0","06238679","wem/bandit_either","A1GV0UZU0T2ORS","either","7","","","","","","","74","J","1","","1","0","0","0.2169832988","","","186","0.3748928266","","main_expt","0.4","0.2169832988","0.8","","0.1504635592","0.2","0.06556422103","0.6","","","","","","","",""
"179","","bandit","265","672407","0.0-226.0-0.0","06238679","wem/bandit_either","A1GV0UZU0T2ORS","either","7","","","","","","","74","J","1","","1","0","0","0.2655186329","","","187","0.3848139325","","main_expt","0.4","0.2655186329","0.8","","0.1760039214","0.2","0.08901149072","0.6","","","","","","","",""
"191","","bandit","266","674112","0.0-227.0-0.0","06238679","wem/bandit_either","A1GV0UZU0T2ORS","either","7","","","","","","","74","J","1","","0","0","1","0.2738785118","","","188","0.3990176401","","main_expt","0.4","0.2738785118","0.8","","0.1203267588","0.2","0.09471428588","0.6","","","","","","","",""
"200","","bandit","267","675826","0.0-228.0-0.0","06238679","wem/bandit_either","A1GV0UZU0T2ORS","either","7","","","","","","","74","J","1","","0","0","1","0.3041874674","","","189","0.3581396838","","main_expt","0.4","0.3041874674","0.8","","0.1171540391","0.2","0.05118235823","0.6","","","","","","","",""
"342","","bandit","268","677683","0.0-229.0-0.0","06238679","wem/bandit_either","A1GV0UZU0T2ORS","either","7","","","","","","","74","J","1","","1","0","0","0.3229453735","","","190","0.2882972244","","main_expt","0.4","0.3229453735","0.8","","0.1535230761","0.2","0.05788318751","0.6","","","","","","","",""
"277","","bandit","269","679471","0.0-230.0-0.0","06238679","wem/bandit_either","A1GV0UZU0T2ORS","either","7","","","","","","","74","J","1","","1","0","0","0.3818249757","","","191","0.3145326233","","main_expt","0.4","0.3818249757","0.8","","0.1372750947","0.2","0.08736915481","0.6","","","","","","","",""
"393","","bandit","270","681380","0.0-231.0-0.0","06238679","wem/bandit_either","A1GV0UZU0T2ORS","either","7","","","","","","","74","J","1","","0","0","1","0.4157726243","","","192","0.3270603702","","main_expt","0.4","0.4157726243","0.8","","0.1047771501","0.2","0.08251019118","0.6","","","","","","","",""
"468","","bandit","271","683361","0.0-232.0-0.0","06238679","wem/bandit_either","A1GV0UZU0T2ORS","either","7","","","","","","","75","K","2","","0","0","1","","0.1100845432","","193","","0.3604030797","main_expt","0.4","","0.8","0.4611608212","","0.2","","0.6","0.1100845432","0.06897628064","","","","","",""
"102","","bandit","272","684975","0.0-233.0-0.0","06238679","wem/bandit_either","A1GV0UZU0T2ORS","either","7","","","","","","","74","J","1","","1","0","0","0.4508818777","","","194","0.357423186","","main_expt","0.4","0.4508818777","0.8","","0.1468163818","0.2","0.06801266305","0.6","","","","","","","",""
"265","","bandit","273","686751","0.0-234.0-0.0","06238679","wem/bandit_either","A1GV0UZU0T2ORS","either","7","","","","","","","74","J","1","","0","0","1","0.4278921451","","","195","0.3697779856","","main_expt","0.4","0.4278921451","0.8","","0.1495594621","0.2","0.09923709358","0.6","","","","","","","",""
"88","","bandit","274","688354","0.0-235.0-0.0","06238679","wem/bandit_either","A1GV0UZU0T2ORS","either","7","","","","","","","74","J","1","","0","1","0","","0.4256293003","","196","","0.3617177512","main_expt","0.4","","0.8","0.4256293003","","0.2","","0.6","0.2263220537","0.1103063831","","","","","",""
"270","","bandit","275","690138","0.0-236.0-0.0","06238679","wem/bandit_either","A1GV0UZU0T2ORS","either","7","","","","","","","74","J","1","","1","0","0","0.4476975038","","","197","0.3775990084","","main_expt","0.4","0.4476975038","0.8","","0.2204718804","0.2","0.07377144043","0.6","","","","","","","",""
"246","","bandit","276","691895","0.0-237.0-0.0","06238679","wem/bandit_either","A1GV0UZU0T2ORS","either","7","","","","","","","74","J","1","","0","0","1","0.4434357272","","","198","0.4144042571","","main_expt","0.4","0.4434357272","0.8","","0.2401118457","0.2","0.08863448313","0.6","","","","","","","",""
"226","","bandit","277","693636","0.0-238.0-0.0","06238679","wem/bandit_either","A1GV0UZU0T2ORS","either","7","","","","","","","75","K","2","","0","0","1","","0.2673724497","","199","","0.4081775392","main_expt","0.4","","0.8","0.4245114622","","0.2","","0.6","0.2673724497","0.1082179128","","","","","",""
"132","","bandit","278","695285","0.0-239.0-0.0","06238679","wem/bandit_either","A1GV0UZU0T2ORS","either","7","","","","","","","74","J","1","","1","0","0","0.4087100315","","","200","0.4166156547","","main_expt","0.4","0.4087100315","0.8","","0.3125307902","0.2","0.09350688576","0.6","","","","","","","",""
"324","","bandit","279","697120","0.0-240.0-0.0","06238679","wem/bandit_either","A1GV0UZU0T2ORS","either","7","","","","","","","74","J","1","","0","0","1","0.4361521275","","","201","0.4306537176","","main_expt","0.4","0.4361521275","0.8","","0.2914574258","0.2","0.1036625099","0.6","","","","","","","",""
"489","","bandit","280","699122","0.0-241.0-0.0","06238679","wem/bandit_either","A1GV0UZU0T2ORS","either","7","","","","","","","74","J","1","","1","0","0","0.3332596158","","","202","0.449382563","","main_expt","0.4","0.3332596158","0.8","","0.2550600684","0.2","0.1216733889","0.6","","","","","","","",""
"391","","bandit","281","701026","0.0-242.0-0.0","06238679","wem/bandit_either","A1GV0UZU0T2ORS","either","7","","","","","","","74","J","1","","0","0","1","0.3581848779","","","203","0.4506576586","","main_expt","0.4","0.3581848779","0.8","","0.2769745997","0.2","0.120655788","0.6","","","","","","","",""
"176","","bandit","282","702715","0.0-243.0-0.0","06238679","wem/bandit_either","A1GV0UZU0T2ORS","either","7","","","","","","","74","J","1","","0","0","1","0.3597133043","","","204","0.454839243","","main_expt","0.4","0.3597133043","0.8","","0.2752990059","0.2","0.1082970726","0.6","","","","","","","",""
"237","","bandit","283","704467","0.0-244.0-0.0","06238679","wem/bandit_either","A1GV0UZU0T2ORS","either","7","","","","","","","74","J","1","","0","0","1","0.3630183988","","","205","0.4512889682","","main_expt","0.4","0.3630183988","0.8","","0.2901512169","0.2","0.09143681274","0.6","","","","","","","",""
"245","","bandit","284","706228","0.0-245.0-0.0","06238679","wem/bandit_either","A1GV0UZU0T2ORS","either","7","","","","","","","76","L","3","","0","0","1","","0.08377413986","","206","","0.4591490044","main_expt","0.4","","0.8","0.3737494834","","0.2","","0.6","0.2823763913","0.08377413986","","","","","",""
"326","","bandit","285","708067","0.0-246.0-0.0","06238679","wem/bandit_either","A1GV0UZU0T2ORS","either","7","","","","","","","75","K","2","","0","1","0","","0.2708062506","","207","","0.4650593633","main_expt","0.4","","0.8","0.3668784438","","0.2","","0.6","0.2708062506","0.1585073664","","","","","",""
"139","","bandit","286","709723","0.0-247.0-0.0","06238679","wem/bandit_either","A1GV0UZU0T2ORS","either","7","","","","","","","75","K","2","","0","1","0","","0.2641553663","","208","","0.4641513068","main_expt","0.4","","0.8","0.4045351895","","0.2","","0.6","0.2641553663","0.162299901","","","","","",""
"270","","bandit","287","711505","0.0-248.0-0.0","06238679","wem/bandit_either","A1GV0UZU0T2ORS","either","7","","","","","","","75","K","2","","0","0","1","","0.2704675845","","209","","0.4567807332","main_expt","0.4","","0.8","0.4402386934","","0.2","","0.6","0.2704675845","0.1542266077","","","","","",""
"192","","bandit","288","713211","0.0-249.0-0.0","06238679","wem/bandit_either","A1GV0UZU0T2ORS","either","7","","","","","","","75","K","2","","0","1","0","","0.3420868926","","210","","0.428253188","main_expt","0.4","","0.8","0.4483623408","","0.2","","0.6","0.3420868926","0.1890415559","","","","","",""
"269","","bandit","289","714993","0.0-250.0-0.0","06238679","wem/bandit_either","A1GV0UZU0T2ORS","either","7","","","","","","","75","K","2","","0","0","1","0.3069688952","","","211","0.410271385","","main_expt","0.4","0.4471415093","0.8","","0.3069688952","0.2","0.1818133019","0.6","","","","","","","",""
"121","","bandit","290","716630","0.0-251.0-0.0","06238679","wem/bandit_either","A1GV0UZU0T2ORS","either","7","","","","","","","75","K","2","","0","1","0","","0.3005379093","","212","","0.4065587724","main_expt","0.4","","0.8","0.4374655127","","0.2","","0.6","0.3005379093","0.1782747956","","","","","",""
"260","","bandit","291","718401","0.0-252.0-0.0","06238679","wem/bandit_either","A1GV0UZU0T2ORS","either","7","","","","","","","75","K","2","","0","0","1","","0.213882915","","213","","0.4007116542","main_expt","0.4","","0.8","0.4381457257","","0.2","","0.6","0.213882915","0.1935195711","","","","","",""
"408","","bandit","292","720321","0.0-253.0-0.0","06238679","wem/bandit_either","A1GV0UZU0T2ORS","either","7","","","","","","","75","K","2","","0","0","1","","0.2138557204","","214","","0.4246209323","main_expt","0.4","","0.8","0.4643769008","","0.2","","0.6","0.2138557204","0.2421176173","","","","","",""
"632","","bandit","293","722467","0.0-254.0-0.0","06238679","wem/bandit_either","A1GV0UZU0T2ORS","either","7","","","","","","","75","K","2","","0","0","1","0.2142566612","","","215","0.3993057066","","main_expt","0.4","0.4328812357","0.8","","0.2142566612","0.2","0.2629876012","0.6","","","","","","","",""
"984","","bandit","294","724967","0.0-255.0-0.0","06238679","wem/bandit_either","A1GV0UZU0T2ORS","either","7","","","","","","","74","J","1","","0","0","1","0.4064507999","","","216","0.3987772474","","main_expt","0.4","0.4064507999","0.8","","0.1900351118","0.2","0.2977714141","0.6","","","","","","","",""
"482","","bandit","295","726964","0.0-256.0-0.0","06238679","wem/bandit_either","A1GV0UZU0T2ORS","either","7","","","","","","","74","J","1","","0","0","1","0.4197961641","","","217","0.4101433534","","main_expt","0.4","0.4197961641","0.8","","0.2185169477","0.2","0.3017601552","0.6","","","","","","","",""
"613","","bandit","296","729089","0.0-257.0-0.0","06238679","wem/bandit_either","A1GV0UZU0T2ORS","either","7","","","","","","","76","L","3","","1","0","0","0.2888566207","","","218","0.4448029092","","main_expt","0.4","0.4167397569","0.8","","0.2240895604","0.2","0.2888566207","0.6","","","","","","","",""
"377","","bandit","297","730980","0.0-258.0-0.0","06238679","wem/bandit_either","A1GV0UZU0T2ORS","either","7","","","","","","","76","L","3","","1","0","0","0.2844008008","","","219","0.4454766299","","main_expt","0.4","0.4250944588","0.8","","0.1990808675","0.2","0.2844008008","0.6","","","","","","","",""
"292","","bandit","298","732786","0.0-259.0-0.0","06238679","wem/bandit_either","A1GV0UZU0T2ORS","either","7","","","","","","","76","L","3","","0","0","1","0.2225062479","","","220","0.4610997771","","main_expt","0.4","0.4173336587","0.8","","0.266602996","0.2","0.2225062479","0.6","","","","","","","",""
"54","","bandit","299","734354","0.0-260.0-0.0","06238679","wem/bandit_either","A1GV0UZU0T2ORS","either","7","","","","","","","76","L","3","","0","0","1","","0.2409900116","","221","","0.4642289789","main_expt","0.4","","0.8","0.3944711005","","0.2","","0.6","0.2443661227","0.2409900116","","","","","",""
"904","","bandit","300","736774","0.0-261.0-0.0","06238679","wem/bandit_either","A1GV0UZU0T2ORS","either","7","","","","","","","76","L","3","","0","0","1","","0.1989678636","","222","","0.4641270597","main_expt","0.4","","0.8","0.3619306912","","0.2","","0.6","0.2205922116","0.1989678636","","","","","",""
"297","","bandit","301","738588","0.0-262.0-0.0","06238679","wem/bandit_either","A1GV0UZU0T2ORS","either","7","","","","","","","76","L","3","","0","0","1","","0.1902867071","","223","","0.4697433819","main_expt","0.4","","0.8","0.4117842179","","0.2","","0.6","0.1861223506","0.1902867071","","","","","",""
"132","","bandit","302","740233","0.0-263.0-0.0","06238679","wem/bandit_either","A1GV0UZU0T2ORS","either","7","","","","","","","74","J","1","","0","0","1","0.3965092367","","","224","0.460898083","","main_expt","0.4","0.3965092367","0.8","","0.1668884863","0.2","0.2076415522","0.6","","","","","","","",""
"57","","bandit","303","741801","0.0-264.0-0.0","06238679","wem/bandit_either","A1GV0UZU0T2ORS","either","7","","","","","","","75","K","2","","0","0","1","0.1481472712","","","225","0.4394890665","","main_expt","0.4","0.4084477862","0.8","","0.1481472712","0.2","0.2393469174","0.6","","","","","","","",""
"111","","bandit","304","743425","0.0-265.0-0.0","06238679","wem/bandit_either","A1GV0UZU0T2ORS","either","7","","","","","","","72","H","0","img/none_selected.jpg","0","0","1","0.4520955237","","","226","0.4520955237","","main_expt","0.4","0.4104601526","0.8","","0.1140846591","0.2","0.2425440376","0.6","","","","","","","",""
"152","","bandit","305","745093","0.0-266.0-0.0","06238679","wem/bandit_either","A1GV0UZU0T2ORS","either","7","","","","","","","76","L","3","","0","0","1","","0.2365603363","","227","","0.4324220164","main_expt","0.4","","0.8","0.3899733519","","0.2","","0.6","0.1074218354","0.2365603363","","","","","",""
"405","","bandit","306","747015","0.0-267.0-0.0","06238679","wem/bandit_either","A1GV0UZU0T2ORS","either","7","","","","","","","76","L","3","","0","0","1","","0.2127958296","","228","","0.4220482421","main_expt","0.4","","0.8","0.3796730737","","0.2","","0.6","0.08065165665","0.2127958296","","","","","",""
"274","","bandit","307","748803","0.0-268.0-0.0","06238679","wem/bandit_either","A1GV0UZU0T2ORS","either","7","","","","","","","74","J","1","","0","0","1","0.4046866514","","","229","0.3885749154","","main_expt","0.4","0.4046866514","0.8","","0.07774059362","0.2","0.2207861463","0.6","","","","","","","",""
"86","","bandit","308","750405","0.0-269.0-0.0","06238679","wem/bandit_either","A1GV0UZU0T2ORS","either","7","","","","","","","74","J","1","","1","0","0","0.3988793555","","","230","0.4023755806","","main_expt","0.4","0.3988793555","0.8","","0.1109483114","0.2","0.2589226453","0.6","","","","","","","",""
"148","","bandit","309","752070","0.0-270.0-0.0","06238679","wem/bandit_either","A1GV0UZU0T2ORS","either","7","","","","","","","74","J","1","","0","0","1","","0.3981898202","","231","","0.3768725222","main_expt","0.4","","0.8","0.3981898202","","0.2","","0.6","0.05902300203","0.2956158432","","","","","",""
"91","","bandit","310","753673","0.0-271.0-0.0","06238679","wem/bandit_either","A1GV0UZU0T2ORS","either","7","","","","","","","74","J","1","","1","0","0","0.4411941832","","","232","0.3619917427","","main_expt","0.4","0.4411941832","0.8","","0.06675855664","0.2","0.3202484073","0.6","","","","","","","",""
"223","","bandit","311","755415","0.0-272.0-0.0","06238679","wem/bandit_either","A1GV0UZU0T2ORS","either","7","","","","","","","74","J","1","","0","1","0","","0.42967461","","233","","0.3833578816","main_expt","0.4","","0.8","0.42967461","","0.2","","0.6","0.06703699679","0.2933644042","","","","","",""
"210","","bandit","312","757139","0.0-273.0-0.0","06238679","wem/bandit_either","A1GV0UZU0T2ORS","either","7","","","","","","","74","J","1","","1","0","0","0.4242798354","","","234","0.3552131768","","main_expt","0.4","0.4242798354","0.8","","0.05331023031","0.2","0.3106154811","0.6","","","","","","","",""
"247","","bandit","313","758900","0.0-274.0-0.0","06238679","wem/bandit_either","A1GV0UZU0T2ORS","either","7","","","","","","","74","J","1","","1","0","0","0.4617388459","","","235","0.3135084543","","main_expt","0.4","0.4617388459","0.8","","0.05187545802","0.2","0.3158990995","0.6","","","","","","","",""
"182","","bandit","314","760599","0.0-275.0-0.0","06238679","wem/bandit_either","A1GV0UZU0T2ORS","either","7","","","","","","","74","J","1","","0","0","1","0.4619510484","","","236","0.244945467","","main_expt","0.4","0.4619510484","0.8","","0.06939909985","0.2","0.3036927748","0.6","","","","","","","",""
"211","","bandit","315","762323","0.0-276.0-0.0","06238679","wem/bandit_either","A1GV0UZU0T2ORS","either","7","","","","","","","74","J","1","","1","0","0","0.4482398789","","","237","0.1823839079","","main_expt","0.4","0.4482398789","0.8","","0.1210409879","0.2","0.3491021326","0.6","","","","","","","",""
"127","","bandit","316","763967","0.0-277.0-0.0","06238679","wem/bandit_either","A1GV0UZU0T2ORS","either","7","","","","","","","74","J","1","","0","0","1","","0.4193969143","","238","","0.1685050226","main_expt","0.4","","0.8","0.4193969143","","0.2","","0.6","0.1147840357","0.3939254097","","","","","",""
"116","","bandit","317","765597","0.0-278.0-0.0","06238679","wem/bandit_either","A1GV0UZU0T2ORS","either","7","","","","","","","74","J","1","","0","0","1","0.4203848948","","","239","0.1606472637","","main_expt","0.4","0.4203848948","0.8","","0.1006463842","0.2","0.379108978","0.6","","","","","","","",""
"203","","bandit","318","767316","0.0-279.0-0.0","06238679","wem/bandit_either","A1GV0UZU0T2ORS","either","7","","","","","","","74","J","1","","0","0","1","0.4489383263","","","240","0.1512795466","","main_expt","0.4","0.4489383263","0.8","","0.1008771133","0.2","0.3876209848","0.6","","","","","","","",""
"214","","bandit","319","769046","0.0-280.0-0.0","06238679","wem/bandit_either","A1GV0UZU0T2ORS","either","7","","","","","","","72","H","0","img/none_selected.jpg","0","0","1","","0.1916219391","","241","","0.1916219391","main_expt","0.4","","0.8","0.4636195567","","0.2","","0.6","0.09981833296","0.3839625774","","","","","",""
"60","","bandit","320","770619","0.0-281.0-0.0","06238679","wem/bandit_either","A1GV0UZU0T2ORS","either","7","","","","","","","75","K","2","","0","0","1","","0.1171772993","","242","","0.1641013935","main_expt","0.4","","0.8","0.4575307695","","0.2","","0.6","0.1171772993","0.3477958629","","","","","",""
"407","","bandit","321","772538","0.0-282.0-0.0","06238679","wem/bandit_either","A1GV0UZU0T2ORS","either","7","","","","","","","75","K","2","","0","0","1","","0.1239984651","","243","","0.2064320789","main_expt","0.4","","0.8","0.4449554393","","0.2","","0.6","0.1239984651","0.3500658948","","","","","",""
"304","","bandit","322","774356","0.0-283.0-0.0","06238679","wem/bandit_either","A1GV0UZU0T2ORS","either","7","","","","","","","76","L","3","","0","0","1","","0.3452717574","","244","","0.2205496082","main_expt","0.4","","0.8","0.4525763452","","0.2","","0.6","0.1126152289","0.3452717574","","","","","",""
"132","","bandit","323","776006","0.0-284.0-0.0","06238679","wem/bandit_either","A1GV0UZU0T2ORS","either","7","","","","","","","72","H","0","img/none_selected.jpg","0","0","1","","0.214276823","","245","","0.214276823","main_expt","0.4","","0.8","0.4753838692","","0.2","","0.6","0.1524829061","0.3162288444","","","","","",""
"293","","bandit","324","777815","0.0-285.0-0.0","06238679","wem/bandit_either","A1GV0UZU0T2ORS","either","7","","","","","","","74","J","1","","0","0","1","0.4623654582","","","246","0.2084567316","","main_expt","0.4","0.4623654582","0.8","","0.1921750243","0.2","0.2894596967","0.6","","","","","","","",""
"58","","bandit","325","779391","0.0-286.0-0.0","06238679","wem/bandit_either","A1GV0UZU0T2ORS","either","7","","","","","","","75","K","2","","0","0","1","","0.1931065189","","247","","0.2232303491","main_expt","0.4","","0.8","0.4331165165","","0.2","","0.6","0.1931065189","0.2642296388","","","","","",""
"331","","bandit","326","781235","0.0-287.0-0.0","06238679","wem/bandit_either","A1GV0UZU0T2ORS","either","7","","","","","","","75","K","2","","0","0","1","","0.2189994516","","248","","0.2541796534","main_expt","0.4","","0.8","0.4401602984","","0.2","","0.6","0.2189994516","0.2534255255","","","","","",""
"295","","bandit","327","783048","0.0-288.0-0.0","06238679","wem/bandit_either","A1GV0UZU0T2ORS","either","7","","","","","","","75","K","2","","0","1","0","","0.1989243371","","249","","0.232462199","main_expt","0.4","","0.8","0.430892824","","0.2","","0.6","0.1989243371","0.2252980971","","","","","",""
"307","","bandit","328","784871","0.0-289.0-0.0","06238679","wem/bandit_either","A1GV0UZU0T2ORS","either","7","","","","","","","75","K","2","","0","0","1","","0.1635706079","","250","","0.2877664065","main_expt","0.4","","0.8","0.4282509168","","0.2","","0.6","0.1635706079","0.298830738","","","","","",""
"980","","bandit","329","787368","0.0-290.0-0.0","06238679","wem/bandit_either","A1GV0UZU0T2ORS","either","7","","","","","","","75","K","2","","0","0","1","","0.1738575253","","251","","0.2947451014","main_expt","0.4","","0.8","0.4499649657","","0.2","","0.6","0.1738575253","0.3113207693","","","","","",""
"332","","bandit","330","789212","0.0-291.0-0.0","06238679","wem/bandit_either","A1GV0UZU0T2ORS","either","7","","","","","","","75","K","2","","0","0","1","","0.1868362494","","252","","0.2581410112","main_expt","0.4","","0.8","0.458069626","","0.2","","0.6","0.1868362494","0.2952600368","","","","","",""
"395","","bandit","331","791128","0.0-292.0-0.0","06238679","wem/bandit_either","A1GV0UZU0T2ORS","either","7","","","","","","","72","H","0","img/none_selected.jpg","0","1","0","","0.2526573277","","253","","0.2526573277","main_expt","0.4","","0.8","0.4419078322","","0.2","","0.6","0.1888839862","0.2837805879","","","","","",""
