"rt","responses","trial_type","trial_index","time_elapsed","internal_node_id","subjID","study","MID","cond","drift","key_press","expt_phase","target","like","value","connected","gems","bombs","no_reward","GemPrChosen","BombPrChosen","GainOverPainPr_0","GainOverPainPr_1","GainOverPainPr_2","GainOverPainPr_3","LosePr_0","LosePr_1","LosePr_2","LosePr_3","WinPr_0","WinPr_1","WinPr_2","WinPr_3","Q0","Q1","Q2","gender","age","ethnicity","respCharCode","respKey","respChoiceNum","respChoice","practice","trial_counter","trial_label"
"14666","{""Q0"":""A3JSZTNJ469AF2""}","survey-text","0","14671","0.0-0.0","06597944","wem/bandit_either","A3JSZTNJ469AF2","either","8","","","","","","","","","","","","","","","","","","","","","","","","","","","","","","","","","","","",""
"18726","","text","1","34401","0.0-1.0","06597944","wem/bandit_either","A3JSZTNJ469AF2","either","8","32","","","","","","","","","","","","","","","","","","","","","","","","","","","","","","","","","","",""
"21497","","text","2","55899","0.0-2.0","06597944","wem/bandit_either","A3JSZTNJ469AF2","either","8","32","","","","","","","","","","","","","","","","","","","","","","","","","","","","","","","","","","",""
"50872","","text","3","106772","0.0-3.0","06597944","wem/bandit_either","A3JSZTNJ469AF2","either","8","32","","","","","","","","","","","","","","","","","","","","","","","","","","","","","","","","","","",""
"15772","","text","4","122544","0.0-4.0","06597944","wem/bandit_either","A3JSZTNJ469AF2","either","8","32","","","","","","","","","","","","","","","","","","","","","","","","","","","","","","","","","","",""
"44774","","text","5","167319","0.0-5.0","06597944","wem/bandit_either","A3JSZTNJ469AF2","either","8","32","","","","","","","","","","","","","","","","","","","","","","","","","","","","","","","","","","",""
"7795","","text","6","175115","0.0-6.0","06597944","wem/bandit_either","A3JSZTNJ469AF2","either","8","32","","","","","","","","","","","","","","","","","","","","","","","","","","","","","","","","","","",""
"4803","","text","7","179920","0.0-7.0","06597944","wem/bandit_either","A3JSZTNJ469AF2","either","8","32","","","","","","","","","","","","","","","","","","","","","","","","","","","","","","","","","","",""
"7693","","identification","8","187629","0.0-8.0-0.0","06597944","wem/bandit_either","A3JSZTNJ469AF2","either","8","","identification_pre","the village of Zur","","","","","","","","","","","","","","","","","","","","","","","","","","","","","","","","",""
"7489","","identification","9","196133","0.0-8.0-1.0","06597944","wem/bandit_either","A3JSZTNJ469AF2","either","8","","identification_pre","the village of Nyx","","","","","","","","","","","","","","","","","","","","","","","","","","","","","","","","",""
"14026","","text","10","211161","0.0-9.0","06597944","wem/bandit_either","A3JSZTNJ469AF2","either","8","32","","","","","","","","","","","","","","","","","","","","","","","","","","","","","","","","","","",""
"4184","","text","11","215346","0.0-10.0","06597944","wem/bandit_either","A3JSZTNJ469AF2","either","8","32","","","","","","","","","","","","","","","","","","","","","","","","","","","","","","","","","","",""
"2272","","text","12","217619","0.0-11.0","06597944","wem/bandit_either","A3JSZTNJ469AF2","either","8","32","","","","","","","","","","","","","","","","","","","","","","","","","","","","","","","","","","",""
"3790","","text","13","221410","0.0-12.0","06597944","wem/bandit_either","A3JSZTNJ469AF2","either","8","32","","","","","","","","","","","","","","","","","","","","","","","","","","","","","","","","","","",""
"4396","","bandit","14","227312","0.0-13.0-0.0","06597944","wem/bandit_either","A3JSZTNJ469AF2","either","8","","","","","","","0","0","1","0","0","","","","","0","","","","0","","","","","","","","","","74","J","0","img/none_selected_demo.jpg","true","0",""
"2388","","bandit","15","231205","0.0-14.0-0.0","06597944","wem/bandit_either","A3JSZTNJ469AF2","either","8","","","","","","","0","0","1","0","0","","","","","0","","","","0","","","","","","","","","","75","K","0","img/none_selected_demo.jpg","true","0",""
"10128","","text","16","241334","0.0-15.0","06597944","wem/bandit_either","A3JSZTNJ469AF2","either","8","32","","","","","","","","","","","","","","","","","","","","","","","","","","","","","","","","","","",""
"18032","","text","17","259368","0.0-16.0","06597944","wem/bandit_either","A3JSZTNJ469AF2","either","8","32","","","","","","","","","","","","","","","","","","","","","","","","","","","","","","","","","","",""
"10450","","text","18","269819","0.0-17.0","06597944","wem/bandit_either","A3JSZTNJ469AF2","either","8","32","","","","","","","","","","","","","","","","","","","","","","","","","","","","","","","","","","",""
"5657","","text","19","275478","0.0-18.0","06597944","wem/bandit_either","A3JSZTNJ469AF2","either","8","32","","","","","","","","","","","","","","","","","","","","","","","","","","","","","","","","","","",""
"1292","","bandit","20","278275","0.0-19.0-0.0","06597944","wem/bandit_either","A3JSZTNJ469AF2","either","8","","","","","","","0","0","1","","0.2","0.5","0.5","","","0.8","0.2","","","","","","","","","","","","","75","K","1","","true","0","80_20_practice"
"1195","","bandit","21","280975","0.0-19.0-1.0","06597944","wem/bandit_either","A3JSZTNJ469AF2","either","8","","","","","","","0","1","0","","0.8","0.5","0.5","","","0.8","0.2","","","","","","","","","","","","","74","J","0","img/none_selected_demo.jpg","true","0","80_20_practice"
"1971","","bandit","22","284451","0.0-19.0-2.0","06597944","wem/bandit_either","A3JSZTNJ469AF2","either","8","","","","","","","0","1","0","","0.8","0.5","0.5","","","0.8","0.2","","","","","","","","","","","","","74","J","0","img/none_selected_demo.jpg","true","0","80_20_practice"
"1003","","bandit","23","286959","0.0-19.0-3.0","06597944","wem/bandit_either","A3JSZTNJ469AF2","either","8","","","","","","","0","1","0","","0.8","0.5","0.5","","","0.8","0.2","","","","","","","","","","","","","74","J","0","img/none_selected_demo.jpg","true","0","80_20_practice"
"588","","bandit","24","289052","0.0-19.0-4.0","06597944","wem/bandit_either","A3JSZTNJ469AF2","either","8","","","","","","","0","0","1","","0.2","0.5","0.5","","","0.8","0.2","","","","","","","","","","","","","75","K","1","","true","0","80_20_practice"
"3130","","bandit","25","293686","0.0-19.0-5.0","06597944","wem/bandit_either","A3JSZTNJ469AF2","either","8","","","","","","","0","0","1","0.2","","0.5","0.5","","","","","","","0.8","0.2","","","","","","","","","75","K","1","","true","0","80_20_practice"
"543","","bandit","26","295734","0.0-19.0-6.0","06597944","wem/bandit_either","A3JSZTNJ469AF2","either","8","","","","","","","0","1","0","","0.2","0.5","0.5","","","0.8","0.2","","","","","","","","","","","","","75","K","1","","true","0","80_20_practice"
"791","","bandit","27","298029","0.0-19.0-7.0","06597944","wem/bandit_either","A3JSZTNJ469AF2","either","8","","","","","","","1","0","0","0.8","","0.5","0.5","","","","","","","0.8","0.2","","","","","","","","","74","J","0","img/none_selected_demo.jpg","true","0","80_20_practice"
"960","","bandit","28","300494","0.0-19.0-8.0","06597944","wem/bandit_either","A3JSZTNJ469AF2","either","8","","","","","","","1","0","0","0.8","","0.5","0.5","","","","","","","0.8","0.2","","","","","","","","","74","J","0","img/none_selected_demo.jpg","true","0","80_20_practice"
"1127","","bandit","29","303125","0.0-19.0-9.0","06597944","wem/bandit_either","A3JSZTNJ469AF2","either","8","","","","","","","0","1","0","","0.2","0.5","0.5","","","0.8","0.2","","","","","","","","","","","","","75","K","1","","true","0","80_20_practice"
"903","","bandit","30","305533","0.0-19.0-10.0","06597944","wem/bandit_either","A3JSZTNJ469AF2","either","8","","","","","","","0","0","1","0.2","","0.5","0.5","","","","","","","0.8","0.2","","","","","","","","","75","K","1","","true","0","80_20_practice"
"532","","bandit","31","307570","0.0-19.0-11.0","06597944","wem/bandit_either","A3JSZTNJ469AF2","either","8","","","","","","","0","1","0","","0.8","0.5","0.5","","","0.8","0.2","","","","","","","","","","","","","74","J","0","img/none_selected_demo.jpg","true","0","80_20_practice"
"609","","bandit","32","309684","0.0-19.0-12.0","06597944","wem/bandit_either","A3JSZTNJ469AF2","either","8","","","","","","","1","0","0","0.8","","0.5","0.5","","","","","","","0.8","0.2","","","","","","","","","74","J","0","img/none_selected_demo.jpg","true","0","80_20_practice"
"554","","bandit","33","311744","0.0-19.0-13.0","06597944","wem/bandit_either","A3JSZTNJ469AF2","either","8","","","","","","","0","0","1","0.8","","0.5","0.5","","","","","","","0.8","0.2","","","","","","","","","74","J","0","img/none_selected_demo.jpg","true","0","80_20_practice"
"1307","","bandit","34","314555","0.0-19.0-14.0","06597944","wem/bandit_either","A3JSZTNJ469AF2","either","8","","","","","","","0","0","1","","0.2","0.5","0.5","","","0.8","0.2","","","","","","","","","","","","","75","K","1","","true","0","80_20_practice"
"553","","bandit","35","316614","0.0-19.0-15.0","06597944","wem/bandit_either","A3JSZTNJ469AF2","either","8","","","","","","","0","0","1","0.2","","0.5","0.5","","","","","","","0.8","0.2","","","","","","","","","75","K","1","","true","0","80_20_practice"
"453","","bandit","36","318573","0.0-19.0-16.0","06597944","wem/bandit_either","A3JSZTNJ469AF2","either","8","","","","","","","0","0","1","0.2","","0.5","0.5","","","","","","","0.8","0.2","","","","","","","","","75","K","1","","true","0","80_20_practice"
"3388","","bandit","37","323466","0.0-19.0-17.0","06597944","wem/bandit_either","A3JSZTNJ469AF2","either","8","","","","","","","0","1","0","","0.8","0.5","0.5","","","0.8","0.2","","","","","","","","","","","","","74","J","0","img/none_selected_demo.jpg","true","0","80_20_practice"
"497","","bandit","38","325469","0.0-19.0-18.0","06597944","wem/bandit_either","A3JSZTNJ469AF2","either","8","","","","","","","1","0","0","0.8","","0.5","0.5","","","","","","","0.8","0.2","","","","","","","","","74","J","0","img/none_selected_demo.jpg","true","0","80_20_practice"
"531","","bandit","39","327505","0.0-19.0-19.0","06597944","wem/bandit_either","A3JSZTNJ469AF2","either","8","","","","","","","0","0","1","0.2","","0.5","0.5","","","","","","","0.8","0.2","","","","","","","","","75","K","1","","true","0","80_20_practice"
"4897","","text","40","332403","0.0-20.0","06597944","wem/bandit_either","A3JSZTNJ469AF2","either","8","32","","","","","","","","","","","","","","","","","","","","","","","","","","","","","","","","","","",""
"1707","","bandit","41","335616","0.0-21.0-0.0","06597944","wem/bandit_either","A3JSZTNJ469AF2","either","8","","","","","","","1","0","0","1","0","","","","","0","1","","","1","0","","","","","","","","","74","J","0","img/none_selected_demo.jpg","true","0",""
"9003","","text","42","344621","0.0-22.0","06597944","wem/bandit_either","A3JSZTNJ469AF2","either","8","32","","","","","","","","","","","","","","","","","","","","","","","","","","","","","","","","","","",""
"3160","","text","43","347782","0.0-23.0","06597944","wem/bandit_either","A3JSZTNJ469AF2","either","8","32","","","","","","","","","","","","","","","","","","","","","","","","","","","","","","","","","","",""
"3148","","text","44","350932","0.0-24.0","06597944","wem/bandit_either","A3JSZTNJ469AF2","either","8","32","","","","","","","","","","","","","","","","","","","","","","","","","","","","","","","","","","",""
"2912","","text","45","353846","0.0-25.0","06597944","wem/bandit_either","A3JSZTNJ469AF2","either","8","32","","","","","","","","","","","","","","","","","","","","","","","","","","","","","","","","","","",""
"10530","","text","46","364376","0.0-26.0","06597944","wem/bandit_either","A3JSZTNJ469AF2","either","8","32","","","","","","","","","","","","","","","","","","","","","","","","","","","","","","","","","","",""
"3553","","text","47","367931","0.0-27.0","06597944","wem/bandit_either","A3JSZTNJ469AF2","either","8","32","","","","","","","","","","","","","","","","","","","","","","","","","","","","","","","","","","",""
"5152","","text","48","373083","0.0-28.0","06597944","wem/bandit_either","A3JSZTNJ469AF2","either","8","32","","","","","","","","","","","","","","","","","","","","","","","","","","","","","","","","","","",""
"3824","","text","49","376909","0.0-29.0","06597944","wem/bandit_either","A3JSZTNJ469AF2","either","8","32","","","","","","","","","","","","","","","","","","","","","","","","","","","","","","","","","","",""
"4375","","text","50","381285","0.0-30.0","06597944","wem/bandit_either","A3JSZTNJ469AF2","either","8","32","","","","","","","","","","","","","","","","","","","","","","","","","","","","","","","","","","",""
"2304","","text","51","383591","0.0-31.0","06597944","wem/bandit_either","A3JSZTNJ469AF2","either","8","32","","","","","","","","","","","","","","","","","","","","","","","","","","","","","","","","","","",""
"3148","","text","52","386741","0.0-32.0","06597944","wem/bandit_either","A3JSZTNJ469AF2","either","8","32","","","","","","","","","","","","","","","","","","","","","","","","","","","","","","","","","","",""
"1482","","bandit","53","389730","0.0-33.0-0.0","06597944","wem/bandit_either","A3JSZTNJ469AF2","either","8","","","","","","","0","0","1","0.8","","0.5","0.5","0.5","0.5","","","","","0.8","0.2","0.6","0.2","","","","","","","72","H","0","img/none_selected.jpg","true","0","full_practice"
"552","","bandit","54","391788","0.0-33.0-1.0","06597944","wem/bandit_either","A3JSZTNJ469AF2","either","8","","","","","","","0","1","0","","0.8","0.5","0.5","0.5","0.5","0.8","0.2","0.6","0.2","","","","","","","","","","","72","H","0","img/none_selected.jpg","true","0","full_practice"
"575","","bandit","55","393870","0.0-33.0-2.0","06597944","wem/bandit_either","A3JSZTNJ469AF2","either","8","","","","","","","0","1","0","","0.8","0.5","0.5","0.5","0.5","0.8","0.2","0.6","0.2","","","","","","","","","","","72","H","0","img/none_selected.jpg","true","0","full_practice"
"507","","bandit","56","395883","0.0-33.0-3.0","06597944","wem/bandit_either","A3JSZTNJ469AF2","either","8","","","","","","","0","0","1","","0.8","0.5","0.5","0.5","0.5","0.8","0.2","0.6","0.2","","","","","","","","","","","72","H","0","img/none_selected.jpg","true","0","full_practice"
"711","","bandit","57","398100","0.0-33.0-4.0","06597944","wem/bandit_either","A3JSZTNJ469AF2","either","8","","","","","","","0","1","0","","0.2","0.5","0.5","0.5","0.5","0.8","0.2","0.6","0.2","","","","","","","","","","","74","J","1","","true","0","full_practice"
"463","","bandit","58","400068","0.0-33.0-5.0","06597944","wem/bandit_either","A3JSZTNJ469AF2","either","8","","","","","","","0","0","1","","0.2","0.5","0.5","0.5","0.5","0.8","0.2","0.6","0.2","","","","","","","","","","","74","J","1","","true","0","full_practice"
"82","","bandit","59","401654","0.0-33.0-6.0","06597944","wem/bandit_either","A3JSZTNJ469AF2","either","8","","","","","","","0","0","1","0.2","","0.5","0.5","0.5","0.5","","","","","0.8","0.2","0.6","0.2","","","","","","","74","J","1","","true","0","full_practice"
"441","","bandit","60","403600","0.0-33.0-7.0","06597944","wem/bandit_either","A3JSZTNJ469AF2","either","8","","","","","","","0","0","1","0.2","","0.5","0.5","0.5","0.5","","","","","0.8","0.2","0.6","0.2","","","","","","","74","J","1","","true","0","full_practice"
"497","","bandit","61","405604","0.0-33.0-8.0","06597944","wem/bandit_either","A3JSZTNJ469AF2","either","8","","","","","","","0","0","1","0.2","","0.5","0.5","0.5","0.5","","","","","0.8","0.2","0.6","0.2","","","","","","","74","J","1","","true","0","full_practice"
"812","","bandit","62","407920","0.0-33.0-9.0","06597944","wem/bandit_either","A3JSZTNJ469AF2","either","8","","","","","","","1","0","0","0.8","","0.5","0.5","0.5","0.5","","","","","0.8","0.2","0.6","0.2","","","","","","","72","H","0","img/none_selected.jpg","true","0","full_practice"
"588","","bandit","63","410012","0.0-33.0-10.0","06597944","wem/bandit_either","A3JSZTNJ469AF2","either","8","","","","","","","0","1","0","","0.6","0.5","0.5","0.5","0.5","0.8","0.2","0.6","0.2","","","","","","","","","","","75","K","2","","true","0","full_practice"
"510","","bandit","64","412027","0.0-33.0-11.0","06597944","wem/bandit_either","A3JSZTNJ469AF2","either","8","","","","","","","0","0","1","","0.6","0.5","0.5","0.5","0.5","0.8","0.2","0.6","0.2","","","","","","","","","","","75","K","2","","true","0","full_practice"
"530","","bandit","65","414062","0.0-33.0-12.0","06597944","wem/bandit_either","A3JSZTNJ469AF2","either","8","","","","","","","0","0","1","","0.6","0.5","0.5","0.5","0.5","0.8","0.2","0.6","0.2","","","","","","","","","","","75","K","2","","true","0","full_practice"
"499","","bandit","66","416066","0.0-33.0-13.0","06597944","wem/bandit_either","A3JSZTNJ469AF2","either","8","","","","","","","1","0","0","0.6","","0.5","0.5","0.5","0.5","","","","","0.8","0.2","0.6","0.2","","","","","","","75","K","2","","true","0","full_practice"
"666","","bandit","67","418237","0.0-33.0-14.0","06597944","wem/bandit_either","A3JSZTNJ469AF2","either","8","","","","","","","1","0","0","0.6","","0.5","0.5","0.5","0.5","","","","","0.8","0.2","0.6","0.2","","","","","","","75","K","2","","true","0","full_practice"
"508","","bandit","68","420251","0.0-33.0-15.0","06597944","wem/bandit_either","A3JSZTNJ469AF2","either","8","","","","","","","0","0","1","0.2","","0.5","0.5","0.5","0.5","","","","","0.8","0.2","0.6","0.2","","","","","","","76","L","3","","true","0","full_practice"
"442","","bandit","69","422196","0.0-33.0-16.0","06597944","wem/bandit_either","A3JSZTNJ469AF2","either","8","","","","","","","0","0","1","0.2","","0.5","0.5","0.5","0.5","","","","","0.8","0.2","0.6","0.2","","","","","","","76","L","3","","true","0","full_practice"
"464","","bandit","70","424165","0.0-33.0-17.0","06597944","wem/bandit_either","A3JSZTNJ469AF2","either","8","","","","","","","0","0","1","0.2","","0.5","0.5","0.5","0.5","","","","","0.8","0.2","0.6","0.2","","","","","","","76","L","3","","true","0","full_practice"
"442","","bandit","71","426111","0.0-33.0-18.0","06597944","wem/bandit_either","A3JSZTNJ469AF2","either","8","","","","","","","0","0","1","","0.2","0.5","0.5","0.5","0.5","0.8","0.2","0.6","0.2","","","","","","","","","","","76","L","3","","true","0","full_practice"
"216","","bandit","72","427834","0.0-33.0-19.0","06597944","wem/bandit_either","A3JSZTNJ469AF2","either","8","","","","","","","0","1","0","","0.2","0.5","0.5","0.5","0.5","0.8","0.2","0.6","0.2","","","","","","","","","","","76","L","3","","true","0","full_practice"
"3330","","text","73","431168","0.0-34.0","06597944","wem/bandit_either","A3JSZTNJ469AF2","either","8","32","","","","","","","","","","","","","","","","","","","","","","","","","","","","","","","","","","",""
"19428","","text","74","451598","0.0-35.0","06597944","wem/bandit_either","A3JSZTNJ469AF2","either","8","32","","","","","","","","","","","","","","","","","","","","","","","","","","","","","","","","","","",""
"14669","","text","75","466268","0.0-36.0","06597944","wem/bandit_either","A3JSZTNJ469AF2","either","8","32","","","","","","","","","","","","","","","","","","","","","","","","","","","","","","","","","","",""
"6703","","text","76","472973","0.0-37.0","06597944","wem/bandit_either","A3JSZTNJ469AF2","either","8","32","","","","","","","","","","","","","","","","","","","","","","","","","","","","","","","","","","",""
"7019","","text","77","479993","0.0-38.0","06597944","wem/bandit_either","A3JSZTNJ469AF2","either","8","32","","","","","","","","","","","","","","","","","","","","","","","","","","","","","","","","","","",""
"8481","","text","78","488476","0.0-39.0","06597944","wem/bandit_either","A3JSZTNJ469AF2","either","8","32","","","","","","","","","","","","","","","","","","","","","","","","","","","","","","","","","","",""
"1528","","bandit","79","491509","0.0-40.0-0.0","06597944","wem/bandit_either","A3JSZTNJ469AF2","either","8","","","","","","","0","0","1","0.1351790469","","0.6","0.2","0.8","0.4","","","","","0.1351790469","0.3540548627","0.2637293772","0.2928194041","","","","","","","72","H","0","img/none_selected.jpg","","1","main_expt"
"722","","bandit","80","493735","0.0-41.0-0.0","06597944","wem/bandit_either","A3JSZTNJ469AF2","either","8","","","","","","","0","0","1","0.125602744","","0.6","0.2","0.8","0.4","","","","","0.125602744","0.3812516843","0.2760013096","0.3040419902","","","","","","","72","H","0","img/none_selected.jpg","","2","main_expt"
"1455","","bandit","81","496696","0.0-42.0-0.0","06597944","wem/bandit_either","A3JSZTNJ469AF2","either","8","","","","","","","0","0","1","","0.3901316494","0.6","0.2","0.8","0.4","0.09574082279","0.3901316494","0.3240499928","0.2875251023","","","","","","","","","","","74","J","1","","","3","main_expt"
"709","","bandit","82","498911","0.0-43.0-0.0","06597944","wem/bandit_either","A3JSZTNJ469AF2","either","8","","","","","","","1","0","0","0.3510822359","","0.6","0.2","0.8","0.4","","","","","0.0913382225","0.3945399471","0.3510822359","0.2965567903","","","","","","","75","K","2","","","4","main_expt"
"565","","bandit","83","500980","0.0-44.0-0.0","06597944","wem/bandit_either","A3JSZTNJ469AF2","either","8","","","","","","","0","0","1","","0.3522827721","0.6","0.2","0.8","0.4","0.106177601","0.3997977613","0.3522827721","0.2681113314","","","","","","","","","","","75","K","2","","","5","main_expt"
"543","","bandit","84","503028","0.0-45.0-0.0","06597944","wem/bandit_either","A3JSZTNJ469AF2","either","8","","","","","","","0","0","1","0.2330443498","","0.6","0.2","0.8","0.4","","","","","0.08998955495","0.390783501","0.382674005","0.2330443498","","","","","","","76","L","3","","","6","main_expt"
"475","","bandit","85","505007","0.0-46.0-0.0","06597944","wem/bandit_either","A3JSZTNJ469AF2","either","8","","","","","","","0","0","1","","0.1630509172","0.6","0.2","0.8","0.4","0.1077526668","0.3305693427","0.3998463606","0.1630509172","","","","","","","","","","","76","L","3","","","7","main_expt"
"566","","bandit","86","507079","0.0-47.0-0.0","06597944","wem/bandit_either","A3JSZTNJ469AF2","either","8","","","","","","","1","0","0","0.2002468685","","0.6","0.2","0.8","0.4","","","","","0.1243697388","0.3056545716","0.3832029687","0.2002468685","","","","","","","76","L","3","","","8","main_expt"
"562","","bandit","87","509150","0.0-48.0-0.0","06597944","wem/bandit_either","A3JSZTNJ469AF2","either","8","","","","","","","0","0","1","","0.1835034381","0.6","0.2","0.8","0.4","0.1698108096","0.3278889804","0.3796681134","0.1835034381","","","","","","","","","","","76","L","3","","","9","main_expt"
"722","","bandit","88","511376","0.0-49.0-0.0","06597944","wem/bandit_either","A3JSZTNJ469AF2","either","8","","","","","","","0","0","1","0.221757114","","0.6","0.2","0.8","0.4","","","","","0.221757114","0.3137855556","0.3614311416","0.1939723001","","","","","","","72","H","0","img/none_selected.jpg","","10","main_expt"
"464","","bandit","89","513346","0.0-50.0-0.0","06597944","wem/bandit_either","A3JSZTNJ469AF2","either","8","","","","","","","0","0","1","0.1961062924","","0.6","0.2","0.8","0.4","","","","","0.1961062924","0.3253079181","0.3938737051","0.1949806013","","","","","","","72","H","0","img/none_selected.jpg","","11","main_expt"
"507","","bandit","90","515357","0.0-51.0-0.0","06597944","wem/bandit_either","A3JSZTNJ469AF2","either","8","","","","","","","0","0","1","","0.1907056259","0.6","0.2","0.8","0.4","0.1907056259","0.3298150516","0.3810544723","0.2587943474","","","","","","","","","","","72","H","0","img/none_selected.jpg","","12","main_expt"
"589","","bandit","91","517451","0.0-52.0-0.0","06597944","wem/bandit_either","A3JSZTNJ469AF2","either","8","","","","","","","0","1","0","","0.3673307406","0.6","0.2","0.8","0.4","0.2162865666","0.3673307406","0.3707046684","0.3085985727","","","","","","","","","","","74","J","1","","","13","main_expt"
"510","","bandit","92","519465","0.0-53.0-0.0","06597944","wem/bandit_either","A3JSZTNJ469AF2","either","8","","","","","","","0","0","1","","0.3679224674","0.6","0.2","0.8","0.4","0.2399362825","0.3679224674","0.3486531997","0.2464992766","","","","","","","","","","","74","J","1","","","14","main_expt"
"643","","bandit","93","521612","0.0-54.0-0.0","06597944","wem/bandit_either","A3JSZTNJ469AF2","either","8","","","","","","","0","0","1","","0.3062507314","0.6","0.2","0.8","0.4","0.1986859052","0.3062507314","0.3263578384","0.2474611475","","","","","","","","","","","74","J","1","","","15","main_expt"
"398","","bandit","94","523516","0.0-55.0-0.0","06597944","wem/bandit_either","A3JSZTNJ469AF2","either","8","","","","","","","0","0","1","","0.2892976033","0.6","0.2","0.8","0.4","0.1865641621","0.2892976033","0.3514189979","0.2835538477","","","","","","","","","","","74","J","1","","","16","main_expt"
"721","","bandit","95","525743","0.0-56.0-0.0","06597944","wem/bandit_either","A3JSZTNJ469AF2","either","8","","","","","","","1","0","0","0.3532592314","","0.6","0.2","0.8","0.4","","","","","0.2035525071","0.2861796528","0.3532592314","0.3256112075","","","","","","","75","K","2","","","17","main_expt"
"766","","bandit","96","528015","0.0-57.0-0.0","06597944","wem/bandit_either","A3JSZTNJ469AF2","either","8","","","","","","","1","0","0","0.3858608091","","0.6","0.2","0.8","0.4","","","","","0.2039336531","0.2958570682","0.3858608091","0.3802227677","","","","","","","75","K","2","","","18","main_expt"
"980","","bandit","97","530502","0.0-58.0-0.0","06597944","wem/bandit_either","A3JSZTNJ469AF2","either","8","","","","","","","1","0","0","0.3837638756","","0.6","0.2","0.8","0.4","","","","","0.1598579642","0.3353028819","0.3837638756","0.360566968","","","","","","","75","K","2","","","19","main_expt"
"1194","","bandit","98","533202","0.0-59.0-0.0","06597944","wem/bandit_either","A3JSZTNJ469AF2","either","8","","","","","","","0","0","1","0.2872100501","","0.6","0.2","0.8","0.4","","","","","0.1437622327","0.3139704528","0.2872100501","0.3696799013","","","","","","","75","K","2","","","20","main_expt"
"913","","bandit","99","535622","0.0-60.0-0.0","06597944","wem/bandit_either","A3JSZTNJ469AF2","either","8","","","","","","","0","0","1","0.2975414498","","0.6","0.2","0.8","0.4","","","","","0.07974703335","0.2524707143","0.2975414498","0.4006907501","","","","","","","75","K","2","","","21","main_expt"
"609","","bandit","100","537735","0.0-61.0-0.0","06597944","wem/bandit_either","A3JSZTNJ469AF2","either","8","","","","","","","0","0","1","0.2741965999","","0.6","0.2","0.8","0.4","","","","","0.1361132429","0.248326021","0.2741965999","0.4081217326","","","","","","","75","K","2","","","22","main_expt"
"508","","bandit","101","539749","0.0-62.0-0.0","06597944","wem/bandit_either","A3JSZTNJ469AF2","either","8","","","","","","","0","0","1","","0.2937153481","0.6","0.2","0.8","0.4","0.1705973249","0.2937153481","0.2379064449","0.3740207531","","","","","","","","","","","74","J","1","","","23","main_expt"
"610","","bandit","102","541865","0.0-63.0-0.0","06597944","wem/bandit_either","A3JSZTNJ469AF2","either","8","","","","","","","0","1","0","","0.2625315469","0.6","0.2","0.8","0.4","0.1392759225","0.2625315469","0.2078598572","0.3913756451","","","","","","","","","","","74","J","1","","","24","main_expt"
"710","","bandit","103","544080","0.0-64.0-0.0","06597944","wem/bandit_either","A3JSZTNJ469AF2","either","8","","","","","","","0","0","1","","0.2405651368","0.6","0.2","0.8","0.4","0.1800538527","0.2405651368","0.2764850733","0.4100905738","","","","","","","","","","","74","J","1","","","25","main_expt"
"598","","bandit","104","546184","0.0-65.0-0.0","06597944","wem/bandit_either","A3JSZTNJ469AF2","either","8","","","","","","","0","0","1","","0.3600668969","0.6","0.2","0.8","0.4","0.2146400533","0.2503350336","0.3080191348","0.3600668969","","","","","","","","","","","76","L","3","","","26","main_expt"
"565","","bandit","105","548254","0.0-66.0-0.0","06597944","wem/bandit_either","A3JSZTNJ469AF2","either","8","","","","","","","0","1","0","","0.3703096079","0.6","0.2","0.8","0.4","0.1948367851","0.354091838","0.3606197488","0.3703096079","","","","","","","","","","","76","L","3","","","27","main_expt"
"632","","bandit","106","550392","0.0-67.0-0.0","06597944","wem/bandit_either","A3JSZTNJ469AF2","either","8","","","","","","","0","1","0","","0.3527269899","0.6","0.2","0.8","0.4","0.2282666016","0.3419366675","0.3696097963","0.3527269899","","","","","","","","","","","76","L","3","","","28","main_expt"
"743","","bandit","107","552641","0.0-68.0-0.0","06597944","wem/bandit_either","A3JSZTNJ469AF2","either","8","","","","","","","0","0","1","0.2854860911","","0.6","0.2","0.8","0.4","","","","","0.1842618798","0.361896517","0.3434444954","0.2854860911","","","","","","","76","L","3","","","29","main_expt"
"518","","bandit","108","554667","0.0-69.0-0.0","06597944","wem/bandit_either","A3JSZTNJ469AF2","either","8","","","","","","","0","0","1","0.2971434158","","0.6","0.2","0.8","0.4","","","","","0.1930267653","0.3701160785","0.3528183973","0.2971434158","","","","","","","76","L","3","","","30","main_expt"
"575","","bandit","109","556749","0.0-70.0-0.0","06597944","wem/bandit_either","A3JSZTNJ469AF2","either","8","","","","","","","0","0","1","","0.3192935598","0.6","0.2","0.8","0.4","0.2279264959","0.3602312343","0.3436926249","0.3192935598","","","","","","","","","","","76","L","3","","","31","main_expt"
"518","","bandit","110","558772","0.0-71.0-0.0","06597944","wem/bandit_either","A3JSZTNJ469AF2","either","8","","","","","","","1","0","0","0.2910845839","","0.6","0.2","0.8","0.4","","","","","0.1922668126","0.3550043818","0.3392376576","0.2910845839","","","","","","","76","L","3","","","32","main_expt"
"498","","bandit","111","560774","0.0-72.0-0.0","06597944","wem/bandit_either","A3JSZTNJ469AF2","either","8","","","","","","","1","0","0","0.2956883229","","0.6","0.2","0.8","0.4","","","","","0.1503247695","0.3927862597","0.2524106513","0.2956883229","","","","","","","76","L","3","","","33","main_expt"
"892","","bandit","112","563172","0.0-73.0-0.0","06597944","wem/bandit_either","A3JSZTNJ469AF2","either","8","","","","","","","0","0","1","0.2918182698","","0.6","0.2","0.8","0.4","","","","","0.1875072744","0.4185963197","0.2378308988","0.2918182698","","","","","","","76","L","3","","","34","main_expt"
"890","","bandit","113","565568","0.0-74.0-0.0","06597944","wem/bandit_either","A3JSZTNJ469AF2","either","8","","","","","","","0","0","1","0.2135507624","","0.6","0.2","0.8","0.4","","","","","0.2135507624","0.441983755","0.2683654211","0.3063909307","","","","","","","72","H","0","img/none_selected.jpg","","35","main_expt"
"586","","bandit","114","567662","0.0-75.0-0.0","06597944","wem/bandit_either","A3JSZTNJ469AF2","either","8","","","","","","","0","0","1","0.2042402853","","0.6","0.2","0.8","0.4","","","","","0.2042402853","0.4352827683","0.2645223933","0.2820805085","","","","","","","72","H","0","img/none_selected.jpg","","36","main_expt"
"900","","bandit","115","570068","0.0-76.0-0.0","06597944","wem/bandit_either","A3JSZTNJ469AF2","either","8","","","","","","","1","0","0","0.2024605481","","0.6","0.2","0.8","0.4","","","","","0.2024605481","0.450520142","0.2360561858","0.2610370824","","","","","","","72","H","0","img/none_selected.jpg","","37","main_expt"
"755","","bandit","116","572329","0.0-77.0-0.0","06597944","wem/bandit_either","A3JSZTNJ469AF2","either","8","","","","","","","0","0","1","","0.1677713785","0.6","0.2","0.8","0.4","0.1677713785","0.4681224698","0.2001865083","0.1896233007","","","","","","","","","","","72","H","0","img/none_selected.jpg","","38","main_expt"
"407","","bandit","117","574242","0.0-78.0-0.0","06597944","wem/bandit_either","A3JSZTNJ469AF2","either","8","","","","","","","0","0","1","0.221779122","","0.6","0.2","0.8","0.4","","","","","0.221779122","0.4711022053","0.1687915361","0.168851025","","","","","","","72","H","0","img/none_selected.jpg","","39","main_expt"
"485","","bandit","118","576233","0.0-79.0-0.0","06597944","wem/bandit_either","A3JSZTNJ469AF2","either","8","","","","","","","0","0","1","","0.2722397218","0.6","0.2","0.8","0.4","0.2722397218","0.4559447699","0.1503151413","0.1615787635","","","","","","","","","","","72","H","0","img/none_selected.jpg","","40","main_expt"
"509","","bandit","119","578248","0.0-80.0-0.0","06597944","wem/bandit_either","A3JSZTNJ469AF2","either","8","","","","","","","0","0","1","0.08168262283","","0.6","0.2","0.8","0.4","","","","","0.3298230943","0.4412687596","0.08168262283","0.1472326003","","","","","","","75","K","2","","","41","main_expt"
"552","","bandit","120","580305","0.0-81.0-0.0","06597944","wem/bandit_either","A3JSZTNJ469AF2","either","8","","","","","","","1","0","0","0.07668629145","","0.6","0.2","0.8","0.4","","","","","0.3104885444","0.4457751761","0.07668629145","0.1533480506","","","","","","","75","K","2","","","42","main_expt"
"576","","bandit","121","582386","0.0-82.0-0.0","06597944","wem/bandit_either","A3JSZTNJ469AF2","either","8","","","","","","","0","0","1","0.07394587158","","0.6","0.2","0.8","0.4","","","","","0.3005355489","0.4298378352","0.07394587158","0.1414351437","","","","","","","75","K","2","","","43","main_expt"
"824","","bandit","122","584716","0.0-83.0-0.0","06597944","wem/bandit_either","A3JSZTNJ469AF2","either","8","","","","","","","0","0","1","0.1192337685","","0.6","0.2","0.8","0.4","","","","","0.2456242138","0.4416915379","0.1192337685","0.1067646429","","","","","","","75","K","2","","","44","main_expt"
"563","","bandit","123","586785","0.0-84.0-0.0","06597944","wem/bandit_either","A3JSZTNJ469AF2","either","8","","","","","","","0","0","1","0.1285724119","","0.6","0.2","0.8","0.4","","","","","0.2839901561","0.3915522423","0.1285724119","0.1250796286","","","","","","","75","K","2","","","45","main_expt"
"756","","bandit","124","589047","0.0-85.0-0.0","06597944","wem/bandit_either","A3JSZTNJ469AF2","either","8","","","","","","","0","0","1","0.1112684106","","0.6","0.2","0.8","0.4","","","","","0.2353621531","0.4318427431","0.1112684106","0.1927264636","","","","","","","75","K","2","","","46","main_expt"
"474","","bandit","125","591026","0.0-86.0-0.0","06597944","wem/bandit_either","A3JSZTNJ469AF2","either","8","","","","","","","0","0","1","0.4395998441","","0.6","0.2","0.8","0.4","","","","","0.2405257196","0.4395998441","0.1207340475","0.1804488412","","","","","","","74","J","1","","","47","main_expt"
"564","","bandit","126","593097","0.0-87.0-0.0","06597944","wem/bandit_either","A3JSZTNJ469AF2","either","8","","","","","","","0","0","1","0.4630443269","","0.6","0.2","0.8","0.4","","","","","0.2629408555","0.4630443269","0.1182533935","0.168268176","","","","","","","74","J","1","","","48","main_expt"
"676","","bandit","127","595279","0.0-88.0-0.0","06597944","wem/bandit_either","A3JSZTNJ469AF2","either","8","","","","","","","0","0","1","","0.4794982466","0.6","0.2","0.8","0.4","0.2902453213","0.4794982466","0.1460801474","0.1466838001","","","","","","","","","","","74","J","1","","","49","main_expt"
"632","","bandit","128","597417","0.0-89.0-0.0","06597944","wem/bandit_either","A3JSZTNJ469AF2","either","8","","","","","","","0","0","1","0.1336340117","","0.6","0.2","0.8","0.4","","","","","0.3033715012","0.4562783041","0.1765155983","0.1336340117","","","","","","","76","L","3","","","50","main_expt"
"519","","bandit","129","599443","0.0-90.0-0.0","06597944","wem/bandit_either","A3JSZTNJ469AF2","either","8","","","","","","","0","0","1","0.1067821754","","0.6","0.2","0.8","0.4","","","","","0.3536831403","0.4515646323","0.1614266163","0.1067821754","","","","","","","76","L","3","","","51","main_expt"
"676","","bandit","130","601625","0.0-91.0-0.0","06597944","wem/bandit_either","A3JSZTNJ469AF2","either","8","","","","","","","0","0","1","","0.07294577227","0.6","0.2","0.8","0.4","0.3058792917","0.4344137529","0.1938643747","0.07294577227","","","","","","","","","","","76","L","3","","","52","main_expt"
"574","","bandit","131","603706","0.0-92.0-0.0","06597944","wem/bandit_either","A3JSZTNJ469AF2","either","8","","","","","","","0","1","0","","0.4421766306","0.6","0.2","0.8","0.4","0.3466820038","0.4421766306","0.1721886996","0.07676454597","","","","","","","","","","","74","J","1","","","53","main_expt"
"541","","bandit","132","605753","0.0-93.0-0.0","06597944","wem/bandit_either","A3JSZTNJ469AF2","either","8","","","","","","","0","0","1","0.4591875032","","0.6","0.2","0.8","0.4","","","","","0.3159173384","0.4591875032","0.1542880765","0.07707135067","","","","","","","74","J","1","","","54","main_expt"
"485","","bandit","133","607745","0.0-94.0-0.0","06597944","wem/bandit_either","A3JSZTNJ469AF2","either","8","","","","","","","0","0","1","0.2155598061","","0.6","0.2","0.8","0.4","","","","","0.3205246683","0.4455250987","0.2155598061","0.08227932488","","","","","","","75","K","2","","","55","main_expt"
"733","","bandit","134","609985","0.0-95.0-0.0","06597944","wem/bandit_either","A3JSZTNJ469AF2","either","8","","","","","","","0","0","1","0.199350645","","0.6","0.2","0.8","0.4","","","","","0.3067659888","0.4200701886","0.199350645","0.09013031375","","","","","","","75","K","2","","","56","main_expt"
"450","","bandit","135","611941","0.0-96.0-0.0","06597944","wem/bandit_either","A3JSZTNJ469AF2","either","8","","","","","","","0","0","1","0.1991981904","","0.6","0.2","0.8","0.4","","","","","0.3786279545","0.3635567377","0.1991981904","0.106866739","","","","","","","75","K","2","","","57","main_expt"
"452","","bandit","136","613899","0.0-97.0-0.0","06597944","wem/bandit_either","A3JSZTNJ469AF2","either","8","","","","","","","0","0","1","0.1307276253","","0.6","0.2","0.8","0.4","","","","","0.3796022377","0.3647217687","0.1307276253","0.0915584437","","","","","","","75","K","2","","","58","main_expt"
"1215","","bandit","137","616621","0.0-98.0-0.0","06597944","wem/bandit_either","A3JSZTNJ469AF2","either","8","","","","","","","0","0","1","","0.3570845549","0.6","0.2","0.8","0.4","0.3570845549","0.3975499765","0.1540949786","0.1036540812","","","","","","","","","","","72","H","0","img/none_selected.jpg","","59","main_expt"
"518","","bandit","138","618646","0.0-99.0-0.0","06597944","wem/bandit_either","A3JSZTNJ469AF2","either","8","","","","","","","0","0","1","","0.398525789","0.6","0.2","0.8","0.4","0.398525789","0.376383165","0.1187181044","0.07948280662","","","","","","","","","","","72","H","0","img/none_selected.jpg","","60","main_expt"
"1610","","bandit","139","621762","0.0-100.0-0.0","06597944","wem/bandit_either","A3JSZTNJ469AF2","either","8","","","","","","","1","0","0","0.380986593","","0.6","0.2","0.8","0.4","","","","","0.380986593","0.3384437455","0.1734870435","0.0685056185","","","","","","","72","H","0","img/none_selected.jpg","","61","main_expt"
"575","","bandit","140","623843","0.0-101.0-0.0","06597944","wem/bandit_either","A3JSZTNJ469AF2","either","8","","","","","","","0","0","1","","0.3928002855","0.6","0.2","0.8","0.4","0.3928002855","0.3086389155","0.2056999461","0.04196312691","","","","","","","","","","","72","H","0","img/none_selected.jpg","","62","main_expt"
"530","","bandit","141","625880","0.0-102.0-0.0","06597944","wem/bandit_either","A3JSZTNJ469AF2","either","8","","","","","","","0","0","1","0.4097838671","","0.6","0.2","0.8","0.4","","","","","0.4097838671","0.3098998428","0.2421495796","0.06524357318","","","","","","","72","H","0","img/none_selected.jpg","","63","main_expt"
"394","","bandit","142","627781","0.0-103.0-0.0","06597944","wem/bandit_either","A3JSZTNJ469AF2","either","8","","","","","","","1","0","0","0.3942475769","","0.6","0.2","0.8","0.4","","","","","0.3942475769","0.2859800092","0.2678986655","0.04599317762","","","","","","","72","H","0","img/none_selected.jpg","","64","main_expt"
"440","","bandit","143","629728","0.0-104.0-0.0","06597944","wem/bandit_either","A3JSZTNJ469AF2","either","8","","","","","","","0","0","1","0.3756823908","","0.6","0.2","0.8","0.4","","","","","0.3756823908","0.2780623804","0.2780805564","0.04738713632","","","","","","","72","H","0","img/none_selected.jpg","","65","main_expt"
"361","","bandit","144","631596","0.0-105.0-0.0","06597944","wem/bandit_either","A3JSZTNJ469AF2","either","8","","","","","","","0","0","1","0.3780323226","","0.6","0.2","0.8","0.4","","","","","0.3780323226","0.2740889186","0.2923516192","0.02873144913","","","","","","","72","H","0","img/none_selected.jpg","","66","main_expt"
"427","","bandit","145","633529","0.0-106.0-0.0","06597944","wem/bandit_either","A3JSZTNJ469AF2","either","8","","","","","","","0","0","1","0.382091886","","0.6","0.2","0.8","0.4","","","","","0.382091886","0.3122756929","0.3481747094","0.0355516853","","","","","","","72","H","0","img/none_selected.jpg","","67","main_expt"
"464","","bandit","146","635498","0.0-107.0-0.0","06597944","wem/bandit_either","A3JSZTNJ469AF2","either","8","","","","","","","1","0","0","0.4080562953","","0.6","0.2","0.8","0.4","","","","","0.4080562953","0.3004294993","0.3540590834","0.04483006882","","","","","","","72","H","0","img/none_selected.jpg","","68","main_expt"
"407","","bandit","147","637412","0.0-108.0-0.0","06597944","wem/bandit_either","A3JSZTNJ469AF2","either","8","","","","","","","0","0","1","","0.419826639","0.6","0.2","0.8","0.4","0.419826639","0.3312842332","0.3348318208","0.04300650393","","","","","","","","","","","72","H","0","img/none_selected.jpg","","69","main_expt"
"406","","bandit","148","639325","0.0-109.0-0.0","06597944","wem/bandit_either","A3JSZTNJ469AF2","either","8","","","","","","","0","0","1","0.3889643965","","0.6","0.2","0.8","0.4","","","","","0.3889643965","0.2362018798","0.3844983113","0.03960880855","","","","","","","72","H","0","img/none_selected.jpg","","70","main_expt"
"419","","bandit","149","641249","0.0-110.0-0.0","06597944","wem/bandit_either","A3JSZTNJ469AF2","either","8","","","","","","","0","0","1","","0.3492343966","0.6","0.2","0.8","0.4","0.3492343966","0.1838323472","0.3753843975","0.02401392238","","","","","","","","","","","72","H","0","img/none_selected.jpg","","71","main_expt"
"371","","bandit","150","643127","0.0-111.0-0.0","06597944","wem/bandit_either","A3JSZTNJ469AF2","either","8","","","","","","","0","1","0","","0.3502155883","0.6","0.2","0.8","0.4","0.3502155883","0.1749810972","0.3861429343","0.008756159955","","","","","","","","","","","72","H","0","img/none_selected.jpg","","72","main_expt"
"337","","bandit","151","644971","0.0-112.0-0.0","06597944","wem/bandit_either","A3JSZTNJ469AF2","either","8","","","","","","","0","1","0","","0.3568691787","0.6","0.2","0.8","0.4","0.3568691787","0.1664097112","0.3978436086","0.006257651783","","","","","","","","","","","72","H","0","img/none_selected.jpg","","73","main_expt"
"147","","bandit","152","646624","0.0-113.0-0.0","06597944","wem/bandit_either","A3JSZTNJ469AF2","either","8","","","","","","","0","0","1","0.3303653739","","0.6","0.2","0.8","0.4","","","","","0.3303653739","0.2001176207","0.3847979518","0.004732084297","","","","","","","72","H","0","img/none_selected.jpg","","74","main_expt"
"463","","bandit","153","648594","0.0-114.0-0.0","06597944","wem/bandit_either","A3JSZTNJ469AF2","either","8","","","","","","","0","0","1","0.3353283381","","0.6","0.2","0.8","0.4","","","","","0.3353283381","0.1848717924","0.3974319157","0.006967558871","","","","","","","72","H","0","img/none_selected.jpg","","75","main_expt"
"315","","bandit","154","650416","0.0-115.0-0.0","06597944","wem/bandit_either","A3JSZTNJ469AF2","either","8","","","","","","","1","0","0","0.3009524994","","0.6","0.2","0.8","0.4","","","","","0.3009524994","0.1510178238","0.3987985884","0.004525860487","","","","","","","72","H","0","img/none_selected.jpg","","76","main_expt"
"417","","bandit","155","652340","0.0-116.0-0.0","06597944","wem/bandit_either","A3JSZTNJ469AF2","either","8","","","","","","","0","1","0","","0.3316028908","0.6","0.2","0.8","0.4","0.3316028908","0.2089633591","0.4127312768","0.007245535115","","","","","","","","","","","72","H","0","img/none_selected.jpg","","77","main_expt"
"181","","bandit","156","654028","0.0-117.0-0.0","06597944","wem/bandit_either","A3JSZTNJ469AF2","either","8","","","","","","","0","1","0","","0.3571024926","0.6","0.2","0.8","0.4","0.3571024926","0.2285147345","0.4257675477","0.00483057751","","","","","","","","","","","72","H","0","img/none_selected.jpg","","78","main_expt"
"383","","bandit","157","655917","0.0-118.0-0.0","06597944","wem/bandit_either","A3JSZTNJ469AF2","either","8","","","","","","","0","0","1","","0.3542776451","0.6","0.2","0.8","0.4","0.3542776451","0.2246975601","0.4331167668","0.005956317848","","","","","","","","","","","72","H","0","img/none_selected.jpg","","79","main_expt"
"339","","bandit","158","657763","0.0-119.0-0.0","06597944","wem/bandit_either","A3JSZTNJ469AF2","either","8","","","","","","","0","0","1","0.3201174307","","0.6","0.2","0.8","0.4","","","","","0.3201174307","0.1878766281","0.4294395537","0.0076590047","","","","","","","72","H","0","img/none_selected.jpg","","80","main_expt"
"124","","bandit","159","659393","0.0-120.0-0.0","06597944","wem/bandit_either","A3JSZTNJ469AF2","either","8","","","","","","","0","0","1","","0.3503003334","0.6","0.2","0.8","0.4","0.3503003334","0.2436254364","0.4234249918","0.009115568074","","","","","","","","","","","72","H","0","img/none_selected.jpg","","81","main_expt"
"3","","bandit","160","660902","0.0-121.0-0.0","06597944","wem/bandit_either","A3JSZTNJ469AF2","either","8","","","","","","","1","0","0","0.3509066846","","0.6","0.2","0.8","0.4","","","","","0.3509066846","0.2627531714","0.3956977209","0.01382977225","","","","","","","72","H","0","img/none_selected.jpg","","82","main_expt"
"102","","bandit","161","662510","0.0-122.0-0.0","06597944","wem/bandit_either","A3JSZTNJ469AF2","either","8","","","","","","","0","0","1","0.3951868033","","0.6","0.2","0.8","0.4","","","","","0.3951868033","0.2672212524","0.4248650233","0.01500629599","","","","","","","72","H","0","img/none_selected.jpg","","83","main_expt"
"385","","bandit","162","664400","0.0-123.0-0.0","06597944","wem/bandit_either","A3JSZTNJ469AF2","either","8","","","","","","","0","0","1","0.4131477378","","0.6","0.2","0.8","0.4","","","","","0.4131477378","0.2817484998","0.4196907627","0.02310127573","","","","","","","72","H","0","img/none_selected.jpg","","84","main_expt"
"306","","bandit","163","666212","0.0-124.0-0.0","06597944","wem/bandit_either","A3JSZTNJ469AF2","either","8","","","","","","","1","0","0","0.3889697292","","0.6","0.2","0.8","0.4","","","","","0.3889697292","0.3074775227","0.435633498","0.02639065846","","","","","","","72","H","0","img/none_selected.jpg","","85","main_expt"
"146","","bandit","164","667864","0.0-125.0-0.0","06597944","wem/bandit_either","A3JSZTNJ469AF2","either","8","","","","","","","0","1","0","","0.3885636443","0.6","0.2","0.8","0.4","0.3885636443","0.2717847629","0.4322222521","0.01746441632","","","","","","","","","","","72","H","0","img/none_selected.jpg","","86","main_expt"
"204","","bandit","165","669576","0.0-126.0-0.0","06597944","wem/bandit_either","A3JSZTNJ469AF2","either","8","","","","","","","0","0","1","0.4028282504","","0.6","0.2","0.8","0.4","","","","","0.4028282504","0.2183858348","0.4476119451","0.01256144444","","","","","","","72","H","0","img/none_selected.jpg","","87","main_expt"
"338","","bandit","166","671420","0.0-127.0-0.0","06597944","wem/bandit_either","A3JSZTNJ469AF2","either","8","","","","","","","0","0","1","","0.4306890759","0.6","0.2","0.8","0.4","0.4306890759","0.2054961256","0.4073123198","0.01178158386","","","","","","","","","","","72","H","0","img/none_selected.jpg","","88","main_expt"
"394","","bandit","167","673322","0.0-128.0-0.0","06597944","wem/bandit_either","A3JSZTNJ469AF2","either","8","","","","","","","1","0","0","0.4103738654","","0.6","0.2","0.8","0.4","","","","","0.4103738654","0.1452714398","0.3862301724","0.008722555822","","","","","","","72","H","0","img/none_selected.jpg","","89","main_expt"
"271","","bandit","168","675099","0.0-129.0-0.0","06597944","wem/bandit_either","A3JSZTNJ469AF2","either","8","","","","","","","1","0","0","0.3980827974","","0.6","0.2","0.8","0.4","","","","","0.3980827974","0.1077779513","0.3596745144","0.008232471735","","","","","","","72","H","0","img/none_selected.jpg","","90","main_expt"
"462","","bandit","169","677068","0.0-130.0-0.0","06597944","wem/bandit_either","A3JSZTNJ469AF2","either","8","","","","","","","0","0","1","","0.4040531024","0.6","0.2","0.8","0.4","0.4040531024","0.1308407065","0.3082854458","0.01249180717","","","","","","","","","","","72","H","0","img/none_selected.jpg","","91","main_expt"
"371","","bandit","170","678947","0.0-131.0-0.0","06597944","wem/bandit_either","A3JSZTNJ469AF2","either","8","","","","","","","1","0","0","0.3462944796","","0.6","0.2","0.8","0.4","","","","","0.3462944796","0.1652322036","0.312225492","0.01470986316","","","","","","","72","H","0","img/none_selected.jpg","","92","main_expt"
"1914","","bandit","171","682367","0.0-132.0-0.0","06597944","wem/bandit_either","A3JSZTNJ469AF2","either","8","","","","","","","0","0","1","","0.3411451966","0.6","0.2","0.8","0.4","0.3411451966","0.1344678182","0.3671658277","0.02655281846","","","","","","","","","","","72","H","0","img/none_selected.jpg","","93","main_expt"
"484","","bandit","172","684358","0.0-133.0-0.0","06597944","wem/bandit_either","A3JSZTNJ469AF2","either","8","","","","","","","0","0","1","0.3384154489","","0.6","0.2","0.8","0.4","","","","","0.3384154489","0.1301314301","0.3401731108","0.02575246025","","","","","","","72","H","0","img/none_selected.jpg","","94","main_expt"
"429","","bandit","173","686294","0.0-134.0-0.0","06597944","wem/bandit_either","A3JSZTNJ469AF2","either","8","","","","","","","0","0","1","","0.3126988266","0.6","0.2","0.8","0.4","0.3126988266","0.1746055711","0.3413923724","0.02262355665","","","","","","","","","","","72","H","0","img/none_selected.jpg","","95","main_expt"
"56","","bandit","174","687856","0.0-135.0-0.0","06597944","wem/bandit_either","A3JSZTNJ469AF2","either","8","","","","","","","0","0","1","","0.3800019137","0.6","0.2","0.8","0.4","0.3800019137","0.1994244555","0.3570420485","0.02047181149","","","","","","","","","","","72","H","0","img/none_selected.jpg","","96","main_expt"
"316","","bandit","175","689678","0.0-136.0-0.0","06597944","wem/bandit_either","A3JSZTNJ469AF2","either","8","","","","","","","0","0","1","","0.1834602947","0.6","0.2","0.8","0.4","0.3328121005","0.1834602947","0.3435474977","0.0207754381","","","","","","","","","","","74","J","1","","","97","main_expt"
"429","","bandit","176","691615","0.0-137.0-0.0","06597944","wem/bandit_either","A3JSZTNJ469AF2","either","8","","","","","","","0","0","1","0.1719221531","","0.6","0.2","0.8","0.4","","","","","0.332228596","0.1719221531","0.3614714926","0.02955834597","","","","","","","74","J","1","","","98","main_expt"
"428","","bandit","177","693549","0.0-138.0-0.0","06597944","wem/bandit_either","A3JSZTNJ469AF2","either","8","","","","","","","0","0","1","","0.1183399241","0.6","0.2","0.8","0.4","0.2843854285","0.1183399241","0.3176405447","0.0383131093","","","","","","","","","","","74","J","1","","","99","main_expt"
"327","","bandit","178","695383","0.0-139.0-0.0","06597944","wem/bandit_either","A3JSZTNJ469AF2","either","8","","","","","","","0","0","1","","0.1558635017","0.6","0.2","0.8","0.4","0.309751149","0.1558635017","0.3586553183","0.03580757471","","","","","","","","","","","74","J","1","","","100","main_expt"
"360","","bandit","179","697251","0.0-140.0-0.0","06597944","wem/bandit_either","A3JSZTNJ469AF2","either","8","","","","","","","0","0","1","","0.1389665978","0.6","0.2","0.8","0.4","0.2993195944","0.1389665978","0.2951503345","0.04899620691","","","","","","","","","","","74","J","1","","","101","main_expt"
"416","","bandit","180","699175","0.0-141.0-0.0","06597944","wem/bandit_either","A3JSZTNJ469AF2","either","8","","","","","","","0","0","1","","0.1377203561","0.6","0.2","0.8","0.4","0.3551890872","0.1377203561","0.2998391809","0.08055650644","","","","","","","","","","","74","J","1","","","102","main_expt"
"799","","bandit","181","701480","0.0-142.0-0.0","06597944","wem/bandit_either","A3JSZTNJ469AF2","either","8","","","","","","","0","0","1","0.2791823827","","0.6","0.2","0.8","0.4","","","","","0.3148404956","0.1285548106","0.2791823827","0.1040447627","","","","","","","75","K","2","","","103","main_expt"
"373","","bandit","182","703360","0.0-143.0-0.0","06597944","wem/bandit_either","A3JSZTNJ469AF2","either","8","","","","","","","0","0","1","0.3382769334","","0.6","0.2","0.8","0.4","","","","","0.3286912191","0.1555523735","0.3382769334","0.1143547335","","","","","","","75","K","2","","","104","main_expt"
"472","","bandit","183","705340","0.0-144.0-0.0","06597944","wem/bandit_either","A3JSZTNJ469AF2","either","8","","","","","","","0","0","1","0.3339697125","","0.6","0.2","0.8","0.4","","","","","0.298340497","0.1775592141","0.3339697125","0.1487676438","","","","","","","75","K","2","","","105","main_expt"
"517","","bandit","184","707365","0.0-145.0-0.0","06597944","wem/bandit_either","A3JSZTNJ469AF2","either","8","","","","","","","1","0","0","0.3124129253","","0.6","0.2","0.8","0.4","","","","","0.3504464386","0.2263451353","0.3124129253","0.152088545","","","","","","","75","K","2","","","106","main_expt"
"551","","bandit","185","709423","0.0-146.0-0.0","06597944","wem/bandit_either","A3JSZTNJ469AF2","either","8","","","","","","","0","0","1","0.3400683723","","0.6","0.2","0.8","0.4","","","","","0.3510410077","0.1679769802","0.3400683723","0.2406734145","","","","","","","75","K","2","","","107","main_expt"
"429","","bandit","186","711359","0.0-147.0-0.0","06597944","wem/bandit_either","A3JSZTNJ469AF2","either","8","","","","","","","0","0","1","0.3557340834","","0.6","0.2","0.8","0.4","","","","","0.3282766846","0.1999870147","0.3557340834","0.3048040024","","","","","","","75","K","2","","","108","main_expt"
"461","","bandit","187","713327","0.0-148.0-0.0","06597944","wem/bandit_either","A3JSZTNJ469AF2","either","8","","","","","","","1","0","0","0.3846418901","","0.6","0.2","0.8","0.4","","","","","0.3561186451","0.208992856","0.3846418901","0.3418503096","","","","","","","75","K","2","","","109","main_expt"
"271","","bandit","188","715105","0.0-149.0-0.0","06597944","wem/bandit_either","A3JSZTNJ469AF2","either","8","","","","","","","0","0","1","0.4057962062","","0.6","0.2","0.8","0.4","","","","","0.3576445865","0.1716040471","0.4057962062","0.3198501315","","","","","","","75","K","2","","","110","main_expt"
"338","","bandit","189","716949","0.0-150.0-0.0","06597944","wem/bandit_either","A3JSZTNJ469AF2","either","8","","","","","","","0","0","1","","0.3692451483","0.6","0.2","0.8","0.4","0.3377543854","0.08984071331","0.3692451483","0.3681534847","","","","","","","","","","","75","K","2","","","111","main_expt"
"439","","bandit","190","718896","0.0-151.0-0.0","06597944","wem/bandit_either","A3JSZTNJ469AF2","either","8","","","","","","","1","0","0","0.3577317973","","0.6","0.2","0.8","0.4","","","","","0.286234052","0.1243463141","0.3577317973","0.3757830796","","","","","","","75","K","2","","","112","main_expt"
"101","","bandit","191","720505","0.0-152.0-0.0","06597944","wem/bandit_either","A3JSZTNJ469AF2","either","8","","","","","","","0","0","1","0.3328808086","","0.6","0.2","0.8","0.4","","","","","0.1932674395","0.1433440675","0.3328808086","0.3838999828","","","","","","","75","K","2","","","113","main_expt"
"202","","bandit","192","722214","0.0-153.0-0.0","06597944","wem/bandit_either","A3JSZTNJ469AF2","either","8","","","","","","","1","0","0","0.3416979579","","0.6","0.2","0.8","0.4","","","","","0.2403040534","0.1510662198","0.3416979579","0.4157938717","","","","","","","75","K","2","","","114","main_expt"
"34","","bandit","193","723756","0.0-154.0-0.0","06597944","wem/bandit_either","A3JSZTNJ469AF2","either","8","","","","","","","0","1","0","","0.3377137281","0.6","0.2","0.8","0.4","0.254937398","0.09845245139","0.3377137281","0.4055870595","","","","","","","","","","","75","K","2","","","115","main_expt"
"68","","bandit","194","725331","0.0-155.0-0.0","06597944","wem/bandit_either","A3JSZTNJ469AF2","either","8","","","","","","","1","0","0","0.3039448029","","0.6","0.2","0.8","0.4","","","","","0.2605063941","0.107393795","0.3039448029","0.4161015278","","","","","","","75","K","2","","","116","main_expt"
"843","","bandit","195","727682","0.0-156.0-0.0","06597944","wem/bandit_either","A3JSZTNJ469AF2","either","8","","","","","","","0","0","1","0.2974336912","","0.6","0.2","0.8","0.4","","","","","0.2161328783","0.07879800556","0.2974336912","0.414877819","","","","","","","75","K","2","","","117","main_expt"
"359","","bandit","196","729549","0.0-157.0-0.0","06597944","wem/bandit_either","A3JSZTNJ469AF2","either","8","","","","","","","0","0","1","0.2651867246","","0.6","0.2","0.8","0.4","","","","","0.1931197841","0.08383735875","0.2651867246","0.3968259953","","","","","","","75","K","2","","","118","main_expt"
"574","","bandit","197","731631","0.0-158.0-0.0","06597944","wem/bandit_either","A3JSZTNJ469AF2","either","8","","","","","","","1","0","0","0.3131666206","","0.6","0.2","0.8","0.4","","","","","0.1638183597","0.1392474383","0.3131666206","0.4198241006","","","","","","","75","K","2","","","119","main_expt"
"483","","bandit","198","733622","0.0-159.0-0.0","06597944","wem/bandit_either","A3JSZTNJ469AF2","either","8","","","","","","","0","1","0","","0.358829095","0.6","0.2","0.8","0.4","0.1893282748","0.1649404926","0.358829095","0.4286088018","","","","","","","","","","","75","K","2","","","120","main_expt"
"316","","bandit","199","735445","0.0-160.0-0.0","06597944","wem/bandit_either","A3JSZTNJ469AF2","either","8","","","","","","","1","0","0","0.3189860171","","0.6","0.2","0.8","0.4","","","","","0.2290368179","0.1764152442","0.3189860171","0.4253829576","","","","","","","75","K","2","","","121","main_expt"
"1372","","bandit","200","738325","0.0-161.0-0.0","06597944","wem/bandit_either","A3JSZTNJ469AF2","either","8","","","","","","","1","0","0","0.3011672979","","0.6","0.2","0.8","0.4","","","","","0.2445441383","0.2092397698","0.3011672979","0.4235175979","","","","","","","75","K","2","","","122","main_expt"
"417","","bandit","201","740249","0.0-162.0-0.0","06597944","wem/bandit_either","A3JSZTNJ469AF2","either","8","","","","","","","0","0","1","","0.3037948063","0.6","0.2","0.8","0.4","0.2091075756","0.1884058447","0.3037948063","0.4182090072","","","","","","","","","","","75","K","2","","","123","main_expt"
"383","","bandit","202","742139","0.0-163.0-0.0","06597944","wem/bandit_either","A3JSZTNJ469AF2","either","8","","","","","","","1","0","0","0.2446200253","","0.6","0.2","0.8","0.4","","","","","0.2216111921","0.1876417206","0.2446200253","0.4356016004","","","","","","","75","K","2","","","124","main_expt"
"393","","bandit","203","744040","0.0-164.0-0.0","06597944","wem/bandit_either","A3JSZTNJ469AF2","either","8","","","","","","","0","0","1","0.2464628806","","0.6","0.2","0.8","0.4","","","","","0.1622020501","0.1890564589","0.2464628806","0.403953628","","","","","","","75","K","2","","","125","main_expt"
"394","","bandit","204","745941","0.0-165.0-0.0","06597944","wem/bandit_either","A3JSZTNJ469AF2","either","8","","","","","","","0","0","1","0.281169445","","0.6","0.2","0.8","0.4","","","","","0.173533554","0.1659850756","0.281169445","0.4020675328","","","","","","","75","K","2","","","126","main_expt"
"540","","bandit","205","747988","0.0-166.0-0.0","06597944","wem/bandit_either","A3JSZTNJ469AF2","either","8","","","","","","","0","0","1","","0.290080064","0.6","0.2","0.8","0.4","0.189829559","0.2006343121","0.290080064","0.338443572","","","","","","","","","","","75","K","2","","","127","main_expt"
"406","","bandit","206","749901","0.0-167.0-0.0","06597944","wem/bandit_either","A3JSZTNJ469AF2","either","8","","","","","","","1","0","0","0.3280989756","","0.6","0.2","0.8","0.4","","","","","0.1764696366","0.2637444583","0.3280989756","0.323123489","","","","","","","75","K","2","","","128","main_expt"
"530","","bandit","207","751937","0.0-168.0-0.0","06597944","wem/bandit_either","A3JSZTNJ469AF2","either","8","","","","","","","0","0","1","0.3052704822","","0.6","0.2","0.8","0.4","","","","","0.172709194","0.2783394686","0.3052704822","0.3615310162","","","","","","","75","K","2","","","129","main_expt"
"552","","bandit","208","753996","0.0-169.0-0.0","06597944","wem/bandit_either","A3JSZTNJ469AF2","either","8","","","","","","","1","0","0","0.314718742","","0.6","0.2","0.8","0.4","","","","","0.1407460215","0.2674474002","0.314718742","0.3667448715","","","","","","","75","K","2","","","130","main_expt"
"620","","bandit","209","756122","0.0-170.0-0.0","06597944","wem/bandit_either","A3JSZTNJ469AF2","either","8","","","","","","","0","0","1","0.2492347367","","0.6","0.2","0.8","0.4","","","","","0.143826562","0.2122920843","0.2492347367","0.341745941","","","","","","","75","K","2","","","131","main_expt"
"731","","bandit","210","758361","0.0-171.0-0.0","06597944","wem/bandit_either","A3JSZTNJ469AF2","either","8","","","","","","","0","0","1","0.2495736985","","0.6","0.2","0.8","0.4","","","","","0.1862992663","0.1969346152","0.2495736985","0.2615325727","","","","","","","75","K","2","","","132","main_expt"
"327","","bandit","211","760194","0.0-172.0-0.0","06597944","wem/bandit_either","A3JSZTNJ469AF2","either","8","","","","","","","0","1","0","","0.2487120015","0.6","0.2","0.8","0.4","0.185648564","0.1390835973","0.2487120015","0.27905624","","","","","","","","","","","75","K","2","","","133","main_expt"
"384","","bandit","212","762085","0.0-173.0-0.0","06597944","wem/bandit_either","A3JSZTNJ469AF2","either","8","","","","","","","0","0","1","0.3239420422","","0.6","0.2","0.8","0.4","","","","","0.2002276213","0.1437640715","0.3239420422","0.2751163123","","","","","","","75","K","2","","","134","main_expt"
"529","","bandit","213","764121","0.0-174.0-0.0","06597944","wem/bandit_either","A3JSZTNJ469AF2","either","8","","","","","","","0","0","1","0.3903525049","","0.6","0.2","0.8","0.4","","","","","0.2474552851","0.1175999949","0.3903525049","0.2586507773","","","","","","","75","K","2","","","135","main_expt"
"349","","bandit","214","765977","0.0-175.0-0.0","06597944","wem/bandit_either","A3JSZTNJ469AF2","either","8","","","","","","","1","0","0","0.3703049055","","0.6","0.2","0.8","0.4","","","","","0.2454982057","0.1108499649","0.3703049055","0.2385277364","","","","","","","75","K","2","","","136","main_expt"
"383","","bandit","215","767868","0.0-176.0-0.0","06597944","wem/bandit_either","A3JSZTNJ469AF2","either","8","","","","","","","0","0","1","0.3657944308","","0.6","0.2","0.8","0.4","","","","","0.2708690816","0.1208727618","0.3657944308","0.1935782534","","","","","","","75","K","2","","","137","main_expt"
"393","","bandit","216","769769","0.0-177.0-0.0","06597944","wem/bandit_either","A3JSZTNJ469AF2","either","8","","","","","","","0","0","1","0.3452946514","","0.6","0.2","0.8","0.4","","","","","0.2219039101","0.1098805161","0.3452946514","0.14087624","","","","","","","75","K","2","","","138","main_expt"
"1069","","bandit","217","772345","0.0-178.0-0.0","06597944","wem/bandit_either","A3JSZTNJ469AF2","either","8","","","","","","","0","0","1","0.3225052804","","0.6","0.2","0.8","0.4","","","","","0.2485571535","0.1359731218","0.3225052804","0.1340930794","","","","","","","75","K","2","","","139","main_expt"
"361","","bandit","218","774212","0.0-179.0-0.0","06597944","wem/bandit_either","A3JSZTNJ469AF2","either","8","","","","","","","1","0","0","0.2997250911","","0.6","0.2","0.8","0.4","","","","","0.2605640439","0.1419248406","0.2997250911","0.1170750994","","","","","","","75","K","2","","","140","main_expt"
"360","","bandit","219","776080","0.0-180.0-0.0","06597944","wem/bandit_either","A3JSZTNJ469AF2","either","8","","","","","","","1","0","0","0.311933389","","0.6","0.2","0.8","0.4","","","","","0.2260680923","0.1269577117","0.311933389","0.1316830279","","","","","","","75","K","2","","","141","main_expt"
"258","","bandit","220","777847","0.0-181.0-0.0","06597944","wem/bandit_either","A3JSZTNJ469AF2","either","8","","","","","","","1","0","0","0.3442568425","","0.6","0.2","0.8","0.4","","","","","0.2354846983","0.1073819056","0.3442568425","0.09490366034","","","","","","","75","K","2","","","142","main_expt"
"3522","","bandit","221","782876","0.0-182.0-0.0","06597944","wem/bandit_either","A3JSZTNJ469AF2","either","8","","","","","","","0","0","1","0.3117203045","","0.6","0.2","0.8","0.4","","","","","0.2089358464","0.1152767294","0.3117203045","0.1246024154","","","","","","","75","K","2","","","143","main_expt"
"505","","bandit","222","784889","0.0-183.0-0.0","06597944","wem/bandit_either","A3JSZTNJ469AF2","either","8","","","","","","","1","0","0","0.3080771123","","0.6","0.2","0.8","0.4","","","","","0.1844607625","0.1317444946","0.3080771123","0.1179874238","","","","","","","75","K","2","","","144","main_expt"
"698","","bandit","223","787094","0.0-184.0-0.0","06597944","wem/bandit_either","A3JSZTNJ469AF2","either","8","","","","","","","0","1","0","","0.3146876691","0.6","0.2","0.8","0.4","0.1940384654","0.1058600218","0.3146876691","0.1211842963","","","","","","","","","","","75","K","2","","","145","main_expt"
"191","","bandit","224","788793","0.0-185.0-0.0","06597944","wem/bandit_either","A3JSZTNJ469AF2","either","8","","","","","","","0","0","1","0.3526806189","","0.6","0.2","0.8","0.4","","","","","0.2532022814","0.1862633901","0.3526806189","0.06212451067","","","","","","","75","K","2","","","146","main_expt"
"393","","bandit","225","790693","0.0-186.0-0.0","06597944","wem/bandit_either","A3JSZTNJ469AF2","either","8","","","","","","","1","0","0","0.3859334927","","0.6","0.2","0.8","0.4","","","","","0.272856749","0.1944793183","0.3859334927","0.05826033827","","","","","","","75","K","2","","","147","main_expt"
"395","","bandit","226","792595","0.0-187.0-0.0","06597944","wem/bandit_either","A3JSZTNJ469AF2","either","8","","","","","","","1","0","0","0.4089873985","","0.6","0.2","0.8","0.4","","","","","0.2441255329","0.1572605535","0.4089873985","0.04847575149","","","","","","","75","K","2","","","148","main_expt"
"417","","bandit","227","794519","0.0-188.0-0.0","06597944","wem/bandit_either","A3JSZTNJ469AF2","either","8","","","","","","","0","0","1","0.3317076441","","0.6","0.2","0.8","0.4","","","","","0.2304797635","0.1632070519","0.3317076441","0.07397138717","","","","","","","75","K","2","","","149","main_expt"
"405","","bandit","228","796432","0.0-189.0-0.0","06597944","wem/bandit_either","A3JSZTNJ469AF2","either","8","","","","","","","0","0","1","0.2514439341","","0.6","0.2","0.8","0.4","","","","","0.2645424191","0.2162169298","0.2514439341","0.1178437277","","","","","","","75","K","2","","","150","main_expt"
"506","","bandit","229","798446","0.0-190.0-0.0","06597944","wem/bandit_either","A3JSZTNJ469AF2","either","8","","","","","","","0","0","1","0.2209696772","","0.6","0.2","0.8","0.4","","","","","0.2919476008","0.2806681102","0.2209696772","0.1116740648","","","","","","","75","K","2","","","151","main_expt"
"483","","bandit","230","800437","0.0-191.0-0.0","06597944","wem/bandit_either","A3JSZTNJ469AF2","either","8","","","","","","","0","0","1","0.09681320826","","0.6","0.2","0.8","0.4","","","","","0.3004198658","0.25223767","0.2004300668","0.09681320826","","","","","","","76","L","3","","","152","main_expt"
"461","","bandit","231","802405","0.0-192.0-0.0","06597944","wem/bandit_either","A3JSZTNJ469AF2","either","8","","","","","","","0","0","1","0.1162344283","","0.6","0.2","0.8","0.4","","","","","0.2910243242","0.2259503681","0.1803159607","0.1162344283","","","","","","","76","L","3","","","153","main_expt"
"540","","bandit","232","804453","0.0-193.0-0.0","06597944","wem/bandit_either","A3JSZTNJ469AF2","either","8","","","","","","","0","0","1","0.1441765144","","0.6","0.2","0.8","0.4","","","","","0.2858680692","0.2520515582","0.1793353988","0.1441765144","","","","","","","76","L","3","","","154","main_expt"
"484","","bandit","233","806445","0.0-194.0-0.0","06597944","wem/bandit_either","A3JSZTNJ469AF2","either","8","","","","","","","0","0","1","0.1506434262","","0.6","0.2","0.8","0.4","","","","","0.276906037","0.246895917","0.175125938","0.1506434262","","","","","","","76","L","3","","","155","main_expt"
"606","","bandit","234","808559","0.0-195.0-0.0","06597944","wem/bandit_either","A3JSZTNJ469AF2","either","8","","","","","","","0","0","1","0.1691825384","","0.6","0.2","0.8","0.4","","","","","0.3087514371","0.2067462234","0.19004546","0.1691825384","","","","","","","76","L","3","","","156","main_expt"
"382","","bandit","235","810449","0.0-196.0-0.0","06597944","wem/bandit_either","A3JSZTNJ469AF2","either","8","","","","","","","0","0","1","","0.1465267651","0.6","0.2","0.8","0.4","0.3400763937","0.1736677602","0.1538528063","0.1465267651","","","","","","","","","","","76","L","3","","","157","main_expt"
"529","","bandit","236","812485","0.0-197.0-0.0","06597944","wem/bandit_either","A3JSZTNJ469AF2","either","8","","","","","","","0","0","1","0.3388441277","","0.6","0.2","0.8","0.4","","","","","0.3388441277","0.2437422656","0.1624419901","0.1517260174","","","","","","","72","H","0","img/none_selected.jpg","","158","main_expt"
"417","","bandit","237","814408","0.0-198.0-0.0","06597944","wem/bandit_either","A3JSZTNJ469AF2","either","8","","","","","","","0","0","1","0.3496437485","","0.6","0.2","0.8","0.4","","","","","0.3496437485","0.2627628197","0.1749682205","0.143579764","","","","","","","72","H","0","img/none_selected.jpg","","159","main_expt"
"395","","bandit","238","816310","0.0-199.0-0.0","06597944","wem/bandit_either","A3JSZTNJ469AF2","either","8","","","","","","","1","0","0","0.3347491532","","0.6","0.2","0.8","0.4","","","","","0.3347491532","0.2532756584","0.2227833177","0.1701049762","","","","","","","72","H","0","img/none_selected.jpg","","160","main_expt"
"574","","bandit","239","818392","0.0-200.0-0.0","06597944","wem/bandit_either","A3JSZTNJ469AF2","either","8","","","","","","","0","0","1","","0.3036625801","0.6","0.2","0.8","0.4","0.3036625801","0.2846030245","0.1616195486","0.1596038406","","","","","","","","","","","72","H","0","img/none_selected.jpg","","161","main_expt"
"416","","bandit","240","820315","0.0-201.0-0.0","06597944","wem/bandit_either","A3JSZTNJ469AF2","either","8","","","","","","","0","0","1","","0.2735804545","0.6","0.2","0.8","0.4","0.2735804545","0.2480450928","0.1440802068","0.1186271452","","","","","","","","","","","72","H","0","img/none_selected.jpg","","162","main_expt"
"383","","bandit","241","822205","0.0-202.0-0.0","06597944","wem/bandit_either","A3JSZTNJ469AF2","either","8","","","","","","","0","0","1","","0.2219233964","0.6","0.2","0.8","0.4","0.2219233964","0.3217860246","0.1349250059","0.1460830151","","","","","","","","","","","72","H","0","img/none_selected.jpg","","163","main_expt"
"382","","bandit","242","824094","0.0-203.0-0.0","06597944","wem/bandit_either","A3JSZTNJ469AF2","either","8","","","","","","","1","0","0","0.2489701673","","0.6","0.2","0.8","0.4","","","","","0.2489701673","0.3528623486","0.1482528248","0.1924179555","","","","","","","72","H","0","img/none_selected.jpg","","164","main_expt"
"361","","bandit","243","825963","0.0-204.0-0.0","06597944","wem/bandit_either","A3JSZTNJ469AF2","either","8","","","","","","","1","0","0","0.2424219606","","0.6","0.2","0.8","0.4","","","","","0.2424219606","0.3113737792","0.1444116863","0.1909643941","","","","","","","72","H","0","img/none_selected.jpg","","165","main_expt"
"214","","bandit","244","827685","0.0-205.0-0.0","06597944","wem/bandit_either","A3JSZTNJ469AF2","either","8","","","","","","","0","0","1","0.1899742571","","0.6","0.2","0.8","0.4","","","","","0.1899742571","0.2820045276","0.1621449425","0.1917506842","","","","","","","72","H","0","img/none_selected.jpg","","166","main_expt"
"427","","bandit","245","829620","0.0-206.0-0.0","06597944","wem/bandit_either","A3JSZTNJ469AF2","either","8","","","","","","","1","0","0","0.2298880826","","0.6","0.2","0.8","0.4","","","","","0.2298880826","0.2539690707","0.1695256229","0.2238056512","","","","","","","72","H","0","img/none_selected.jpg","","167","main_expt"
"404","","bandit","246","831532","0.0-207.0-0.0","06597944","wem/bandit_either","A3JSZTNJ469AF2","either","8","","","","","","","0","0","1","","0.241220494","0.6","0.2","0.8","0.4","0.241220494","0.2177565821","0.1712445676","0.2132240521","","","","","","","","","","","72","H","0","img/none_selected.jpg","","168","main_expt"
"473","","bandit","247","833512","0.0-208.0-0.0","06597944","wem/bandit_either","A3JSZTNJ469AF2","either","8","","","","","","","0","0","1","","0.2113351254","0.6","0.2","0.8","0.4","0.2113351254","0.183214586","0.191079104","0.1363713625","","","","","","","","","","","72","H","0","img/none_selected.jpg","","169","main_expt"
"482","","bandit","248","835503","0.0-209.0-0.0","06597944","wem/bandit_either","A3JSZTNJ469AF2","either","8","","","","","","","1","0","0","0.2224744884","","0.6","0.2","0.8","0.4","","","","","0.2224744884","0.1757282231","0.2227666825","0.2007690262","","","","","","","72","H","0","img/none_selected.jpg","","170","main_expt"
"506","","bandit","249","837517","0.0-210.0-0.0","06597944","wem/bandit_either","A3JSZTNJ469AF2","either","8","","","","","","","0","0","1","","0.2719914804","0.6","0.2","0.8","0.4","0.262177911","0.1679331046","0.2719914804","0.1238998316","","","","","","","","","","","75","K","2","","","171","main_expt"
"449","","bandit","250","839475","0.0-211.0-0.0","06597944","wem/bandit_either","A3JSZTNJ469AF2","either","8","","","","","","","1","0","0","0.2330128459","","0.6","0.2","0.8","0.4","","","","","0.2822992514","0.14560319","0.2330128459","0.09746419185","","","","","","","75","K","2","","","172","main_expt"
"597","","bandit","251","841578","0.0-212.0-0.0","06597944","wem/bandit_either","A3JSZTNJ469AF2","either","8","","","","","","","0","0","1","","0.2545762091","0.6","0.2","0.8","0.4","0.2545762091","0.1341549344","0.2840251313","0.1018164217","","","","","","","","","","","72","H","0","img/none_selected.jpg","","173","main_expt"
"427","","bandit","252","843514","0.0-213.0-0.0","06597944","wem/bandit_either","A3JSZTNJ469AF2","either","8","","","","","","","0","0","1","0.2838184637","","0.6","0.2","0.8","0.4","","","","","0.2838184637","0.1471305278","0.2739042306","0.1401689619","","","","","","","72","H","0","img/none_selected.jpg","","174","main_expt"
"450","","bandit","253","845471","0.0-214.0-0.0","06597944","wem/bandit_either","A3JSZTNJ469AF2","either","8","","","","","","","0","0","1","","0.3002790513","0.6","0.2","0.8","0.4","0.3002790513","0.173963405","0.3444735506","0.1697524679","","","","","","","","","","","72","H","0","img/none_selected.jpg","","175","main_expt"
"585","","bandit","254","847563","0.0-215.0-0.0","06597944","wem/bandit_either","A3JSZTNJ469AF2","either","8","","","","","","","0","0","1","0.3223017316","","0.6","0.2","0.8","0.4","","","","","0.3771690292","0.1821857965","0.3223017316","0.1896898672","","","","","","","75","K","2","","","176","main_expt"
"608","","bandit","255","849679","0.0-216.0-0.0","06597944","wem/bandit_either","A3JSZTNJ469AF2","either","8","","","","","","","0","0","1","0.2964924158","","0.6","0.2","0.8","0.4","","","","","0.4047809956","0.1444884472","0.2964924158","0.2441254625","","","","","","","75","K","2","","","177","main_expt"
"472","","bandit","256","851658","0.0-217.0-0.0","06597944","wem/bandit_either","A3JSZTNJ469AF2","either","8","","","","","","","0","0","1","","0.1207783293","0.6","0.2","0.8","0.4","0.4344960837","0.1207783293","0.2780576925","0.2427722412","","","","","","","","","","","74","J","1","","","178","main_expt"
"551","","bandit","257","853716","0.0-218.0-0.0","06597944","wem/bandit_either","A3JSZTNJ469AF2","either","8","","","","","","","0","0","1","","0.111585665","0.6","0.2","0.8","0.4","0.4287912686","0.111585665","0.2859751729","0.2284650367","","","","","","","","","","","74","J","1","","","179","main_expt"
"416","","bandit","258","855640","0.0-219.0-0.0","06597944","wem/bandit_either","A3JSZTNJ469AF2","either","8","","","","","","","0","0","1","","0.06891525065","0.6","0.2","0.8","0.4","0.4294180747","0.06891525065","0.283533164","0.2694081366","","","","","","","","","","","74","J","1","","","180","main_expt"
"563","","bandit","259","857710","0.0-220.0-0.0","06597944","wem/bandit_either","A3JSZTNJ469AF2","either","8","","","","","","","0","0","1","","0.07407739619","0.6","0.2","0.8","0.4","0.3887332701","0.07407739619","0.2430023428","0.2471628034","","","","","","","","","","","74","J","1","","","181","main_expt"
"451","","bandit","260","859668","0.0-221.0-0.0","06597944","wem/bandit_either","A3JSZTNJ469AF2","either","8","","","","","","","0","0","1","","0.07501704201","0.6","0.2","0.8","0.4","0.3910635387","0.07501704201","0.223254837","0.275372354","","","","","","","","","","","74","J","1","","","182","main_expt"
"428","","bandit","261","861604","0.0-222.0-0.0","06597944","wem/bandit_either","A3JSZTNJ469AF2","either","8","","","","","","","0","0","1","","0.09354103142","0.6","0.2","0.8","0.4","0.3957792538","0.09354103142","0.2274286797","0.2378950907","","","","","","","","","","","74","J","1","","","183","main_expt"
"821","","bandit","262","863932","0.0-223.0-0.0","06597944","wem/bandit_either","A3JSZTNJ469AF2","either","8","","","","","","","0","1","0","","0.3777829694","0.6","0.2","0.8","0.4","0.3777829694","0.06673830493","0.2485964068","0.2611999536","","","","","","","","","","","72","H","0","img/none_selected.jpg","","184","main_expt"
"529","","bandit","263","865969","0.0-224.0-0.0","06597944","wem/bandit_either","A3JSZTNJ469AF2","either","8","","","","","","","0","0","1","0.4130939835","","0.6","0.2","0.8","0.4","","","","","0.4130939835","0.08617836821","0.2080173303","0.2799245071","","","","","","","72","H","0","img/none_selected.jpg","","185","main_expt"
"472","","bandit","264","867947","0.0-225.0-0.0","06597944","wem/bandit_either","A3JSZTNJ469AF2","either","8","","","","","","","0","0","1","","0.2275386122","0.6","0.2","0.8","0.4","0.376930599","0.05054014018","0.2538883687","0.2275386122","","","","","","","","","","","76","L","3","","","186","main_expt"
"1901","","bandit","265","871357","0.0-226.0-0.0","06597944","wem/bandit_either","A3JSZTNJ469AF2","either","8","","","","","","","0","0","1","0.2267652077","","0.6","0.2","0.8","0.4","","","","","0.3934592684","0.1101456656","0.2267652077","0.2558518805","","","","","","","75","K","2","","","187","main_expt"
"506","","bandit","266","873370","0.0-227.0-0.0","06597944","wem/bandit_either","A3JSZTNJ469AF2","either","8","","","","","","","0","0","1","0.2583789709","","0.6","0.2","0.8","0.4","","","","","0.4086060551","0.1076418148","0.2583789709","0.2757393749","","","","","","","75","K","2","","","188","main_expt"
"506","","bandit","267","875385","0.0-228.0-0.0","06597944","wem/bandit_either","A3JSZTNJ469AF2","either","8","","","","","","","0","0","1","0.2329768584","","0.6","0.2","0.8","0.4","","","","","0.447145564","0.1230456027","0.2329768584","0.3326758055","","","","","","","75","K","2","","","189","main_expt"
"764","","bandit","268","877658","0.0-229.0-0.0","06597944","wem/bandit_either","A3JSZTNJ469AF2","either","8","","","","","","","0","0","1","0.2002510669","","0.6","0.2","0.8","0.4","","","","","0.386091063","0.1872873117","0.2002510669","0.332927569","","","","","","","75","K","2","","","190","main_expt"
"708","","bandit","269","879872","0.0-230.0-0.0","06597944","wem/bandit_either","A3JSZTNJ469AF2","either","8","","","","","","","0","0","1","","0.2182600554","0.6","0.2","0.8","0.4","0.4221145333","0.1413073252","0.2182600554","0.3859199101","","","","","","","","","","","75","K","2","","","191","main_expt"
"259","","bandit","270","881640","0.0-231.0-0.0","06597944","wem/bandit_either","A3JSZTNJ469AF2","either","8","","","","","","","0","1","0","","0.3913199708","0.6","0.2","0.8","0.4","0.3913199708","0.1868627967","0.2681613901","0.392668484","","","","","","","","","","","72","H","0","img/none_selected.jpg","","192","main_expt"
"821","","bandit","271","883968","0.0-232.0-0.0","06597944","wem/bandit_either","A3JSZTNJ469AF2","either","8","","","","","","","1","0","0","0.4013624592","","0.6","0.2","0.8","0.4","","","","","0.4013624592","0.2312719224","0.3035027483","0.3789843676","","","","","","","72","H","0","img/none_selected.jpg","","193","main_expt"
"529","","bandit","272","886005","0.0-233.0-0.0","06597944","wem/bandit_either","A3JSZTNJ469AF2","either","8","","","","","","","0","1","0","","0.3668237699","0.6","0.2","0.8","0.4","0.3668237699","0.2585201677","0.275531754","0.3689216281","","","","","","","","","","","72","H","0","img/none_selected.jpg","","194","main_expt"
"370","","bandit","273","887883","0.0-234.0-0.0","06597944","wem/bandit_either","A3JSZTNJ469AF2","either","8","","","","","","","0","0","1","0.3856266791","","0.6","0.2","0.8","0.4","","","","","0.3856266791","0.2786104129","0.2716401532","0.4136905162","","","","","","","72","H","0","img/none_selected.jpg","","195","main_expt"
"674","","bandit","274","890066","0.0-235.0-0.0","06597944","wem/bandit_either","A3JSZTNJ469AF2","either","8","","","","","","","0","0","1","0.2814611543","","0.6","0.2","0.8","0.4","","","","","0.3702439493","0.2407834285","0.2814611543","0.4258575101","","","","","","","75","K","2","","","196","main_expt"
"461","","bandit","275","892035","0.0-236.0-0.0","06597944","wem/bandit_either","A3JSZTNJ469AF2","either","8","","","","","","","0","1","0","","0.2550568011","0.6","0.2","0.8","0.4","0.3665926528","0.2550568011","0.2588010394","0.3976178043","","","","","","","","","","","74","J","1","","","197","main_expt"
"618","","bandit","276","894161","0.0-237.0-0.0","06597944","wem/bandit_either","A3JSZTNJ469AF2","either","8","","","","","","","0","0","1","","0.3094863904","0.6","0.2","0.8","0.4","0.3432124584","0.3094863904","0.3094610495","0.3802378075","","","","","","","","","","","74","J","1","","","198","main_expt"
"415","","bandit","277","896085","0.0-238.0-0.0","06597944","wem/bandit_either","A3JSZTNJ469AF2","either","8","","","","","","","1","0","0","0.3012985694","","0.6","0.2","0.8","0.4","","","","","0.4096574544","0.3012985694","0.3139278769","0.3926800246","","","","","","","74","J","1","","","199","main_expt"
"494","","bandit","278","898088","0.0-239.0-0.0","06597944","wem/bandit_either","A3JSZTNJ469AF2","either","8","","","","","","","0","0","1","","0.3149132519","0.6","0.2","0.8","0.4","0.3799023259","0.3149132519","0.3459706187","0.3814844917","","","","","","","","","","","74","J","1","","","200","main_expt"
"337","","bandit","279","899933","0.0-240.0-0.0","06597944","wem/bandit_either","A3JSZTNJ469AF2","either","8","","","","","","","0","0","1","0.3236307962","","0.6","0.2","0.8","0.4","","","","","0.3513783521","0.3236307962","0.3038365479","0.3831630738","","","","","","","74","J","1","","","201","main_expt"
"234","","bandit","280","901675","0.0-241.0-0.0","06597944","wem/bandit_either","A3JSZTNJ469AF2","either","8","","","","","","","0","0","1","","0.3163717903","0.6","0.2","0.8","0.4","0.3439351057","0.3163717903","0.2964599608","0.3957430938","","","","","","","","","","","74","J","1","","","202","main_expt"
"360","","bandit","281","903544","0.0-242.0-0.0","06597944","wem/bandit_either","A3JSZTNJ469AF2","either","8","","","","","","","0","0","1","","0.3165936227","0.6","0.2","0.8","0.4","0.2615327891","0.3165936227","0.280336616","0.4175506619","","","","","","","","","","","74","J","1","","","203","main_expt"
"540","","bandit","282","905591","0.0-243.0-0.0","06597944","wem/bandit_either","A3JSZTNJ469AF2","either","8","","","","","","","0","1","0","","0.4356800279","0.6","0.2","0.8","0.4","0.2211517471","0.3166231072","0.262900641","0.4356800279","","","","","","","","","","","76","L","3","","","204","main_expt"
"428","","bandit","283","907527","0.0-244.0-0.0","06597944","wem/bandit_either","A3JSZTNJ469AF2","either","8","","","","","","","0","0","1","0.4342993254","","0.6","0.2","0.8","0.4","","","","","0.1955747294","0.2983153058","0.3403150927","0.4342993254","","","","","","","76","L","3","","","205","main_expt"
"471","","bandit","284","909506","0.0-245.0-0.0","06597944","wem/bandit_either","A3JSZTNJ469AF2","either","8","","","","","","","1","0","0","0.4515967499","","0.6","0.2","0.8","0.4","","","","","0.3137251184","0.255573156","0.3407188883","0.4515967499","","","","","","","76","L","3","","","206","main_expt"
"494","","bandit","285","911509","0.0-246.0-0.0","06597944","wem/bandit_either","A3JSZTNJ469AF2","either","8","","","","","","","0","1","0","","0.4559700358","0.6","0.2","0.8","0.4","0.2982459604","0.2816724171","0.2955601217","0.4559700358","","","","","","","","","","","76","L","3","","","207","main_expt"
"371","","bandit","286","913387","0.0-247.0-0.0","06597944","wem/bandit_either","A3JSZTNJ469AF2","either","8","","","","","","","1","0","0","0.4711787588","","0.6","0.2","0.8","0.4","","","","","0.2359404152","0.2462622089","0.2832193826","0.4711787588","","","","","","","76","L","3","","","208","main_expt"
"573","","bandit","287","915469","0.0-248.0-0.0","06597944","wem/bandit_either","A3JSZTNJ469AF2","either","8","","","","","","","0","0","1","","0.4859779177","0.6","0.2","0.8","0.4","0.2396635106","0.2608633631","0.25637755","0.4859779177","","","","","","","","","","","76","L","3","","","209","main_expt"
"460","","bandit","288","917438","0.0-249.0-0.0","06597944","wem/bandit_either","A3JSZTNJ469AF2","either","8","","","","","","","0","0","1","0.4798195452","","0.6","0.2","0.8","0.4","","","","","0.2320506775","0.2649708152","0.2500912527","0.4798195452","","","","","","","76","L","3","","","210","main_expt"
"414","","bandit","289","919362","0.0-250.0-0.0","06597944","wem/bandit_either","A3JSZTNJ469AF2","either","8","","","","","","","0","0","1","0.4754072522","","0.6","0.2","0.8","0.4","","","","","0.1894847828","0.2658594566","0.2481129288","0.4754072522","","","","","","","76","L","3","","","211","main_expt"
"426","","bandit","290","921297","0.0-251.0-0.0","06597944","wem/bandit_either","A3JSZTNJ469AF2","either","8","","","","","","","0","0","1","","0.4780703898","0.6","0.2","0.8","0.4","0.2330804604","0.2648449814","0.3192168596","0.4780703898","","","","","","","","","","","76","L","3","","","212","main_expt"
"448","","bandit","291","923255","0.0-252.0-0.0","06597944","wem/bandit_either","A3JSZTNJ469AF2","either","8","","","","","","","1","0","0","0.4883488692","","0.6","0.2","0.8","0.4","","","","","0.2484053244","0.286492297","0.2361953268","0.4883488692","","","","","","","76","L","3","","","213","main_expt"
"550","","bandit","292","925313","0.0-253.0-0.0","06597944","wem/bandit_either","A3JSZTNJ469AF2","either","8","","","","","","","0","0","1","","0.4872562331","0.6","0.2","0.8","0.4","0.2182548364","0.2540339129","0.2308921763","0.4872562331","","","","","","","","","","","76","L","3","","","214","main_expt"
"449","","bandit","293","927271","0.0-254.0-0.0","06597944","wem/bandit_either","A3JSZTNJ469AF2","either","8","","","","","","","1","0","0","0.4749609167","","0.6","0.2","0.8","0.4","","","","","0.1824073789","0.254651127","0.2161033537","0.4749609167","","","","","","","76","L","3","","","215","main_expt"
"1237","","bandit","294","930016","0.0-255.0-0.0","06597944","wem/bandit_either","A3JSZTNJ469AF2","either","8","","","","","","","0","0","1","","0.4798413464","0.6","0.2","0.8","0.4","0.1923730387","0.3140517816","0.1896756427","0.4798413464","","","","","","","","","","","76","L","3","","","216","main_expt"
"483","","bandit","295","932007","0.0-256.0-0.0","06597944","wem/bandit_either","A3JSZTNJ469AF2","either","8","","","","","","","0","1","0","","0.4865144435","0.6","0.2","0.8","0.4","0.2266612446","0.3338676317","0.1724286307","0.4865144435","","","","","","","","","","","76","L","3","","","217","main_expt"
"583","","bandit","296","934098","0.0-257.0-0.0","06597944","wem/bandit_either","A3JSZTNJ469AF2","either","8","","","","","","","0","0","1","","0.4789145001","0.6","0.2","0.8","0.4","0.1702705737","0.3397001125","0.161168334","0.4789145001","","","","","","","","","","","76","L","3","","","218","main_expt"
"471","","bandit","297","936080","0.0-258.0-0.0","06597944","wem/bandit_either","A3JSZTNJ469AF2","either","8","","","","","","","0","0","1","0.1159766116","","0.6","0.2","0.8","0.4","","","","","0.1159766116","0.2982528089","0.2021763003","0.4834748692","","","","","","","72","H","0","img/none_selected.jpg","","219","main_expt"
"437","","bandit","298","938026","0.0-259.0-0.0","06597944","wem/bandit_either","A3JSZTNJ469AF2","either","8","","","","","","","0","0","1","0.09529473055","","0.6","0.2","0.8","0.4","","","","","0.09529473055","0.2770934022","0.2142164272","0.4722371777","","","","","","","72","H","0","img/none_selected.jpg","","220","main_expt"
"437","","bandit","299","939971","0.0-260.0-0.0","06597944","wem/bandit_either","A3JSZTNJ469AF2","either","8","","","","","","","0","0","1","0.09060922323","","0.6","0.2","0.8","0.4","","","","","0.09060922323","0.2696770889","0.189068297","0.4654689219","","","","","","","72","H","0","img/none_selected.jpg","","221","main_expt"
"394","","bandit","300","941873","0.0-261.0-0.0","06597944","wem/bandit_either","A3JSZTNJ469AF2","either","8","","","","","","","0","0","1","","0.1250772464","0.6","0.2","0.8","0.4","0.1250772464","0.3103502417","0.2120997892","0.4533789701","","","","","","","","","","","72","H","0","img/none_selected.jpg","","222","main_expt"
"223","","bandit","301","943606","0.0-262.0-0.0","06597944","wem/bandit_either","A3JSZTNJ469AF2","either","8","","","","","","","0","1","0","","0.4473019993","0.6","0.2","0.8","0.4","0.1177235221","0.3477728299","0.1937664477","0.4473019993","","","","","","","","","","","76","L","3","","","223","main_expt"
"650","","bandit","302","945766","0.0-263.0-0.0","06597944","wem/bandit_either","A3JSZTNJ469AF2","either","8","","","","","","","0","0","1","0.4651086175","","0.6","0.2","0.8","0.4","","","","","0.1589673504","0.3230244909","0.2195846313","0.4651086175","","","","","","","76","L","3","","","224","main_expt"
"516","","bandit","303","947791","0.0-264.0-0.0","06597944","wem/bandit_either","A3JSZTNJ469AF2","either","8","","","","","","","0","0","1","0.4704934375","","0.6","0.2","0.8","0.4","","","","","0.1582937281","0.3641913847","0.1973587738","0.4704934375","","","","","","","76","L","3","","","225","main_expt"
"448","","bandit","304","949748","0.0-265.0-0.0","06597944","wem/bandit_either","A3JSZTNJ469AF2","either","8","","","","","","","0","0","1","","0.3211822138","0.6","0.2","0.8","0.4","0.1585786296","0.3211822138","0.2029059012","0.4545632724","","","","","","","","","","","74","J","1","","","226","main_expt"
"415","","bandit","305","951672","0.0-266.0-0.0","06597944","wem/bandit_either","A3JSZTNJ469AF2","either","8","","","","","","","1","0","0","0.1677618241","","0.6","0.2","0.8","0.4","","","","","0.1614007709","0.3318596792","0.1677618241","0.4313330006","","","","","","","75","K","2","","","227","main_expt"
"460","","bandit","306","953641","0.0-267.0-0.0","06597944","wem/bandit_either","A3JSZTNJ469AF2","either","8","","","","","","","0","0","1","0.2079318551","","0.6","0.2","0.8","0.4","","","","","0.1160982884","0.3715738924","0.2079318551","0.4253897179","","","","","","","75","K","2","","","228","main_expt"
"425","","bandit","307","955576","0.0-268.0-0.0","06597944","wem/bandit_either","A3JSZTNJ469AF2","either","8","","","","","","","1","0","0","0.1860779256","","0.6","0.2","0.8","0.4","","","","","0.1327168588","0.3571583743","0.1860779256","0.4416009531","","","","","","","75","K","2","","","229","main_expt"
"561","","bandit","308","957645","0.0-269.0-0.0","06597944","wem/bandit_either","A3JSZTNJ469AF2","either","8","","","","","","","0","0","1","","0.1294985144","0.6","0.2","0.8","0.4","0.1751239199","0.3455313741","0.1294985144","0.4612445757","","","","","","","","","","","75","K","2","","","230","main_expt"
"539","","bandit","309","959693","0.0-270.0-0.0","06597944","wem/bandit_either","A3JSZTNJ469AF2","either","8","","","","","","","0","0","1","0.1424139305","","0.6","0.2","0.8","0.4","","","","","0.2080149414","0.3114256563","0.1424139305","0.4455927364","","","","","","","75","K","2","","","231","main_expt"
"538","","bandit","310","961742","0.0-271.0-0.0","06597944","wem/bandit_either","A3JSZTNJ469AF2","either","8","","","","","","","0","0","1","0.1777617008","","0.6","0.2","0.8","0.4","","","","","0.2305008548","0.3127001645","0.1777617008","0.4449483857","","","","","","","75","K","2","","","232","main_expt"
"448","","bandit","311","963699","0.0-272.0-0.0","06597944","wem/bandit_either","A3JSZTNJ469AF2","either","8","","","","","","","0","0","1","","0.2953609795","0.6","0.2","0.8","0.4","0.2331895239","0.2953609795","0.1408291819","0.4570404202","","","","","","","","","","","74","J","1","","","233","main_expt"
"425","","bandit","312","965633","0.0-273.0-0.0","06597944","wem/bandit_either","A3JSZTNJ469AF2","either","8","","","","","","","0","0","1","0.09563300426","","0.6","0.2","0.8","0.4","","","","","0.2007149185","0.2743769666","0.09563300426","0.4785018613","","","","","","","75","K","2","","","234","main_expt"
"427","","bandit","313","967569","0.0-274.0-0.0","06597944","wem/bandit_either","A3JSZTNJ469AF2","either","8","","","","","","","0","0","1","","0.06508254785","0.6","0.2","0.8","0.4","0.1428876463","0.2842570603","0.06508254785","0.4708517218","","","","","","","","","","","75","K","2","","","235","main_expt"
"358","","bandit","314","969435","0.0-275.0-0.0","06597944","wem/bandit_either","A3JSZTNJ469AF2","either","8","","","","","","","0","0","1","0.05272484418","","0.6","0.2","0.8","0.4","","","","","0.1327756685","0.3536106974","0.05272484418","0.4721911582","","","","","","","75","K","2","","","236","main_expt"
"798","","bandit","315","971742","0.0-276.0-0.0","06597944","wem/bandit_either","A3JSZTNJ469AF2","either","8","","","","","","","0","0","1","0.05000735717","","0.6","0.2","0.8","0.4","","","","","0.1969646424","0.3777879982","0.05000735717","0.4567984566","","","","","","","75","K","2","","","237","main_expt"
"448","","bandit","316","973700","0.0-277.0-0.0","06597944","wem/bandit_either","A3JSZTNJ469AF2","either","8","","","","","","","0","1","0","","0.3819628943","0.6","0.2","0.8","0.4","0.2040955009","0.3819628943","0.03409798278","0.4601910044","","","","","","","","","","","74","J","1","","","238","main_expt"
"447","","bandit","317","975657","0.0-278.0-0.0","06597944","wem/bandit_either","A3JSZTNJ469AF2","either","8","","","","","","","0","0","1","","0.3590612953","0.6","0.2","0.8","0.4","0.1885012088","0.3590612953","0.03555143528","0.4663275819","","","","","","","","","","","74","J","1","","","239","main_expt"
"572","","bandit","318","977739","0.0-279.0-0.0","06597944","wem/bandit_either","A3JSZTNJ469AF2","either","8","","","","","","","0","1","0","","0.3943681209","0.6","0.2","0.8","0.4","0.1779850251","0.3943681209","0.06633834621","0.4781926851","","","","","","","","","","","74","J","1","","","240","main_expt"
"447","","bandit","319","979696","0.0-280.0-0.0","06597944","wem/bandit_either","A3JSZTNJ469AF2","either","8","","","","","","","1","0","0","0.4178476804","","0.6","0.2","0.8","0.4","","","","","0.2132761508","0.4178476804","0.0332650027","0.4813407325","","","","","","","74","J","1","","","241","main_expt"
"403","","bandit","320","981607","0.0-281.0-0.0","06597944","wem/bandit_either","A3JSZTNJ469AF2","either","8","","","","","","","0","1","0","","0.4083523659","0.6","0.2","0.8","0.4","0.2181708985","0.4083523659","0.03674005559","0.4758201438","","","","","","","","","","","74","J","1","","","242","main_expt"
"438","","bandit","321","983555","0.0-282.0-0.0","06597944","wem/bandit_either","A3JSZTNJ469AF2","either","8","","","","","","","0","0","1","","0.4107673147","0.6","0.2","0.8","0.4","0.1880751836","0.4107673147","0.02732183546","0.4739127226","","","","","","","","","","","74","J","1","","","243","main_expt"
"1068","","bandit","322","986132","0.0-283.0-0.0","06597944","wem/bandit_either","A3JSZTNJ469AF2","either","8","","","","","","","0","0","1","0.3914084711","","0.6","0.2","0.8","0.4","","","","","0.2693527465","0.3914084711","0.02742276317","0.4467527753","","","","","","","74","J","1","","","244","main_expt"
"459","","bandit","323","988100","0.0-284.0-0.0","06597944","wem/bandit_either","A3JSZTNJ469AF2","either","8","","","","","","","1","0","0","0.4117032301","","0.6","0.2","0.8","0.4","","","","","0.2474629182","0.4117032301","0.03322496416","0.4492118003","","","","","","","74","J","1","","","245","main_expt"
"661","","bandit","324","990270","0.0-285.0-0.0","06597944","wem/bandit_either","A3JSZTNJ469AF2","either","8","","","","","","","0","1","0","","0.4225436654","0.6","0.2","0.8","0.4","0.3019125269","0.4225436654","0.0538648904","0.4702058379","","","","","","","","","","","74","J","1","","","246","main_expt"
"358","","bandit","325","992138","0.0-286.0-0.0","06597944","wem/bandit_either","A3JSZTNJ469AF2","either","8","","","","","","","0","1","0","","0.4327875568","0.6","0.2","0.8","0.4","0.3013832462","0.4327875568","0.05538537946","0.4717010128","","","","","","","","","","","74","J","1","","","247","main_expt"
"482","","bandit","326","994128","0.0-287.0-0.0","06597944","wem/bandit_either","A3JSZTNJ469AF2","either","8","","","","","","","0","1","0","","0.4478523955","0.6","0.2","0.8","0.4","0.2917300956","0.4478523955","0.07377210468","0.4750055548","","","","","","","","","","","74","J","1","","","248","main_expt"
"438","","bandit","327","996076","0.0-288.0-0.0","06597944","wem/bandit_either","A3JSZTNJ469AF2","either","8","","","","","","","0","0","1","","0.4221620221","0.6","0.2","0.8","0.4","0.2976682537","0.4221620221","0.07098242635","0.4608113614","","","","","","","","","","","74","J","1","","","249","main_expt"
"549","","bandit","328","998135","0.0-289.0-0.0","06597944","wem/bandit_either","A3JSZTNJ469AF2","either","8","","","","","","","0","0","1","","0.3998447204","0.6","0.2","0.8","0.4","0.2921609534","0.3998447204","0.08291081884","0.4361301801","","","","","","","","","","","74","J","1","","","250","main_expt"
"392","","bandit","329","1000036","0.0-290.0-0.0","06597944","wem/bandit_either","A3JSZTNJ469AF2","either","8","","","","","","","0","0","1","0.4053116556","","0.6","0.2","0.8","0.4","","","","","0.3026336231","0.4053116556","0.07668358207","0.4203652199","","","","","","","74","J","1","","","251","main_expt"
"436","","bandit","330","1001982","0.0-291.0-0.0","06597944","wem/bandit_either","A3JSZTNJ469AF2","either","8","","","","","","","0","0","1","0.3780439072","","0.6","0.2","0.8","0.4","","","","","0.3303824841","0.3780439072","0.05892609675","0.4465363659","","","","","","","74","J","1","","","252","main_expt"
"448","","bandit","331","1003940","0.0-292.0-0.0","06597944","wem/bandit_either","A3JSZTNJ469AF2","either","8","","","","","","","1","0","0","0.4356020742","","0.6","0.2","0.8","0.4","","","","","0.3024212104","0.4356020742","0.05309255245","0.4480562975","","","","","","","74","J","1","","","253","main_expt"
