"rt","responses","trial_type","trial_index","time_elapsed","internal_node_id","subjID","study","MID","cond","drift","key_press","expt_phase","target","like","value","connected","respCharCode","respKey","respChoiceNum","respChoice","gems","bombs","no_reward","GemPrChosen","BombPrChosen","practice","trial_counter","WinPr_0","LosePr_0","trial_label","GainOverPainPr_0","WinPr_1","GainOverPainPr_1","LosePr_1","WinPr_2","GainOverPainPr_2","WinPr_3","GainOverPainPr_3","LosePr_2","LosePr_3","Q0","Q1","Q2","gender","age","ethnicity"
"4816","{""Q0"":""APXNY64HXO08K""}","survey-text","0","4826","0.0-0.0","08157512","wem/bandit_either","APXNY64HXO08K","either","8","","","","","","","","","","","","","","","","","","","","","","","","","","","","","","","","","","","",""
"7444","","text","1","13274","0.0-1.0","08157512","wem/bandit_either","APXNY64HXO08K","either","8","32","","","","","","","","","","","","","","","","","","","","","","","","","","","","","","","","","","",""
"7079","","text","2","20356","0.0-2.0","08157512","wem/bandit_either","APXNY64HXO08K","either","8","32","","","","","","","","","","","","","","","","","","","","","","","","","","","","","","","","","","",""
"12185","","text","3","32545","0.0-3.0","08157512","wem/bandit_either","APXNY64HXO08K","either","8","32","","","","","","","","","","","","","","","","","","","","","","","","","","","","","","","","","","",""
"28771","","text","4","61319","0.0-4.0","08157512","wem/bandit_either","APXNY64HXO08K","either","8","32","","","","","","","","","","","","","","","","","","","","","","","","","","","","","","","","","","",""
"8449","","text","5","69771","0.0-5.0","08157512","wem/bandit_either","APXNY64HXO08K","either","8","32","","","","","","","","","","","","","","","","","","","","","","","","","","","","","","","","","","",""
"5127","","text","6","74900","0.0-6.0","08157512","wem/bandit_either","APXNY64HXO08K","either","8","32","","","","","","","","","","","","","","","","","","","","","","","","","","","","","","","","","","",""
"4069","","text","7","78971","0.0-7.0","08157512","wem/bandit_either","APXNY64HXO08K","either","8","32","","","","","","","","","","","","","","","","","","","","","","","","","","","","","","","","","","",""
"9137","","identification","8","88148","0.0-8.0-0.0","08157512","wem/bandit_either","APXNY64HXO08K","either","8","","identification_pre","the village of Zur","3","4","3","","","","","","","","","","","","","","","","","","","","","","","","","","","","","",""
"7104","","identification","9","96270","0.0-8.0-1.0","08157512","wem/bandit_either","APXNY64HXO08K","either","8","","identification_pre","the village of Nyx","3","3","3","","","","","","","","","","","","","","","","","","","","","","","","","","","","","",""
"4916","","text","10","102190","0.0-9.0","08157512","wem/bandit_either","APXNY64HXO08K","either","8","32","","","","","","","","","","","","","","","","","","","","","","","","","","","","","","","","","","",""
"3201","","text","11","105394","0.0-10.0","08157512","wem/bandit_either","APXNY64HXO08K","either","8","32","","","","","","","","","","","","","","","","","","","","","","","","","","","","","","","","","","",""
"1807","","text","12","107203","0.0-11.0","08157512","wem/bandit_either","APXNY64HXO08K","either","8","32","","","","","","","","","","","","","","","","","","","","","","","","","","","","","","","","","","",""
"3170","","text","13","110375","0.0-12.0","08157512","wem/bandit_either","APXNY64HXO08K","either","8","32","","","","","","","","","","","","","","","","","","","","","","","","","","","","","","","","","","",""
"4334","","bandit","14","116228","0.0-13.0-0.0","08157512","wem/bandit_either","APXNY64HXO08K","either","8","","","","","","","74","J","0","img/none_selected_demo.jpg","0","0","1","0","0","true","0","0","0","","","","","","","","","","","","","","","","",""
"763","","bandit","15","118503","0.0-14.0-0.0","08157512","wem/bandit_either","APXNY64HXO08K","either","8","","","","","","","75","K","0","img/none_selected_demo.jpg","0","0","1","0","0","true","0","0","0","","","","","","","","","","","","","","","","",""
"36632","","text","16","155138","0.0-15.0","08157512","wem/bandit_either","APXNY64HXO08K","either","8","32","","","","","","","","","","","","","","","","","","","","","","","","","","","","","","","","","","",""
"28209","","text","17","183349","0.0-16.0","08157512","wem/bandit_either","APXNY64HXO08K","either","8","32","","","","","","","","","","","","","","","","","","","","","","","","","","","","","","","","","","",""
"4569","","text","18","187920","0.0-17.0","08157512","wem/bandit_either","APXNY64HXO08K","either","8","32","","","","","","","","","","","","","","","","","","","","","","","","","","","","","","","","","","",""
"2092","","text","19","190015","0.0-18.0","08157512","wem/bandit_either","APXNY64HXO08K","either","8","32","","","","","","","","","","","","","","","","","","","","","","","","","","","","","","","","","","",""
"4976","","bandit","20","196504","0.0-19.0-0.0","08157512","wem/bandit_either","APXNY64HXO08K","either","8","","","","","","","74","J","0","img/none_selected_demo.jpg","1","0","0","0.8","","true","0","0.8","","80_20_practice","0.5","0.2","0.5","","","","","","","","","","","","",""
"776","","bandit","21","198792","0.0-19.0-1.0","08157512","wem/bandit_either","APXNY64HXO08K","either","8","","","","","","","74","J","0","img/none_selected_demo.jpg","1","0","0","0.8","","true","0","0.8","","80_20_practice","0.5","0.2","0.5","","","","","","","","","","","","",""
"1015","","bandit","22","201319","0.0-19.0-2.0","08157512","wem/bandit_either","APXNY64HXO08K","either","8","","","","","","","74","J","0","img/none_selected_demo.jpg","0","1","0","","0.8","true","0","","0.8","80_20_practice","0.5","","0.5","0.2","","","","","","","","","","","",""
"730","","bandit","23","203559","0.0-19.0-3.0","08157512","wem/bandit_either","APXNY64HXO08K","either","8","","","","","","","74","J","0","img/none_selected_demo.jpg","0","1","0","","0.8","true","0","","0.8","80_20_practice","0.5","","0.5","0.2","","","","","","","","","","","",""
"580","","bandit","24","205655","0.0-19.0-4.0","08157512","wem/bandit_either","APXNY64HXO08K","either","8","","","","","","","74","J","0","img/none_selected_demo.jpg","0","1","0","","0.8","true","0","","0.8","80_20_practice","0.5","","0.5","0.2","","","","","","","","","","","",""
"508","","bandit","25","207673","0.0-19.0-5.0","08157512","wem/bandit_either","APXNY64HXO08K","either","8","","","","","","","74","J","0","img/none_selected_demo.jpg","1","0","0","0.8","","true","0","0.8","","80_20_practice","0.5","0.2","0.5","","","","","","","","","","","","",""
"474","","bandit","26","209656","0.0-19.0-6.0","08157512","wem/bandit_either","APXNY64HXO08K","either","8","","","","","","","74","J","0","img/none_selected_demo.jpg","0","1","0","","0.8","true","0","","0.8","80_20_practice","0.5","","0.5","0.2","","","","","","","","","","","",""
"604","","bandit","27","211771","0.0-19.0-7.0","08157512","wem/bandit_either","APXNY64HXO08K","either","8","","","","","","","74","J","0","img/none_selected_demo.jpg","1","0","0","0.8","","true","0","0.8","","80_20_practice","0.5","0.2","0.5","","","","","","","","","","","","",""
"681","","bandit","28","213963","0.0-19.0-8.0","08157512","wem/bandit_either","APXNY64HXO08K","either","8","","","","","","","74","J","0","img/none_selected_demo.jpg","0","1","0","","0.8","true","0","","0.8","80_20_practice","0.5","","0.5","0.2","","","","","","","","","","","",""
"993","","bandit","29","216469","0.0-19.0-9.0","08157512","wem/bandit_either","APXNY64HXO08K","either","8","","","","","","","74","J","0","img/none_selected_demo.jpg","0","1","0","","0.8","true","0","","0.8","80_20_practice","0.5","","0.5","0.2","","","","","","","","","","","",""
"653","","bandit","30","218634","0.0-19.0-10.0","08157512","wem/bandit_either","APXNY64HXO08K","either","8","","","","","","","74","J","0","img/none_selected_demo.jpg","1","0","0","0.8","","true","0","0.8","","80_20_practice","0.5","0.2","0.5","","","","","","","","","","","","",""
"1200","","bandit","31","221343","0.0-19.0-11.0","08157512","wem/bandit_either","APXNY64HXO08K","either","8","","","","","","","74","J","0","img/none_selected_demo.jpg","0","1","0","","0.8","true","0","","0.8","80_20_practice","0.5","","0.5","0.2","","","","","","","","","","","",""
"546","","bandit","32","223399","0.0-19.0-12.0","08157512","wem/bandit_either","APXNY64HXO08K","either","8","","","","","","","74","J","0","img/none_selected_demo.jpg","1","0","0","0.8","","true","0","0.8","","80_20_practice","0.5","0.2","0.5","","","","","","","","","","","","",""
"1653","","bandit","33","226568","0.0-19.0-13.0","08157512","wem/bandit_either","APXNY64HXO08K","either","8","","","","","","","74","J","0","img/none_selected_demo.jpg","1","0","0","0.8","","true","0","0.8","","80_20_practice","0.5","0.2","0.5","","","","","","","","","","","","",""
"1629","","bandit","34","229714","0.0-19.0-14.0","08157512","wem/bandit_either","APXNY64HXO08K","either","8","","","","","","","74","J","0","img/none_selected_demo.jpg","0","0","1","","0.8","true","0","","0.8","80_20_practice","0.5","","0.5","0.2","","","","","","","","","","","",""
"526","","bandit","35","231750","0.0-19.0-15.0","08157512","wem/bandit_either","APXNY64HXO08K","either","8","","","","","","","75","K","1","","1","0","0","0.2","","true","0","0.8","","80_20_practice","0.5","0.2","0.5","","","","","","","","","","","","",""
"318","","bandit","36","233580","0.0-19.0-16.0","08157512","wem/bandit_either","APXNY64HXO08K","either","8","","","","","","","75","K","1","","0","1","0","","0.2","true","0","","0.8","80_20_practice","0.5","","0.5","0.2","","","","","","","","","","","",""
"477","","bandit","37","235568","0.0-19.0-17.0","08157512","wem/bandit_either","APXNY64HXO08K","either","8","","","","","","","75","K","1","","1","0","0","0.2","","true","0","0.8","","80_20_practice","0.5","0.2","0.5","","","","","","","","","","","","",""
"455","","bandit","38","237536","0.0-19.0-18.0","08157512","wem/bandit_either","APXNY64HXO08K","either","8","","","","","","","75","K","1","","0","0","1","0.2","","true","0","0.8","","80_20_practice","0.5","0.2","0.5","","","","","","","","","","","","",""
"387","","bandit","39","239439","0.0-19.0-19.0","08157512","wem/bandit_either","APXNY64HXO08K","either","8","","","","","","","74","J","0","img/none_selected_demo.jpg","0","1","0","","0.8","true","0","","0.8","80_20_practice","0.5","","0.5","0.2","","","","","","","","","","","",""
"6826","","text","40","246271","0.0-20.0","08157512","wem/bandit_either","APXNY64HXO08K","either","8","32","","","","","","","","","","","","","","","","","","","","","","","","","","","","","","","","","","",""
"2658","","bandit","41","250441","0.0-21.0-0.0","08157512","wem/bandit_either","APXNY64HXO08K","either","8","","","","","","","74","J","0","img/none_selected_demo.jpg","1","0","0","1","0","true","0","1","0","","","0","","1","","","","","","","","","","","",""
"4504","","text","42","254949","0.0-22.0","08157512","wem/bandit_either","APXNY64HXO08K","either","8","32","","","","","","","","","","","","","","","","","","","","","","","","","","","","","","","","","","",""
"2112","","text","43","257064","0.0-23.0","08157512","wem/bandit_either","APXNY64HXO08K","either","8","32","","","","","","","","","","","","","","","","","","","","","","","","","","","","","","","","","","",""
"2540","","text","44","259608","0.0-24.0","08157512","wem/bandit_either","APXNY64HXO08K","either","8","32","","","","","","","","","","","","","","","","","","","","","","","","","","","","","","","","","","",""
"2321","","text","45","261931","0.0-25.0","08157512","wem/bandit_either","APXNY64HXO08K","either","8","32","","","","","","","","","","","","","","","","","","","","","","","","","","","","","","","","","","",""
"5151","","text","46","267086","0.0-26.0","08157512","wem/bandit_either","APXNY64HXO08K","either","8","32","","","","","","","","","","","","","","","","","","","","","","","","","","","","","","","","","","",""
"2628","","text","47","269717","0.0-27.0","08157512","wem/bandit_either","APXNY64HXO08K","either","8","32","","","","","","","","","","","","","","","","","","","","","","","","","","","","","","","","","","",""
"3384","","text","48","273107","0.0-28.0","08157512","wem/bandit_either","APXNY64HXO08K","either","8","32","","","","","","","","","","","","","","","","","","","","","","","","","","","","","","","","","","",""
"3909","","text","49","277019","0.0-29.0","08157512","wem/bandit_either","APXNY64HXO08K","either","8","32","","","","","","","","","","","","","","","","","","","","","","","","","","","","","","","","","","",""
"4640","","text","50","281663","0.0-30.0","08157512","wem/bandit_either","APXNY64HXO08K","either","8","32","","","","","","","","","","","","","","","","","","","","","","","","","","","","","","","","","","",""
"2275","","text","51","283942","0.0-31.0","08157512","wem/bandit_either","APXNY64HXO08K","either","8","32","","","","","","","","","","","","","","","","","","","","","","","","","","","","","","","","","","",""
"5003","","text","52","288952","0.0-32.0","08157512","wem/bandit_either","APXNY64HXO08K","either","8","32","","","","","","","","","","","","","","","","","","","","","","","","","","","","","","","","","","",""
"1316","","bandit","53","291781","0.0-33.0-0.0","08157512","wem/bandit_either","APXNY64HXO08K","either","8","","","","","","","74","J","1","","1","0","0","0.2","","true","0","0.8","","full_practice","0.5","0.2","0.5","","0.6","0.5","0.2","0.5","","","","","","","",""
"874","","bandit","54","294167","0.0-33.0-1.0","08157512","wem/bandit_either","APXNY64HXO08K","either","8","","","","","","","74","J","1","","0","0","1","0.2","","true","0","0.8","","full_practice","0.5","0.2","0.5","","0.6","0.5","0.2","0.5","","","","","","","",""
"373","","bandit","55","296054","0.0-33.0-2.0","08157512","wem/bandit_either","APXNY64HXO08K","either","8","","","","","","","75","K","2","","1","0","0","0.6","","true","0","0.8","","full_practice","0.5","0.2","0.5","","0.6","0.5","0.2","0.5","","","","","","","",""
"361","","bandit","56","297930","0.0-33.0-3.0","08157512","wem/bandit_either","APXNY64HXO08K","either","8","","","","","","","75","K","2","","1","0","0","0.6","","true","0","0.8","","full_practice","0.5","0.2","0.5","","0.6","0.5","0.2","0.5","","","","","","","",""
"547","","bandit","57","299994","0.0-33.0-4.0","08157512","wem/bandit_either","APXNY64HXO08K","either","8","","","","","","","75","K","2","","0","1","0","","0.6","true","0","","0.8","full_practice","0.5","","0.5","0.2","","0.5","","0.5","0.6","0.2","","","","","",""
"339","","bandit","58","301847","0.0-33.0-5.0","08157512","wem/bandit_either","APXNY64HXO08K","either","8","","","","","","","75","K","2","","0","1","0","","0.6","true","0","","0.8","full_practice","0.5","","0.5","0.2","","0.5","","0.5","0.6","0.2","","","","","",""
"528","","bandit","59","303889","0.0-33.0-6.0","08157512","wem/bandit_either","APXNY64HXO08K","either","8","","","","","","","75","K","2","","0","0","1","","0.6","true","0","","0.8","full_practice","0.5","","0.5","0.2","","0.5","","0.5","0.6","0.2","","","","","",""
"368","","bandit","60","305769","0.0-33.0-7.0","08157512","wem/bandit_either","APXNY64HXO08K","either","8","","","","","","","76","L","3","","0","0","1","0.2","","true","0","0.8","","full_practice","0.5","0.2","0.5","","0.6","0.5","0.2","0.5","","","","","","","",""
"574","","bandit","61","307859","0.0-33.0-8.0","08157512","wem/bandit_either","APXNY64HXO08K","either","8","","","","","","","75","K","2","","0","0","1","","0.6","true","0","","0.8","full_practice","0.5","","0.5","0.2","","0.5","","0.5","0.6","0.2","","","","","",""
"1059","","bandit","62","310430","0.0-33.0-9.0","08157512","wem/bandit_either","APXNY64HXO08K","either","8","","","","","","","72","H","0","img/none_selected.jpg","0","1","0","","0.8","true","0","","0.8","full_practice","0.5","","0.5","0.2","","0.5","","0.5","0.6","0.2","","","","","",""
"360","","bandit","63","312306","0.0-33.0-10.0","08157512","wem/bandit_either","APXNY64HXO08K","either","8","","","","","","","72","H","0","img/none_selected.jpg","0","1","0","","0.8","true","0","","0.8","full_practice","0.5","","0.5","0.2","","0.5","","0.5","0.6","0.2","","","","","",""
"631","","bandit","64","314450","0.0-33.0-11.0","08157512","wem/bandit_either","APXNY64HXO08K","either","8","","","","","","","72","H","0","img/none_selected.jpg","1","0","0","0.8","","true","0","0.8","","full_practice","0.5","0.2","0.5","","0.6","0.5","0.2","0.5","","","","","","","",""
"1026","","bandit","65","316991","0.0-33.0-12.0","08157512","wem/bandit_either","APXNY64HXO08K","either","8","","","","","","","72","H","0","img/none_selected.jpg","0","0","1","","0.8","true","0","","0.8","full_practice","0.5","","0.5","0.2","","0.5","","0.5","0.6","0.2","","","","","",""
"346","","bandit","66","318851","0.0-33.0-13.0","08157512","wem/bandit_either","APXNY64HXO08K","either","8","","","","","","","74","J","1","","0","1","0","","0.2","true","0","","0.8","full_practice","0.5","","0.5","0.2","","0.5","","0.5","0.6","0.2","","","","","",""
"1301","","bandit","67","321664","0.0-33.0-14.0","08157512","wem/bandit_either","APXNY64HXO08K","either","8","","","","","","","74","J","1","","1","0","0","0.2","","true","0","0.8","","full_practice","0.5","0.2","0.5","","0.6","0.5","0.2","0.5","","","","","","","",""
"938","","bandit","68","324114","0.0-33.0-15.0","08157512","wem/bandit_either","APXNY64HXO08K","either","8","","","","","","","74","J","1","","0","0","1","0.2","","true","0","0.8","","full_practice","0.5","0.2","0.5","","0.6","0.5","0.2","0.5","","","","","","","",""
"64","","bandit","69","325693","0.0-33.0-16.0","08157512","wem/bandit_either","APXNY64HXO08K","either","8","","","","","","","75","K","2","","1","0","0","0.6","","true","0","0.8","","full_practice","0.5","0.2","0.5","","0.6","0.5","0.2","0.5","","","","","","","",""
"1588","","bandit","70","328793","0.0-33.0-17.0","08157512","wem/bandit_either","APXNY64HXO08K","either","8","","","","","","","75","K","2","","0","0","1","","0.6","true","0","","0.8","full_practice","0.5","","0.5","0.2","","0.5","","0.5","0.6","0.2","","","","","",""
"709","","bandit","71","331017","0.0-33.0-18.0","08157512","wem/bandit_either","APXNY64HXO08K","either","8","","","","","","","76","L","3","","0","0","1","","0.2","true","0","","0.8","full_practice","0.5","","0.5","0.2","","0.5","","0.5","0.6","0.2","","","","","",""
"163","","bandit","72","332692","0.0-33.0-19.0","08157512","wem/bandit_either","APXNY64HXO08K","either","8","","","","","","","75","K","2","","0","0","1","0.6","","true","0","0.8","","full_practice","0.5","0.2","0.5","","0.6","0.5","0.2","0.5","","","","","","","",""
"2479","","text","73","335188","0.0-34.0","08157512","wem/bandit_either","APXNY64HXO08K","either","8","32","","","","","","","","","","","","","","","","","","","","","","","","","","","","","","","","","","",""
"30159","","text","74","366353","0.0-35.0","08157512","wem/bandit_either","APXNY64HXO08K","either","8","32","","","","","","","","","","","","","","","","","","","","","","","","","","","","","","","","","","",""
"8092","","text","75","374450","0.0-36.0","08157512","wem/bandit_either","APXNY64HXO08K","either","8","32","","","","","","","","","","","","","","","","","","","","","","","","","","","","","","","","","","",""
"38727","","text","76","413182","0.0-37.0","08157512","wem/bandit_either","APXNY64HXO08K","either","8","32","","","","","","","","","","","","","","","","","","","","","","","","","","","","","","","","","","",""
"4242","","text","77","417427","0.0-38.0","08157512","wem/bandit_either","APXNY64HXO08K","either","8","32","","","","","","","","","","","","","","","","","","","","","","","","","","","","","","","","","","",""
"59238","","text","78","476668","0.0-39.0","08157512","wem/bandit_either","APXNY64HXO08K","either","8","32","","","","","","","","","","","","","","","","","","","","","","","","","","","","","","","","","","",""
"4110","","bandit","79","482291","0.0-40.0-0.0","08157512","wem/bandit_either","APXNY64HXO08K","either","8","","","","","","","74","J","1","","0","0","1","","0.1351790469","","1","","0.2637293772","main_expt","0.4","","0.6","0.1351790469","","0.2","","0.8","0.3540548627","0.2928194041","","","","","",""
"468","","bandit","80","484273","0.0-41.0-0.0","08157512","wem/bandit_either","APXNY64HXO08K","either","8","","","","","","","75","K","2","","0","1","0","","0.3812516843","","2","","0.2760013096","main_expt","0.4","","0.6","0.125602744","","0.2","","0.8","0.3812516843","0.3040419902","","","","","",""
"379","","bandit","81","486164","0.0-42.0-0.0","08157512","wem/bandit_either","APXNY64HXO08K","either","8","","","","","","","75","K","2","","0","0","1","","0.3901316494","","3","","0.3240499928","main_expt","0.4","","0.6","0.09574082279","","0.2","","0.8","0.3901316494","0.2875251023","","","","","",""
"840","","bandit","82","488516","0.0-43.0-0.0","08157512","wem/bandit_either","APXNY64HXO08K","either","8","","","","","","","76","L","3","","0","0","1","0.2965567903","","","4","0.3510822359","","main_expt","0.4","0.0913382225","0.6","","0.3945399471","0.2","0.2965567903","0.8","","","","","","","",""
"323","","bandit","83","490353","0.0-44.0-0.0","08157512","wem/bandit_either","APXNY64HXO08K","either","8","","","","","","","75","K","2","","0","1","0","","0.3997977613","","5","","0.3522827721","main_expt","0.4","","0.6","0.106177601","","0.2","","0.8","0.3997977613","0.2681113314","","","","","",""
"363","","bandit","84","492230","0.0-45.0-0.0","08157512","wem/bandit_either","APXNY64HXO08K","either","8","","","","","","","75","K","2","","0","0","1","","0.390783501","","6","","0.382674005","main_expt","0.4","","0.6","0.08998955495","","0.2","","0.8","0.390783501","0.2330443498","","","","","",""
"264","","bandit","85","494009","0.0-46.0-0.0","08157512","wem/bandit_either","APXNY64HXO08K","either","8","","","","","","","74","J","1","","1","0","0","0.1077526668","","","7","0.3998463606","","main_expt","0.4","0.1077526668","0.6","","0.3305693427","0.2","0.1630509172","0.8","","","","","","","",""
"396","","bandit","86","495919","0.0-47.0-0.0","08157512","wem/bandit_either","APXNY64HXO08K","either","8","","","","","","","74","J","1","","0","0","1","","0.1243697388","","8","","0.3832029687","main_expt","0.4","","0.6","0.1243697388","","0.2","","0.8","0.3056545716","0.2002468685","","","","","",""
"1059","","bandit","87","498493","0.0-48.0-0.0","08157512","wem/bandit_either","APXNY64HXO08K","either","8","","","","","","","72","H","0","img/none_selected.jpg","0","0","1","","0.3796681134","","9","","0.3796681134","main_expt","0.4","","0.6","0.1698108096","","0.2","","0.8","0.3278889804","0.1835034381","","","","","",""
"426","","bandit","88","500431","0.0-49.0-0.0","08157512","wem/bandit_either","APXNY64HXO08K","either","8","","","","","","","75","K","2","","0","0","1","","0.3137855556","","10","","0.3614311416","main_expt","0.4","","0.6","0.221757114","","0.2","","0.8","0.3137855556","0.1939723001","","","","","",""
"629","","bandit","89","502574","0.0-50.0-0.0","08157512","wem/bandit_either","APXNY64HXO08K","either","8","","","","","","","72","H","0","img/none_selected.jpg","0","1","0","","0.3938737051","","11","","0.3938737051","main_expt","0.4","","0.6","0.1961062924","","0.2","","0.8","0.3253079181","0.1949806013","","","","","",""
"598","","bandit","90","504684","0.0-51.0-0.0","08157512","wem/bandit_either","APXNY64HXO08K","either","8","","","","","","","72","H","0","img/none_selected.jpg","0","0","1","","0.3810544723","","12","","0.3810544723","main_expt","0.4","","0.6","0.1907056259","","0.2","","0.8","0.3298150516","0.2587943474","","","","","",""
"711","","bandit","91","506909","0.0-52.0-0.0","08157512","wem/bandit_either","APXNY64HXO08K","either","8","","","","","","","72","H","0","img/none_selected.jpg","0","0","1","0.3707046684","","","13","0.3707046684","","main_expt","0.4","0.2162865666","0.6","","0.3673307406","0.2","0.3085985727","0.8","","","","","","","",""
"896","","bandit","92","509319","0.0-53.0-0.0","08157512","wem/bandit_either","APXNY64HXO08K","either","8","","","","","","","76","L","3","","1","0","0","0.2464992766","","","14","0.3486531997","","main_expt","0.4","0.2399362825","0.6","","0.3679224674","0.2","0.2464992766","0.8","","","","","","","",""
"502","","bandit","93","511339","0.0-54.0-0.0","08157512","wem/bandit_either","APXNY64HXO08K","either","8","","","","","","","76","L","3","","0","0","1","","0.2474611475","","15","","0.3263578384","main_expt","0.4","","0.6","0.1986859052","","0.2","","0.8","0.3062507314","0.2474611475","","","","","",""
"673","","bandit","94","513527","0.0-55.0-0.0","08157512","wem/bandit_either","APXNY64HXO08K","either","8","","","","","","","75","K","2","","0","1","0","","0.2892976033","","16","","0.3514189979","main_expt","0.4","","0.6","0.1865641621","","0.2","","0.8","0.2892976033","0.2835538477","","","","","",""
"611","","bandit","95","515654","0.0-56.0-0.0","08157512","wem/bandit_either","APXNY64HXO08K","either","8","","","","","","","75","K","2","","0","0","1","","0.2861796528","","17","","0.3532592314","main_expt","0.4","","0.6","0.2035525071","","0.2","","0.8","0.2861796528","0.3256112075","","","","","",""
"322","","bandit","96","517491","0.0-57.0-0.0","08157512","wem/bandit_either","APXNY64HXO08K","either","8","","","","","","","74","J","1","","0","0","1","","0.2039336531","","18","","0.3858608091","main_expt","0.4","","0.6","0.2039336531","","0.2","","0.8","0.2958570682","0.3802227677","","","","","",""
"779","","bandit","97","519785","0.0-58.0-0.0","08157512","wem/bandit_either","APXNY64HXO08K","either","8","","","","","","","72","H","0","img/none_selected.jpg","0","0","1","0.3837638756","","","19","0.3837638756","","main_expt","0.4","0.1598579642","0.6","","0.3353028819","0.2","0.360566968","0.8","","","","","","","",""
"726","","bandit","98","522024","0.0-59.0-0.0","08157512","wem/bandit_either","APXNY64HXO08K","either","8","","","","","","","75","K","2","","0","0","1","","0.3139704528","","20","","0.2872100501","main_expt","0.4","","0.6","0.1437622327","","0.2","","0.8","0.3139704528","0.3696799013","","","","","",""
"620","","bandit","99","524161","0.0-60.0-0.0","08157512","wem/bandit_either","APXNY64HXO08K","either","8","","","","","","","76","L","3","","0","0","1","","0.4006907501","","21","","0.2975414498","main_expt","0.4","","0.6","0.07974703335","","0.2","","0.8","0.2524707143","0.4006907501","","","","","",""
"273","","bandit","100","525948","0.0-61.0-0.0","08157512","wem/bandit_either","APXNY64HXO08K","either","8","","","","","","","75","K","2","","0","0","1","0.248326021","","","22","0.2741965999","","main_expt","0.4","0.1361132429","0.6","","0.248326021","0.2","0.4081217326","0.8","","","","","","","",""
"429","","bandit","101","527891","0.0-62.0-0.0","08157512","wem/bandit_either","APXNY64HXO08K","either","8","","","","","","","74","J","1","","0","0","1","","0.1705973249","","23","","0.2379064449","main_expt","0.4","","0.6","0.1705973249","","0.2","","0.8","0.2937153481","0.3740207531","","","","","",""
"611","","bandit","102","530017","0.0-63.0-0.0","08157512","wem/bandit_either","APXNY64HXO08K","either","8","","","","","","","72","H","0","img/none_selected.jpg","0","0","1","","0.2078598572","","24","","0.2078598572","main_expt","0.4","","0.6","0.1392759225","","0.2","","0.8","0.2625315469","0.3913756451","","","","","",""
"1247","","bandit","103","532778","0.0-64.0-0.0","08157512","wem/bandit_either","APXNY64HXO08K","either","8","","","","","","","74","J","1","","0","0","1","0.1800538527","","","25","0.2764850733","","main_expt","0.4","0.1800538527","0.6","","0.2405651368","0.2","0.4100905738","0.8","","","","","","","",""
"32","","bandit","104","534328","0.0-65.0-0.0","08157512","wem/bandit_either","APXNY64HXO08K","either","8","","","","","","","75","K","2","","0","0","1","0.2503350336","","","26","0.3080191348","","main_expt","0.4","0.2146400533","0.6","","0.2503350336","0.2","0.3600668969","0.8","","","","","","","",""
"580","","bandit","105","536422","0.0-66.0-0.0","08157512","wem/bandit_either","APXNY64HXO08K","either","8","","","","","","","76","L","3","","0","0","1","0.3703096079","","","27","0.3606197488","","main_expt","0.4","0.1948367851","0.6","","0.354091838","0.2","0.3703096079","0.8","","","","","","","",""
"491","","bandit","106","538427","0.0-67.0-0.0","08157512","wem/bandit_either","APXNY64HXO08K","either","8","","","","","","","75","K","2","","0","0","1","0.3419366675","","","28","0.3696097963","","main_expt","0.4","0.2282666016","0.6","","0.3419366675","0.2","0.3527269899","0.8","","","","","","","",""
"629","","bandit","107","540572","0.0-68.0-0.0","08157512","wem/bandit_either","APXNY64HXO08K","either","8","","","","","","","74","J","1","","0","0","1","0.1842618798","","","29","0.3434444954","","main_expt","0.4","0.1842618798","0.6","","0.361896517","0.2","0.2854860911","0.8","","","","","","","",""
"448","","bandit","108","542534","0.0-69.0-0.0","08157512","wem/bandit_either","APXNY64HXO08K","either","8","","","","","","","72","H","0","img/none_selected.jpg","0","0","1","","0.3528183973","","30","","0.3528183973","main_expt","0.4","","0.6","0.1930267653","","0.2","","0.8","0.3701160785","0.2971434158","","","","","",""
"579","","bandit","109","544634","0.0-70.0-0.0","08157512","wem/bandit_either","APXNY64HXO08K","either","8","","","","","","","74","J","1","","0","0","1","","0.2279264959","","31","","0.3436926249","main_expt","0.4","","0.6","0.2279264959","","0.2","","0.8","0.3602312343","0.3192935598","","","","","",""
"442","","bandit","110","546591","0.0-71.0-0.0","08157512","wem/bandit_either","APXNY64HXO08K","either","8","","","","","","","75","K","2","","0","0","1","","0.3550043818","","32","","0.3392376576","main_expt","0.4","","0.6","0.1922668126","","0.2","","0.8","0.3550043818","0.2910845839","","","","","",""
"382","","bandit","111","548486","0.0-72.0-0.0","08157512","wem/bandit_either","APXNY64HXO08K","either","8","","","","","","","75","K","2","","1","0","0","0.3927862597","","","33","0.2524106513","","main_expt","0.4","0.1503247695","0.6","","0.3927862597","0.2","0.2956883229","0.8","","","","","","","",""
"1644","","bandit","112","551647","0.0-73.0-0.0","08157512","wem/bandit_either","APXNY64HXO08K","either","8","","","","","","","75","K","2","","0","1","0","","0.4185963197","","34","","0.2378308988","main_expt","0.4","","0.6","0.1875072744","","0.2","","0.8","0.4185963197","0.2918182698","","","","","",""
"571","","bandit","113","553734","0.0-74.0-0.0","08157512","wem/bandit_either","APXNY64HXO08K","either","8","","","","","","","75","K","2","","0","0","1","","0.441983755","","35","","0.2683654211","main_expt","0.4","","0.6","0.2135507624","","0.2","","0.8","0.441983755","0.3063909307","","","","","",""
"496","","bandit","114","555746","0.0-75.0-0.0","08157512","wem/bandit_either","APXNY64HXO08K","either","8","","","","","","","76","L","3","","0","0","1","0.2820805085","","","36","0.2645223933","","main_expt","0.4","0.2042402853","0.6","","0.4352827683","0.2","0.2820805085","0.8","","","","","","","",""
"507","","bandit","115","557763","0.0-76.0-0.0","08157512","wem/bandit_either","APXNY64HXO08K","either","8","","","","","","","75","K","2","","0","1","0","","0.450520142","","37","","0.2360561858","main_expt","0.4","","0.6","0.2024605481","","0.2","","0.8","0.450520142","0.2610370824","","","","","",""
"476","","bandit","116","559758","0.0-77.0-0.0","08157512","wem/bandit_either","APXNY64HXO08K","either","8","","","","","","","75","K","2","","0","1","0","","0.4681224698","","38","","0.2001865083","main_expt","0.4","","0.6","0.1677713785","","0.2","","0.8","0.4681224698","0.1896233007","","","","","",""
"440","","bandit","117","561718","0.0-78.0-0.0","08157512","wem/bandit_either","APXNY64HXO08K","either","8","","","","","","","75","K","2","","0","1","0","","0.4711022053","","39","","0.1687915361","main_expt","0.4","","0.6","0.221779122","","0.2","","0.8","0.4711022053","0.168851025","","","","","",""
"400","","bandit","118","563634","0.0-79.0-0.0","08157512","wem/bandit_either","APXNY64HXO08K","either","8","","","","","","","75","K","2","","0","0","1","0.4559447699","","","40","0.1503151413","","main_expt","0.4","0.2722397218","0.6","","0.4559447699","0.2","0.1615787635","0.8","","","","","","","",""
"389","","bandit","119","565542","0.0-80.0-0.0","08157512","wem/bandit_either","APXNY64HXO08K","either","8","","","","","","","74","J","1","","0","1","0","","0.3298230943","","41","","0.08168262283","main_expt","0.4","","0.6","0.3298230943","","0.2","","0.8","0.4412687596","0.1472326003","","","","","",""
"1389","","bandit","120","568451","0.0-81.0-0.0","08157512","wem/bandit_either","APXNY64HXO08K","either","8","","","","","","","74","J","1","","0","0","1","","0.3104885444","","42","","0.07668629145","main_expt","0.4","","0.6","0.3104885444","","0.2","","0.8","0.4457751761","0.1533480506","","","","","",""
"996","","bandit","121","570966","0.0-82.0-0.0","08157512","wem/bandit_either","APXNY64HXO08K","either","8","","","","","","","72","H","0","img/none_selected.jpg","0","0","1","","0.07394587158","","43","","0.07394587158","main_expt","0.4","","0.6","0.3005355489","","0.2","","0.8","0.4298378352","0.1414351437","","","","","",""
"647","","bandit","122","573132","0.0-83.0-0.0","08157512","wem/bandit_either","APXNY64HXO08K","either","8","","","","","","","72","H","0","img/none_selected.jpg","0","0","1","","0.1192337685","","44","","0.1192337685","main_expt","0.4","","0.6","0.2456242138","","0.2","","0.8","0.4416915379","0.1067646429","","","","","",""
"253","","bandit","123","574900","0.0-84.0-0.0","08157512","wem/bandit_either","APXNY64HXO08K","either","8","","","","","","","74","J","1","","0","0","1","","0.2839901561","","45","","0.1285724119","main_expt","0.4","","0.6","0.2839901561","","0.2","","0.8","0.3915522423","0.1250796286","","","","","",""
"472","","bandit","124","576889","0.0-85.0-0.0","08157512","wem/bandit_either","APXNY64HXO08K","either","8","","","","","","","75","K","2","","0","0","1","","0.4318427431","","46","","0.1112684106","main_expt","0.4","","0.6","0.2353621531","","0.2","","0.8","0.4318427431","0.1927264636","","","","","",""
"295","","bandit","125","578701","0.0-86.0-0.0","08157512","wem/bandit_either","APXNY64HXO08K","either","8","","","","","","","75","K","2","","0","1","0","","0.4395998441","","47","","0.1207340475","main_expt","0.4","","0.6","0.2405257196","","0.2","","0.8","0.4395998441","0.1804488412","","","","","",""
"432","","bandit","126","580651","0.0-87.0-0.0","08157512","wem/bandit_either","APXNY64HXO08K","either","8","","","","","","","75","K","2","","0","1","0","","0.4630443269","","48","","0.1182533935","main_expt","0.4","","0.6","0.2629408555","","0.2","","0.8","0.4630443269","0.168268176","","","","","",""
"466","","bandit","127","582633","0.0-88.0-0.0","08157512","wem/bandit_either","APXNY64HXO08K","either","8","","","","","","","75","K","2","","0","0","1","0.4794982466","","","49","0.1460801474","","main_expt","0.4","0.2902453213","0.6","","0.4794982466","0.2","0.1466838001","0.8","","","","","","","",""
"312","","bandit","128","584460","0.0-89.0-0.0","08157512","wem/bandit_either","APXNY64HXO08K","either","8","","","","","","","74","J","1","","1","0","0","0.3033715012","","","50","0.1765155983","","main_expt","0.4","0.3033715012","0.6","","0.4562783041","0.2","0.1336340117","0.8","","","","","","","",""
"711","","bandit","129","586686","0.0-90.0-0.0","08157512","wem/bandit_either","APXNY64HXO08K","either","8","","","","","","","74","J","1","","1","0","0","0.3536831403","","","51","0.1614266163","","main_expt","0.4","0.3536831403","0.6","","0.4515646323","0.2","0.1067821754","0.8","","","","","","","",""
"475","","bandit","130","588683","0.0-91.0-0.0","08157512","wem/bandit_either","APXNY64HXO08K","either","8","","","","","","","74","J","1","","0","0","1","0.3058792917","","","52","0.1938643747","","main_expt","0.4","0.3058792917","0.6","","0.4344137529","0.2","0.07294577227","0.8","","","","","","","",""
"1690","","bandit","131","591889","0.0-92.0-0.0","08157512","wem/bandit_either","APXNY64HXO08K","either","8","","","","","","","76","L","3","","0","0","1","","0.07676454597","","53","","0.1721886996","main_expt","0.4","","0.6","0.3466820038","","0.2","","0.8","0.4421766306","0.07676454597","","","","","",""
"730","","bandit","132","594139","0.0-93.0-0.0","08157512","wem/bandit_either","APXNY64HXO08K","either","8","","","","","","","75","K","2","","0","1","0","","0.4591875032","","54","","0.1542880765","main_expt","0.4","","0.6","0.3159173384","","0.2","","0.8","0.4591875032","0.07707135067","","","","","",""
"566","","bandit","133","596220","0.0-94.0-0.0","08157512","wem/bandit_either","APXNY64HXO08K","either","8","","","","","","","75","K","2","","0","1","0","","0.4455250987","","55","","0.2155598061","main_expt","0.4","","0.6","0.3205246683","","0.2","","0.8","0.4455250987","0.08227932488","","","","","",""
"1480","","bandit","134","599228","0.0-95.0-0.0","08157512","wem/bandit_either","APXNY64HXO08K","either","8","","","","","","","75","K","2","","0","0","1","","0.4200701886","","56","","0.199350645","main_expt","0.4","","0.6","0.3067659888","","0.2","","0.8","0.4200701886","0.09013031375","","","","","",""
"372","","bandit","135","601120","0.0-96.0-0.0","08157512","wem/bandit_either","APXNY64HXO08K","either","8","","","","","","","74","J","1","","0","0","1","","0.3786279545","","57","","0.1991981904","main_expt","0.4","","0.6","0.3786279545","","0.2","","0.8","0.3635567377","0.106866739","","","","","",""
"498","","bandit","136","603137","0.0-97.0-0.0","08157512","wem/bandit_either","APXNY64HXO08K","either","8","","","","","","","74","J","1","","1","0","0","0.3796022377","","","58","0.1307276253","","main_expt","0.4","0.3796022377","0.6","","0.3647217687","0.2","0.0915584437","0.8","","","","","","","",""
"591","","bandit","137","605245","0.0-98.0-0.0","08157512","wem/bandit_either","APXNY64HXO08K","either","8","","","","","","","74","J","1","","1","0","0","0.3570845549","","","59","0.1540949786","","main_expt","0.4","0.3570845549","0.6","","0.3975499765","0.2","0.1036540812","0.8","","","","","","","",""
"476","","bandit","138","607238","0.0-99.0-0.0","08157512","wem/bandit_either","APXNY64HXO08K","either","8","","","","","","","74","J","1","","0","1","0","","0.398525789","","60","","0.1187181044","main_expt","0.4","","0.6","0.398525789","","0.2","","0.8","0.376383165","0.07948280662","","","","","",""
"414","","bandit","139","609161","0.0-100.0-0.0","08157512","wem/bandit_either","APXNY64HXO08K","either","8","","","","","","","74","J","1","","0","0","1","","0.380986593","","61","","0.1734870435","main_expt","0.4","","0.6","0.380986593","","0.2","","0.8","0.3384437455","0.0685056185","","","","","",""
"553","","bandit","140","611229","0.0-101.0-0.0","08157512","wem/bandit_either","APXNY64HXO08K","either","8","","","","","","","74","J","1","","0","0","1","","0.3928002855","","62","","0.2056999461","main_expt","0.4","","0.6","0.3928002855","","0.2","","0.8","0.3086389155","0.04196312691","","","","","",""
"40","","bandit","141","612789","0.0-102.0-0.0","08157512","wem/bandit_either","APXNY64HXO08K","either","8","","","","","","","75","K","2","","0","1","0","","0.3098998428","","63","","0.2421495796","main_expt","0.4","","0.6","0.4097838671","","0.2","","0.8","0.3098998428","0.06524357318","","","","","",""
"623","","bandit","142","614930","0.0-103.0-0.0","08157512","wem/bandit_either","APXNY64HXO08K","either","8","","","","","","","75","K","2","","0","1","0","","0.2859800092","","64","","0.2678986655","main_expt","0.4","","0.6","0.3942475769","","0.2","","0.8","0.2859800092","0.04599317762","","","","","",""
"542","","bandit","143","616989","0.0-104.0-0.0","08157512","wem/bandit_either","APXNY64HXO08K","either","8","","","","","","","75","K","2","","0","0","1","","0.2780623804","","65","","0.2780805564","main_expt","0.4","","0.6","0.3756823908","","0.2","","0.8","0.2780623804","0.04738713632","","","","","",""
"372","","bandit","144","618878","0.0-105.0-0.0","08157512","wem/bandit_either","APXNY64HXO08K","either","8","","","","","","","75","K","2","","0","0","1","","0.2740889186","","66","","0.2923516192","main_expt","0.4","","0.6","0.3780323226","","0.2","","0.8","0.2740889186","0.02873144913","","","","","",""
"424","","bandit","145","620823","0.0-106.0-0.0","08157512","wem/bandit_either","APXNY64HXO08K","either","8","","","","","","","75","K","2","","0","0","1","","0.3122756929","","67","","0.3481747094","main_expt","0.4","","0.6","0.382091886","","0.2","","0.8","0.3122756929","0.0355516853","","","","","",""
"623","","bandit","146","622965","0.0-107.0-0.0","08157512","wem/bandit_either","APXNY64HXO08K","either","8","","","","","","","76","L","3","","0","0","1","0.04483006882","","","68","0.3540590834","","main_expt","0.4","0.4080562953","0.6","","0.3004294993","0.2","0.04483006882","0.8","","","","","","","",""
"175","","bandit","147","624657","0.0-108.0-0.0","08157512","wem/bandit_either","APXNY64HXO08K","either","8","","","","","","","76","L","3","","0","0","1","0.04300650393","","","69","0.3348318208","","main_expt","0.4","0.419826639","0.6","","0.3312842332","0.2","0.04300650393","0.8","","","","","","","",""
"100","","bandit","148","626277","0.0-109.0-0.0","08157512","wem/bandit_either","APXNY64HXO08K","either","8","","","","","","","75","K","2","","0","0","1","","0.2362018798","","70","","0.3844983113","main_expt","0.4","","0.6","0.3889643965","","0.2","","0.8","0.2362018798","0.03960880855","","","","","",""
"516","","bandit","149","628311","0.0-110.0-0.0","08157512","wem/bandit_either","APXNY64HXO08K","either","8","","","","","","","75","K","2","","0","0","1","","0.1838323472","","71","","0.3753843975","main_expt","0.4","","0.6","0.3492343966","","0.2","","0.8","0.1838323472","0.02401392238","","","","","",""
"276","","bandit","150","630104","0.0-111.0-0.0","08157512","wem/bandit_either","APXNY64HXO08K","either","8","","","","","","","75","K","2","","0","0","1","","0.1749810972","","72","","0.3861429343","main_expt","0.4","","0.6","0.3502155883","","0.2","","0.8","0.1749810972","0.008756159955","","","","","",""
"363","","bandit","151","631987","0.0-112.0-0.0","08157512","wem/bandit_either","APXNY64HXO08K","either","8","","","","","","","75","K","2","","0","0","1","","0.1664097112","","73","","0.3978436086","main_expt","0.4","","0.6","0.3568691787","","0.2","","0.8","0.1664097112","0.006257651783","","","","","",""
"76","","bandit","152","633580","0.0-113.0-0.0","08157512","wem/bandit_either","APXNY64HXO08K","either","8","","","","","","","75","K","2","","0","1","0","","0.2001176207","","74","","0.3847979518","main_expt","0.4","","0.6","0.3303653739","","0.2","","0.8","0.2001176207","0.004732084297","","","","","",""
"456","","bandit","153","635554","0.0-114.0-0.0","08157512","wem/bandit_either","APXNY64HXO08K","either","8","","","","","","","75","K","2","","0","0","1","","0.1848717924","","75","","0.3974319157","main_expt","0.4","","0.6","0.3353283381","","0.2","","0.8","0.1848717924","0.006967558871","","","","","",""
"1045","","bandit","154","638114","0.0-115.0-0.0","08157512","wem/bandit_either","APXNY64HXO08K","either","8","","","","","","","75","K","2","","0","1","0","","0.1510178238","","76","","0.3987985884","main_expt","0.4","","0.6","0.3009524994","","0.2","","0.8","0.1510178238","0.004525860487","","","","","",""
"974","","bandit","155","640599","0.0-116.0-0.0","08157512","wem/bandit_either","APXNY64HXO08K","either","8","","","","","","","75","K","2","","0","0","1","0.2089633591","","","77","0.4127312768","","main_expt","0.4","0.3316028908","0.6","","0.2089633591","0.2","0.007245535115","0.8","","","","","","","",""
"1904","","bandit","156","644014","0.0-117.0-0.0","08157512","wem/bandit_either","APXNY64HXO08K","either","8","","","","","","","74","J","1","","0","1","0","","0.3571024926","","78","","0.4257675477","main_expt","0.4","","0.6","0.3571024926","","0.2","","0.8","0.2285147345","0.00483057751","","","","","",""
"688","","bandit","157","646219","0.0-118.0-0.0","08157512","wem/bandit_either","APXNY64HXO08K","either","8","","","","","","","74","J","1","","0","0","1","0.3542776451","","","79","0.4331167668","","main_expt","0.4","0.3542776451","0.6","","0.2246975601","0.2","0.005956317848","0.8","","","","","","","",""
"5338","","bandit","158","653079","0.0-119.0-0.0","08157512","wem/bandit_either","APXNY64HXO08K","either","8","","","","","","","74","J","1","","0","0","1","","0.3201174307","","80","","0.4294395537","main_expt","0.4","","0.6","0.3201174307","","0.2","","0.8","0.1878766281","0.0076590047","","","","","",""
"239","","bandit","159","654837","0.0-120.0-0.0","08157512","wem/bandit_either","APXNY64HXO08K","either","8","","","","","","","75","K","2","","0","0","1","","0.2436254364","","81","","0.4234249918","main_expt","0.4","","0.6","0.3503003334","","0.2","","0.8","0.2436254364","0.009115568074","","","","","",""
"565","","bandit","160","656919","0.0-121.0-0.0","08157512","wem/bandit_either","APXNY64HXO08K","either","8","","","","","","","76","L","3","","0","0","1","0.01382977225","","","82","0.3956977209","","main_expt","0.4","0.3509066846","0.6","","0.2627531714","0.2","0.01382977225","0.8","","","","","","","",""
"1561","","bandit","161","660001","0.0-122.0-0.0","08157512","wem/bandit_either","APXNY64HXO08K","either","8","","","","","","","75","K","2","","0","0","1","","0.2672212524","","83","","0.4248650233","main_expt","0.4","","0.6","0.3951868033","","0.2","","0.8","0.2672212524","0.01500629599","","","","","",""
"680","","bandit","162","662202","0.0-123.0-0.0","08157512","wem/bandit_either","APXNY64HXO08K","either","8","","","","","","","74","J","1","","1","0","0","0.4131477378","","","84","0.4196907627","","main_expt","0.4","0.4131477378","0.6","","0.2817484998","0.2","0.02310127573","0.8","","","","","","","",""
"467","","bandit","163","664180","0.0-124.0-0.0","08157512","wem/bandit_either","APXNY64HXO08K","either","8","","","","","","","74","J","1","","0","0","1","0.3889697292","","","85","0.435633498","","main_expt","0.4","0.3889697292","0.6","","0.3074775227","0.2","0.02639065846","0.8","","","","","","","",""
"378","","bandit","164","666076","0.0-125.0-0.0","08157512","wem/bandit_either","APXNY64HXO08K","either","8","","","","","","","72","H","0","img/none_selected.jpg","0","1","0","","0.4322222521","","86","","0.4322222521","main_expt","0.4","","0.6","0.3885636443","","0.2","","0.8","0.2717847629","0.01746441632","","","","","",""
"448","","bandit","165","668040","0.0-126.0-0.0","08157512","wem/bandit_either","APXNY64HXO08K","either","8","","","","","","","72","H","0","img/none_selected.jpg","0","0","1","0.4476119451","","","87","0.4476119451","","main_expt","0.4","0.4028282504","0.6","","0.2183858348","0.2","0.01256144444","0.8","","","","","","","",""
"549","","bandit","166","670104","0.0-127.0-0.0","08157512","wem/bandit_either","APXNY64HXO08K","either","8","","","","","","","72","H","0","img/none_selected.jpg","1","0","0","0.4073123198","","","88","0.4073123198","","main_expt","0.4","0.4306890759","0.6","","0.2054961256","0.2","0.01178158386","0.8","","","","","","","",""
"484","","bandit","167","672115","0.0-128.0-0.0","08157512","wem/bandit_either","APXNY64HXO08K","either","8","","","","","","","72","H","0","img/none_selected.jpg","0","0","1","","0.3862301724","","89","","0.3862301724","main_expt","0.4","","0.6","0.4103738654","","0.2","","0.8","0.1452714398","0.008722555822","","","","","",""
"1455","","bandit","168","675094","0.0-129.0-0.0","08157512","wem/bandit_either","APXNY64HXO08K","either","8","","","","","","","74","J","1","","0","1","0","","0.3980827974","","90","","0.3596745144","main_expt","0.4","","0.6","0.3980827974","","0.2","","0.8","0.1077779513","0.008232471735","","","","","",""
"498","","bandit","169","677115","0.0-130.0-0.0","08157512","wem/bandit_either","APXNY64HXO08K","either","8","","","","","","","74","J","1","","0","0","1","","0.4040531024","","91","","0.3082854458","main_expt","0.4","","0.6","0.4040531024","","0.2","","0.8","0.1308407065","0.01249180717","","","","","",""
"573","","bandit","170","679214","0.0-131.0-0.0","08157512","wem/bandit_either","APXNY64HXO08K","either","8","","","","","","","75","K","2","","0","0","1","0.1652322036","","","92","0.312225492","","main_expt","0.4","0.3462944796","0.6","","0.1652322036","0.2","0.01470986316","0.8","","","","","","","",""
"626","","bandit","171","681361","0.0-132.0-0.0","08157512","wem/bandit_either","APXNY64HXO08K","either","8","","","","","","","76","L","3","","0","0","1","","0.02655281846","","93","","0.3671658277","main_expt","0.4","","0.6","0.3411451966","","0.2","","0.8","0.1344678182","0.02655281846","","","","","",""
"1178","","bandit","172","684061","0.0-133.0-0.0","08157512","wem/bandit_either","APXNY64HXO08K","either","8","","","","","","","75","K","2","","0","0","1","","0.1301314301","","94","","0.3401731108","main_expt","0.4","","0.6","0.3384154489","","0.2","","0.8","0.1301314301","0.02575246025","","","","","",""
"850","","bandit","173","686431","0.0-134.0-0.0","08157512","wem/bandit_either","APXNY64HXO08K","either","8","","","","","","","74","J","1","","0","0","1","0.3126988266","","","95","0.3413923724","","main_expt","0.4","0.3126988266","0.6","","0.1746055711","0.2","0.02262355665","0.8","","","","","","","",""
"460","","bandit","174","688413","0.0-135.0-0.0","08157512","wem/bandit_either","APXNY64HXO08K","either","8","","","","","","","72","H","0","img/none_selected.jpg","0","0","1","0.3570420485","","","96","0.3570420485","","main_expt","0.4","0.3800019137","0.6","","0.1994244555","0.2","0.02047181149","0.8","","","","","","","",""
"573","","bandit","175","690507","0.0-136.0-0.0","08157512","wem/bandit_either","APXNY64HXO08K","either","8","","","","","","","74","J","1","","0","0","1","0.3328121005","","","97","0.3435474977","","main_expt","0.4","0.3328121005","0.6","","0.1834602947","0.2","0.0207754381","0.8","","","","","","","",""
"1484","","bandit","176","693504","0.0-137.0-0.0","08157512","wem/bandit_either","APXNY64HXO08K","either","8","","","","","","","75","K","2","","0","0","1","0.1719221531","","","98","0.3614714926","","main_expt","0.4","0.332228596","0.6","","0.1719221531","0.2","0.02955834597","0.8","","","","","","","",""
"263","","bandit","177","695288","0.0-138.0-0.0","08157512","wem/bandit_either","APXNY64HXO08K","either","8","","","","","","","76","L","3","","0","0","1","","0.0383131093","","99","","0.3176405447","main_expt","0.4","","0.6","0.2843854285","","0.2","","0.8","0.1183399241","0.0383131093","","","","","",""
"531","","bandit","178","697340","0.0-139.0-0.0","08157512","wem/bandit_either","APXNY64HXO08K","either","8","","","","","","","75","K","2","","0","0","1","","0.1558635017","","100","","0.3586553183","main_expt","0.4","","0.6","0.309751149","","0.2","","0.8","0.1558635017","0.03580757471","","","","","",""
"184","","bandit","179","699048","0.0-140.0-0.0","08157512","wem/bandit_either","APXNY64HXO08K","either","8","","","","","","","74","J","1","","0","0","1","0.2993195944","","","101","0.2951503345","","main_expt","0.4","0.2993195944","0.6","","0.1389665978","0.2","0.04899620691","0.8","","","","","","","",""
"402","","bandit","180","700970","0.0-141.0-0.0","08157512","wem/bandit_either","APXNY64HXO08K","either","8","","","","","","","72","H","0","img/none_selected.jpg","0","0","1","","0.2998391809","","102","","0.2998391809","main_expt","0.4","","0.6","0.3551890872","","0.2","","0.8","0.1377203561","0.08055650644","","","","","",""
"320","","bandit","181","702810","0.0-142.0-0.0","08157512","wem/bandit_either","APXNY64HXO08K","either","8","","","","","","","74","J","1","","0","0","1","0.3148404956","","","103","0.2791823827","","main_expt","0.4","0.3148404956","0.6","","0.1285548106","0.2","0.1040447627","0.8","","","","","","","",""
"805","","bandit","182","705137","0.0-143.0-0.0","08157512","wem/bandit_either","APXNY64HXO08K","either","8","","","","","","","74","J","1","","0","0","1","","0.3286912191","","104","","0.3382769334","main_expt","0.4","","0.6","0.3286912191","","0.2","","0.8","0.1555523735","0.1143547335","","","","","",""
"1138","","bandit","183","707799","0.0-144.0-0.0","08157512","wem/bandit_either","APXNY64HXO08K","either","8","","","","","","","74","J","1","","1","0","0","0.298340497","","","105","0.3339697125","","main_expt","0.4","0.298340497","0.6","","0.1775592141","0.2","0.1487676438","0.8","","","","","","","",""
"577","","bandit","184","709895","0.0-145.0-0.0","08157512","wem/bandit_either","APXNY64HXO08K","either","8","","","","","","","74","J","1","","1","0","0","0.3504464386","","","106","0.3124129253","","main_expt","0.4","0.3504464386","0.6","","0.2263451353","0.2","0.152088545","0.8","","","","","","","",""
"993","","bandit","185","712406","0.0-146.0-0.0","08157512","wem/bandit_either","APXNY64HXO08K","either","8","","","","","","","74","J","1","","0","0","1","0.3510410077","","","107","0.3400683723","","main_expt","0.4","0.3510410077","0.6","","0.1679769802","0.2","0.2406734145","0.8","","","","","","","",""
"593","","bandit","186","714528","0.0-147.0-0.0","08157512","wem/bandit_either","APXNY64HXO08K","either","8","","","","","","","74","J","1","","0","1","0","","0.3282766846","","108","","0.3557340834","main_expt","0.4","","0.6","0.3282766846","","0.2","","0.8","0.1999870147","0.3048040024","","","","","",""
"985","","bandit","187","717041","0.0-148.0-0.0","08157512","wem/bandit_either","APXNY64HXO08K","either","8","","","","","","","74","J","1","","1","0","0","0.3561186451","","","109","0.3846418901","","main_expt","0.4","0.3561186451","0.6","","0.208992856","0.2","0.3418503096","0.8","","","","","","","",""
"727","","bandit","188","719289","0.0-149.0-0.0","08157512","wem/bandit_either","APXNY64HXO08K","either","8","","","","","","","74","J","1","","0","0","1","0.3576445865","","","110","0.4057962062","","main_expt","0.4","0.3576445865","0.6","","0.1716040471","0.2","0.3198501315","0.8","","","","","","","",""
"941","","bandit","189","721751","0.0-150.0-0.0","08157512","wem/bandit_either","APXNY64HXO08K","either","8","","","","","","","74","J","1","","1","0","0","0.3377543854","","","111","0.3692451483","","main_expt","0.4","0.3377543854","0.6","","0.08984071331","0.2","0.3681534847","0.8","","","","","","","",""
"342","","bandit","190","723608","0.0-151.0-0.0","08157512","wem/bandit_either","APXNY64HXO08K","either","8","","","","","","","74","J","1","","0","0","1","0.286234052","","","112","0.3577317973","","main_expt","0.4","0.286234052","0.6","","0.1243463141","0.2","0.3757830796","0.8","","","","","","","",""
"310","","bandit","191","725434","0.0-152.0-0.0","08157512","wem/bandit_either","APXNY64HXO08K","either","8","","","","","","","74","J","1","","0","1","0","","0.1932674395","","113","","0.3328808086","main_expt","0.4","","0.6","0.1932674395","","0.2","","0.8","0.1433440675","0.3838999828","","","","","",""
"694","","bandit","192","727649","0.0-153.0-0.0","08157512","wem/bandit_either","APXNY64HXO08K","either","8","","","","","","","74","J","1","","0","0","1","","0.2403040534","","114","","0.3416979579","main_expt","0.4","","0.6","0.2403040534","","0.2","","0.8","0.1510662198","0.4157938717","","","","","",""
"743","","bandit","193","729911","0.0-154.0-0.0","08157512","wem/bandit_either","APXNY64HXO08K","either","8","","","","","","","74","J","1","","0","0","1","0.254937398","","","115","0.3377137281","","main_expt","0.4","0.254937398","0.6","","0.09845245139","0.2","0.4055870595","0.8","","","","","","","",""
"628","","bandit","194","732061","0.0-155.0-0.0","08157512","wem/bandit_either","APXNY64HXO08K","either","8","","","","","","","74","J","1","","0","0","1","","0.2605063941","","116","","0.3039448029","main_expt","0.4","","0.6","0.2605063941","","0.2","","0.8","0.107393795","0.4161015278","","","","","",""
"393","","bandit","195","733976","0.0-156.0-0.0","08157512","wem/bandit_either","APXNY64HXO08K","either","8","","","","","","","74","J","1","","1","0","0","0.2161328783","","","117","0.2974336912","","main_expt","0.4","0.2161328783","0.6","","0.07879800556","0.2","0.414877819","0.8","","","","","","","",""
"623","","bandit","196","736122","0.0-157.0-0.0","08157512","wem/bandit_either","APXNY64HXO08K","either","8","","","","","","","74","J","1","","0","0","1","","0.1931197841","","118","","0.2651867246","main_expt","0.4","","0.6","0.1931197841","","0.2","","0.8","0.08383735875","0.3968259953","","","","","",""
"503","","bandit","197","738147","0.0-158.0-0.0","08157512","wem/bandit_either","APXNY64HXO08K","either","8","","","","","","","74","J","1","","0","0","1","0.1638183597","","","119","0.3131666206","","main_expt","0.4","0.1638183597","0.6","","0.1392474383","0.2","0.4198241006","0.8","","","","","","","",""
"448","","bandit","198","740116","0.0-159.0-0.0","08157512","wem/bandit_either","APXNY64HXO08K","either","8","","","","","","","74","J","1","","0","0","1","","0.1893282748","","120","","0.358829095","main_expt","0.4","","0.6","0.1893282748","","0.2","","0.8","0.1649404926","0.4286088018","","","","","",""
"205","","bandit","199","741849","0.0-160.0-0.0","08157512","wem/bandit_either","APXNY64HXO08K","either","8","","","","","","","74","J","1","","0","1","0","","0.2290368179","","121","","0.3189860171","main_expt","0.4","","0.6","0.2290368179","","0.2","","0.8","0.1764152442","0.4253829576","","","","","",""
"524","","bandit","200","743892","0.0-161.0-0.0","08157512","wem/bandit_either","APXNY64HXO08K","either","8","","","","","","","74","J","1","","0","0","1","0.2445441383","","","122","0.3011672979","","main_expt","0.4","0.2445441383","0.6","","0.2092397698","0.2","0.4235175979","0.8","","","","","","","",""
"333","","bandit","201","745747","0.0-162.0-0.0","08157512","wem/bandit_either","APXNY64HXO08K","either","8","","","","","","","74","J","1","","1","0","0","0.2091075756","","","123","0.3037948063","","main_expt","0.4","0.2091075756","0.6","","0.1884058447","0.2","0.4182090072","0.8","","","","","","","",""
"807","","bandit","202","748076","0.0-163.0-0.0","08157512","wem/bandit_either","APXNY64HXO08K","either","8","","","","","","","74","J","1","","0","0","1","","0.2216111921","","124","","0.2446200253","main_expt","0.4","","0.6","0.2216111921","","0.2","","0.8","0.1876417206","0.4356016004","","","","","",""
"665","","bandit","203","750262","0.0-164.0-0.0","08157512","wem/bandit_either","APXNY64HXO08K","either","8","","","","","","","74","J","1","","0","0","1","0.1622020501","","","125","0.2464628806","","main_expt","0.4","0.1622020501","0.6","","0.1890564589","0.2","0.403953628","0.8","","","","","","","",""
"555","","bandit","204","752336","0.0-165.0-0.0","08157512","wem/bandit_either","APXNY64HXO08K","either","8","","","","","","","75","K","2","","0","0","1","","0.1659850756","","126","","0.281169445","main_expt","0.4","","0.6","0.173533554","","0.2","","0.8","0.1659850756","0.4020675328","","","","","",""
"46","","bandit","205","753902","0.0-166.0-0.0","08157512","wem/bandit_either","APXNY64HXO08K","either","8","","","","","","","76","L","3","","1","0","0","0.338443572","","","127","0.290080064","","main_expt","0.4","0.189829559","0.6","","0.2006343121","0.2","0.338443572","0.8","","","","","","","",""
"457","","bandit","206","755885","0.0-167.0-0.0","08157512","wem/bandit_either","APXNY64HXO08K","either","8","","","","","","","76","L","3","","0","0","1","0.323123489","","","128","0.3280989756","","main_expt","0.4","0.1764696366","0.6","","0.2637444583","0.2","0.323123489","0.8","","","","","","","",""
"429","","bandit","207","757835","0.0-168.0-0.0","08157512","wem/bandit_either","APXNY64HXO08K","either","8","","","","","","","76","L","3","","0","0","1","0.3615310162","","","129","0.3052704822","","main_expt","0.4","0.172709194","0.6","","0.2783394686","0.2","0.3615310162","0.8","","","","","","","",""
"462","","bandit","208","759818","0.0-169.0-0.0","08157512","wem/bandit_either","APXNY64HXO08K","either","8","","","","","","","76","L","3","","0","0","1","0.3667448715","","","130","0.314718742","","main_expt","0.4","0.1407460215","0.6","","0.2674474002","0.2","0.3667448715","0.8","","","","","","","",""
"31","","bandit","209","761374","0.0-170.0-0.0","08157512","wem/bandit_either","APXNY64HXO08K","either","8","","","","","","","75","K","2","","0","0","1","0.2122920843","","","131","0.2492347367","","main_expt","0.4","0.143826562","0.6","","0.2122920843","0.2","0.341745941","0.8","","","","","","","",""
"472","","bandit","210","763368","0.0-171.0-0.0","08157512","wem/bandit_either","APXNY64HXO08K","either","8","","","","","","","75","K","2","","0","0","1","","0.1969346152","","132","","0.2495736985","main_expt","0.4","","0.6","0.1862992663","","0.2","","0.8","0.1969346152","0.2615325727","","","","","",""
"1067","","bandit","211","765962","0.0-172.0-0.0","08157512","wem/bandit_either","APXNY64HXO08K","either","8","","","","","","","74","J","1","","0","1","0","","0.185648564","","133","","0.2487120015","main_expt","0.4","","0.6","0.185648564","","0.2","","0.8","0.1390835973","0.27905624","","","","","",""
"1001","","bandit","212","768483","0.0-173.0-0.0","08157512","wem/bandit_either","APXNY64HXO08K","either","8","","","","","","","74","J","1","","0","0","1","","0.2002276213","","134","","0.3239420422","main_expt","0.4","","0.6","0.2002276213","","0.2","","0.8","0.1437640715","0.2751163123","","","","","",""
"1062","","bandit","213","771069","0.0-174.0-0.0","08157512","wem/bandit_either","APXNY64HXO08K","either","8","","","","","","","74","J","1","","0","0","1","","0.2474552851","","135","","0.3903525049","main_expt","0.4","","0.6","0.2474552851","","0.2","","0.8","0.1175999949","0.2586507773","","","","","",""
"653","","bandit","214","773242","0.0-175.0-0.0","08157512","wem/bandit_either","APXNY64HXO08K","either","8","","","","","","","74","J","1","","0","0","1","","0.2454982057","","136","","0.3703049055","main_expt","0.4","","0.6","0.2454982057","","0.2","","0.8","0.1108499649","0.2385277364","","","","","",""
"404","","bandit","215","775166","0.0-176.0-0.0","08157512","wem/bandit_either","APXNY64HXO08K","either","8","","","","","","","75","K","2","","0","0","1","","0.1208727618","","137","","0.3657944308","main_expt","0.4","","0.6","0.2708690816","","0.2","","0.8","0.1208727618","0.1935782534","","","","","",""
"377","","bandit","216","777064","0.0-177.0-0.0","08157512","wem/bandit_either","APXNY64HXO08K","either","8","","","","","","","74","J","1","","0","0","1","","0.2219039101","","138","","0.3452946514","main_expt","0.4","","0.6","0.2219039101","","0.2","","0.8","0.1098805161","0.14087624","","","","","",""
"428","","bandit","217","779011","0.0-178.0-0.0","08157512","wem/bandit_either","APXNY64HXO08K","either","8","","","","","","","72","H","0","img/none_selected.jpg","1","0","0","0.3225052804","","","139","0.3225052804","","main_expt","0.4","0.2485571535","0.6","","0.1359731218","0.2","0.1340930794","0.8","","","","","","","",""
"496","","bandit","218","781031","0.0-179.0-0.0","08157512","wem/bandit_either","APXNY64HXO08K","either","8","","","","","","","72","H","0","img/none_selected.jpg","0","0","1","0.2997250911","","","140","0.2997250911","","main_expt","0.4","0.2605640439","0.6","","0.1419248406","0.2","0.1170750994","0.8","","","","","","","",""
"637","","bandit","219","783191","0.0-180.0-0.0","08157512","wem/bandit_either","APXNY64HXO08K","either","8","","","","","","","72","H","0","img/none_selected.jpg","0","0","1","","0.311933389","","141","","0.311933389","main_expt","0.4","","0.6","0.2260680923","","0.2","","0.8","0.1269577117","0.1316830279","","","","","",""
"499","","bandit","220","785214","0.0-181.0-0.0","08157512","wem/bandit_either","APXNY64HXO08K","either","8","","","","","","","74","J","1","","0","0","1","0.2354846983","","","142","0.3442568425","","main_expt","0.4","0.2354846983","0.6","","0.1073819056","0.2","0.09490366034","0.8","","","","","","","",""
"482","","bandit","221","787220","0.0-182.0-0.0","08157512","wem/bandit_either","APXNY64HXO08K","either","8","","","","","","","74","J","1","","0","0","1","","0.2089358464","","143","","0.3117203045","main_expt","0.4","","0.6","0.2089358464","","0.2","","0.8","0.1152767294","0.1246024154","","","","","",""
"701","","bandit","222","789446","0.0-183.0-0.0","08157512","wem/bandit_either","APXNY64HXO08K","either","8","","","","","","","74","J","1","","0","0","1","","0.1844607625","","144","","0.3080771123","main_expt","0.4","","0.6","0.1844607625","","0.2","","0.8","0.1317444946","0.1179874238","","","","","",""
"183","","bandit","223","791149","0.0-184.0-0.0","08157512","wem/bandit_either","APXNY64HXO08K","either","8","","","","","","","75","K","2","","0","1","0","","0.1058600218","","145","","0.3146876691","main_expt","0.4","","0.6","0.1940384654","","0.2","","0.8","0.1058600218","0.1211842963","","","","","",""
"429","","bandit","224","793098","0.0-185.0-0.0","08157512","wem/bandit_either","APXNY64HXO08K","either","8","","","","","","","75","K","2","","0","0","1","","0.1862633901","","146","","0.3526806189","main_expt","0.4","","0.6","0.2532022814","","0.2","","0.8","0.1862633901","0.06212451067","","","","","",""
"699","","bandit","225","795317","0.0-186.0-0.0","08157512","wem/bandit_either","APXNY64HXO08K","either","8","","","","","","","75","K","2","","0","0","1","","0.1944793183","","147","","0.3859334927","main_expt","0.4","","0.6","0.272856749","","0.2","","0.8","0.1944793183","0.05826033827","","","","","",""
"171","","bandit","226","797013","0.0-187.0-0.0","08157512","wem/bandit_either","APXNY64HXO08K","either","8","","","","","","","76","L","3","","0","0","1","","0.04847575149","","148","","0.4089873985","main_expt","0.4","","0.6","0.2441255329","","0.2","","0.8","0.1572605535","0.04847575149","","","","","",""
"94","","bandit","227","798628","0.0-188.0-0.0","08157512","wem/bandit_either","APXNY64HXO08K","either","8","","","","","","","75","K","2","","1","0","0","0.1632070519","","","149","0.3317076441","","main_expt","0.4","0.2304797635","0.6","","0.1632070519","0.2","0.07397138717","0.8","","","","","","","",""
"1042","","bandit","228","801199","0.0-189.0-0.0","08157512","wem/bandit_either","APXNY64HXO08K","either","8","","","","","","","75","K","2","","0","0","1","","0.2162169298","","150","","0.2514439341","main_expt","0.4","","0.6","0.2645424191","","0.2","","0.8","0.2162169298","0.1178437277","","","","","",""
"519","","bandit","229","803240","0.0-190.0-0.0","08157512","wem/bandit_either","APXNY64HXO08K","either","8","","","","","","","75","K","2","","0","0","1","","0.2806681102","","151","","0.2209696772","main_expt","0.4","","0.6","0.2919476008","","0.2","","0.8","0.2806681102","0.1116740648","","","","","",""
"533","","bandit","230","805297","0.0-191.0-0.0","08157512","wem/bandit_either","APXNY64HXO08K","either","8","","","","","","","75","K","2","","0","0","1","","0.25223767","","152","","0.2004300668","main_expt","0.4","","0.6","0.3004198658","","0.2","","0.8","0.25223767","0.09681320826","","","","","",""
"338","","bandit","231","807160","0.0-192.0-0.0","08157512","wem/bandit_either","APXNY64HXO08K","either","8","","","","","","","75","K","2","","0","1","0","","0.2259503681","","153","","0.1803159607","main_expt","0.4","","0.6","0.2910243242","","0.2","","0.8","0.2259503681","0.1162344283","","","","","",""
"350","","bandit","232","809039","0.0-193.0-0.0","08157512","wem/bandit_either","APXNY64HXO08K","either","8","","","","","","","75","K","2","","0","0","1","","0.2520515582","","154","","0.1793353988","main_expt","0.4","","0.6","0.2858680692","","0.2","","0.8","0.2520515582","0.1441765144","","","","","",""
"67","","bandit","233","810628","0.0-194.0-0.0","08157512","wem/bandit_either","APXNY64HXO08K","either","8","","","","","","","75","K","2","","0","0","1","","0.246895917","","155","","0.175125938","main_expt","0.4","","0.6","0.276906037","","0.2","","0.8","0.246895917","0.1506434262","","","","","",""
"229","","bandit","234","812382","0.0-195.0-0.0","08157512","wem/bandit_either","APXNY64HXO08K","either","8","","","","","","","75","K","2","","0","0","1","0.2067462234","","","156","0.19004546","","main_expt","0.4","0.3087514371","0.6","","0.2067462234","0.2","0.1691825384","0.8","","","","","","","",""
"191","","bandit","235","814097","0.0-196.0-0.0","08157512","wem/bandit_either","APXNY64HXO08K","either","8","","","","","","","75","K","2","","0","0","1","","0.1736677602","","157","","0.1538528063","main_expt","0.4","","0.6","0.3400763937","","0.2","","0.8","0.1736677602","0.1465267651","","","","","",""
"684","","bandit","236","816305","0.0-197.0-0.0","08157512","wem/bandit_either","APXNY64HXO08K","either","8","","","","","","","75","K","2","","0","0","1","","0.2437422656","","158","","0.1624419901","main_expt","0.4","","0.6","0.3388441277","","0.2","","0.8","0.2437422656","0.1517260174","","","","","",""
"181","","bandit","237","818009","0.0-198.0-0.0","08157512","wem/bandit_either","APXNY64HXO08K","either","8","","","","","","","75","K","2","","0","0","1","0.2627628197","","","159","0.1749682205","","main_expt","0.4","0.3496437485","0.6","","0.2627628197","0.2","0.143579764","0.8","","","","","","","",""
"429","","bandit","238","819963","0.0-199.0-0.0","08157512","wem/bandit_either","APXNY64HXO08K","either","8","","","","","","","75","K","2","","0","1","0","","0.2532756584","","160","","0.2227833177","main_expt","0.4","","0.6","0.3347491532","","0.2","","0.8","0.2532756584","0.1701049762","","","","","",""
"15","","bandit","239","821501","0.0-200.0-0.0","08157512","wem/bandit_either","APXNY64HXO08K","either","8","","","","","","","74","J","1","","0","0","1","0.3036625801","","","161","0.1616195486","","main_expt","0.4","0.3036625801","0.6","","0.2846030245","0.2","0.1596038406","0.8","","","","","","","",""
"11815","","bandit","240","834832","0.0-201.0-0.0","08157512","wem/bandit_either","APXNY64HXO08K","either","8","","","","","","","75","K","2","","0","0","1","","0.2480450928","","162","","0.1440802068","main_expt","0.4","","0.6","0.2735804545","","0.2","","0.8","0.2480450928","0.1186271452","","","","","",""
"154","","bandit","241","836513","0.0-202.0-0.0","08157512","wem/bandit_either","APXNY64HXO08K","either","8","","","","","","","74","J","1","","0","0","1","0.2219233964","","","163","0.1349250059","","main_expt","0.4","0.2219233964","0.6","","0.3217860246","0.2","0.1460830151","0.8","","","","","","","",""
"427","","bandit","242","838470","0.0-203.0-0.0","08157512","wem/bandit_either","APXNY64HXO08K","either","8","","","","","","","76","L","3","","1","0","0","0.1924179555","","","164","0.1482528248","","main_expt","0.4","0.2489701673","0.6","","0.3528623486","0.2","0.1924179555","0.8","","","","","","","",""
"389","","bandit","243","840385","0.0-204.0-0.0","08157512","wem/bandit_either","APXNY64HXO08K","either","8","","","","","","","76","L","3","","0","0","1","0.1909643941","","","165","0.1444116863","","main_expt","0.4","0.2424219606","0.6","","0.3113737792","0.2","0.1909643941","0.8","","","","","","","",""
"1549","","bandit","244","843460","0.0-205.0-0.0","08157512","wem/bandit_either","APXNY64HXO08K","either","8","","","","","","","76","L","3","","0","0","1","0.1917506842","","","166","0.1621449425","","main_expt","0.4","0.1899742571","0.6","","0.2820045276","0.2","0.1917506842","0.8","","","","","","","",""
"613","","bandit","245","845601","0.0-206.0-0.0","08157512","wem/bandit_either","APXNY64HXO08K","either","8","","","","","","","76","L","3","","0","0","1","0.2238056512","","","167","0.1695256229","","main_expt","0.4","0.2298880826","0.6","","0.2539690707","0.2","0.2238056512","0.8","","","","","","","",""
"499","","bandit","246","847619","0.0-207.0-0.0","08157512","wem/bandit_either","APXNY64HXO08K","either","8","","","","","","","75","K","2","","0","1","0","","0.2177565821","","168","","0.1712445676","main_expt","0.4","","0.6","0.241220494","","0.2","","0.8","0.2177565821","0.2132240521","","","","","",""
"175","","bandit","247","849309","0.0-208.0-0.0","08157512","wem/bandit_either","APXNY64HXO08K","either","8","","","","","","","75","K","2","","0","1","0","","0.183214586","","169","","0.191079104","main_expt","0.4","","0.6","0.2113351254","","0.2","","0.8","0.183214586","0.1363713625","","","","","",""
"586","","bandit","248","851425","0.0-209.0-0.0","08157512","wem/bandit_either","APXNY64HXO08K","either","8","","","","","","","75","K","2","","1","0","0","0.1757282231","","","170","0.2227666825","","main_expt","0.4","0.2224744884","0.6","","0.1757282231","0.2","0.2007690262","0.8","","","","","","","",""
"28","","bandit","249","852979","0.0-210.0-0.0","08157512","wem/bandit_either","APXNY64HXO08K","either","8","","","","","","","75","K","2","","0","0","1","","0.1679331046","","171","","0.2719914804","main_expt","0.4","","0.6","0.262177911","","0.2","","0.8","0.1679331046","0.1238998316","","","","","",""
"369","","bandit","250","854881","0.0-211.0-0.0","08157512","wem/bandit_either","APXNY64HXO08K","either","8","","","","","","","74","J","1","","0","0","1","0.2822992514","","","172","0.2330128459","","main_expt","0.4","0.2822992514","0.6","","0.14560319","0.2","0.09746419185","0.8","","","","","","","",""
"373","","bandit","251","856788","0.0-212.0-0.0","08157512","wem/bandit_either","APXNY64HXO08K","either","8","","","","","","","74","J","1","","0","0","1","0.2545762091","","","173","0.2840251313","","main_expt","0.4","0.2545762091","0.6","","0.1341549344","0.2","0.1018164217","0.8","","","","","","","",""
"472","","bandit","252","858791","0.0-213.0-0.0","08157512","wem/bandit_either","APXNY64HXO08K","either","8","","","","","","","72","H","0","img/none_selected.jpg","0","0","1","0.2739042306","","","174","0.2739042306","","main_expt","0.4","0.2838184637","0.6","","0.1471305278","0.2","0.1401689619","0.8","","","","","","","",""
"202","","bandit","253","860521","0.0-214.0-0.0","08157512","wem/bandit_either","APXNY64HXO08K","either","8","","","","","","","76","L","3","","0","0","1","0.1697524679","","","175","0.3444735506","","main_expt","0.4","0.3002790513","0.6","","0.173963405","0.2","0.1697524679","0.8","","","","","","","",""
"643","","bandit","254","862697","0.0-215.0-0.0","08157512","wem/bandit_either","APXNY64HXO08K","either","8","","","","","","","76","L","3","","0","0","1","0.1896898672","","","176","0.3223017316","","main_expt","0.4","0.3771690292","0.6","","0.1821857965","0.2","0.1896898672","0.8","","","","","","","",""
"3","","bandit","255","864227","0.0-216.0-0.0","08157512","wem/bandit_either","APXNY64HXO08K","either","8","","","","","","","75","K","2","","0","0","1","","0.1444884472","","177","","0.2964924158","main_expt","0.4","","0.6","0.4047809956","","0.2","","0.8","0.1444884472","0.2441254625","","","","","",""
"378","","bandit","256","866134","0.0-217.0-0.0","08157512","wem/bandit_either","APXNY64HXO08K","either","8","","","","","","","75","K","2","","0","1","0","","0.1207783293","","178","","0.2780576925","main_expt","0.4","","0.6","0.4344960837","","0.2","","0.8","0.1207783293","0.2427722412","","","","","",""
"1069","","bandit","257","868730","0.0-218.0-0.0","08157512","wem/bandit_either","APXNY64HXO08K","either","8","","","","","","","75","K","2","","0","0","1","","0.111585665","","179","","0.2859751729","main_expt","0.4","","0.6","0.4287912686","","0.2","","0.8","0.111585665","0.2284650367","","","","","",""
"569","","bandit","258","870826","0.0-219.0-0.0","08157512","wem/bandit_either","APXNY64HXO08K","either","8","","","","","","","75","K","2","","0","0","1","0.06891525065","","","180","0.283533164","","main_expt","0.4","0.4294180747","0.6","","0.06891525065","0.2","0.2694081366","0.8","","","","","","","",""
"73","","bandit","259","872424","0.0-220.0-0.0","08157512","wem/bandit_either","APXNY64HXO08K","either","8","","","","","","","76","L","3","","0","0","1","0.2471628034","","","181","0.2430023428","","main_expt","0.4","0.3887332701","0.6","","0.07407739619","0.2","0.2471628034","0.8","","","","","","","",""
"644","","bandit","260","874596","0.0-221.0-0.0","08157512","wem/bandit_either","APXNY64HXO08K","either","8","","","","","","","76","L","3","","1","0","0","0.275372354","","","182","0.223254837","","main_expt","0.4","0.3910635387","0.6","","0.07501704201","0.2","0.275372354","0.8","","","","","","","",""
"1792","","bandit","261","877902","0.0-222.0-0.0","08157512","wem/bandit_either","APXNY64HXO08K","either","8","","","","","","","76","L","3","","1","0","0","0.2378950907","","","183","0.2274286797","","main_expt","0.4","0.3957792538","0.6","","0.09354103142","0.2","0.2378950907","0.8","","","","","","","",""
"1641","","bandit","262","881072","0.0-223.0-0.0","08157512","wem/bandit_either","APXNY64HXO08K","either","8","","","","","","","76","L","3","","0","0","1","0.2611999536","","","184","0.2485964068","","main_expt","0.4","0.3777829694","0.6","","0.06673830493","0.2","0.2611999536","0.8","","","","","","","",""
"508","","bandit","263","883112","0.0-224.0-0.0","08157512","wem/bandit_either","APXNY64HXO08K","either","8","","","","","","","76","L","3","","0","0","1","0.2799245071","","","185","0.2080173303","","main_expt","0.4","0.4130939835","0.6","","0.08617836821","0.2","0.2799245071","0.8","","","","","","","",""
"1385","","bandit","264","886028","0.0-225.0-0.0","08157512","wem/bandit_either","APXNY64HXO08K","either","8","","","","","","","75","K","2","","0","0","1","","0.05054014018","","186","","0.2538883687","main_expt","0.4","","0.6","0.376930599","","0.2","","0.8","0.05054014018","0.2275386122","","","","","",""
"91","","bandit","265","887646","0.0-226.0-0.0","08157512","wem/bandit_either","APXNY64HXO08K","either","8","","","","","","","74","J","1","","0","0","1","","0.3934592684","","187","","0.2267652077","main_expt","0.4","","0.6","0.3934592684","","0.2","","0.8","0.1101456656","0.2558518805","","","","","",""
"463","","bandit","266","889629","0.0-227.0-0.0","08157512","wem/bandit_either","APXNY64HXO08K","either","8","","","","","","","74","J","1","","1","0","0","0.4086060551","","","188","0.2583789709","","main_expt","0.4","0.4086060551","0.6","","0.1076418148","0.2","0.2757393749","0.8","","","","","","","",""
"3307","","bandit","267","894461","0.0-228.0-0.0","08157512","wem/bandit_either","APXNY64HXO08K","either","8","","","","","","","74","J","1","","0","0","1","0.447145564","","","189","0.2329768584","","main_expt","0.4","0.447145564","0.6","","0.1230456027","0.2","0.3326758055","0.8","","","","","","","",""
"2080","","bandit","268","898067","0.0-229.0-0.0","08157512","wem/bandit_either","APXNY64HXO08K","either","8","","","","","","","74","J","1","","1","0","0","0.386091063","","","190","0.2002510669","","main_expt","0.4","0.386091063","0.6","","0.1872873117","0.2","0.332927569","0.8","","","","","","","",""
"343","","bandit","269","899924","0.0-230.0-0.0","08157512","wem/bandit_either","APXNY64HXO08K","either","8","","","","","","","74","J","1","","0","0","1","0.4221145333","","","191","0.2182600554","","main_expt","0.4","0.4221145333","0.6","","0.1413073252","0.2","0.3859199101","0.8","","","","","","","",""
"558","","bandit","270","902016","0.0-231.0-0.0","08157512","wem/bandit_either","APXNY64HXO08K","either","8","","","","","","","75","K","2","","0","0","1","","0.1868627967","","192","","0.2681613901","main_expt","0.4","","0.6","0.3913199708","","0.2","","0.8","0.1868627967","0.392668484","","","","","",""
"384","","bandit","271","903929","0.0-232.0-0.0","08157512","wem/bandit_either","APXNY64HXO08K","either","8","","","","","","","74","J","1","","0","1","0","","0.4013624592","","193","","0.3035027483","main_expt","0.4","","0.6","0.4013624592","","0.2","","0.8","0.2312719224","0.3789843676","","","","","",""
"528","","bandit","272","905985","0.0-233.0-0.0","08157512","wem/bandit_either","APXNY64HXO08K","either","8","","","","","","","74","J","1","","1","0","0","0.3668237699","","","194","0.275531754","","main_expt","0.4","0.3668237699","0.6","","0.2585201677","0.2","0.3689216281","0.8","","","","","","","",""
"430","","bandit","273","907941","0.0-234.0-0.0","08157512","wem/bandit_either","APXNY64HXO08K","either","8","","","","","","","74","J","1","","0","0","1","0.3856266791","","","195","0.2716401532","","main_expt","0.4","0.3856266791","0.6","","0.2786104129","0.2","0.4136905162","0.8","","","","","","","",""
"328","","bandit","274","909797","0.0-235.0-0.0","08157512","wem/bandit_either","APXNY64HXO08K","either","8","","","","","","","74","J","1","","0","0","1","0.3702439493","","","196","0.2814611543","","main_expt","0.4","0.3702439493","0.6","","0.2407834285","0.2","0.4258575101","0.8","","","","","","","",""
"950","","bandit","275","912278","0.0-236.0-0.0","08157512","wem/bandit_either","APXNY64HXO08K","either","8","","","","","","","74","J","1","","0","1","0","","0.3665926528","","197","","0.2588010394","main_expt","0.4","","0.6","0.3665926528","","0.2","","0.8","0.2550568011","0.3976178043","","","","","",""
"327","","bandit","276","914125","0.0-237.0-0.0","08157512","wem/bandit_either","APXNY64HXO08K","either","8","","","","","","","72","H","0","img/none_selected.jpg","0","0","1","","0.3094610495","","198","","0.3094610495","main_expt","0.4","","0.6","0.3432124584","","0.2","","0.8","0.3094863904","0.3802378075","","","","","",""
"3","","bandit","277","915662","0.0-238.0-0.0","08157512","wem/bandit_either","APXNY64HXO08K","either","8","","","","","","","74","J","1","","1","0","0","0.4096574544","","","199","0.3139278769","","main_expt","0.4","0.4096574544","0.6","","0.3012985694","0.2","0.3926800246","0.8","","","","","","","",""
"489","","bandit","278","917676","0.0-239.0-0.0","08157512","wem/bandit_either","APXNY64HXO08K","either","8","","","","","","","74","J","1","","0","0","1","0.3799023259","","","200","0.3459706187","","main_expt","0.4","0.3799023259","0.6","","0.3149132519","0.2","0.3814844917","0.8","","","","","","","",""
"30","","bandit","279","919232","0.0-240.0-0.0","08157512","wem/bandit_either","APXNY64HXO08K","either","8","","","","","","","75","K","2","","0","0","1","","0.3236307962","","201","","0.3038365479","main_expt","0.4","","0.6","0.3513783521","","0.2","","0.8","0.3236307962","0.3831630738","","","","","",""
"56","","bandit","280","920815","0.0-241.0-0.0","08157512","wem/bandit_either","APXNY64HXO08K","either","8","","","","","","","75","K","2","","0","0","1","","0.3163717903","","202","","0.2964599608","main_expt","0.4","","0.6","0.3439351057","","0.2","","0.8","0.3163717903","0.3957430938","","","","","",""
"407","","bandit","281","922748","0.0-242.0-0.0","08157512","wem/bandit_either","APXNY64HXO08K","either","8","","","","","","","74","J","1","","0","0","1","","0.2615327891","","203","","0.280336616","main_expt","0.4","","0.6","0.2615327891","","0.2","","0.8","0.3165936227","0.4175506619","","","","","",""
"350","","bandit","282","924626","0.0-243.0-0.0","08157512","wem/bandit_either","APXNY64HXO08K","either","8","","","","","","","76","L","3","","0","0","1","0.4356800279","","","204","0.262900641","","main_expt","0.4","0.2211517471","0.6","","0.3166231072","0.2","0.4356800279","0.8","","","","","","","",""
"228","","bandit","283","926369","0.0-244.0-0.0","08157512","wem/bandit_either","APXNY64HXO08K","either","8","","","","","","","75","K","2","","0","0","1","","0.2983153058","","205","","0.3403150927","main_expt","0.4","","0.6","0.1955747294","","0.2","","0.8","0.2983153058","0.4342993254","","","","","",""
"202","","bandit","284","928101","0.0-245.0-0.0","08157512","wem/bandit_either","APXNY64HXO08K","either","8","","","","","","","74","J","1","","0","0","1","","0.3137251184","","206","","0.3407188883","main_expt","0.4","","0.6","0.3137251184","","0.2","","0.8","0.255573156","0.4515967499","","","","","",""
"1298","","bandit","285","930929","0.0-246.0-0.0","08157512","wem/bandit_either","APXNY64HXO08K","either","8","","","","","","","72","H","0","img/none_selected.jpg","0","1","0","","0.2955601217","","207","","0.2955601217","main_expt","0.4","","0.6","0.2982459604","","0.2","","0.8","0.2816724171","0.4559700358","","","","","",""
"94","","bandit","286","932556","0.0-247.0-0.0","08157512","wem/bandit_either","APXNY64HXO08K","either","8","","","","","","","72","H","0","img/none_selected.jpg","0","0","1","0.2832193826","","","208","0.2832193826","","main_expt","0.4","0.2359404152","0.6","","0.2462622089","0.2","0.4711787588","0.8","","","","","","","",""
"171","","bandit","287","934260","0.0-248.0-0.0","08157512","wem/bandit_either","APXNY64HXO08K","either","8","","","","","","","74","J","1","","1","0","0","0.2396635106","","","209","0.25637755","","main_expt","0.4","0.2396635106","0.6","","0.2608633631","0.2","0.4859779177","0.8","","","","","","","",""
"458","","bandit","288","936245","0.0-249.0-0.0","08157512","wem/bandit_either","APXNY64HXO08K","either","8","","","","","","","74","J","1","","0","0","1","0.2320506775","","","210","0.2500912527","","main_expt","0.4","0.2320506775","0.6","","0.2649708152","0.2","0.4798195452","0.8","","","","","","","",""
"17","","bandit","289","937779","0.0-250.0-0.0","08157512","wem/bandit_either","APXNY64HXO08K","either","8","","","","","","","75","K","2","","0","0","1","","0.2658594566","","211","","0.2481129288","main_expt","0.4","","0.6","0.1894847828","","0.2","","0.8","0.2658594566","0.4754072522","","","","","",""
"55","","bandit","290","939362","0.0-251.0-0.0","08157512","wem/bandit_either","APXNY64HXO08K","either","8","","","","","","","74","J","1","","0","0","1","","0.2330804604","","212","","0.3192168596","main_expt","0.4","","0.6","0.2330804604","","0.2","","0.8","0.2648449814","0.4780703898","","","","","",""
"639","","bandit","291","941522","0.0-252.0-0.0","08157512","wem/bandit_either","APXNY64HXO08K","either","8","","","","","","","72","H","0","img/none_selected.jpg","0","0","1","","0.2361953268","","213","","0.2361953268","main_expt","0.4","","0.6","0.2484053244","","0.2","","0.8","0.286492297","0.4883488692","","","","","",""
"1342","","bandit","292","944399","0.0-253.0-0.0","08157512","wem/bandit_either","APXNY64HXO08K","either","8","","","","","","","74","J","1","","0","0","1","","0.2182548364","","214","","0.2308921763","main_expt","0.4","","0.6","0.2182548364","","0.2","","0.8","0.2540339129","0.4872562331","","","","","",""
"188","","bandit","293","946113","0.0-254.0-0.0","08157512","wem/bandit_either","APXNY64HXO08K","either","8","","","","","","","75","K","2","","0","0","1","","0.254651127","","215","","0.2161033537","main_expt","0.4","","0.6","0.1824073789","","0.2","","0.8","0.254651127","0.4749609167","","","","","",""
"392","","bandit","294","948038","0.0-255.0-0.0","08157512","wem/bandit_either","APXNY64HXO08K","either","8","","","","","","","76","L","3","","1","0","0","0.4798413464","","","216","0.1896756427","","main_expt","0.4","0.1923730387","0.6","","0.3140517816","0.2","0.4798413464","0.8","","","","","","","",""
"336","","bandit","295","949901","0.0-256.0-0.0","08157512","wem/bandit_either","APXNY64HXO08K","either","8","","","","","","","76","L","3","","0","0","1","0.4865144435","","","217","0.1724286307","","main_expt","0.4","0.2266612446","0.6","","0.3338676317","0.2","0.4865144435","0.8","","","","","","","",""
"143","","bandit","296","951577","0.0-257.0-0.0","08157512","wem/bandit_either","APXNY64HXO08K","either","8","","","","","","","75","K","2","","0","1","0","","0.3397001125","","218","","0.161168334","main_expt","0.4","","0.6","0.1702705737","","0.2","","0.8","0.3397001125","0.4789145001","","","","","",""
"497","","bandit","297","953596","0.0-258.0-0.0","08157512","wem/bandit_either","APXNY64HXO08K","either","8","","","","","","","75","K","2","","1","0","0","0.2982528089","","","219","0.2021763003","","main_expt","0.4","0.1159766116","0.6","","0.2982528089","0.2","0.4834748692","0.8","","","","","","","",""
"321","","bandit","298","955441","0.0-259.0-0.0","08157512","wem/bandit_either","APXNY64HXO08K","either","8","","","","","","","75","K","2","","0","0","1","","0.2770934022","","220","","0.2142164272","main_expt","0.4","","0.6","0.09529473055","","0.2","","0.8","0.2770934022","0.4722371777","","","","","",""
"370","","bandit","299","957340","0.0-260.0-0.0","08157512","wem/bandit_either","APXNY64HXO08K","either","8","","","","","","","75","K","2","","0","0","1","","0.2696770889","","221","","0.189068297","main_expt","0.4","","0.6","0.09060922323","","0.2","","0.8","0.2696770889","0.4654689219","","","","","",""
"158","","bandit","300","959024","0.0-261.0-0.0","08157512","wem/bandit_either","APXNY64HXO08K","either","8","","","","","","","74","J","1","","0","0","1","","0.1250772464","","222","","0.2120997892","main_expt","0.4","","0.6","0.1250772464","","0.2","","0.8","0.3103502417","0.4533789701","","","","","",""
"515","","bandit","301","961070","0.0-262.0-0.0","08157512","wem/bandit_either","APXNY64HXO08K","either","8","","","","","","","74","J","1","","0","0","1","0.1177235221","","","223","0.1937664477","","main_expt","0.4","0.1177235221","0.6","","0.3477728299","0.2","0.4473019993","0.8","","","","","","","",""
"490","","bandit","302","963096","0.0-263.0-0.0","08157512","wem/bandit_either","APXNY64HXO08K","either","8","","","","","","","72","H","0","img/none_selected.jpg","0","0","1","","0.2195846313","","224","","0.2195846313","main_expt","0.4","","0.6","0.1589673504","","0.2","","0.8","0.3230244909","0.4651086175","","","","","",""
"1996","","bandit","303","966619","0.0-264.0-0.0","08157512","wem/bandit_either","APXNY64HXO08K","either","8","","","","","","","72","H","0","img/none_selected.jpg","0","0","1","","0.1973587738","","225","","0.1973587738","main_expt","0.4","","0.6","0.1582937281","","0.2","","0.8","0.3641913847","0.4704934375","","","","","",""
"446","","bandit","304","968583","0.0-265.0-0.0","08157512","wem/bandit_either","APXNY64HXO08K","either","8","","","","","","","74","J","1","","0","0","1","0.1585786296","","","226","0.2029059012","","main_expt","0.4","0.1585786296","0.6","","0.3211822138","0.2","0.4545632724","0.8","","","","","","","",""
"438","","bandit","305","970552","0.0-266.0-0.0","08157512","wem/bandit_either","APXNY64HXO08K","either","8","","","","","","","75","K","2","","0","0","1","","0.3318596792","","227","","0.1677618241","main_expt","0.4","","0.6","0.1614007709","","0.2","","0.8","0.3318596792","0.4313330006","","","","","",""
"378","","bandit","306","972459","0.0-267.0-0.0","08157512","wem/bandit_either","APXNY64HXO08K","either","8","","","","","","","76","L","3","","0","0","1","0.4253897179","","","228","0.2079318551","","main_expt","0.4","0.1160982884","0.6","","0.3715738924","0.2","0.4253897179","0.8","","","","","","","",""
"568","","bandit","307","974559","0.0-268.0-0.0","08157512","wem/bandit_either","APXNY64HXO08K","either","8","","","","","","","75","K","2","","0","1","0","","0.3571583743","","229","","0.1860779256","main_expt","0.4","","0.6","0.1327168588","","0.2","","0.8","0.3571583743","0.4416009531","","","","","",""
"510","","bandit","308","976591","0.0-269.0-0.0","08157512","wem/bandit_either","APXNY64HXO08K","either","8","","","","","","","75","K","2","","0","1","0","","0.3455313741","","230","","0.1294985144","main_expt","0.4","","0.6","0.1751239199","","0.2","","0.8","0.3455313741","0.4612445757","","","","","",""
"365","","bandit","309","978472","0.0-270.0-0.0","08157512","wem/bandit_either","APXNY64HXO08K","either","8","","","","","","","75","K","2","","0","1","0","","0.3114256563","","231","","0.1424139305","main_expt","0.4","","0.6","0.2080149414","","0.2","","0.8","0.3114256563","0.4455927364","","","","","",""
"442","","bandit","310","980444","0.0-271.0-0.0","08157512","wem/bandit_either","APXNY64HXO08K","either","8","","","","","","","75","K","2","","0","0","1","0.3127001645","","","232","0.1777617008","","main_expt","0.4","0.2305008548","0.6","","0.3127001645","0.2","0.4449483857","0.8","","","","","","","",""
"530","","bandit","311","982508","0.0-272.0-0.0","08157512","wem/bandit_either","APXNY64HXO08K","either","8","","","","","","","74","J","1","","0","0","1","","0.2331895239","","233","","0.1408291819","main_expt","0.4","","0.6","0.2331895239","","0.2","","0.8","0.2953609795","0.4570404202","","","","","",""
"439","","bandit","312","984473","0.0-273.0-0.0","08157512","wem/bandit_either","APXNY64HXO08K","either","8","","","","","","","72","H","0","img/none_selected.jpg","0","0","1","","0.09563300426","","234","","0.09563300426","main_expt","0.4","","0.6","0.2007149185","","0.2","","0.8","0.2743769666","0.4785018613","","","","","",""
"497","","bandit","313","986502","0.0-274.0-0.0","08157512","wem/bandit_either","APXNY64HXO08K","either","8","","","","","","","74","J","1","","0","0","1","0.1428876463","","","235","0.06508254785","","main_expt","0.4","0.1428876463","0.6","","0.2842570603","0.2","0.4708517218","0.8","","","","","","","",""
"13","","bandit","314","988045","0.0-275.0-0.0","08157512","wem/bandit_either","APXNY64HXO08K","either","8","","","","","","","75","K","2","","0","1","0","","0.3536106974","","236","","0.05272484418","main_expt","0.4","","0.6","0.1327756685","","0.2","","0.8","0.3536106974","0.4721911582","","","","","",""
"487","","bandit","315","990063","0.0-276.0-0.0","08157512","wem/bandit_either","APXNY64HXO08K","either","8","","","","","","","75","K","2","","0","1","0","","0.3777879982","","237","","0.05000735717","main_expt","0.4","","0.6","0.1969646424","","0.2","","0.8","0.3777879982","0.4567984566","","","","","",""
"1204","","bandit","316","992797","0.0-277.0-0.0","08157512","wem/bandit_either","APXNY64HXO08K","either","8","","","","","","","75","K","2","","0","1","0","","0.3819628943","","238","","0.03409798278","main_expt","0.4","","0.6","0.2040955009","","0.2","","0.8","0.3819628943","0.4601910044","","","","","",""
"3335","","bandit","317","997662","0.0-278.0-0.0","08157512","wem/bandit_either","APXNY64HXO08K","either","8","","","","","","","75","K","2","","0","0","1","","0.3590612953","","239","","0.03555143528","main_expt","0.4","","0.6","0.1885012088","","0.2","","0.8","0.3590612953","0.4663275819","","","","","",""
"658","","bandit","318","999852","0.0-279.0-0.0","08157512","wem/bandit_either","APXNY64HXO08K","either","8","","","","","","","76","L","3","","0","1","0","","0.4781926851","","240","","0.06633834621","main_expt","0.4","","0.6","0.1779850251","","0.2","","0.8","0.3943681209","0.4781926851","","","","","",""
"1162","","bandit","319","1002542","0.0-280.0-0.0","08157512","wem/bandit_either","APXNY64HXO08K","either","8","","","","","","","76","L","3","","0","0","1","","0.4813407325","","241","","0.0332650027","main_expt","0.4","","0.6","0.2132761508","","0.2","","0.8","0.4178476804","0.4813407325","","","","","",""
"269","","bandit","320","1004349","0.0-281.0-0.0","08157512","wem/bandit_either","APXNY64HXO08K","either","8","","","","","","","75","K","2","","0","1","0","","0.4083523659","","242","","0.03674005559","main_expt","0.4","","0.6","0.2181708985","","0.2","","0.8","0.4083523659","0.4758201438","","","","","",""
"408","","bandit","321","1006288","0.0-282.0-0.0","08157512","wem/bandit_either","APXNY64HXO08K","either","8","","","","","","","75","K","2","","0","0","1","","0.4107673147","","243","","0.02732183546","main_expt","0.4","","0.6","0.1880751836","","0.2","","0.8","0.4107673147","0.4739127226","","","","","",""
"42","","bandit","322","1007847","0.0-283.0-0.0","08157512","wem/bandit_either","APXNY64HXO08K","either","8","","","","","","","74","J","1","","0","0","1","0.2693527465","","","244","0.02742276317","","main_expt","0.4","0.2693527465","0.6","","0.3914084711","0.2","0.4467527753","0.8","","","","","","","",""
"94","","bandit","323","1009469","0.0-284.0-0.0","08157512","wem/bandit_either","APXNY64HXO08K","either","8","","","","","","","74","J","1","","0","0","1","0.2474629182","","","245","0.03322496416","","main_expt","0.4","0.2474629182","0.6","","0.4117032301","0.2","0.4492118003","0.8","","","","","","","",""
"370","","bandit","324","1011370","0.0-285.0-0.0","08157512","wem/bandit_either","APXNY64HXO08K","either","8","","","","","","","74","J","1","","1","0","0","0.3019125269","","","246","0.0538648904","","main_expt","0.4","0.3019125269","0.6","","0.4225436654","0.2","0.4702058379","0.8","","","","","","","",""
"637","","bandit","325","1013537","0.0-286.0-0.0","08157512","wem/bandit_either","APXNY64HXO08K","either","8","","","","","","","74","J","1","","0","0","1","0.3013832462","","","247","0.05538537946","","main_expt","0.4","0.3013832462","0.6","","0.4327875568","0.2","0.4717010128","0.8","","","","","","","",""
"814","","bandit","326","1015894","0.0-287.0-0.0","08157512","wem/bandit_either","APXNY64HXO08K","either","8","","","","","","","72","H","0","img/none_selected.jpg","0","0","1","","0.07377210468","","248","","0.07377210468","main_expt","0.4","","0.6","0.2917300956","","0.2","","0.8","0.4478523955","0.4750055548","","","","","",""
"117","","bandit","327","1017543","0.0-288.0-0.0","08157512","wem/bandit_either","APXNY64HXO08K","either","8","","","","","","","74","J","1","","0","0","1","0.2976682537","","","249","0.07098242635","","main_expt","0.4","0.2976682537","0.6","","0.4221620221","0.2","0.4608113614","0.8","","","","","","","",""
"634","","bandit","328","1019711","0.0-289.0-0.0","08157512","wem/bandit_either","APXNY64HXO08K","either","8","","","","","","","75","K","2","","0","1","0","","0.3998447204","","250","","0.08291081884","main_expt","0.4","","0.6","0.2921609534","","0.2","","0.8","0.3998447204","0.4361301801","","","","","",""
"953","","bandit","329","1022197","0.0-290.0-0.0","08157512","wem/bandit_either","APXNY64HXO08K","either","8","","","","","","","75","K","2","","0","1","0","","0.4053116556","","251","","0.07668358207","main_expt","0.4","","0.6","0.3026336231","","0.2","","0.8","0.4053116556","0.4203652199","","","","","",""
"564","","bandit","330","1024289","0.0-291.0-0.0","08157512","wem/bandit_either","APXNY64HXO08K","either","8","","","","","","","75","K","2","","0","0","1","","0.3780439072","","252","","0.05892609675","main_expt","0.4","","0.6","0.3303824841","","0.2","","0.8","0.3780439072","0.4465363659","","","","","",""
"807","","bandit","331","1026628","0.0-292.0-0.0","08157512","wem/bandit_either","APXNY64HXO08K","either","8","","","","","","","76","L","3","","0","0","1","0.4480562975","","","253","0.05309255245","","main_expt","0.4","0.3024212104","0.6","","0.4356020742","0.2","0.4480562975","0.8","","","","","","","",""
"336","","bandit","332","1028494","0.0-293.0-0.0","08157512","wem/bandit_either","APXNY64HXO08K","either","8","","","","","","","76","L","3","","0","1","0","","0.4421075204","","254","","0.03865169821","main_expt","0.4","","0.6","0.3110648486","","0.2","","0.8","0.4576925499","0.4421075204","","","","","",""
"1323","","bandit","333","1031345","0.0-294.0-0.0","08157512","wem/bandit_either","APXNY64HXO08K","either","8","","","","","","","76","L","3","","0","1","0","","0.4233433244","","255","","0.04471370441","main_expt","0.4","","0.6","0.2494326665","","0.2","","0.8","0.4745940057","0.4233433244","","","","","",""
"1254","","bandit","334","1034128","0.0-295.0-0.0","08157512","wem/bandit_either","APXNY64HXO08K","either","8","","","","","","","76","L","3","","0","1","0","","0.4319893648","","256","","0.0734058717","main_expt","0.4","","0.6","0.1905423543","","0.2","","0.8","0.4660064849","0.4319893648","","","","","",""
"681","","bandit","335","1036343","0.0-296.0-0.0","08157512","wem/bandit_either","APXNY64HXO08K","either","8","","","","","","","76","L","3","","0","0","1","0.437126908","","","257","0.03667167666","","main_expt","0.4","0.1249974022","0.6","","0.4742514144","0.2","0.437126908","0.8","","","","","","","",""
