"rt","responses","trial_type","trial_index","time_elapsed","internal_node_id","subjID","study","MID","cond","drift","key_press","expt_phase","target","like","value","connected","gems","bombs","no_reward","GemPrChosen","BombPrChosen","GainOverPainPr_0","GainOverPainPr_1","GainOverPainPr_2","GainOverPainPr_3","LosePr_0","LosePr_1","LosePr_2","LosePr_3","WinPr_0","WinPr_1","WinPr_2","WinPr_3","Q0","Q1","Q2","gender","age","ethnicity","respCharCode","respKey","respChoiceNum","respChoice","practice","trial_counter","trial_label"
"6568","{""Q0"":""A2YCMT5BPA0AG9""}","survey-text","0","6578","0.0-0.0","08295851","wem/bandit_either","A2YCMT5BPA0AG9","either","5","","","","","","","","","","","","","","","","","","","","","","","","","","","","","","","","","","","",""
"17508","","text","1","25091","0.0-1.0","08295851","wem/bandit_either","A2YCMT5BPA0AG9","either","5","32","","","","","","","","","","","","","","","","","","","","","","","","","","","","","","","","","","",""
"4370","","text","2","29464","0.0-2.0","08295851","wem/bandit_either","A2YCMT5BPA0AG9","either","5","32","","","","","","","","","","","","","","","","","","","","","","","","","","","","","","","","","","",""
"25316","","text","3","54782","0.0-3.0","08295851","wem/bandit_either","A2YCMT5BPA0AG9","either","5","32","","","","","","","","","","","","","","","","","","","","","","","","","","","","","","","","","","",""
"13683","","text","4","68467","0.0-4.0","08295851","wem/bandit_either","A2YCMT5BPA0AG9","either","5","32","","","","","","","","","","","","","","","","","","","","","","","","","","","","","","","","","","",""
"30955","","text","5","99424","0.0-5.0","08295851","wem/bandit_either","A2YCMT5BPA0AG9","either","5","32","","","","","","","","","","","","","","","","","","","","","","","","","","","","","","","","","","",""
"5290","","text","6","104716","0.0-6.0","08295851","wem/bandit_either","A2YCMT5BPA0AG9","either","5","32","","","","","","","","","","","","","","","","","","","","","","","","","","","","","","","","","","",""
"2988","","text","7","107706","0.0-7.0","08295851","wem/bandit_either","A2YCMT5BPA0AG9","either","5","32","","","","","","","","","","","","","","","","","","","","","","","","","","","","","","","","","","",""
"13258","","identification","8","120988","0.0-8.0-0.0","08295851","wem/bandit_either","A2YCMT5BPA0AG9","either","5","","identification_pre","the village of Zur","","","","","","","","","","","","","","","","","","","","","","","","","","","","","","","","",""
"4532","","identification","9","126540","0.0-8.0-1.0","08295851","wem/bandit_either","A2YCMT5BPA0AG9","either","5","","identification_pre","the village of Nyx","","","","","","","","","","","","","","","","","","","","","","","","","","","","","","","","",""
"10560","","text","10","138103","0.0-9.0","08295851","wem/bandit_either","A2YCMT5BPA0AG9","either","5","32","","","","","","","","","","","","","","","","","","","","","","","","","","","","","","","","","","",""
"1224","","text","11","139330","0.0-10.0","08295851","wem/bandit_either","A2YCMT5BPA0AG9","either","5","32","","","","","","","","","","","","","","","","","","","","","","","","","","","","","","","","","","",""
"1360","","text","12","140692","0.0-11.0","08295851","wem/bandit_either","A2YCMT5BPA0AG9","either","5","32","","","","","","","","","","","","","","","","","","","","","","","","","","","","","","","","","","",""
"10210","","text","13","150904","0.0-12.0","08295851","wem/bandit_either","A2YCMT5BPA0AG9","either","5","32","","","","","","","","","","","","","","","","","","","","","","","","","","","","","","","","","","",""
"4157","","bandit","14","156574","0.0-13.0-0.0","08295851","wem/bandit_either","A2YCMT5BPA0AG9","either","5","","","","","","","0","0","1","0","0","","","","","0","","","","0","","","","","","","","","","74","J","0","img/none_selected_demo.jpg","true","0",""
"1061","","bandit","15","159143","0.0-14.0-0.0","08295851","wem/bandit_either","A2YCMT5BPA0AG9","either","5","","","","","","","0","0","1","0","0","","","","","0","","","","0","","","","","","","","","","75","K","0","img/none_selected_demo.jpg","true","0",""
"4851","","text","16","163996","0.0-15.0","08295851","wem/bandit_either","A2YCMT5BPA0AG9","either","5","32","","","","","","","","","","","","","","","","","","","","","","","","","","","","","","","","","","",""
"13910","","text","17","177908","0.0-16.0","08295851","wem/bandit_either","A2YCMT5BPA0AG9","either","5","32","","","","","","","","","","","","","","","","","","","","","","","","","","","","","","","","","","",""
"5993","","text","18","183902","0.0-17.0","08295851","wem/bandit_either","A2YCMT5BPA0AG9","either","5","32","","","","","","","","","","","","","","","","","","","","","","","","","","","","","","","","","","",""
"2820","","text","19","186724","0.0-18.0","08295851","wem/bandit_either","A2YCMT5BPA0AG9","either","5","32","","","","","","","","","","","","","","","","","","","","","","","","","","","","","","","","","","",""
"3377","","bandit","20","191609","0.0-19.0-0.0","08295851","wem/bandit_either","A2YCMT5BPA0AG9","either","5","","","","","","","1","0","0","0.8","","0.5","0.5","","","","","","","0.8","0.2","","","","","","","","","74","J","0","img/none_selected_demo.jpg","true","0","80_20_practice"
"684","","bandit","21","193800","0.0-19.0-1.0","08295851","wem/bandit_either","A2YCMT5BPA0AG9","either","5","","","","","","","0","1","0","","0.8","0.5","0.5","","","0.8","0.2","","","","","","","","","","","","","74","J","0","img/none_selected_demo.jpg","true","0","80_20_practice"
"379","","bandit","22","195687","0.0-19.0-2.0","08295851","wem/bandit_either","A2YCMT5BPA0AG9","either","5","","","","","","","0","0","1","0.2","","0.5","0.5","","","","","","","0.8","0.2","","","","","","","","","75","K","1","","true","0","80_20_practice"
"518","","bandit","23","197712","0.0-19.0-3.0","08295851","wem/bandit_either","A2YCMT5BPA0AG9","either","5","","","","","","","1","0","0","0.2","","0.5","0.5","","","","","","","0.8","0.2","","","","","","","","","75","K","1","","true","0","80_20_practice"
"380","","bandit","24","199601","0.0-19.0-4.0","08295851","wem/bandit_either","A2YCMT5BPA0AG9","either","5","","","","","","","0","0","1","0.2","","0.5","0.5","","","","","","","0.8","0.2","","","","","","","","","75","K","1","","true","0","80_20_practice"
"408","","bandit","25","201516","0.0-19.0-5.0","08295851","wem/bandit_either","A2YCMT5BPA0AG9","either","5","","","","","","","0","1","0","","0.2","0.5","0.5","","","0.8","0.2","","","","","","","","","","","","","75","K","1","","true","0","80_20_practice"
"264","","bandit","26","203289","0.0-19.0-6.0","08295851","wem/bandit_either","A2YCMT5BPA0AG9","either","5","","","","","","","0","1","0","","0.8","0.5","0.5","","","0.8","0.2","","","","","","","","","","","","","74","J","0","img/none_selected_demo.jpg","true","0","80_20_practice"
"229","","bandit","27","205025","0.0-19.0-7.0","08295851","wem/bandit_either","A2YCMT5BPA0AG9","either","5","","","","","","","1","0","0","0.2","","0.5","0.5","","","","","","","0.8","0.2","","","","","","","","","75","K","1","","true","0","80_20_practice"
"281","","bandit","28","206815","0.0-19.0-8.0","08295851","wem/bandit_either","A2YCMT5BPA0AG9","either","5","","","","","","","0","0","1","","0.2","0.5","0.5","","","0.8","0.2","","","","","","","","","","","","","75","K","1","","true","0","80_20_practice"
"303","","bandit","29","208625","0.0-19.0-9.0","08295851","wem/bandit_either","A2YCMT5BPA0AG9","either","5","","","","","","","0","0","1","0.2","","0.5","0.5","","","","","","","0.8","0.2","","","","","","","","","75","K","1","","true","0","80_20_practice"
"460","","bandit","30","210595","0.0-19.0-10.0","08295851","wem/bandit_either","A2YCMT5BPA0AG9","either","5","","","","","","","0","0","1","0.2","","0.5","0.5","","","","","","","0.8","0.2","","","","","","","","","75","K","1","","true","0","80_20_practice"
"239","","bandit","31","212340","0.0-19.0-11.0","08295851","wem/bandit_either","A2YCMT5BPA0AG9","either","5","","","","","","","1","0","0","0.8","","0.5","0.5","","","","","","","0.8","0.2","","","","","","","","","74","J","0","img/none_selected_demo.jpg","true","0","80_20_practice"
"229","","bandit","32","214078","0.0-19.0-12.0","08295851","wem/bandit_either","A2YCMT5BPA0AG9","either","5","","","","","","","1","0","0","0.8","","0.5","0.5","","","","","","","0.8","0.2","","","","","","","","","74","J","0","img/none_selected_demo.jpg","true","0","80_20_practice"
"308","","bandit","33","215894","0.0-19.0-13.0","08295851","wem/bandit_either","A2YCMT5BPA0AG9","either","5","","","","","","","0","1","0","","0.8","0.5","0.5","","","0.8","0.2","","","","","","","","","","","","","74","J","0","img/none_selected_demo.jpg","true","0","80_20_practice"
"356","","bandit","34","217761","0.0-19.0-14.0","08295851","wem/bandit_either","A2YCMT5BPA0AG9","either","5","","","","","","","0","1","0","","0.8","0.5","0.5","","","0.8","0.2","","","","","","","","","","","","","74","J","0","img/none_selected_demo.jpg","true","0","80_20_practice"
"446","","bandit","35","219715","0.0-19.0-15.0","08295851","wem/bandit_either","A2YCMT5BPA0AG9","either","5","","","","","","","0","0","1","0.8","","0.5","0.5","","","","","","","0.8","0.2","","","","","","","","","74","J","0","img/none_selected_demo.jpg","true","0","80_20_practice"
"345","","bandit","36","221568","0.0-19.0-16.0","08295851","wem/bandit_either","A2YCMT5BPA0AG9","either","5","","","","","","","0","0","1","0.8","","0.5","0.5","","","","","","","0.8","0.2","","","","","","","","","74","J","0","img/none_selected_demo.jpg","true","0","80_20_practice"
"262","","bandit","37","223337","0.0-19.0-17.0","08295851","wem/bandit_either","A2YCMT5BPA0AG9","either","5","","","","","","","0","0","1","0.2","","0.5","0.5","","","","","","","0.8","0.2","","","","","","","","","75","K","1","","true","0","80_20_practice"
"259","","bandit","38","225104","0.0-19.0-18.0","08295851","wem/bandit_either","A2YCMT5BPA0AG9","either","5","","","","","","","1","0","0","0.2","","0.5","0.5","","","","","","","0.8","0.2","","","","","","","","","75","K","1","","true","0","80_20_practice"
"275","","bandit","39","226885","0.0-19.0-19.0","08295851","wem/bandit_either","A2YCMT5BPA0AG9","either","5","","","","","","","0","0","1","","0.2","0.5","0.5","","","0.8","0.2","","","","","","","","","","","","","75","K","1","","true","0","80_20_practice"
"8057","","text","40","234945","0.0-20.0","08295851","wem/bandit_either","A2YCMT5BPA0AG9","either","5","32","","","","","","","","","","","","","","","","","","","","","","","","","","","","","","","","","","",""
"3278","","bandit","41","239730","0.0-21.0-0.0","08295851","wem/bandit_either","A2YCMT5BPA0AG9","either","5","","","","","","","1","0","0","1","0","","","","","0","1","","","1","0","","","","","","","","","74","J","0","img/none_selected_demo.jpg","true","0",""
"8128","","text","42","247862","0.0-22.0","08295851","wem/bandit_either","A2YCMT5BPA0AG9","either","5","32","","","","","","","","","","","","","","","","","","","","","","","","","","","","","","","","","","",""
"3727","","text","43","251592","0.0-23.0","08295851","wem/bandit_either","A2YCMT5BPA0AG9","either","5","32","","","","","","","","","","","","","","","","","","","","","","","","","","","","","","","","","","",""
"1658","","text","44","253252","0.0-24.0","08295851","wem/bandit_either","A2YCMT5BPA0AG9","either","5","32","","","","","","","","","","","","","","","","","","","","","","","","","","","","","","","","","","",""
"1021","","text","45","254276","0.0-25.0","08295851","wem/bandit_either","A2YCMT5BPA0AG9","either","5","32","","","","","","","","","","","","","","","","","","","","","","","","","","","","","","","","","","",""
"7401","","text","46","261680","0.0-26.0","08295851","wem/bandit_either","A2YCMT5BPA0AG9","either","5","32","","","","","","","","","","","","","","","","","","","","","","","","","","","","","","","","","","",""
"2714","","text","47","264396","0.0-27.0","08295851","wem/bandit_either","A2YCMT5BPA0AG9","either","5","32","","","","","","","","","","","","","","","","","","","","","","","","","","","","","","","","","","",""
"3682","","text","48","268082","0.0-28.0","08295851","wem/bandit_either","A2YCMT5BPA0AG9","either","5","32","","","","","","","","","","","","","","","","","","","","","","","","","","","","","","","","","","",""
"1789","","text","49","269874","0.0-29.0","08295851","wem/bandit_either","A2YCMT5BPA0AG9","either","5","32","","","","","","","","","","","","","","","","","","","","","","","","","","","","","","","","","","",""
"2528","","text","50","272406","0.0-30.0","08295851","wem/bandit_either","A2YCMT5BPA0AG9","either","5","32","","","","","","","","","","","","","","","","","","","","","","","","","","","","","","","","","","",""
"1793","","text","51","274202","0.0-31.0","08295851","wem/bandit_either","A2YCMT5BPA0AG9","either","5","32","","","","","","","","","","","","","","","","","","","","","","","","","","","","","","","","","","",""
"3245","","text","52","277450","0.0-32.0","08295851","wem/bandit_either","A2YCMT5BPA0AG9","either","5","32","","","","","","","","","","","","","","","","","","","","","","","","","","","","","","","","","","",""
"3458","","bandit","53","282417","0.0-33.0-0.0","08295851","wem/bandit_either","A2YCMT5BPA0AG9","either","5","","","","","","","1","0","0","0.8","","0.5","0.5","0.5","0.5","","","","","0.8","0.2","0.6","0.2","","","","","","","72","H","0","img/none_selected.jpg","true","0","full_practice"
"875","","bandit","54","284802","0.0-33.0-1.0","08295851","wem/bandit_either","A2YCMT5BPA0AG9","either","5","","","","","","","0","1","0","","0.2","0.5","0.5","0.5","0.5","0.8","0.2","0.6","0.2","","","","","","","","","","","74","J","1","","true","0","full_practice"
"308","","bandit","55","286622","0.0-33.0-2.0","08295851","wem/bandit_either","A2YCMT5BPA0AG9","either","5","","","","","","","1","0","0","0.6","","0.5","0.5","0.5","0.5","","","","","0.8","0.2","0.6","0.2","","","","","","","75","K","2","","true","0","full_practice"
"410","","bandit","56","288541","0.0-33.0-3.0","08295851","wem/bandit_either","A2YCMT5BPA0AG9","either","5","","","","","","","1","0","0","0.2","","0.5","0.5","0.5","0.5","","","","","0.8","0.2","0.6","0.2","","","","","","","76","L","3","","true","0","full_practice"
"1199","","bandit","57","291248","0.0-33.0-4.0","08295851","wem/bandit_either","A2YCMT5BPA0AG9","either","5","","","","","","","0","0","1","0.2","","0.5","0.5","0.5","0.5","","","","","0.8","0.2","0.6","0.2","","","","","","","76","L","3","","true","0","full_practice"
"1262","","bandit","58","294018","0.0-33.0-5.0","08295851","wem/bandit_either","A2YCMT5BPA0AG9","either","5","","","","","","","0","1","0","","0.8","0.5","0.5","0.5","0.5","0.8","0.2","0.6","0.2","","","","","","","","","","","72","H","0","img/none_selected.jpg","true","0","full_practice"
"269","","bandit","59","295796","0.0-33.0-6.0","08295851","wem/bandit_either","A2YCMT5BPA0AG9","either","5","","","","","","","0","0","1","0.2","","0.5","0.5","0.5","0.5","","","","","0.8","0.2","0.6","0.2","","","","","","","74","J","1","","true","0","full_practice"
"332","","bandit","60","297638","0.0-33.0-7.0","08295851","wem/bandit_either","A2YCMT5BPA0AG9","either","5","","","","","","","1","0","0","0.6","","0.5","0.5","0.5","0.5","","","","","0.8","0.2","0.6","0.2","","","","","","","75","K","2","","true","0","full_practice"
"377","","bandit","61","299524","0.0-33.0-8.0","08295851","wem/bandit_either","A2YCMT5BPA0AG9","either","5","","","","","","","1","0","0","0.2","","0.5","0.5","0.5","0.5","","","","","0.8","0.2","0.6","0.2","","","","","","","76","L","3","","true","0","full_practice"
"505","","bandit","62","301539","0.0-33.0-9.0","08295851","wem/bandit_either","A2YCMT5BPA0AG9","either","5","","","","","","","0","0","1","","0.6","0.5","0.5","0.5","0.5","0.8","0.2","0.6","0.2","","","","","","","","","","","75","K","2","","true","0","full_practice"
"341","","bandit","63","303389","0.0-33.0-10.0","08295851","wem/bandit_either","A2YCMT5BPA0AG9","either","5","","","","","","","0","0","1","","0.2","0.5","0.5","0.5","0.5","0.8","0.2","0.6","0.2","","","","","","","","","","","76","L","3","","true","0","full_practice"
"2817","","bandit","64","307716","0.0-33.0-11.0","08295851","wem/bandit_either","A2YCMT5BPA0AG9","either","5","","","","","","","0","1","0","","0.8","0.5","0.5","0.5","0.5","0.8","0.2","0.6","0.2","","","","","","","","","","","72","H","0","img/none_selected.jpg","true","0","full_practice"
"302","","bandit","65","309526","0.0-33.0-12.0","08295851","wem/bandit_either","A2YCMT5BPA0AG9","either","5","","","","","","","0","1","0","","0.2","0.5","0.5","0.5","0.5","0.8","0.2","0.6","0.2","","","","","","","","","","","74","J","1","","true","0","full_practice"
"374","","bandit","66","311407","0.0-33.0-13.0","08295851","wem/bandit_either","A2YCMT5BPA0AG9","either","5","","","","","","","1","0","0","0.8","","0.5","0.5","0.5","0.5","","","","","0.8","0.2","0.6","0.2","","","","","","","72","H","0","img/none_selected.jpg","true","0","full_practice"
"308","","bandit","67","313223","0.0-33.0-14.0","08295851","wem/bandit_either","A2YCMT5BPA0AG9","either","5","","","","","","","0","0","1","","0.2","0.5","0.5","0.5","0.5","0.8","0.2","0.6","0.2","","","","","","","","","","","74","J","1","","true","0","full_practice"
"232","","bandit","68","314965","0.0-33.0-15.0","08295851","wem/bandit_either","A2YCMT5BPA0AG9","either","5","","","","","","","1","0","0","0.8","","0.5","0.5","0.5","0.5","","","","","0.8","0.2","0.6","0.2","","","","","","","72","H","0","img/none_selected.jpg","true","0","full_practice"
"309","","bandit","69","316782","0.0-33.0-16.0","08295851","wem/bandit_either","A2YCMT5BPA0AG9","either","5","","","","","","","0","1","0","","0.8","0.5","0.5","0.5","0.5","0.8","0.2","0.6","0.2","","","","","","","","","","","72","H","0","img/none_selected.jpg","true","0","full_practice"
"207","","bandit","70","318499","0.0-33.0-17.0","08295851","wem/bandit_either","A2YCMT5BPA0AG9","either","5","","","","","","","1","0","0","0.8","","0.5","0.5","0.5","0.5","","","","","0.8","0.2","0.6","0.2","","","","","","","72","H","0","img/none_selected.jpg","true","0","full_practice"
"204","","bandit","71","320215","0.0-33.0-18.0","08295851","wem/bandit_either","A2YCMT5BPA0AG9","either","5","","","","","","","0","1","0","","0.8","0.5","0.5","0.5","0.5","0.8","0.2","0.6","0.2","","","","","","","","","","","72","H","0","img/none_selected.jpg","true","0","full_practice"
"221","","bandit","72","321946","0.0-33.0-19.0","08295851","wem/bandit_either","A2YCMT5BPA0AG9","either","5","","","","","","","1","0","0","0.8","","0.5","0.5","0.5","0.5","","","","","0.8","0.2","0.6","0.2","","","","","","","72","H","0","img/none_selected.jpg","true","0","full_practice"
"5360","","text","73","327316","0.0-34.0","08295851","wem/bandit_either","A2YCMT5BPA0AG9","either","5","32","","","","","","","","","","","","","","","","","","","","","","","","","","","","","","","","","","",""
"10162","","text","74","338483","0.0-35.0","08295851","wem/bandit_either","A2YCMT5BPA0AG9","either","5","32","","","","","","","","","","","","","","","","","","","","","","","","","","","","","","","","","","",""
"5105","","text","75","343591","0.0-36.0","08295851","wem/bandit_either","A2YCMT5BPA0AG9","either","5","32","","","","","","","","","","","","","","","","","","","","","","","","","","","","","","","","","","",""
"3468","","text","76","347063","0.0-37.0","08295851","wem/bandit_either","A2YCMT5BPA0AG9","either","5","32","","","","","","","","","","","","","","","","","","","","","","","","","","","","","","","","","","",""
"5707","","text","77","352774","0.0-38.0","08295851","wem/bandit_either","A2YCMT5BPA0AG9","either","5","32","","","","","","","","","","","","","","","","","","","","","","","","","","","","","","","","","","",""
"2203","","text","78","354980","0.0-39.0","08295851","wem/bandit_either","A2YCMT5BPA0AG9","either","5","32","","","","","","","","","","","","","","","","","","","","","","","","","","","","","","","","","","",""
"3490","","bandit","79","359981","0.0-40.0-0.0","08295851","wem/bandit_either","A2YCMT5BPA0AG9","either","5","","","","","","","0","1","0","","0.1165465043","0.6","0.4","0.8","0.2","0.1165465043","0.3340388524","0.4265570961","0.3897275569","","","","","","","","","","","72","H","0","img/none_selected.jpg","","1","main_expt"
"449","","bandit","80","361940","0.0-41.0-0.0","08295851","wem/bandit_either","A2YCMT5BPA0AG9","either","5","","","","","","","0","1","0","","0.3223834482","0.6","0.4","0.8","0.2","0.08371899021","0.3223834482","0.4177099958","0.3911966266","","","","","","","","","","","74","J","1","","","2","main_expt"
"663","","bandit","81","364110","0.0-42.0-0.0","08295851","wem/bandit_either","A2YCMT5BPA0AG9","either","5","","","","","","","0","0","1","0.4192185534","","0.6","0.4","0.8","0.2","","","","","0.04339790364","0.3585509001","0.4192185534","0.4074861021","","","","","","","75","K","2","","","3","main_expt"
"739","","bandit","82","366360","0.0-43.0-0.0","08295851","wem/bandit_either","A2YCMT5BPA0AG9","either","5","","","","","","","0","0","1","","0.3965638453","0.6","0.4","0.8","0.2","0.04073472785","0.3416436242","0.4241610434","0.3965638453","","","","","","","","","","","76","L","3","","","4","main_expt"
"692","","bandit","83","368561","0.0-44.0-0.0","08295851","wem/bandit_either","A2YCMT5BPA0AG9","either","5","","","","","","","0","0","1","0.04731773769","","0.6","0.4","0.8","0.2","","","","","0.04731773769","0.3444758892","0.4284837315","0.3688269119","","","","","","","72","H","0","img/none_selected.jpg","","5","main_expt"
"338","","bandit","84","370409","0.0-45.0-0.0","08295851","wem/bandit_either","A2YCMT5BPA0AG9","either","5","","","","","","","1","0","0","0.3574177426","","0.6","0.4","0.8","0.2","","","","","0.05617088868","0.3574177426","0.4328708062","0.3865867917","","","","","","","74","J","1","","","6","main_expt"
"279","","bandit","85","372200","0.0-46.0-0.0","08295851","wem/bandit_either","A2YCMT5BPA0AG9","either","5","","","","","","","0","1","0","","0.4176545671","0.6","0.4","0.8","0.2","0.05606577856","0.3634052143","0.4176545671","0.4294719924","","","","","","","","","","","75","K","2","","","7","main_expt"
"331","","bandit","86","374040","0.0-47.0-0.0","08295851","wem/bandit_either","A2YCMT5BPA0AG9","either","5","","","","","","","0","1","0","","0.4210378118","0.6","0.4","0.8","0.2","0.09244853328","0.3675420607","0.4022395488","0.4210378118","","","","","","","","","","","76","L","3","","","8","main_expt"
"916","","bandit","87","376466","0.0-48.0-0.0","08295851","wem/bandit_either","A2YCMT5BPA0AG9","either","5","","","","","","","0","0","1","","0.1271341085","0.6","0.4","0.8","0.2","0.1271341085","0.3921196104","0.3929004949","0.4502112583","","","","","","","","","","","72","H","0","img/none_selected.jpg","","9","main_expt"
"284","","bandit","88","378258","0.0-49.0-0.0","08295851","wem/bandit_either","A2YCMT5BPA0AG9","either","5","","","","","","","0","1","0","","0.4026182126","0.6","0.4","0.8","0.2","0.1370717255","0.4026182126","0.3863711448","0.4452653155","","","","","","","","","","","74","J","1","","","10","main_expt"
"314","","bandit","89","380081","0.0-50.0-0.0","08295851","wem/bandit_either","A2YCMT5BPA0AG9","either","5","","","","","","","1","0","0","0.4205849279","","0.6","0.4","0.8","0.2","","","","","0.1275050207","0.3543069494","0.4205849279","0.4352349267","","","","","","","75","K","2","","","11","main_expt"
"287","","bandit","90","381876","0.0-51.0-0.0","08295851","wem/bandit_either","A2YCMT5BPA0AG9","either","5","","","","","","","0","1","0","","0.4029030639","0.6","0.4","0.8","0.2","0.122317004","0.3504097904","0.4525069231","0.4029030639","","","","","","","","","","","76","L","3","","","12","main_expt"
"1955","","bandit","91","385340","0.0-52.0-0.0","08295851","wem/bandit_either","A2YCMT5BPA0AG9","either","5","","","","","","","0","0","1","0.2787441393","","0.6","0.4","0.8","0.2","","","","","0.1251711411","0.2787441393","0.4485799753","0.4198147105","","","","","","","74","J","1","","","13","main_expt"
"118","","bandit","92","386966","0.0-53.0-0.0","08295851","wem/bandit_either","A2YCMT5BPA0AG9","either","5","","","","","","","1","0","0","0.4504049656","","0.6","0.4","0.8","0.2","","","","","0.1380641988","0.2723245106","0.4504049656","0.3761312174","","","","","","","75","K","2","","","14","main_expt"
"277","","bandit","93","388753","0.0-54.0-0.0","08295851","wem/bandit_either","A2YCMT5BPA0AG9","either","5","","","","","","","0","0","1","","0.4017507227","0.6","0.4","0.8","0.2","0.2010812313","0.3687644442","0.4281165459","0.4017507227","","","","","","","","","","","76","L","3","","","15","main_expt"
"300","","bandit","94","390563","0.0-55.0-0.0","08295851","wem/bandit_either","A2YCMT5BPA0AG9","either","5","","","","","","","0","0","1","","0.4035101098","0.6","0.4","0.8","0.2","0.1747275657","0.3992289848","0.4035101098","0.3859888637","","","","","","","","","","","75","K","2","","","16","main_expt"
"281","","bandit","95","392353","0.0-56.0-0.0","08295851","wem/bandit_either","A2YCMT5BPA0AG9","either","5","","","","","","","0","1","0","","0.4067061876","0.6","0.4","0.8","0.2","0.1816524112","0.4067061876","0.4063691663","0.3706978481","","","","","","","","","","","74","J","1","","","17","main_expt"
"330","","bandit","96","394193","0.0-57.0-0.0","08295851","wem/bandit_either","A2YCMT5BPA0AG9","either","5","","","","","","","0","1","0","","0.3323991027","0.6","0.4","0.8","0.2","0.1700798448","0.3969002131","0.4201618032","0.3323991027","","","","","","","","","","","76","L","3","","","18","main_expt"
"1290","","bandit","97","396993","0.0-58.0-0.0","08295851","wem/bandit_either","A2YCMT5BPA0AG9","either","5","","","","","","","0","0","1","0.1998500639","","0.6","0.4","0.8","0.2","","","","","0.1998500639","0.3930099592","0.3868389751","0.3301718366","","","","","","","72","H","0","img/none_selected.jpg","","19","main_expt"
"709","","bandit","98","399212","0.0-59.0-0.0","08295851","wem/bandit_either","A2YCMT5BPA0AG9","either","5","","","","","","","0","0","1","","0.3791602553","0.6","0.4","0.8","0.2","0.2418808817","0.3791602553","0.3868875991","0.3714618997","","","","","","","","","","","74","J","1","","","20","main_expt"
"1101","","bandit","99","401824","0.0-60.0-0.0","08295851","wem/bandit_either","A2YCMT5BPA0AG9","either","5","","","","","","","0","0","1","","0.3621694591","0.6","0.4","0.8","0.2","0.2293341009","0.4127515201","0.4253770554","0.3621694591","","","","","","","","","","","76","L","3","","","21","main_expt"
"90","","bandit","100","403424","0.0-61.0-0.0","08295851","wem/bandit_either","A2YCMT5BPA0AG9","either","5","","","","","","","0","1","0","","0.4285762007","0.6","0.4","0.8","0.2","0.2074184163","0.4164833055","0.4285762007","0.3648829928","","","","","","","","","","","75","K","2","","","22","main_expt"
"328","","bandit","101","405261","0.0-62.0-0.0","08295851","wem/bandit_either","A2YCMT5BPA0AG9","either","5","","","","","","","0","1","0","","0.4082522222","0.6","0.4","0.8","0.2","0.1832507358","0.4143027846","0.4082522222","0.2856994719","","","","","","","","","","","75","K","2","","","23","main_expt"
"301","","bandit","102","407073","0.0-63.0-0.0","08295851","wem/bandit_either","A2YCMT5BPA0AG9","either","5","","","","","","","0","0","1","0.4027270218","","0.6","0.4","0.8","0.2","","","","","0.1469425149","0.3649270698","0.4027270218","0.3152516524","","","","","","","75","K","2","","","24","main_expt"
"271","","bandit","103","408853","0.0-64.0-0.0","08295851","wem/bandit_either","A2YCMT5BPA0AG9","either","5","","","","","","","0","1","0","","0.2778145345","0.6","0.4","0.8","0.2","0.102794739","0.392676409","0.4100212433","0.2778145345","","","","","","","","","","","76","L","3","","","25","main_expt"
"314","","bandit","104","410677","0.0-65.0-0.0","08295851","wem/bandit_either","A2YCMT5BPA0AG9","either","5","","","","","","","0","1","0","","0.4031565401","0.6","0.4","0.8","0.2","0.1173732637","0.4031565401","0.4190791169","0.3170506137","","","","","","","","","","","74","J","1","","","26","main_expt"
"299","","bandit","105","412486","0.0-66.0-0.0","08295851","wem/bandit_either","A2YCMT5BPA0AG9","either","5","","","","","","","0","0","1","","0.4527212376","0.6","0.4","0.8","0.2","0.08835016803","0.4245959001","0.4527212376","0.3223143746","","","","","","","","","","","75","K","2","","","27","main_expt"
"163","","bandit","106","414160","0.0-67.0-0.0","08295851","wem/bandit_either","A2YCMT5BPA0AG9","either","5","","","","","","","0","1","0","","0.3234472479","0.6","0.4","0.8","0.2","0.1134440288","0.4232885055","0.4480998813","0.3234472479","","","","","","","","","","","76","L","3","","","28","main_expt"
"282","","bandit","107","415951","0.0-68.0-0.0","08295851","wem/bandit_either","A2YCMT5BPA0AG9","either","5","","","","","","","0","1","0","","0.4495512981","0.6","0.4","0.8","0.2","0.1982905849","0.4495512981","0.4628669208","0.2881425904","","","","","","","","","","","74","J","1","","","29","main_expt"
"247","","bandit","108","417710","0.0-69.0-0.0","08295851","wem/bandit_either","A2YCMT5BPA0AG9","either","5","","","","","","","0","0","1","","0.2326555855","0.6","0.4","0.8","0.2","0.2366655967","0.4485299892","0.4565655028","0.2326555855","","","","","","","","","","","76","L","3","","","30","main_expt"
"273","","bandit","109","419493","0.0-70.0-0.0","08295851","wem/bandit_either","A2YCMT5BPA0AG9","either","5","","","","","","","1","0","0","0.4686031056","","0.6","0.4","0.8","0.2","","","","","0.1622470467","0.4599237238","0.4686031056","0.2364604256","","","","","","","75","K","2","","","31","main_expt"
"369","","bandit","110","421372","0.0-71.0-0.0","08295851","wem/bandit_either","A2YCMT5BPA0AG9","either","5","","","","","","","0","1","0","","0.4508116693","0.6","0.4","0.8","0.2","0.1771911602","0.4508116693","0.4659582456","0.2451982598","","","","","","","","","","","74","J","1","","","32","main_expt"
"126","","bandit","111","423008","0.0-72.0-0.0","08295851","wem/bandit_either","A2YCMT5BPA0AG9","either","5","","","","","","","0","1","0","","0.4810757035","0.6","0.4","0.8","0.2","0.1622836308","0.45101727","0.4810757035","0.2360369815","","","","","","","","","","","75","K","2","","","33","main_expt"
"352","","bandit","112","424870","0.0-73.0-0.0","08295851","wem/bandit_either","A2YCMT5BPA0AG9","either","5","","","","","","","0","0","1","","0.4842727378","0.6","0.4","0.8","0.2","0.1655985557","0.4340174653","0.4842727378","0.2317763892","","","","","","","","","","","75","K","2","","","34","main_expt"
"220","","bandit","113","426602","0.0-74.0-0.0","08295851","wem/bandit_either","A2YCMT5BPA0AG9","either","5","","","","","","","0","0","1","","0.2527891731","0.6","0.4","0.8","0.2","0.1492797185","0.4040147441","0.4745470136","0.2527891731","","","","","","","","","","","76","L","3","","","35","main_expt"
"1320","","bandit","114","429431","0.0-75.0-0.0","08295851","wem/bandit_either","A2YCMT5BPA0AG9","either","5","","","","","","","0","0","1","0.1504543003","","0.6","0.4","0.8","0.2","","","","","0.1504543003","0.4268829696","0.4440965139","0.2641283143","","","","","","","72","H","0","img/none_selected.jpg","","36","main_expt"
"627","","bandit","115","431567","0.0-76.0-0.0","08295851","wem/bandit_either","A2YCMT5BPA0AG9","either","5","","","","","","","0","0","1","0.4562327564","","0.6","0.4","0.8","0.2","","","","","0.1064249526","0.4562327564","0.4544425755","0.2309310423","","","","","","","74","J","1","","","37","main_expt"
"1145","","bandit","116","434221","0.0-77.0-0.0","08295851","wem/bandit_either","A2YCMT5BPA0AG9","either","5","","","","","","","1","0","0","0.4700138218","","0.6","0.4","0.8","0.2","","","","","0.1346530267","0.4481627861","0.4700138218","0.2093170459","","","","","","","75","K","2","","","38","main_expt"
"576","","bandit","117","436307","0.0-78.0-0.0","08295851","wem/bandit_either","A2YCMT5BPA0AG9","either","5","","","","","","","1","0","0","0.1398625959","","0.6","0.4","0.8","0.2","","","","","0.1303494481","0.4475890948","0.466948448","0.1398625959","","","","","","","76","L","3","","","39","main_expt"
"600","","bandit","118","438419","0.0-79.0-0.0","08295851","wem/bandit_either","A2YCMT5BPA0AG9","either","5","","","","","","","1","0","0","0.4679256248","","0.6","0.4","0.8","0.2","","","","","0.1492074344","0.4501575696","0.4679256248","0.09690087606","","","","","","","75","K","2","","","40","main_expt"
"289","","bandit","119","440222","0.0-80.0-0.0","08295851","wem/bandit_either","A2YCMT5BPA0AG9","either","5","","","","","","","1","0","0","0.1129569356","","0.6","0.4","0.8","0.2","","","","","0.1370672299","0.4121884666","0.445537573","0.1129569356","","","","","","","76","L","3","","","41","main_expt"
"256","","bandit","120","441989","0.0-81.0-0.0","08295851","wem/bandit_either","A2YCMT5BPA0AG9","either","5","","","","","","","0","1","0","","0.4521531226","0.6","0.4","0.8","0.2","0.08144147181","0.4379939247","0.4521531226","0.1227033228","","","","","","","","","","","75","K","2","","","42","main_expt"
"217","","bandit","121","443717","0.0-82.0-0.0","08295851","wem/bandit_either","A2YCMT5BPA0AG9","either","5","","","","","","","0","0","1","0.08393287497","","0.6","0.4","0.8","0.2","","","","","0.06793865388","0.4271747655","0.4695072217","0.08393287497","","","","","","","76","L","3","","","43","main_expt"
"248","","bandit","122","445475","0.0-83.0-0.0","08295851","wem/bandit_either","A2YCMT5BPA0AG9","either","5","","","","","","","0","1","0","","0.4807409838","0.6","0.4","0.8","0.2","0.05295344446","0.4480494518","0.4807409838","0.06260074275","","","","","","","","","","","75","K","2","","","44","main_expt"
"278","","bandit","123","447262","0.0-84.0-0.0","08295851","wem/bandit_either","A2YCMT5BPA0AG9","either","5","","","","","","","0","1","0","","0.4269729589","0.6","0.4","0.8","0.2","0.02744239742","0.4269729589","0.4507048108","0.08062123592","","","","","","","","","","","74","J","1","","","45","main_expt"
"251","","bandit","124","449024","0.0-85.0-0.0","08295851","wem/bandit_either","A2YCMT5BPA0AG9","either","5","","","","","","","0","0","1","0.4475746277","","0.6","0.4","0.8","0.2","","","","","0.02347437243","0.4475746277","0.4382321206","0.1110847749","","","","","","","74","J","1","","","46","main_expt"
"234","","bandit","125","450768","0.0-86.0-0.0","08295851","wem/bandit_either","A2YCMT5BPA0AG9","either","5","","","","","","","0","0","1","0.4393937913","","0.6","0.4","0.8","0.2","","","","","0.02418160198","0.4295618238","0.4393937913","0.05346849493","","","","","","","75","K","2","","","47","main_expt"
"54","","bandit","126","452333","0.0-87.0-0.0","08295851","wem/bandit_either","A2YCMT5BPA0AG9","either","5","","","","","","","0","0","1","0.04499733497","","0.6","0.4","0.8","0.2","","","","","0.01182676654","0.4431907244","0.440318131","0.04499733497","","","","","","","76","L","3","","","48","main_expt"
"542","","bandit","127","454386","0.0-88.0-0.0","08295851","wem/bandit_either","A2YCMT5BPA0AG9","either","5","","","","","","","0","1","0","","0.4187732916","0.6","0.4","0.8","0.2","0.0186287842","0.4187732916","0.4362102412","0.07378534534","","","","","","","","","","","74","J","1","","","49","main_expt"
"308","","bandit","128","456208","0.0-89.0-0.0","08295851","wem/bandit_either","A2YCMT5BPA0AG9","either","5","","","","","","","0","0","1","0.356579213","","0.6","0.4","0.8","0.2","","","","","0.02550629551","0.356579213","0.44488671","0.06168845619","","","","","","","74","J","1","","","50","main_expt"
"419","","bandit","129","458137","0.0-90.0-0.0","08295851","wem/bandit_either","A2YCMT5BPA0AG9","either","5","","","","","","","1","0","0","0.4633405548","","0.6","0.4","0.8","0.2","","","","","0.04366809707","0.2629404955","0.4633405548","0.1062028567","","","","","","","75","K","2","","","51","main_expt"
"291","","bandit","130","459940","0.0-91.0-0.0","08295851","wem/bandit_either","A2YCMT5BPA0AG9","either","5","","","","","","","1","0","0","0.4528043762","","0.6","0.4","0.8","0.2","","","","","0.04357168116","0.2919747068","0.4528043762","0.1379608546","","","","","","","75","K","2","","","52","main_expt"
"254","","bandit","131","461705","0.0-92.0-0.0","08295851","wem/bandit_either","A2YCMT5BPA0AG9","either","5","","","","","","","1","0","0","0.4390431751","","0.6","0.4","0.8","0.2","","","","","0.03899227154","0.3809901122","0.4390431751","0.1356826849","","","","","","","75","K","2","","","53","main_expt"
"297","","bandit","132","463514","0.0-93.0-0.0","08295851","wem/bandit_either","A2YCMT5BPA0AG9","either","5","","","","","","","1","0","0","0.4549270822","","0.6","0.4","0.8","0.2","","","","","0.04009146386","0.3452518694","0.4549270822","0.1038772241","","","","","","","75","K","2","","","54","main_expt"
"323","","bandit","133","465349","0.0-94.0-0.0","08295851","wem/bandit_either","A2YCMT5BPA0AG9","either","5","","","","","","","0","0","1","","0.4710341864","0.6","0.4","0.8","0.2","0.0155768565","0.3263112327","0.4710341864","0.1689791829","","","","","","","","","","","75","K","2","","","55","main_expt"
"285","","bandit","134","467146","0.0-95.0-0.0","08295851","wem/bandit_either","A2YCMT5BPA0AG9","either","5","","","","","","","0","0","1","","0.1108888145","0.6","0.4","0.8","0.2","0.02112461672","0.3308963945","0.4745834276","0.1108888145","","","","","","","","","","","76","L","3","","","56","main_expt"
"272","","bandit","135","468928","0.0-96.0-0.0","08295851","wem/bandit_either","A2YCMT5BPA0AG9","either","5","","","","","","","0","0","1","","0.1206542402","0.6","0.4","0.8","0.2","0.0126553198","0.3150326571","0.489318572","0.1206542402","","","","","","","","","","","76","L","3","","","57","main_expt"
"1180","","bandit","136","471621","0.0-97.0-0.0","08295851","wem/bandit_either","A2YCMT5BPA0AG9","either","5","","","","","","","0","0","1","0.01131359515","","0.6","0.4","0.8","0.2","","","","","0.01131359515","0.3049116772","0.480037986","0.09707343937","","","","","","","72","H","0","img/none_selected.jpg","","58","main_expt"
"1895","","bandit","137","475029","0.0-98.0-0.0","08295851","wem/bandit_either","A2YCMT5BPA0AG9","either","5","","","","","","","0","0","1","0.01030075821","","0.6","0.4","0.8","0.2","","","","","0.01030075821","0.3050987947","0.4593461039","0.1044384952","","","","","","","72","H","0","img/none_selected.jpg","","59","main_expt"
"288","","bandit","138","476827","0.0-99.0-0.0","08295851","wem/bandit_either","A2YCMT5BPA0AG9","either","5","","","","","","","1","0","0","0.3274009355","","0.6","0.4","0.8","0.2","","","","","0.005868957973","0.3274009355","0.446051488","0.08890369623","","","","","","","74","J","1","","","60","main_expt"
"291","","bandit","139","478627","0.0-100.0-0.0","08295851","wem/bandit_either","A2YCMT5BPA0AG9","either","5","","","","","","","0","1","0","","0.3428943983","0.6","0.4","0.8","0.2","0.004361943215","0.3428943983","0.4391285327","0.08921221942","","","","","","","","","","","74","J","1","","","61","main_expt"
"263","","bandit","140","480402","0.0-101.0-0.0","08295851","wem/bandit_either","A2YCMT5BPA0AG9","either","5","","","","","","","0","1","0","","0.3549763931","0.6","0.4","0.8","0.2","0.005208412743","0.3549763931","0.4063883723","0.09812025034","","","","","","","","","","","74","J","1","","","62","main_expt"
"275","","bandit","141","482189","0.0-102.0-0.0","08295851","wem/bandit_either","A2YCMT5BPA0AG9","either","5","","","","","","","0","0","1","","0.3496678451","0.6","0.4","0.8","0.2","0.006461011255","0.3496678451","0.4330387396","0.09006279409","","","","","","","","","","","74","J","1","","","63","main_expt"
"574","","bandit","142","484275","0.0-103.0-0.0","08295851","wem/bandit_either","A2YCMT5BPA0AG9","either","5","","","","","","","1","0","0","0.4207902426","","0.6","0.4","0.8","0.2","","","","","0.01267926231","0.3188537263","0.4207902426","0.1118976224","","","","","","","75","K","2","","","64","main_expt"
"13","","bandit","143","485800","0.0-104.0-0.0","08295851","wem/bandit_either","A2YCMT5BPA0AG9","either","5","","","","","","","0","0","1","","0.3719582347","0.6","0.4","0.8","0.2","0.009732787917","0.3191795336","0.3719582347","0.1053817613","","","","","","","","","","","75","K","2","","","65","main_expt"
"203","","bandit","144","487515","0.0-105.0-0.0","08295851","wem/bandit_either","A2YCMT5BPA0AG9","either","5","","","","","","","1","0","0","0.3748569955","","0.6","0.4","0.8","0.2","","","","","0.01092542651","0.268616347","0.3748569955","0.1307356695","","","","","","","75","K","2","","","66","main_expt"
"272","","bandit","145","489299","0.0-106.0-0.0","08295851","wem/bandit_either","A2YCMT5BPA0AG9","either","5","","","","","","","0","0","1","0.335252031","","0.6","0.4","0.8","0.2","","","","","0.02125534741","0.259194563","0.335252031","0.1418436428","","","","","","","75","K","2","","","67","main_expt"
"343","","bandit","146","491152","0.0-107.0-0.0","08295851","wem/bandit_either","A2YCMT5BPA0AG9","either","5","","","","","","","0","0","1","","0.1459089566","0.6","0.4","0.8","0.2","0.02360283027","0.2281204868","0.3199157278","0.1459089566","","","","","","","","","","","76","L","3","","","68","main_expt"
"245","","bandit","147","492909","0.0-108.0-0.0","08295851","wem/bandit_either","A2YCMT5BPA0AG9","either","5","","","","","","","0","0","1","","0.1809721424","0.6","0.4","0.8","0.2","0.02539305756","0.2195844169","0.3068525281","0.1809721424","","","","","","","","","","","76","L","3","","","69","main_expt"
"201","","bandit","148","494624","0.0-109.0-0.0","08295851","wem/bandit_either","A2YCMT5BPA0AG9","either","5","","","","","","","0","0","1","0.1883338509","","0.6","0.4","0.8","0.2","","","","","0.05014388586","0.1883338509","0.3181076016","0.1784068974","","","","","","","74","J","1","","","70","main_expt"
"21","","bandit","149","496157","0.0-110.0-0.0","08295851","wem/bandit_either","A2YCMT5BPA0AG9","either","5","","","","","","","1","0","0","0.2926426422","","0.6","0.4","0.8","0.2","","","","","0.04209054697","0.1639708178","0.2926426422","0.1973023396","","","","","","","75","K","2","","","71","main_expt"
"207","","bandit","150","497876","0.0-111.0-0.0","08295851","wem/bandit_either","A2YCMT5BPA0AG9","either","5","","","","","","","0","0","1","0.2380263643","","0.6","0.4","0.8","0.2","","","","","0.05611199342","0.1312842785","0.2380263643","0.2436342847","","","","","","","75","K","2","","","72","main_expt"
"137","","bandit","151","499526","0.0-112.0-0.0","08295851","wem/bandit_either","A2YCMT5BPA0AG9","either","5","","","","","","","0","0","1","","0.1992173182","0.6","0.4","0.8","0.2","0.05293238473","0.1805041857","0.2407197948","0.1992173182","","","","","","","","","","","76","L","3","","","73","main_expt"
"259","","bandit","152","501297","0.0-113.0-0.0","08295851","wem/bandit_either","A2YCMT5BPA0AG9","either","5","","","","","","","0","0","1","","0.2347098304","0.6","0.4","0.8","0.2","0.0318456884","0.1739557812","0.2317468449","0.2347098304","","","","","","","","","","","76","L","3","","","74","main_expt"
"199","","bandit","153","503006","0.0-114.0-0.0","08295851","wem/bandit_either","A2YCMT5BPA0AG9","either","5","","","","","","","1","0","0","0.2434916027","","0.6","0.4","0.8","0.2","","","","","0.03873230677","0.2434916027","0.2545997551","0.2641442137","","","","","","","74","J","1","","","75","main_expt"
"291","","bandit","154","504809","0.0-115.0-0.0","08295851","wem/bandit_either","A2YCMT5BPA0AG9","either","5","","","","","","","0","0","1","0.2438468568","","0.6","0.4","0.8","0.2","","","","","0.03304947682","0.2438468568","0.2890845388","0.3192644053","","","","","","","74","J","1","","","76","main_expt"
"293","","bandit","155","506615","0.0-116.0-0.0","08295851","wem/bandit_either","A2YCMT5BPA0AG9","either","5","","","","","","","0","0","1","","0.2425324642","0.6","0.4","0.8","0.2","0.02607887458","0.2425324642","0.2386362654","0.3351132613","","","","","","","","","","","74","J","1","","","77","main_expt"
"321","","bandit","156","508449","0.0-117.0-0.0","08295851","wem/bandit_either","A2YCMT5BPA0AG9","either","5","","","","","","","0","0","1","0.2673679704","","0.6","0.4","0.8","0.2","","","","","0.02492981692","0.205588479","0.2673679704","0.3086784207","","","","","","","75","K","2","","","78","main_expt"
"48","","bandit","157","510009","0.0-118.0-0.0","08295851","wem/bandit_either","A2YCMT5BPA0AG9","either","5","","","","","","","0","0","1","","0.3076482073","0.6","0.4","0.8","0.2","0.01824110002","0.213062191","0.2813811921","0.3076482073","","","","","","","","","","","76","L","3","","","79","main_expt"
"1144","","bandit","158","512666","0.0-119.0-0.0","08295851","wem/bandit_either","A2YCMT5BPA0AG9","either","5","","","","","","","0","0","1","0.0202176162","","0.6","0.4","0.8","0.2","","","","","0.0202176162","0.1852926048","0.2419447949","0.3605025214","","","","","","","72","H","0","img/none_selected.jpg","","80","main_expt"
"363","","bandit","159","514538","0.0-120.0-0.0","08295851","wem/bandit_either","A2YCMT5BPA0AG9","either","5","","","","","","","0","0","1","","0.2332942271","0.6","0.4","0.8","0.2","0.0252752587","0.2332942271","0.323481111","0.3286166321","","","","","","","","","","","74","J","1","","","81","main_expt"
"102","","bandit","160","516153","0.0-121.0-0.0","08295851","wem/bandit_either","A2YCMT5BPA0AG9","either","5","","","","","","","0","0","1","0.3097244961","","0.6","0.4","0.8","0.2","","","","","0.05668457717","0.2087797338","0.3097244961","0.3459677762","","","","","","","75","K","2","","","82","main_expt"
"314","","bandit","161","517980","0.0-122.0-0.0","08295851","wem/bandit_either","A2YCMT5BPA0AG9","either","5","","","","","","","0","0","1","0.3092751195","","0.6","0.4","0.8","0.2","","","","","0.07760530004","0.2049979043","0.2787498647","0.3092751195","","","","","","","76","L","3","","","83","main_expt"
"302","","bandit","162","519795","0.0-123.0-0.0","08295851","wem/bandit_either","A2YCMT5BPA0AG9","either","5","","","","","","","0","0","1","0.2589524449","","0.6","0.4","0.8","0.2","","","","","0.03696005566","0.2151780091","0.2589524449","0.3044630387","","","","","","","75","K","2","","","84","main_expt"
"389","","bandit","163","521695","0.0-124.0-0.0","08295851","wem/bandit_either","A2YCMT5BPA0AG9","either","5","","","","","","","0","0","1","","0.1497615914","0.6","0.4","0.8","0.2","0.04177257934","0.1497615914","0.2769318636","0.2812480587","","","","","","","","","","","74","J","1","","","85","main_expt"
"312","","bandit","164","523520","0.0-125.0-0.0","08295851","wem/bandit_either","A2YCMT5BPA0AG9","either","5","","","","","","","0","0","1","","0.0385770192","0.6","0.4","0.8","0.2","0.0385770192","0.1223687677","0.2849222391","0.2506532223","","","","","","","","","","","72","H","0","img/none_selected.jpg","","86","main_expt"
"300","","bandit","165","525331","0.0-126.0-0.0","08295851","wem/bandit_either","A2YCMT5BPA0AG9","either","5","","","","","","","0","0","1","","0.1472857413","0.6","0.4","0.8","0.2","0.03720252147","0.1472857413","0.3131087309","0.2269900387","","","","","","","","","","","74","J","1","","","87","main_expt"
"290","","bandit","166","527134","0.0-127.0-0.0","08295851","wem/bandit_either","A2YCMT5BPA0AG9","either","5","","","","","","","0","0","1","0.3038587512","","0.6","0.4","0.8","0.2","","","","","0.06746059371","0.1252586248","0.3038587512","0.1504729919","","","","","","","75","K","2","","","88","main_expt"
"74","","bandit","167","528722","0.0-128.0-0.0","08295851","wem/bandit_either","A2YCMT5BPA0AG9","either","5","","","","","","","0","0","1","0.1382070302","","0.6","0.4","0.8","0.2","","","","","0.04069757945","0.1194927994","0.3308022157","0.1382070302","","","","","","","76","L","3","","","89","main_expt"
"298","","bandit","168","530533","0.0-129.0-0.0","08295851","wem/bandit_either","A2YCMT5BPA0AG9","either","5","","","","","","","0","0","1","","0.3574922351","0.6","0.4","0.8","0.2","0.07325379503","0.1589750007","0.3574922351","0.1364765349","","","","","","","","","","","75","K","2","","","90","main_expt"
"408","","bandit","169","532451","0.0-130.0-0.0","08295851","wem/bandit_either","A2YCMT5BPA0AG9","either","5","","","","","","","0","0","1","","0.1859960426","0.6","0.4","0.8","0.2","0.06877471811","0.1859960426","0.3729517688","0.09318196272","","","","","","","","","","","74","J","1","","","91","main_expt"
"379","","bandit","170","534344","0.0-131.0-0.0","08295851","wem/bandit_either","A2YCMT5BPA0AG9","either","5","","","","","","","0","0","1","0.04115987362","","0.6","0.4","0.8","0.2","","","","","0.04115987362","0.192419488","0.398352994","0.06946097624","","","","","","","72","H","0","img/none_selected.jpg","","92","main_expt"
"285","","bandit","171","536142","0.0-132.0-0.0","08295851","wem/bandit_either","A2YCMT5BPA0AG9","either","5","","","","","","","0","0","1","","0.1716033463","0.6","0.4","0.8","0.2","0.07078892783","0.1716033463","0.4135860398","0.08102832817","","","","","","","","","","","74","J","1","","","93","main_expt"
"294","","bandit","172","537950","0.0-133.0-0.0","08295851","wem/bandit_either","A2YCMT5BPA0AG9","either","5","","","","","","","0","0","1","0.3786880174","","0.6","0.4","0.8","0.2","","","","","0.05572868433","0.1935897604","0.3786880174","0.1271360848","","","","","","","75","K","2","","","94","main_expt"
"2565","","bandit","173","542025","0.0-134.0-0.0","08295851","wem/bandit_either","A2YCMT5BPA0AG9","either","5","","","","","","","0","0","1","0.1097592989","","0.6","0.4","0.8","0.2","","","","","0.05056929995","0.2193228015","0.3823424718","0.1097592989","","","","","","","76","L","3","","","95","main_expt"
"418","","bandit","174","543955","0.0-135.0-0.0","08295851","wem/bandit_either","A2YCMT5BPA0AG9","either","5","","","","","","","1","0","0","0.3642725552","","0.6","0.4","0.8","0.2","","","","","0.04159874267","0.3262643469","0.3642725552","0.1085490834","","","","","","","75","K","2","","","96","main_expt"
"265","","bandit","175","545734","0.0-136.0-0.0","08295851","wem/bandit_either","A2YCMT5BPA0AG9","either","5","","","","","","","0","1","0","","0.3197717944","0.6","0.4","0.8","0.2","0.03654451862","0.3207405496","0.3197717944","0.1049812554","","","","","","","","","","","75","K","2","","","97","main_expt"
"270","","bandit","176","547517","0.0-137.0-0.0","08295851","wem/bandit_either","A2YCMT5BPA0AG9","either","5","","","","","","","0","0","1","0.2514424369","","0.6","0.4","0.8","0.2","","","","","0.04190300095","0.3712856991","0.2514424369","0.08177978443","","","","","","","75","K","2","","","98","main_expt"
"269","","bandit","177","549300","0.0-138.0-0.0","08295851","wem/bandit_either","A2YCMT5BPA0AG9","either","5","","","","","","","1","0","0","0.3740145378","","0.6","0.4","0.8","0.2","","","","","0.08742990617","0.3740145378","0.2926772137","0.07574087804","","","","","","","74","J","1","","","99","main_expt"
"439","","bandit","178","551252","0.0-139.0-0.0","08295851","wem/bandit_either","A2YCMT5BPA0AG9","either","5","","","","","","","0","1","0","","0.3776295542","0.6","0.4","0.8","0.2","0.08966523481","0.3776295542","0.234485335","0.07829319678","","","","","","","","","","","74","J","1","","","100","main_expt"
"280","","bandit","179","553046","0.0-140.0-0.0","08295851","wem/bandit_either","A2YCMT5BPA0AG9","either","5","","","","","","","0","0","1","","0.3592666398","0.6","0.4","0.8","0.2","0.07849065771","0.3592666398","0.250352175","0.07919243683","","","","","","","","","","","74","J","1","","","101","main_expt"
"211","","bandit","180","554771","0.0-141.0-0.0","08295851","wem/bandit_either","A2YCMT5BPA0AG9","either","5","","","","","","","0","0","1","0.3412191773","","0.6","0.4","0.8","0.2","","","","","0.1054267613","0.3412191773","0.2139972863","0.1052753188","","","","","","","74","J","1","","","102","main_expt"
"383","","bandit","181","556667","0.0-142.0-0.0","08295851","wem/bandit_either","A2YCMT5BPA0AG9","either","5","","","","","","","0","0","1","0.1120981937","","0.6","0.4","0.8","0.2","","","","","0.1120981937","0.3133100433","0.20092706","0.1248526142","","","","","","","72","H","0","img/none_selected.jpg","","103","main_expt"
"650","","bandit","182","558832","0.0-143.0-0.0","08295851","wem/bandit_either","A2YCMT5BPA0AG9","either","5","","","","","","","1","0","0","0.2305366804","","0.6","0.4","0.8","0.2","","","","","0.1034740879","0.3219148419","0.2305366804","0.142969925","","","","","","","75","K","2","","","104","main_expt"
"312","","bandit","183","560658","0.0-144.0-0.0","08295851","wem/bandit_either","A2YCMT5BPA0AG9","either","5","","","","","","","0","0","1","0.2102135581","","0.6","0.4","0.8","0.2","","","","","0.07597240327","0.3300892518","0.2102135581","0.13947254","","","","","","","75","K","2","","","105","main_expt"
"305","","bandit","184","562475","0.0-145.0-0.0","08295851","wem/bandit_either","A2YCMT5BPA0AG9","either","5","","","","","","","0","0","1","","0.1329526997","0.6","0.4","0.8","0.2","0.1124257427","0.3401839058","0.2219457329","0.1329526997","","","","","","","","","","","76","L","3","","","106","main_expt"
"464","","bandit","185","564454","0.0-146.0-0.0","08295851","wem/bandit_either","A2YCMT5BPA0AG9","either","5","","","","","","","0","0","1","","0.3784706915","0.6","0.4","0.8","0.2","0.1133168519","0.3784706915","0.3048423019","0.1727290233","","","","","","","","","","","74","J","1","","","107","main_expt"
"379","","bandit","186","566346","0.0-147.0-0.0","08295851","wem/bandit_either","A2YCMT5BPA0AG9","either","5","","","","","","","0","0","1","0.1752395656","","0.6","0.4","0.8","0.2","","","","","0.1752395656","0.3945753887","0.258150515","0.1864487031","","","","","","","72","H","0","img/none_selected.jpg","","108","main_expt"
"545","","bandit","187","568407","0.0-148.0-0.0","08295851","wem/bandit_either","A2YCMT5BPA0AG9","either","5","","","","","","","1","0","0","0.1859129148","","0.6","0.4","0.8","0.2","","","","","0.1862973424","0.356827327","0.1859129148","0.2463216238","","","","","","","75","K","2","","","109","main_expt"
"374","","bandit","188","570296","0.0-149.0-0.0","08295851","wem/bandit_either","A2YCMT5BPA0AG9","either","5","","","","","","","0","0","1","0.2344179837","","0.6","0.4","0.8","0.2","","","","","0.2015845776","0.2344179837","0.1371624404","0.2431522628","","","","","","","74","J","1","","","110","main_expt"
"319","","bandit","189","572125","0.0-150.0-0.0","08295851","wem/bandit_either","A2YCMT5BPA0AG9","either","5","","","","","","","0","0","1","0.1258232978","","0.6","0.4","0.8","0.2","","","","","0.2003651753","0.2644823096","0.1258232978","0.1757476643","","","","","","","75","K","2","","","111","main_expt"
"196","","bandit","190","573835","0.0-151.0-0.0","08295851","wem/bandit_either","A2YCMT5BPA0AG9","either","5","","","","","","","0","0","1","","0.2451518953","0.6","0.4","0.8","0.2","0.21392293","0.28311182","0.1529967373","0.2451518953","","","","","","","","","","","76","L","3","","","112","main_expt"
"253","","bandit","191","575603","0.0-152.0-0.0","08295851","wem/bandit_either","A2YCMT5BPA0AG9","either","5","","","","","","","0","0","1","","0.148248117","0.6","0.4","0.8","0.2","0.1606798039","0.2413269532","0.148248117","0.2407836715","","","","","","","","","","","75","K","2","","","113","main_expt"
"120","","bandit","192","577236","0.0-153.0-0.0","08295851","wem/bandit_either","A2YCMT5BPA0AG9","either","5","","","","","","","0","0","1","","0.3100969134","0.6","0.4","0.8","0.2","0.2095980235","0.3100969134","0.1562208239","0.3099317417","","","","","","","","","","","74","J","1","","","114","main_expt"
"370","","bandit","193","579119","0.0-154.0-0.0","08295851","wem/bandit_either","A2YCMT5BPA0AG9","either","5","","","","","","","0","0","1","","0.2550279667","0.6","0.4","0.8","0.2","0.2550279667","0.329842252","0.2138032898","0.3180754701","","","","","","","","","","","72","H","0","img/none_selected.jpg","","115","main_expt"
"2642","","bandit","194","583275","0.0-155.0-0.0","08295851","wem/bandit_either","A2YCMT5BPA0AG9","either","5","","","","","","","0","0","1","","0.2919742107","0.6","0.4","0.8","0.2","0.2471764387","0.3223706096","0.2331260325","0.2919742107","","","","","","","","","","","76","L","3","","","116","main_expt"
"349","","bandit","195","585138","0.0-156.0-0.0","08295851","wem/bandit_either","A2YCMT5BPA0AG9","either","5","","","","","","","0","0","1","","0.1826309729","0.6","0.4","0.8","0.2","0.2730878341","0.3098408215","0.1826309729","0.2799774295","","","","","","","","","","","75","K","2","","","117","main_expt"
"287","","bandit","196","586940","0.0-157.0-0.0","08295851","wem/bandit_either","A2YCMT5BPA0AG9","either","5","","","","","","","0","0","1","0.2974554567","","0.6","0.4","0.8","0.2","","","","","0.2071462199","0.2974554567","0.1511269107","0.2646714695","","","","","","","74","J","1","","","118","main_expt"
"395","","bandit","197","588846","0.0-158.0-0.0","08295851","wem/bandit_either","A2YCMT5BPA0AG9","either","5","","","","","","","0","0","1","","0.2275232499","0.6","0.4","0.8","0.2","0.2275232499","0.3598468986","0.1559979654","0.3179839519","","","","","","","","","","","72","H","0","img/none_selected.jpg","","119","main_expt"
"494","","bandit","198","590854","0.0-159.0-0.0","08295851","wem/bandit_either","A2YCMT5BPA0AG9","either","5","","","","","","","0","0","1","","0.2984373086","0.6","0.4","0.8","0.2","0.2767559596","0.2984373086","0.1463004055","0.3302262658","","","","","","","","","","","74","J","1","","","120","main_expt"
"117","","bandit","199","592486","0.0-160.0-0.0","08295851","wem/bandit_either","A2YCMT5BPA0AG9","either","5","","","","","","","0","1","0","","0.2973090059","0.6","0.4","0.8","0.2","0.3448590315","0.2973090059","0.1418195479","0.3500549905","","","","","","","","","","","74","J","1","","","121","main_expt"
"288","","bandit","200","594287","0.0-161.0-0.0","08295851","wem/bandit_either","A2YCMT5BPA0AG9","either","5","","","","","","","0","0","1","0.3382791822","","0.6","0.4","0.8","0.2","","","","","0.3593301016","0.3382791822","0.1270782113","0.2686616284","","","","","","","74","J","1","","","122","main_expt"
"312","","bandit","201","596113","0.0-162.0-0.0","08295851","wem/bandit_either","A2YCMT5BPA0AG9","either","5","","","","","","","0","0","1","0.1207154071","","0.6","0.4","0.8","0.2","","","","","0.3680529171","0.3154347028","0.1207154071","0.2277230314","","","","","","","75","K","2","","","123","main_expt"
"301","","bandit","202","597927","0.0-163.0-0.0","08295851","wem/bandit_either","A2YCMT5BPA0AG9","either","5","","","","","","","0","1","0","","0.3287090939","0.6","0.4","0.8","0.2","0.3476523483","0.2966737815","0.1229329119","0.3287090939","","","","","","","","","","","76","L","3","","","124","main_expt"
"324","","bandit","203","599762","0.0-164.0-0.0","08295851","wem/bandit_either","A2YCMT5BPA0AG9","either","5","","","","","","","0","1","0","","0.3687339586","0.6","0.4","0.8","0.2","0.3564603465","0.3094831126","0.09241122996","0.3687339586","","","","","","","","","","","76","L","3","","","125","main_expt"
"318","","bandit","204","601591","0.0-165.0-0.0","08295851","wem/bandit_either","A2YCMT5BPA0AG9","either","5","","","","","","","0","0","1","","0.3836195774","0.6","0.4","0.8","0.2","0.3550684458","0.2488993205","0.08418962236","0.3836195774","","","","","","","","","","","76","L","3","","","126","main_expt"
"264","","bandit","205","603370","0.0-166.0-0.0","08295851","wem/bandit_either","A2YCMT5BPA0AG9","either","5","","","","","","","1","0","0","0.154715772","","0.6","0.4","0.8","0.2","","","","","0.3235559827","0.1953487027","0.154715772","0.3617365958","","","","","","","75","K","2","","","127","main_expt"
"248","","bandit","206","605133","0.0-167.0-0.0","08295851","wem/bandit_either","A2YCMT5BPA0AG9","either","5","","","","","","","0","0","1","","0.1556709078","0.6","0.4","0.8","0.2","0.312087491","0.2171889907","0.1556709078","0.3235283493","","","","","","","","","","","75","K","2","","","128","main_expt"
"298","","bandit","207","606946","0.0-168.0-0.0","08295851","wem/bandit_either","A2YCMT5BPA0AG9","either","5","","","","","","","0","0","1","0.1214200615","","0.6","0.4","0.8","0.2","","","","","0.2843272188","0.2467699801","0.1214200615","0.3453830546","","","","","","","75","K","2","","","129","main_expt"
"294","","bandit","208","608754","0.0-169.0-0.0","08295851","wem/bandit_either","A2YCMT5BPA0AG9","either","5","","","","","","","0","0","1","","0.2814443482","0.6","0.4","0.8","0.2","0.2128416856","0.2814443482","0.1377283829","0.3242747857","","","","","","","","","","","74","J","1","","","130","main_expt"
"245","","bandit","209","610514","0.0-170.0-0.0","08295851","wem/bandit_either","A2YCMT5BPA0AG9","either","5","","","","","","","0","0","1","","0.2834176508","0.6","0.4","0.8","0.2","0.2403879813","0.2834176508","0.1397421628","0.3417201858","","","","","","","","","","","74","J","1","","","131","main_expt"
"343","","bandit","210","612371","0.0-171.0-0.0","08295851","wem/bandit_either","A2YCMT5BPA0AG9","either","5","","","","","","","0","0","1","0.2811421594","","0.6","0.4","0.8","0.2","","","","","0.2811421594","0.2429908031","0.1061875113","0.3498614837","","","","","","","72","H","0","img/none_selected.jpg","","132","main_expt"
"294","","bandit","211","614180","0.0-172.0-0.0","08295851","wem/bandit_either","A2YCMT5BPA0AG9","either","5","","","","","","","0","0","1","0.3002858371","","0.6","0.4","0.8","0.2","","","","","0.3002858371","0.3053559495","0.07774811701","0.3134828643","","","","","","","72","H","0","img/none_selected.jpg","","133","main_expt"
"313","","bandit","212","616006","0.0-173.0-0.0","08295851","wem/bandit_either","A2YCMT5BPA0AG9","either","5","","","","","","","0","0","1","0.2693478067","","0.6","0.4","0.8","0.2","","","","","0.277406375","0.2693478067","0.08211281178","0.3554593188","","","","","","","74","J","1","","","134","main_expt"
"315","","bandit","213","617836","0.0-174.0-0.0","08295851","wem/bandit_either","A2YCMT5BPA0AG9","either","5","","","","","","","0","0","1","0.1123817552","","0.6","0.4","0.8","0.2","","","","","0.2897147582","0.3369166079","0.1123817552","0.3150900126","","","","","","","75","K","2","","","135","main_expt"
"418","","bandit","214","619769","0.0-175.0-0.0","08295851","wem/bandit_either","A2YCMT5BPA0AG9","either","5","","","","","","","0","0","1","","0.1478339482","0.6","0.4","0.8","0.2","0.3590576628","0.268603144","0.1478339482","0.3199395785","","","","","","","","","","","75","K","2","","","136","main_expt"
"290","","bandit","215","621575","0.0-176.0-0.0","08295851","wem/bandit_either","A2YCMT5BPA0AG9","either","5","","","","","","","0","0","1","","0.33362357","0.6","0.4","0.8","0.2","0.3822427384","0.2373427956","0.1374936615","0.33362357","","","","","","","","","","","76","L","3","","","137","main_expt"
"408","","bandit","216","623494","0.0-177.0-0.0","08295851","wem/bandit_either","A2YCMT5BPA0AG9","either","5","","","","","","","0","0","1","","0.3611324022","0.6","0.4","0.8","0.2","0.3410071165","0.2206869265","0.159761955","0.3611324022","","","","","","","","","","","76","L","3","","","138","main_expt"
"343","","bandit","217","625353","0.0-178.0-0.0","08295851","wem/bandit_either","A2YCMT5BPA0AG9","either","5","","","","","","","1","0","0","0.1363721132","","0.6","0.4","0.8","0.2","","","","","0.3738014659","0.2177966349","0.1363721132","0.3504145086","","","","","","","75","K","2","","","139","main_expt"
"268","","bandit","218","627135","0.0-179.0-0.0","08295851","wem/bandit_either","A2YCMT5BPA0AG9","either","5","","","","","","","0","0","1","0.1031445192","","0.6","0.4","0.8","0.2","","","","","0.422575493","0.2387685432","0.1031445192","0.309774603","","","","","","","75","K","2","","","140","main_expt"
"244","","bandit","219","628891","0.0-180.0-0.0","08295851","wem/bandit_either","A2YCMT5BPA0AG9","either","5","","","","","","","0","0","1","","0.2575087366","0.6","0.4","0.8","0.2","0.4439129864","0.2575087366","0.09805286369","0.3506531288","","","","","","","","","","","74","J","1","","","141","main_expt"
"181","","bandit","220","630586","0.0-181.0-0.0","08295851","wem/bandit_either","A2YCMT5BPA0AG9","either","5","","","","","","","0","0","1","","0.2392038972","0.6","0.4","0.8","0.2","0.4323802182","0.2392038972","0.1149002948","0.2965027242","","","","","","","","","","","74","J","1","","","142","main_expt"
"305","","bandit","221","632407","0.0-182.0-0.0","08295851","wem/bandit_either","A2YCMT5BPA0AG9","either","5","","","","","","","0","0","1","","0.4358412593","0.6","0.4","0.8","0.2","0.4358412593","0.2216470548","0.1209542099","0.2087517366","","","","","","","","","","","72","H","0","img/none_selected.jpg","","143","main_expt"
"422","","bandit","222","634343","0.0-183.0-0.0","08295851","wem/bandit_either","A2YCMT5BPA0AG9","either","5","","","","","","","0","0","1","0.4407373256","","0.6","0.4","0.8","0.2","","","","","0.4407373256","0.2224896139","0.1202521083","0.2313605626","","","","","","","72","H","0","img/none_selected.jpg","","144","main_expt"
"374","","bandit","223","636233","0.0-184.0-0.0","08295851","wem/bandit_either","A2YCMT5BPA0AG9","either","5","","","","","","","0","0","1","0.1925605464","","0.6","0.4","0.8","0.2","","","","","0.4661091035","0.1925605464","0.1619743669","0.1785565547","","","","","","","74","J","1","","","145","main_expt"
"557","","bandit","224","638304","0.0-185.0-0.0","08295851","wem/bandit_either","A2YCMT5BPA0AG9","either","5","","","","","","","0","0","1","","0.1664631043","0.6","0.4","0.8","0.2","0.4637097668","0.2069800611","0.1664631043","0.1770660648","","","","","","","","","","","75","K","2","","","146","main_expt"
"346","","bandit","225","640166","0.0-186.0-0.0","08295851","wem/bandit_either","A2YCMT5BPA0AG9","either","5","","","","","","","0","0","1","","0.1063371611","0.6","0.4","0.8","0.2","0.4700491642","0.2489662189","0.1669241763","0.1063371611","","","","","","","","","","","76","L","3","","","147","main_expt"
"568","","bandit","226","642251","0.0-187.0-0.0","08295851","wem/bandit_either","A2YCMT5BPA0AG9","either","5","","","","","","","0","0","1","","0.1216370817","0.6","0.4","0.8","0.2","0.4648109734","0.1946464158","0.1581456949","0.1216370817","","","","","","","","","","","76","L","3","","","148","main_expt"
"319","","bandit","227","644084","0.0-188.0-0.0","08295851","wem/bandit_either","A2YCMT5BPA0AG9","either","5","","","","","","","0","0","1","0.1698392466","","0.6","0.4","0.8","0.2","","","","","0.4635511513","0.1826562491","0.1698392466","0.1024256959","","","","","","","75","K","2","","","149","main_expt"
"682","","bandit","228","646280","0.0-189.0-0.0","08295851","wem/bandit_either","A2YCMT5BPA0AG9","either","5","","","","","","","0","0","1","","0.1750473563","0.6","0.4","0.8","0.2","0.4445017148","0.1750473563","0.2140114634","0.1371094633","","","","","","","","","","","74","J","1","","","150","main_expt"
"317","","bandit","229","648112","0.0-190.0-0.0","08295851","wem/bandit_either","A2YCMT5BPA0AG9","either","5","","","","","","","0","1","0","","0.4434799742","0.6","0.4","0.8","0.2","0.4434799742","0.1109536645","0.2392960001","0.1702433702","","","","","","","","","","","72","H","0","img/none_selected.jpg","","151","main_expt"
"298","","bandit","230","649924","0.0-191.0-0.0","08295851","wem/bandit_either","A2YCMT5BPA0AG9","either","5","","","","","","","1","0","0","0.4451665291","","0.6","0.4","0.8","0.2","","","","","0.4451665291","0.1143086707","0.2095863317","0.1860489046","","","","","","","72","H","0","img/none_selected.jpg","","152","main_expt"
"306","","bandit","231","651749","0.0-192.0-0.0","08295851","wem/bandit_either","A2YCMT5BPA0AG9","either","5","","","","","","","0","0","1","0.4401532833","","0.6","0.4","0.8","0.2","","","","","0.4401532833","0.1236290712","0.2543258611","0.2117094388","","","","","","","72","H","0","img/none_selected.jpg","","153","main_expt"
"432","","bandit","232","653695","0.0-193.0-0.0","08295851","wem/bandit_either","A2YCMT5BPA0AG9","either","5","","","","","","","1","0","0","0.1600695342","","0.6","0.4","0.8","0.2","","","","","0.4516855879","0.1600695342","0.2602259906","0.2072389033","","","","","","","74","J","1","","","154","main_expt"
"330","","bandit","233","655540","0.0-194.0-0.0","08295851","wem/bandit_either","A2YCMT5BPA0AG9","either","5","","","","","","","0","0","1","","0.1770288166","0.6","0.4","0.8","0.2","0.4480264808","0.1770288166","0.2750581274","0.1986333914","","","","","","","","","","","74","J","1","","","155","main_expt"
"384","","bandit","234","657439","0.0-195.0-0.0","08295851","wem/bandit_either","A2YCMT5BPA0AG9","either","5","","","","","","","0","0","1","0.2438045727","","0.6","0.4","0.8","0.2","","","","","0.4260414265","0.1761817894","0.2438045727","0.2054640346","","","","","","","75","K","2","","","156","main_expt"
"310","","bandit","235","659264","0.0-196.0-0.0","08295851","wem/bandit_either","A2YCMT5BPA0AG9","either","5","","","","","","","0","0","1","","0.1810715383","0.6","0.4","0.8","0.2","0.4365201507","0.1998830888","0.2857025143","0.1810715383","","","","","","","","","","","76","L","3","","","157","main_expt"
"434","","bandit","236","661213","0.0-197.0-0.0","08295851","wem/bandit_either","A2YCMT5BPA0AG9","either","5","","","","","","","0","0","1","0.2887719476","","0.6","0.4","0.8","0.2","","","","","0.4076244479","0.2150354531","0.2887719476","0.2118906364","","","","","","","75","K","2","","","158","main_expt"
"133","","bandit","237","662863","0.0-198.0-0.0","08295851","wem/bandit_either","A2YCMT5BPA0AG9","either","5","","","","","","","0","0","1","","0.2221069796","0.6","0.4","0.8","0.2","0.403953851","0.2221069796","0.2859462397","0.2293976715","","","","","","","","","","","74","J","1","","","159","main_expt"
"349","","bandit","238","664726","0.0-199.0-0.0","08295851","wem/bandit_either","A2YCMT5BPA0AG9","either","5","","","","","","","0","0","1","","0.4282135537","0.6","0.4","0.8","0.2","0.4282135537","0.2627335039","0.207432816","0.2186051381","","","","","","","","","","","72","H","0","img/none_selected.jpg","","160","main_expt"
"317","","bandit","239","666558","0.0-200.0-0.0","08295851","wem/bandit_either","A2YCMT5BPA0AG9","either","5","","","","","","","0","0","1","","0.2922457848","0.6","0.4","0.8","0.2","0.4479073124","0.2922457848","0.1611694724","0.2175927206","","","","","","","","","","","74","J","1","","","161","main_expt"
"327","","bandit","240","668399","0.0-201.0-0.0","08295851","wem/bandit_either","A2YCMT5BPA0AG9","either","5","","","","","","","0","0","1","","0.14378348","0.6","0.4","0.8","0.2","0.4456201243","0.3040212123","0.14378348","0.2370404117","","","","","","","","","","","75","K","2","","","162","main_expt"
"374","","bandit","241","670286","0.0-202.0-0.0","08295851","wem/bandit_either","A2YCMT5BPA0AG9","either","5","","","","","","","0","0","1","","0.2778780432","0.6","0.4","0.8","0.2","0.4384930657","0.2933359027","0.1707099899","0.2778780432","","","","","","","","","","","76","L","3","","","163","main_expt"
"215","","bandit","242","672011","0.0-203.0-0.0","08295851","wem/bandit_either","A2YCMT5BPA0AG9","either","5","","","","","","","0","0","1","","0.1933693166","0.6","0.4","0.8","0.2","0.4231568034","0.2388203062","0.1933693166","0.2643388611","","","","","","","","","","","75","K","2","","","164","main_expt"
"479","","bandit","243","674000","0.0-204.0-0.0","08295851","wem/bandit_either","A2YCMT5BPA0AG9","either","5","","","","","","","0","0","1","0.2646204916","","0.6","0.4","0.8","0.2","","","","","0.4412535734","0.2646204916","0.2406324952","0.1967204453","","","","","","","74","J","1","","","165","main_expt"
"1824","","bandit","244","677334","0.0-205.0-0.0","08295851","wem/bandit_either","A2YCMT5BPA0AG9","either","5","","","","","","","0","0","1","0.438364003","","0.6","0.4","0.8","0.2","","","","","0.438364003","0.2591758032","0.2650462377","0.1567937345","","","","","","","72","H","0","img/none_selected.jpg","","166","main_expt"
"454","","bandit","245","679302","0.0-206.0-0.0","08295851","wem/bandit_either","A2YCMT5BPA0AG9","either","5","","","","","","","0","0","1","","0.1955934818","0.6","0.4","0.8","0.2","0.4290991351","0.1955934818","0.245875583","0.1201482918","","","","","","","","","","","74","J","1","","","167","main_expt"
"247","","bandit","246","681065","0.0-207.0-0.0","08295851","wem/bandit_either","A2YCMT5BPA0AG9","either","5","","","","","","","0","1","0","","0.257303599","0.6","0.4","0.8","0.2","0.4510860662","0.2090603634","0.257303599","0.0936051119","","","","","","","","","","","75","K","2","","","168","main_expt"
"341","","bandit","247","682923","0.0-208.0-0.0","08295851","wem/bandit_either","A2YCMT5BPA0AG9","either","5","","","","","","","0","0","1","0.2993732043","","0.6","0.4","0.8","0.2","","","","","0.4491424364","0.2678479696","0.2993732043","0.08775096918","","","","","","","75","K","2","","","169","main_expt"
"195","","bandit","248","684633","0.0-209.0-0.0","08295851","wem/bandit_either","A2YCMT5BPA0AG9","either","5","","","","","","","0","0","1","","0.06743429675","0.6","0.4","0.8","0.2","0.4332244901","0.2532125956","0.3388977639","0.06743429675","","","","","","","","","","","76","L","3","","","170","main_expt"
"269","","bandit","249","686419","0.0-210.0-0.0","08295851","wem/bandit_either","A2YCMT5BPA0AG9","either","5","","","","","","","0","1","0","","0.2947926635","0.6","0.4","0.8","0.2","0.4405036994","0.2568627054","0.2947926635","0.05979118822","","","","","","","","","","","75","K","2","","","171","main_expt"
"379","","bandit","250","688314","0.0-211.0-0.0","08295851","wem/bandit_either","A2YCMT5BPA0AG9","either","5","","","","","","","0","0","1","0.2892529657","","0.6","0.4","0.8","0.2","","","","","0.4358521759","0.2451563353","0.2892529657","0.03200499914","","","","","","","75","K","2","","","172","main_expt"
"236","","bandit","251","690067","0.0-212.0-0.0","08295851","wem/bandit_either","A2YCMT5BPA0AG9","either","5","","","","","","","0","0","1","","0.3003395367","0.6","0.4","0.8","0.2","0.4471617722","0.3003395367","0.2571917514","0.04613358223","","","","","","","","","","","74","J","1","","","173","main_expt"
"140","","bandit","252","691722","0.0-213.0-0.0","08295851","wem/bandit_either","A2YCMT5BPA0AG9","either","5","","","","","","","1","0","0","0.4560251174","","0.6","0.4","0.8","0.2","","","","","0.4560251174","0.2545998681","0.244173221","0.05969677181","","","","","","","72","H","0","img/none_selected.jpg","","174","main_expt"
"285","","bandit","253","693523","0.0-214.0-0.0","08295851","wem/bandit_either","A2YCMT5BPA0AG9","either","5","","","","","","","0","0","1","","0.4379349024","0.6","0.4","0.8","0.2","0.4379349024","0.3383135611","0.2038098688","0.05930066603","","","","","","","","","","","72","H","0","img/none_selected.jpg","","175","main_expt"
"370","","bandit","254","695403","0.0-215.0-0.0","08295851","wem/bandit_either","A2YCMT5BPA0AG9","either","5","","","","","","","0","0","1","","0.3880627729","0.6","0.4","0.8","0.2","0.4328841116","0.3880627729","0.2053823003","0.08110879181","","","","","","","","","","","74","J","1","","","176","main_expt"
"269","","bandit","255","697187","0.0-216.0-0.0","08295851","wem/bandit_either","A2YCMT5BPA0AG9","either","5","","","","","","","1","0","0","0.2193083282","","0.6","0.4","0.8","0.2","","","","","0.3965365967","0.3920994557","0.2193083282","0.07611568943","","","","","","","75","K","2","","","177","main_expt"
"441","","bandit","256","699142","0.0-217.0-0.0","08295851","wem/bandit_either","A2YCMT5BPA0AG9","either","5","","","","","","","0","0","1","","0.1904263594","0.6","0.4","0.8","0.2","0.3899234309","0.3882277994","0.1904263594","0.1220467165","","","","","","","","","","","75","K","2","","","178","main_expt"
"423","","bandit","257","701079","0.0-218.0-0.0","08295851","wem/bandit_either","A2YCMT5BPA0AG9","either","5","","","","","","","0","0","1","","0.1698853315","0.6","0.4","0.8","0.2","0.4238443777","0.3939691408","0.2212788648","0.1698853315","","","","","","","","","","","76","L","3","","","179","main_expt"
"584","","bandit","258","703174","0.0-219.0-0.0","08295851","wem/bandit_either","A2YCMT5BPA0AG9","either","5","","","","","","","0","0","1","0.1374762061","","0.6","0.4","0.8","0.2","","","","","0.4487400994","0.4074656662","0.2640717145","0.1374762061","","","","","","","76","L","3","","","180","main_expt"
"433","","bandit","259","705122","0.0-220.0-0.0","08295851","wem/bandit_either","A2YCMT5BPA0AG9","either","5","","","","","","","0","0","1","0.2426483564","","0.6","0.4","0.8","0.2","","","","","0.4314573438","0.3724421945","0.2426483564","0.09961924189","","","","","","","75","K","2","","","181","main_expt"
"371","","bandit","260","707009","0.0-221.0-0.0","08295851","wem/bandit_either","A2YCMT5BPA0AG9","either","5","","","","","","","0","1","0","","0.2998177931","0.6","0.4","0.8","0.2","0.4458059303","0.2998177931","0.2001563476","0.1391043194","","","","","","","","","","","74","J","1","","","182","main_expt"
"302","","bandit","261","708823","0.0-222.0-0.0","08295851","wem/bandit_either","A2YCMT5BPA0AG9","either","5","","","","","","","0","0","1","0.3629728763","","0.6","0.4","0.8","0.2","","","","","0.4485460149","0.3629728763","0.2167094124","0.1336424596","","","","","","","74","J","1","","","183","main_expt"
"282","","bandit","262","710620","0.0-223.0-0.0","08295851","wem/bandit_either","A2YCMT5BPA0AG9","either","5","","","","","","","0","0","1","0.4078350507","","0.6","0.4","0.8","0.2","","","","","0.4078350507","0.3763603645","0.2402813617","0.115911235","","","","","","","72","H","0","img/none_selected.jpg","","184","main_expt"
"271","","bandit","263","712403","0.0-224.0-0.0","08295851","wem/bandit_either","A2YCMT5BPA0AG9","either","5","","","","","","","0","0","1","","0.3805788675","0.6","0.4","0.8","0.2","0.3805788675","0.3472982705","0.2745112141","0.1394203739","","","","","","","","","","","72","H","0","img/none_selected.jpg","","185","main_expt"
"161","","bandit","264","714080","0.0-225.0-0.0","08295851","wem/bandit_either","A2YCMT5BPA0AG9","either","5","","","","","","","0","1","0","","0.3095995051","0.6","0.4","0.8","0.2","0.4236809331","0.3095995051","0.2774566956","0.1557479742","","","","","","","","","","","74","J","1","","","186","main_expt"
"588","","bandit","265","716186","0.0-226.0-0.0","08295851","wem/bandit_either","A2YCMT5BPA0AG9","either","5","","","","","","","0","0","1","","0.2567332284","0.6","0.4","0.8","0.2","0.4058627081","0.2567332284","0.2876011691","0.1823611596","","","","","","","","","","","74","J","1","","","187","main_expt"
"306","","bandit","266","718009","0.0-227.0-0.0","08295851","wem/bandit_either","A2YCMT5BPA0AG9","either","5","","","","","","","0","0","1","0.2947112378","","0.6","0.4","0.8","0.2","","","","","0.3913346521","0.2555256861","0.2947112378","0.1854179297","","","","","","","75","K","2","","","188","main_expt"
"305","","bandit","267","719825","0.0-228.0-0.0","08295851","wem/bandit_either","A2YCMT5BPA0AG9","either","5","","","","","","","0","0","1","","0.1875645599","0.6","0.4","0.8","0.2","0.3760164219","0.2009875262","0.2581494","0.1875645599","","","","","","","","","","","76","L","3","","","189","main_expt"
"445","","bandit","268","721789","0.0-229.0-0.0","08295851","wem/bandit_either","A2YCMT5BPA0AG9","either","5","","","","","","","0","0","1","","0.2018323604","0.6","0.4","0.8","0.2","0.3327352817","0.2055488595","0.1756323468","0.2018323604","","","","","","","","","","","76","L","3","","","190","main_expt"
"5237","","bandit","269","728542","0.0-230.0-0.0","08295851","wem/bandit_either","A2YCMT5BPA0AG9","either","5","","","","","","","0","0","1","","0.2521570866","0.6","0.4","0.8","0.2","0.3015177445","0.1506387864","0.2521570866","0.221094727","","","","","","","","","","","75","K","2","","","191","main_expt"
"1590","","bandit","270","731649","0.0-231.0-0.0","08295851","wem/bandit_either","A2YCMT5BPA0AG9","either","5","","","","","","","0","0","1","","0.2027442266","0.6","0.4","0.8","0.2","0.2773298268","0.2027442266","0.2964739449","0.2320570195","","","","","","","","","","","74","J","1","","","192","main_expt"
"268","","bandit","271","733432","0.0-232.0-0.0","08295851","wem/bandit_either","A2YCMT5BPA0AG9","either","5","","","","","","","0","0","1","","0.2836613797","0.6","0.4","0.8","0.2","0.2836613797","0.1969137872","0.2612966838","0.2948950962","","","","","","","","","","","72","H","0","img/none_selected.jpg","","193","main_expt"
"326","","bandit","272","735270","0.0-233.0-0.0","08295851","wem/bandit_either","A2YCMT5BPA0AG9","either","5","","","","","","","0","0","1","0.2114994946","","0.6","0.4","0.8","0.2","","","","","0.2799350415","0.2114994946","0.3292914436","0.2602906927","","","","","","","74","J","1","","","194","main_expt"
"466","","bandit","273","737252","0.0-234.0-0.0","08295851","wem/bandit_either","A2YCMT5BPA0AG9","either","5","","","","","","","0","0","1","0.4070308407","","0.6","0.4","0.8","0.2","","","","","0.2068597772","0.2467939011","0.4070308407","0.1771499101","","","","","","","75","K","2","","","195","main_expt"
"298","","bandit","274","739066","0.0-235.0-0.0","08295851","wem/bandit_either","A2YCMT5BPA0AG9","either","5","","","","","","","0","1","0","","0.1746274925","0.6","0.4","0.8","0.2","0.2679469531","0.2731811988","0.3494820729","0.1746274925","","","","","","","","","","","76","L","3","","","196","main_expt"
"247","","bandit","275","740829","0.0-236.0-0.0","08295851","wem/bandit_either","A2YCMT5BPA0AG9","either","5","","","","","","","0","0","1","","0.193224684","0.6","0.4","0.8","0.2","0.2448078588","0.2512114903","0.3571939809","0.193224684","","","","","","","","","","","76","L","3","","","197","main_expt"
"259","","bandit","276","742606","0.0-237.0-0.0","08295851","wem/bandit_either","A2YCMT5BPA0AG9","either","5","","","","","","","0","0","1","","0.1771509929","0.6","0.4","0.8","0.2","0.2433987968","0.190651112","0.382430028","0.1771509929","","","","","","","","","","","76","L","3","","","198","main_expt"
"274","","bandit","277","744397","0.0-238.0-0.0","08295851","wem/bandit_either","A2YCMT5BPA0AG9","either","5","","","","","","","0","0","1","0.3353474301","","0.6","0.4","0.8","0.2","","","","","0.2653624242","0.1701189695","0.3353474301","0.2466668772","","","","","","","75","K","2","","","199","main_expt"
"115","","bandit","278","746026","0.0-239.0-0.0","08295851","wem/bandit_either","A2YCMT5BPA0AG9","either","5","","","","","","","0","0","1","","0.1656975488","0.6","0.4","0.8","0.2","0.2551376492","0.1656975488","0.3321976498","0.2477816141","","","","","","","","","","","74","J","1","","","200","main_expt"
"284","","bandit","279","747827","0.0-240.0-0.0","08295851","wem/bandit_either","A2YCMT5BPA0AG9","either","5","","","","","","","0","0","1","0.2660639347","","0.6","0.4","0.8","0.2","","","","","0.2660639347","0.1647298582","0.3218117355","0.2744817861","","","","","","","72","H","0","img/none_selected.jpg","","201","main_expt"
"665","","bandit","280","750006","0.0-241.0-0.0","08295851","wem/bandit_either","A2YCMT5BPA0AG9","either","5","","","","","","","0","0","1","","0.1242041815","0.6","0.4","0.8","0.2","0.2220900594","0.1242041815","0.2949214693","0.3043062986","","","","","","","","","","","74","J","1","","","202","main_expt"
"285","","bandit","281","751808","0.0-242.0-0.0","08295851","wem/bandit_either","A2YCMT5BPA0AG9","either","5","","","","","","","0","0","1","0.300077299","","0.6","0.4","0.8","0.2","","","","","0.1543353204","0.1684487429","0.300077299","0.272185569","","","","","","","75","K","2","","","203","main_expt"
"43","","bandit","282","753367","0.0-243.0-0.0","08295851","wem/bandit_either","A2YCMT5BPA0AG9","either","5","","","","","","","0","1","0","","0.2610767704","0.6","0.4","0.8","0.2","0.1605482003","0.1666409686","0.2866085977","0.2610767704","","","","","","","","","","","76","L","3","","","204","main_expt"
"242","","bandit","283","755126","0.0-244.0-0.0","08295851","wem/bandit_either","A2YCMT5BPA0AG9","either","5","","","","","","","0","1","0","","0.2832615928","0.6","0.4","0.8","0.2","0.1406914754","0.2197286508","0.2695546272","0.2832615928","","","","","","","","","","","76","L","3","","","205","main_expt"
"236","","bandit","284","756880","0.0-245.0-0.0","08295851","wem/bandit_either","A2YCMT5BPA0AG9","either","5","","","","","","","0","0","1","0.300913322","","0.6","0.4","0.8","0.2","","","","","0.1138947463","0.2754509052","0.2622178416","0.300913322","","","","","","","76","L","3","","","206","main_expt"
"206","","bandit","285","758606","0.0-246.0-0.0","08295851","wem/bandit_either","A2YCMT5BPA0AG9","either","5","","","","","","","0","0","1","0.2498186578","","0.6","0.4","0.8","0.2","","","","","0.1096702189","0.2664869377","0.2498186578","0.3260258847","","","","","","","75","K","2","","","207","main_expt"
"306","","bandit","286","760428","0.0-247.0-0.0","08295851","wem/bandit_either","A2YCMT5BPA0AG9","either","5","","","","","","","0","0","1","","0.2686565688","0.6","0.4","0.8","0.2","0.09922356593","0.2686565688","0.2335358635","0.3173829003","","","","","","","","","","","74","J","1","","","208","main_expt"
"292","","bandit","287","762238","0.0-248.0-0.0","08295851","wem/bandit_either","A2YCMT5BPA0AG9","either","5","","","","","","","0","1","0","","0.101567507","0.6","0.4","0.8","0.2","0.101567507","0.2380255957","0.2638942681","0.3153846937","","","","","","","","","","","72","H","0","img/none_selected.jpg","","209","main_expt"
"530","","bandit","288","764286","0.0-249.0-0.0","08295851","wem/bandit_either","A2YCMT5BPA0AG9","either","5","","","","","","","0","0","1","","0.08675379402","0.6","0.4","0.8","0.2","0.08675379402","0.2507768727","0.2526926237","0.3010876552","","","","","","","","","","","72","H","0","img/none_selected.jpg","","210","main_expt"
"302","","bandit","289","766106","0.0-250.0-0.0","08295851","wem/bandit_either","A2YCMT5BPA0AG9","either","5","","","","","","","0","0","1","0.2864900033","","0.6","0.4","0.8","0.2","","","","","0.07512021269","0.2685142319","0.2740367769","0.2864900033","","","","","","","76","L","3","","","211","main_expt"
"189","","bandit","290","767808","0.0-251.0-0.0","08295851","wem/bandit_either","A2YCMT5BPA0AG9","either","5","","","","","","","0","0","1","","0.3163372434","0.6","0.4","0.8","0.2","0.08144254236","0.260511483","0.2440836191","0.3163372434","","","","","","","","","","","76","L","3","","","212","main_expt"
"60","","bandit","291","769386","0.0-252.0-0.0","08295851","wem/bandit_either","A2YCMT5BPA0AG9","either","5","","","","","","","0","0","1","","0.2341903104","0.6","0.4","0.8","0.2","0.06585574052","0.2579605047","0.2341903104","0.2701305136","","","","","","","","","","","75","K","2","","","213","main_expt"
"306","","bandit","292","771208","0.0-253.0-0.0","08295851","wem/bandit_either","A2YCMT5BPA0AG9","either","5","","","","","","","0","0","1","","0.2470456849","0.6","0.4","0.8","0.2","0.08686614453","0.2470456849","0.2097526345","0.302599165","","","","","","","","","","","74","J","1","","","214","main_expt"
"273","","bandit","293","772998","0.0-254.0-0.0","08295851","wem/bandit_either","A2YCMT5BPA0AG9","either","5","","","","","","","0","0","1","","0.1068548489","0.6","0.4","0.8","0.2","0.1068548489","0.3285383036","0.1796882487","0.2968005471","","","","","","","","","","","72","H","0","img/none_selected.jpg","","215","main_expt"
"236","","bandit","294","774748","0.0-255.0-0.0","08295851","wem/bandit_either","A2YCMT5BPA0AG9","either","5","","","","","","","0","0","1","","0.2835536598","0.6","0.4","0.8","0.2","0.1211736082","0.3780044773","0.2237900511","0.2835536598","","","","","","","","","","","76","L","3","","","216","main_expt"
"280","","bandit","295","776545","0.0-256.0-0.0","08295851","wem/bandit_either","A2YCMT5BPA0AG9","either","5","","","","","","","0","1","0","","0.2265358539","0.6","0.4","0.8","0.2","0.09343701815","0.3939228946","0.2265358539","0.2520762718","","","","","","","","","","","75","K","2","","","217","main_expt"
"286","","bandit","296","778350","0.0-257.0-0.0","08295851","wem/bandit_either","A2YCMT5BPA0AG9","either","5","","","","","","","1","0","0","0.2364013437","","0.6","0.4","0.8","0.2","","","","","0.1001055386","0.3198270803","0.2364013437","0.2562699476","","","","","","","75","K","2","","","218","main_expt"
"270","","bandit","297","780140","0.0-258.0-0.0","08295851","wem/bandit_either","A2YCMT5BPA0AG9","either","5","","","","","","","0","0","1","","0.2810560361","0.6","0.4","0.8","0.2","0.09524874014","0.3502502288","0.2810560361","0.3002431464","","","","","","","","","","","75","K","2","","","219","main_expt"
"328","","bandit","298","781981","0.0-259.0-0.0","08295851","wem/bandit_either","A2YCMT5BPA0AG9","either","5","","","","","","","0","0","1","","0.3365413303","0.6","0.4","0.8","0.2","0.1304899995","0.3402456168","0.3027429446","0.3365413303","","","","","","","","","","","76","L","3","","","220","main_expt"
"265","","bandit","299","783762","0.0-260.0-0.0","08295851","wem/bandit_either","A2YCMT5BPA0AG9","either","5","","","","","","","0","0","1","0.3132134988","","0.6","0.4","0.8","0.2","","","","","0.1272814923","0.3770059732","0.3132134988","0.2946103072","","","","","","","75","K","2","","","221","main_expt"
"252","","bandit","300","785532","0.0-261.0-0.0","08295851","wem/bandit_either","A2YCMT5BPA0AG9","either","5","","","","","","","0","0","1","0.3267284332","","0.6","0.4","0.8","0.2","","","","","0.1654407056","0.3864421123","0.2424821827","0.3267284332","","","","","","","76","L","3","","","222","main_expt"
"71","","bandit","301","787114","0.0-262.0-0.0","08295851","wem/bandit_either","A2YCMT5BPA0AG9","either","5","","","","","","","0","0","1","0.2595367495","","0.6","0.4","0.8","0.2","","","","","0.1788325852","0.4205211408","0.2595367495","0.3175152631","","","","","","","75","K","2","","","223","main_expt"
"225","","bandit","302","788856","0.0-263.0-0.0","08295851","wem/bandit_either","A2YCMT5BPA0AG9","either","5","","","","","","","0","1","0","","0.4131889957","0.6","0.4","0.8","0.2","0.1736623033","0.4131889957","0.328819141","0.3192400935","","","","","","","","","","","74","J","1","","","224","main_expt"
"92","","bandit","303","790466","0.0-264.0-0.0","08295851","wem/bandit_either","A2YCMT5BPA0AG9","either","5","","","","","","","0","0","1","","0.4001513574","0.6","0.4","0.8","0.2","0.1721911447","0.4001513574","0.356121412","0.3096750449","","","","","","","","","","","74","J","1","","","225","main_expt"
"117","","bandit","304","792100","0.0-265.0-0.0","08295851","wem/bandit_either","A2YCMT5BPA0AG9","either","5","","","","","","","0","0","1","0.2133818582","","0.6","0.4","0.8","0.2","","","","","0.2133818582","0.3963688582","0.3394019192","0.3142833063","","","","","","","72","H","0","img/none_selected.jpg","","226","main_expt"
"249","","bandit","305","793868","0.0-266.0-0.0","08295851","wem/bandit_either","A2YCMT5BPA0AG9","either","5","","","","","","","0","0","1","0.3979714495","","0.6","0.4","0.8","0.2","","","","","0.2620007467","0.3979714495","0.2860553004","0.3096885674","","","","","","","74","J","1","","","227","main_expt"
"541","","bandit","306","795928","0.0-267.0-0.0","08295851","wem/bandit_either","A2YCMT5BPA0AG9","either","5","","","","","","","0","0","1","0.2967856672","","0.6","0.4","0.8","0.2","","","","","0.2961930455","0.3811043637","0.2967856672","0.3048295172","","","","","","","75","K","2","","","228","main_expt"
"63","","bandit","307","797508","0.0-268.0-0.0","08295851","wem/bandit_either","A2YCMT5BPA0AG9","either","5","","","","","","","0","0","1","","0.2553920021","0.6","0.4","0.8","0.2","0.3081123415","0.3488149186","0.2857745529","0.2553920021","","","","","","","","","","","76","L","3","","","229","main_expt"
"296","","bandit","308","799319","0.0-269.0-0.0","08295851","wem/bandit_either","A2YCMT5BPA0AG9","either","5","","","","","","","0","0","1","0.2589404948","","0.6","0.4","0.8","0.2","","","","","0.3027177586","0.2883621188","0.2589404948","0.2783794412","","","","","","","75","K","2","","","230","main_expt"
"585","","bandit","309","801423","0.0-270.0-0.0","08295851","wem/bandit_either","A2YCMT5BPA0AG9","either","5","","","","","","","0","0","1","","0.2444465504","0.6","0.4","0.8","0.2","0.2495346478","0.2444465504","0.2628441024","0.2735536708","","","","","","","","","","","74","J","1","","","231","main_expt"
"241","","bandit","310","803177","0.0-271.0-0.0","08295851","wem/bandit_either","A2YCMT5BPA0AG9","either","5","","","","","","","0","0","1","0.2185872191","","0.6","0.4","0.8","0.2","","","","","0.2185872191","0.2996930955","0.276537748","0.2262440502","","","","","","","72","H","0","img/none_selected.jpg","","232","main_expt"
"391","","bandit","311","805085","0.0-272.0-0.0","08295851","wem/bandit_either","A2YCMT5BPA0AG9","either","5","","","","","","","0","0","1","","0.3103031796","0.6","0.4","0.8","0.2","0.1874863907","0.3103031796","0.2485723575","0.2171974885","","","","","","","","","","","74","J","1","","","233","main_expt"
"455","","bandit","312","807058","0.0-273.0-0.0","08295851","wem/bandit_either","A2YCMT5BPA0AG9","either","5","","","","","","","0","0","1","0.2172766866","","0.6","0.4","0.8","0.2","","","","","0.2165838284","0.2971988612","0.2172766866","0.2951485073","","","","","","","75","K","2","","","234","main_expt"
"261","","bandit","313","808837","0.0-274.0-0.0","08295851","wem/bandit_either","A2YCMT5BPA0AG9","either","5","","","","","","","0","0","1","","0.3135740045","0.6","0.4","0.8","0.2","0.1791302586","0.3266576642","0.221542824","0.3135740045","","","","","","","","","","","76","L","3","","","235","main_expt"
"255","","bandit","314","810606","0.0-275.0-0.0","08295851","wem/bandit_either","A2YCMT5BPA0AG9","either","5","","","","","","","0","0","1","","0.2200573756","0.6","0.4","0.8","0.2","0.2463713802","0.3596878827","0.2200573756","0.2945285262","","","","","","","","","","","75","K","2","","","236","main_expt"
"168","","bandit","315","812293","0.0-276.0-0.0","08295851","wem/bandit_either","A2YCMT5BPA0AG9","either","5","","","","","","","0","0","1","0.3951370387","","0.6","0.4","0.8","0.2","","","","","0.2204623923","0.3951370387","0.2146478317","0.2797454337","","","","","","","74","J","1","","","237","main_expt"
"86","","bandit","316","813899","0.0-277.0-0.0","08295851","wem/bandit_either","A2YCMT5BPA0AG9","either","5","","","","","","","0","0","1","0.2316256556","","0.6","0.4","0.8","0.2","","","","","0.2316256556","0.3863552979","0.2237656472","0.266453507","","","","","","","72","H","0","img/none_selected.jpg","","238","main_expt"
"381","","bandit","317","815798","0.0-278.0-0.0","08295851","wem/bandit_either","A2YCMT5BPA0AG9","either","5","","","","","","","0","0","1","","0.3962704677","0.6","0.4","0.8","0.2","0.2406304147","0.3962704677","0.2302611888","0.310831157","","","","","","","","","","","74","J","1","","","239","main_expt"
"53","","bandit","318","817370","0.0-279.0-0.0","08295851","wem/bandit_either","A2YCMT5BPA0AG9","either","5","","","","","","","0","1","0","","0.3926977495","0.6","0.4","0.8","0.2","0.2624476398","0.3926977495","0.2253069634","0.331950591","","","","","","","","","","","74","J","1","","","240","main_expt"
"325","","bandit","319","819211","0.0-280.0-0.0","08295851","wem/bandit_either","A2YCMT5BPA0AG9","either","5","","","","","","","0","0","1","0.2523404353","","0.6","0.4","0.8","0.2","","","","","0.2627099727","0.3381110468","0.2523404353","0.3223776605","","","","","","","75","K","2","","","241","main_expt"
"313","","bandit","320","821043","0.0-281.0-0.0","08295851","wem/bandit_either","A2YCMT5BPA0AG9","either","5","","","","","","","0","0","1","0.3213381148","","0.6","0.4","0.8","0.2","","","","","0.2262339403","0.3213381148","0.238450381","0.3389272588","","","","","","","74","J","1","","","242","main_expt"
"225","","bandit","321","822786","0.0-282.0-0.0","08295851","wem/bandit_either","A2YCMT5BPA0AG9","either","5","","","","","","","0","0","1","0.2476478509","","0.6","0.4","0.8","0.2","","","","","0.2511573395","0.3395415742","0.2476478509","0.4023830898","","","","","","","75","K","2","","","243","main_expt"
"54","","bandit","322","824357","0.0-283.0-0.0","08295851","wem/bandit_either","A2YCMT5BPA0AG9","either","5","","","","","","","0","1","0","","0.4072225753","0.6","0.4","0.8","0.2","0.3112309098","0.3077285799","0.2603762171","0.4072225753","","","","","","","","","","","76","L","3","","","244","main_expt"
"287","","bandit","323","826163","0.0-284.0-0.0","08295851","wem/bandit_either","A2YCMT5BPA0AG9","either","5","","","","","","","0","1","0","","0.4047901721","0.6","0.4","0.8","0.2","0.3169667097","0.269997398","0.2778117757","0.4047901721","","","","","","","","","","","76","L","3","","","245","main_expt"
"260","","bandit","324","827943","0.0-285.0-0.0","08295851","wem/bandit_either","A2YCMT5BPA0AG9","either","5","","","","","","","0","0","1","","0.4245844383","0.6","0.4","0.8","0.2","0.3774934029","0.2896792764","0.2571702875","0.4245844383","","","","","","","","","","","76","L","3","","","246","main_expt"
"171","","bandit","325","829631","0.0-286.0-0.0","08295851","wem/bandit_either","A2YCMT5BPA0AG9","either","5","","","","","","","0","0","1","","0.2790325972","0.6","0.4","0.8","0.2","0.3592590195","0.3079745892","0.2790325972","0.4425022826","","","","","","","","","","","75","K","2","","","247","main_expt"
"263","","bandit","326","831407","0.0-287.0-0.0","08295851","wem/bandit_either","A2YCMT5BPA0AG9","either","5","","","","","","","0","0","1","0.2665328125","","0.6","0.4","0.8","0.2","","","","","0.3659800935","0.2306801962","0.2665328125","0.4454461089","","","","","","","75","K","2","","","248","main_expt"
"913","","bandit","327","833839","0.0-288.0-0.0","08295851","wem/bandit_either","A2YCMT5BPA0AG9","either","5","","","","","","","0","0","1","0.2666328085","","0.6","0.4","0.8","0.2","","","","","0.3940863056","0.2363838343","0.2666328085","0.4565985803","","","","","","","75","K","2","","","249","main_expt"
"273","","bandit","328","835632","0.0-289.0-0.0","08295851","wem/bandit_either","A2YCMT5BPA0AG9","either","5","","","","","","","0","0","1","0.2637425143","","0.6","0.4","0.8","0.2","","","","","0.3652193683","0.2865845142","0.2637425143","0.4666950096","","","","","","","75","K","2","","","250","main_expt"
"217","","bandit","329","837364","0.0-290.0-0.0","08295851","wem/bandit_either","A2YCMT5BPA0AG9","either","5","","","","","","","1","0","0","0.3041279159","","0.6","0.4","0.8","0.2","","","","","0.3118516898","0.3527425442","0.3041279159","0.4491167865","","","","","","","75","K","2","","","251","main_expt"
"326","","bandit","330","839208","0.0-291.0-0.0","08295851","wem/bandit_either","A2YCMT5BPA0AG9","either","5","","","","","","","0","0","1","0.3054217384","","0.6","0.4","0.8","0.2","","","","","0.3291033061","0.3236638898","0.3054217384","0.4512042396","","","","","","","75","K","2","","","252","main_expt"
"247","","bandit","331","840973","0.0-292.0-0.0","08295851","wem/bandit_either","A2YCMT5BPA0AG9","either","5","","","","","","","0","0","1","","0.4572977034","0.6","0.4","0.8","0.2","0.35413613","0.2905162115","0.3241125582","0.4572977034","","","","","","","","","","","76","L","3","","","253","main_expt"
"222","","bandit","332","842717","0.0-293.0-0.0","08295851","wem/bandit_either","A2YCMT5BPA0AG9","either","5","","","","","","","0","0","1","","0.4550853681","0.6","0.4","0.8","0.2","0.2644422317","0.2486268238","0.3512447021","0.4550853681","","","","","","","","","","","76","L","3","","","254","main_expt"
"158","","bandit","333","844395","0.0-294.0-0.0","08295851","wem/bandit_either","A2YCMT5BPA0AG9","either","5","","","","","","","0","0","1","","0.4068249484","0.6","0.4","0.8","0.2","0.3151268161","0.2578586278","0.3367754603","0.4068249484","","","","","","","","","","","76","L","3","","","255","main_expt"
