"rt","responses","trial_type","trial_index","time_elapsed","internal_node_id","subjID","study","MID","cond","drift","key_press","expt_phase","target","like","value","connected","gems","bombs","no_reward","GemPrChosen","BombPrChosen","GainOverPainPr_0","GainOverPainPr_1","GainOverPainPr_2","GainOverPainPr_3","LosePr_0","LosePr_1","LosePr_2","LosePr_3","WinPr_0","WinPr_1","WinPr_2","WinPr_3","Q0","Q1","Q2","gender","age","ethnicity","respCharCode","respKey","respChoiceNum","respChoice","practice","trial_counter","trial_label"
"5014","{""Q0"":""A3BJNFU4T7RU11""}","survey-text","0","5052","0.0-0.0","10882846","wem/bandit_either","A3BJNFU4T7RU11","either","6","","","","","","","","","","","","","","","","","","","","","","","","","","","","","","","","","","","",""
"5635","","text","1","11701","0.0-1.0","10882846","wem/bandit_either","A3BJNFU4T7RU11","either","6","32","","","","","","","","","","","","","","","","","","","","","","","","","","","","","","","","","","",""
"5443","","text","2","17150","0.0-2.0","10882846","wem/bandit_either","A3BJNFU4T7RU11","either","6","32","","","","","","","","","","","","","","","","","","","","","","","","","","","","","","","","","","",""
"13211","","text","3","30368","0.0-3.0","10882846","wem/bandit_either","A3BJNFU4T7RU11","either","6","32","","","","","","","","","","","","","","","","","","","","","","","","","","","","","","","","","","",""
"14498","","text","4","44872","0.0-4.0","10882846","wem/bandit_either","A3BJNFU4T7RU11","either","6","32","","","","","","","","","","","","","","","","","","","","","","","","","","","","","","","","","","",""
"23132","","text","5","68011","0.0-5.0","10882846","wem/bandit_either","A3BJNFU4T7RU11","either","6","32","","","","","","","","","","","","","","","","","","","","","","","","","","","","","","","","","","",""
"4934","","text","6","72949","0.0-6.0","10882846","wem/bandit_either","A3BJNFU4T7RU11","either","6","32","","","","","","","","","","","","","","","","","","","","","","","","","","","","","","","","","","",""
"4957","","text","7","77912","0.0-7.0","10882846","wem/bandit_either","A3BJNFU4T7RU11","either","6","32","","","","","","","","","","","","","","","","","","","","","","","","","","","","","","","","","","",""
"8530","","identification","8","86519","0.0-8.0-0.0","10882846","wem/bandit_either","A3BJNFU4T7RU11","either","6","","identification_pre","the village of Zur","","","","","","","","","","","","","","","","","","","","","","","","","","","","","","","","",""
"3876","","identification","9","91445","0.0-8.0-1.0","10882846","wem/bandit_either","A3BJNFU4T7RU11","either","6","","identification_pre","the village of Nyx","","","","","","","","","","","","","","","","","","","","","","","","","","","","","","","","",""
"4179","","text","10","96635","0.0-9.0","10882846","wem/bandit_either","A3BJNFU4T7RU11","either","6","32","","","","","","","","","","","","","","","","","","","","","","","","","","","","","","","","","","",""
"1554","","text","11","98195","0.0-10.0","10882846","wem/bandit_either","A3BJNFU4T7RU11","either","6","32","","","","","","","","","","","","","","","","","","","","","","","","","","","","","","","","","","",""
"2095","","text","12","100294","0.0-11.0","10882846","wem/bandit_either","A3BJNFU4T7RU11","either","6","32","","","","","","","","","","","","","","","","","","","","","","","","","","","","","","","","","","",""
"3435","","text","13","103735","0.0-12.0","10882846","wem/bandit_either","A3BJNFU4T7RU11","either","6","32","","","","","","","","","","","","","","","","","","","","","","","","","","","","","","","","","","",""
"1578","","bandit","14","106847","0.0-13.0-0.0","10882846","wem/bandit_either","A3BJNFU4T7RU11","either","6","","","","","","","0","0","1","0","0","","","","","0","","","","0","","","","","","","","","","74","J","0","img/none_selected_demo.jpg","true","0",""
"1070","","bandit","15","109446","0.0-14.0-0.0","10882846","wem/bandit_either","A3BJNFU4T7RU11","either","6","","","","","","","0","0","1","0","0","","","","","0","","","","0","","","","","","","","","","75","K","0","img/none_selected_demo.jpg","true","0",""
"5285","","text","16","114737","0.0-15.0","10882846","wem/bandit_either","A3BJNFU4T7RU11","either","6","32","","","","","","","","","","","","","","","","","","","","","","","","","","","","","","","","","","",""
"11448","","text","17","126192","0.0-16.0","10882846","wem/bandit_either","A3BJNFU4T7RU11","either","6","32","","","","","","","","","","","","","","","","","","","","","","","","","","","","","","","","","","",""
"4393","","text","18","130596","0.0-17.0","10882846","wem/bandit_either","A3BJNFU4T7RU11","either","6","32","","","","","","","","","","","","","","","","","","","","","","","","","","","","","","","","","","",""
"2175","","text","19","132780","0.0-18.0","10882846","wem/bandit_either","A3BJNFU4T7RU11","either","6","32","","","","","","","","","","","","","","","","","","","","","","","","","","","","","","","","","","",""
"838","","bandit","20","135136","0.0-19.0-0.0","10882846","wem/bandit_either","A3BJNFU4T7RU11","either","6","","","","","","","0","1","0","","0.8","0.5","0.5","","","0.8","0.2","","","","","","","","","","","","","74","J","0","img/none_selected_demo.jpg","true","0","80_20_practice"
"465","","bandit","21","137118","0.0-19.0-1.0","10882846","wem/bandit_either","A3BJNFU4T7RU11","either","6","","","","","","","0","0","1","0.8","","0.5","0.5","","","","","","","0.8","0.2","","","","","","","","","74","J","0","img/none_selected_demo.jpg","true","0","80_20_practice"
"490","","bandit","22","139128","0.0-19.0-2.0","10882846","wem/bandit_either","A3BJNFU4T7RU11","either","6","","","","","","","0","1","0","","0.8","0.5","0.5","","","0.8","0.2","","","","","","","","","","","","","74","J","0","img/none_selected_demo.jpg","true","0","80_20_practice"
"301","","bandit","23","140954","0.0-19.0-3.0","10882846","wem/bandit_either","A3BJNFU4T7RU11","either","6","","","","","","","0","0","1","","0.2","0.5","0.5","","","0.8","0.2","","","","","","","","","","","","","75","K","1","","true","0","80_20_practice"
"400","","bandit","24","142876","0.0-19.0-4.0","10882846","wem/bandit_either","A3BJNFU4T7RU11","either","6","","","","","","","0","0","1","","0.2","0.5","0.5","","","0.8","0.2","","","","","","","","","","","","","75","K","1","","true","0","80_20_practice"
"218","","bandit","25","144616","0.0-19.0-5.0","10882846","wem/bandit_either","A3BJNFU4T7RU11","either","6","","","","","","","0","0","1","0.2","","0.5","0.5","","","","","","","0.8","0.2","","","","","","","","","75","K","1","","true","0","80_20_practice"
"104","","bandit","26","146237","0.0-19.0-6.0","10882846","wem/bandit_either","A3BJNFU4T7RU11","either","6","","","","","","","0","0","1","0.2","","0.5","0.5","","","","","","","0.8","0.2","","","","","","","","","75","K","1","","true","0","80_20_practice"
"322","","bandit","27","148079","0.0-19.0-7.0","10882846","wem/bandit_either","A3BJNFU4T7RU11","either","6","","","","","","","0","0","1","","0.2","0.5","0.5","","","0.8","0.2","","","","","","","","","","","","","75","K","1","","true","0","80_20_practice"
"226","","bandit","28","149829","0.0-19.0-8.0","10882846","wem/bandit_either","A3BJNFU4T7RU11","either","6","","","","","","","0","0","1","0.2","","0.5","0.5","","","","","","","0.8","0.2","","","","","","","","","75","K","1","","true","0","80_20_practice"
"236","","bandit","29","151606","0.0-19.0-9.0","10882846","wem/bandit_either","A3BJNFU4T7RU11","either","6","","","","","","","0","0","1","0.2","","0.5","0.5","","","","","","","0.8","0.2","","","","","","","","","75","K","1","","true","0","80_20_practice"
"48","","bandit","30","153172","0.0-19.0-10.0","10882846","wem/bandit_either","A3BJNFU4T7RU11","either","6","","","","","","","0","0","1","0.8","","0.5","0.5","","","","","","","0.8","0.2","","","","","","","","","74","J","0","img/none_selected_demo.jpg","true","0","80_20_practice"
"184","","bandit","31","154878","0.0-19.0-11.0","10882846","wem/bandit_either","A3BJNFU4T7RU11","either","6","","","","","","","0","1","0","","0.8","0.5","0.5","","","0.8","0.2","","","","","","","","","","","","","74","J","0","img/none_selected_demo.jpg","true","0","80_20_practice"
"282","","bandit","32","156680","0.0-19.0-12.0","10882846","wem/bandit_either","A3BJNFU4T7RU11","either","6","","","","","","","0","0","1","","0.2","0.5","0.5","","","0.8","0.2","","","","","","","","","","","","","75","K","1","","true","0","80_20_practice"
"161","","bandit","33","158362","0.0-19.0-13.0","10882846","wem/bandit_either","A3BJNFU4T7RU11","either","6","","","","","","","0","0","1","","0.2","0.5","0.5","","","0.8","0.2","","","","","","","","","","","","","75","K","1","","true","0","80_20_practice"
"207","","bandit","34","160101","0.0-19.0-14.0","10882846","wem/bandit_either","A3BJNFU4T7RU11","either","6","","","","","","","1","0","0","0.2","","0.5","0.5","","","","","","","0.8","0.2","","","","","","","","","75","K","1","","true","0","80_20_practice"
"123","","bandit","35","161766","0.0-19.0-15.0","10882846","wem/bandit_either","A3BJNFU4T7RU11","either","6","","","","","","","0","0","1","","0.2","0.5","0.5","","","0.8","0.2","","","","","","","","","","","","","75","K","1","","true","0","80_20_practice"
"5","","bandit","36","163291","0.0-19.0-16.0","10882846","wem/bandit_either","A3BJNFU4T7RU11","either","6","","","","","","","0","0","1","0.2","","0.5","0.5","","","","","","","0.8","0.2","","","","","","","","","75","K","1","","true","0","80_20_practice"
"403","","bandit","37","165216","0.0-19.0-17.0","10882846","wem/bandit_either","A3BJNFU4T7RU11","either","6","","","","","","","1","0","0","0.2","","0.5","0.5","","","","","","","0.8","0.2","","","","","","","","","75","K","1","","true","0","80_20_practice"
"10","","bandit","38","166761","0.0-19.0-18.0","10882846","wem/bandit_either","A3BJNFU4T7RU11","either","6","","","","","","","0","0","1","","0.2","0.5","0.5","","","0.8","0.2","","","","","","","","","","","","","75","K","1","","true","0","80_20_practice"
"27","","bandit","39","168310","0.0-19.0-19.0","10882846","wem/bandit_either","A3BJNFU4T7RU11","either","6","","","","","","","0","0","1","0.2","","0.5","0.5","","","","","","","0.8","0.2","","","","","","","","","75","K","1","","true","0","80_20_practice"
"4547","","text","40","172866","0.0-20.0","10882846","wem/bandit_either","A3BJNFU4T7RU11","either","6","32","","","","","","","","","","","","","","","","","","","","","","","","","","","","","","","","","","",""
"1812","","bandit","41","176198","0.0-21.0-0.0","10882846","wem/bandit_either","A3BJNFU4T7RU11","either","6","","","","","","","1","0","0","1","0","","","","","0","1","","","1","0","","","","","","","","","74","J","0","img/none_selected_demo.jpg","true","0",""
"3086","","text","42","179321","0.0-22.0","10882846","wem/bandit_either","A3BJNFU4T7RU11","either","6","32","","","","","","","","","","","","","","","","","","","","","","","","","","","","","","","","","","",""
"3487","","text","43","182814","0.0-23.0","10882846","wem/bandit_either","A3BJNFU4T7RU11","either","6","32","","","","","","","","","","","","","","","","","","","","","","","","","","","","","","","","","","",""
"2321","","text","44","185142","0.0-24.0","10882846","wem/bandit_either","A3BJNFU4T7RU11","either","6","32","","","","","","","","","","","","","","","","","","","","","","","","","","","","","","","","","","",""
"3042","","text","45","188191","0.0-25.0","10882846","wem/bandit_either","A3BJNFU4T7RU11","either","6","32","","","","","","","","","","","","","","","","","","","","","","","","","","","","","","","","","","",""
"9890","","text","46","198089","0.0-26.0","10882846","wem/bandit_either","A3BJNFU4T7RU11","either","6","32","","","","","","","","","","","","","","","","","","","","","","","","","","","","","","","","","","",""
"2887","","text","47","200985","0.0-27.0","10882846","wem/bandit_either","A3BJNFU4T7RU11","either","6","32","","","","","","","","","","","","","","","","","","","","","","","","","","","","","","","","","","",""
"2604","","text","48","203599","0.0-28.0","10882846","wem/bandit_either","A3BJNFU4T7RU11","either","6","32","","","","","","","","","","","","","","","","","","","","","","","","","","","","","","","","","","",""
"2888","","text","49","206494","0.0-29.0","10882846","wem/bandit_either","A3BJNFU4T7RU11","either","6","32","","","","","","","","","","","","","","","","","","","","","","","","","","","","","","","","","","",""
"6095","","text","50","212595","0.0-30.0","10882846","wem/bandit_either","A3BJNFU4T7RU11","either","6","32","","","","","","","","","","","","","","","","","","","","","","","","","","","","","","","","","","",""
"853","","text","51","213456","0.0-31.0","10882846","wem/bandit_either","A3BJNFU4T7RU11","either","6","32","","","","","","","","","","","","","","","","","","","","","","","","","","","","","","","","","","",""
"1011","","text","52","214476","0.0-32.0","10882846","wem/bandit_either","A3BJNFU4T7RU11","either","6","32","","","","","","","","","","","","","","","","","","","","","","","","","","","","","","","","","","",""
"850","","bandit","53","216854","0.0-33.0-0.0","10882846","wem/bandit_either","A3BJNFU4T7RU11","either","6","","","","","","","1","0","0","0.8","","0.5","0.5","0.5","0.5","","","","","0.8","0.2","0.6","0.2","","","","","","","72","H","0","img/none_selected.jpg","true","0","full_practice"
"257","","bandit","54","218635","0.0-33.0-1.0","10882846","wem/bandit_either","A3BJNFU4T7RU11","either","6","","","","","","","0","1","0","","0.8","0.5","0.5","0.5","0.5","0.8","0.2","0.6","0.2","","","","","","","","","","","72","H","0","img/none_selected.jpg","true","0","full_practice"
"290","","bandit","55","220450","0.0-33.0-2.0","10882846","wem/bandit_either","A3BJNFU4T7RU11","either","6","","","","","","","1","0","0","0.8","","0.5","0.5","0.5","0.5","","","","","0.8","0.2","0.6","0.2","","","","","","","72","H","0","img/none_selected.jpg","true","0","full_practice"
"149","","bandit","56","222121","0.0-33.0-3.0","10882846","wem/bandit_either","A3BJNFU4T7RU11","either","6","","","","","","","0","1","0","","0.8","0.5","0.5","0.5","0.5","0.8","0.2","0.6","0.2","","","","","","","","","","","72","H","0","img/none_selected.jpg","true","0","full_practice"
"154","","bandit","57","223800","0.0-33.0-4.0","10882846","wem/bandit_either","A3BJNFU4T7RU11","either","6","","","","","","","0","0","1","0.8","","0.5","0.5","0.5","0.5","","","","","0.8","0.2","0.6","0.2","","","","","","","72","H","0","img/none_selected.jpg","true","0","full_practice"
"578","","bandit","58","225903","0.0-33.0-5.0","10882846","wem/bandit_either","A3BJNFU4T7RU11","either","6","","","","","","","0","0","1","0.8","","0.5","0.5","0.5","0.5","","","","","0.8","0.2","0.6","0.2","","","","","","","72","H","0","img/none_selected.jpg","true","0","full_practice"
"411","","bandit","59","227834","0.0-33.0-6.0","10882846","wem/bandit_either","A3BJNFU4T7RU11","either","6","","","","","","","0","0","1","","0.8","0.5","0.5","0.5","0.5","0.8","0.2","0.6","0.2","","","","","","","","","","","72","H","0","img/none_selected.jpg","true","0","full_practice"
"846","","bandit","60","230202","0.0-33.0-7.0","10882846","wem/bandit_either","A3BJNFU4T7RU11","either","6","","","","","","","0","0","1","0.2","","0.5","0.5","0.5","0.5","","","","","0.8","0.2","0.6","0.2","","","","","","","74","J","1","","true","0","full_practice"
"42","","bandit","61","231770","0.0-33.0-8.0","10882846","wem/bandit_either","A3BJNFU4T7RU11","either","6","","","","","","","0","0","1","","0.2","0.5","0.5","0.5","0.5","0.8","0.2","0.6","0.2","","","","","","","","","","","74","J","1","","true","0","full_practice"
"147","","bandit","62","233445","0.0-33.0-9.0","10882846","wem/bandit_either","A3BJNFU4T7RU11","either","6","","","","","","","1","0","0","0.2","","0.5","0.5","0.5","0.5","","","","","0.8","0.2","0.6","0.2","","","","","","","74","J","1","","true","0","full_practice"
"42","","bandit","63","235012","0.0-33.0-10.0","10882846","wem/bandit_either","A3BJNFU4T7RU11","either","6","","","","","","","0","0","1","","0.2","0.5","0.5","0.5","0.5","0.8","0.2","0.6","0.2","","","","","","","","","","","74","J","1","","true","0","full_practice"
"20","","bandit","64","236567","0.0-33.0-11.0","10882846","wem/bandit_either","A3BJNFU4T7RU11","either","6","","","","","","","1","0","0","0.2","","0.5","0.5","0.5","0.5","","","","","0.8","0.2","0.6","0.2","","","","","","","74","J","1","","true","0","full_practice"
"4","","bandit","65","238105","0.0-33.0-12.0","10882846","wem/bandit_either","A3BJNFU4T7RU11","either","6","","","","","","","0","0","1","","0.2","0.5","0.5","0.5","0.5","0.8","0.2","0.6","0.2","","","","","","","","","","","74","J","1","","true","0","full_practice"
"117","","bandit","66","239740","0.0-33.0-13.0","10882846","wem/bandit_either","A3BJNFU4T7RU11","either","6","","","","","","","0","0","1","","0.2","0.5","0.5","0.5","0.5","0.8","0.2","0.6","0.2","","","","","","","","","","","74","J","1","","true","0","full_practice"
"345","","bandit","67","241614","0.0-33.0-14.0","10882846","wem/bandit_either","A3BJNFU4T7RU11","either","6","","","","","","","0","0","1","","0.2","0.5","0.5","0.5","0.5","0.8","0.2","0.6","0.2","","","","","","","","","","","74","J","1","","true","0","full_practice"
"79","","bandit","68","243213","0.0-33.0-15.0","10882846","wem/bandit_either","A3BJNFU4T7RU11","either","6","","","","","","","0","1","0","","0.6","0.5","0.5","0.5","0.5","0.8","0.2","0.6","0.2","","","","","","","","","","","75","K","2","","true","0","full_practice"
"5","","bandit","69","244765","0.0-33.0-16.0","10882846","wem/bandit_either","A3BJNFU4T7RU11","either","6","","","","","","","0","0","1","","0.6","0.5","0.5","0.5","0.5","0.8","0.2","0.6","0.2","","","","","","","","","","","75","K","2","","true","0","full_practice"
"174","","bandit","70","246470","0.0-33.0-17.0","10882846","wem/bandit_either","A3BJNFU4T7RU11","either","6","","","","","","","0","0","1","","0.6","0.5","0.5","0.5","0.5","0.8","0.2","0.6","0.2","","","","","","","","","","","75","K","2","","true","0","full_practice"
"264","","bandit","71","248260","0.0-33.0-18.0","10882846","wem/bandit_either","A3BJNFU4T7RU11","either","6","","","","","","","0","0","1","","0.6","0.5","0.5","0.5","0.5","0.8","0.2","0.6","0.2","","","","","","","","","","","75","K","2","","true","0","full_practice"
"185","","bandit","72","249967","0.0-33.0-19.0","10882846","wem/bandit_either","A3BJNFU4T7RU11","either","6","","","","","","","0","0","1","0.6","","0.5","0.5","0.5","0.5","","","","","0.8","0.2","0.6","0.2","","","","","","","75","K","2","","true","0","full_practice"
"2473","","text","73","252464","0.0-34.0","10882846","wem/bandit_either","A3BJNFU4T7RU11","either","6","32","","","","","","","","","","","","","","","","","","","","","","","","","","","","","","","","","","",""
"8607","","text","74","262080","0.0-35.0","10882846","wem/bandit_either","A3BJNFU4T7RU11","either","6","32","","","","","","","","","","","","","","","","","","","","","","","","","","","","","","","","","","",""
"9062","","text","75","271150","0.0-36.0","10882846","wem/bandit_either","A3BJNFU4T7RU11","either","6","32","","","","","","","","","","","","","","","","","","","","","","","","","","","","","","","","","","",""
"3933","","text","76","275092","0.0-37.0","10882846","wem/bandit_either","A3BJNFU4T7RU11","either","6","32","","","","","","","","","","","","","","","","","","","","","","","","","","","","","","","","","","",""
"5417","","text","77","280517","0.0-38.0","10882846","wem/bandit_either","A3BJNFU4T7RU11","either","6","32","","","","","","","","","","","","","","","","","","","","","","","","","","","","","","","","","","",""
"3011","","text","78","283534","0.0-39.0","10882846","wem/bandit_either","A3BJNFU4T7RU11","either","6","32","","","","","","","","","","","","","","","","","","","","","","","","","","","","","","","","","","",""
"910","","bandit","79","285962","0.0-40.0-0.0","10882846","wem/bandit_either","A3BJNFU4T7RU11","either","6","","","","","","","0","0","1","","0.4656478179","0.6","0.8","0.2","0.4","0.4656478179","0.1734470434","0.1720655487","0.06094066238","","","","","","","","","","","72","H","0","img/none_selected.jpg","","1","main_expt"
"149","","bandit","80","287642","0.0-41.0-0.0","10882846","wem/bandit_either","A3BJNFU4T7RU11","either","6","","","","","","","0","0","1","0.1582158198","","0.6","0.8","0.2","0.4","","","","","0.4661883906","0.1582158198","0.1607886358","0.04941180107","","","","","","","74","J","1","","","2","main_expt"
"60","","bandit","81","289232","0.0-42.0-0.0","10882846","wem/bandit_either","A3BJNFU4T7RU11","either","6","","","","","","","0","0","1","0.1264016625","","0.6","0.8","0.2","0.4","","","","","0.4608397999","0.1264016625","0.1825924006","0.09066711981","","","","","","","74","J","1","","","3","main_expt"
"148","","bandit","82","290901","0.0-43.0-0.0","10882846","wem/bandit_either","A3BJNFU4T7RU11","either","6","","","","","","","0","0","1","","0.07815644495","0.6","0.8","0.2","0.4","0.4568511376","0.1212924903","0.1572982515","0.07815644495","","","","","","","","","","","76","L","3","","","4","main_expt"
"410","","bandit","83","292838","0.0-44.0-0.0","10882846","wem/bandit_either","A3BJNFU4T7RU11","either","6","","","","","","","0","0","1","","0.1873501432","0.6","0.8","0.2","0.4","0.4576747282","0.1603104869","0.1873501432","0.06547040057","","","","","","","","","","","75","K","2","","","5","main_expt"
"118","","bandit","84","294491","0.0-45.0-0.0","10882846","wem/bandit_either","A3BJNFU4T7RU11","either","6","","","","","","","0","0","1","","0.1484719509","0.6","0.8","0.2","0.4","0.4673201091","0.1916070739","0.1484719509","0.09500806419","","","","","","","","","","","75","K","2","","","6","main_expt"
"31","","bandit","85","296041","0.0-46.0-0.0","10882846","wem/bandit_either","A3BJNFU4T7RU11","either","6","","","","","","","0","0","1","","0.1368680622","0.6","0.8","0.2","0.4","0.4671816856","0.1624213819","0.1368680622","0.1156714339","","","","","","","","","","","75","K","2","","","7","main_expt"
"227","","bandit","86","297797","0.0-47.0-0.0","10882846","wem/bandit_either","A3BJNFU4T7RU11","either","6","","","","","","","0","0","1","0.08939878806","","0.6","0.8","0.2","0.4","","","","","0.4577650209","0.1529627983","0.1412197478","0.08939878806","","","","","","","76","L","3","","","8","main_expt"
"169","","bandit","87","299506","0.0-48.0-0.0","10882846","wem/bandit_either","A3BJNFU4T7RU11","either","6","","","","","","","0","1","0","","0.4538037209","0.6","0.8","0.2","0.4","0.4538037209","0.1638779","0.1285241668","0.1379609943","","","","","","","","","","","72","H","0","img/none_selected.jpg","","9","main_expt"
"606","","bandit","88","301636","0.0-49.0-0.0","10882846","wem/bandit_either","A3BJNFU4T7RU11","either","6","","","","","","","0","0","1","","0.4567906288","0.6","0.8","0.2","0.4","0.4567906288","0.1682184418","0.1137500729","0.08892925829","","","","","","","","","","","72","H","0","img/none_selected.jpg","","10","main_expt"
"70","","bandit","89","303229","0.0-50.0-0.0","10882846","wem/bandit_either","A3BJNFU4T7RU11","either","6","","","","","","","0","0","1","0.4707556997","","0.6","0.8","0.2","0.4","","","","","0.4707556997","0.1511948373","0.1134058804","0.1053961985","","","","","","","72","H","0","img/none_selected.jpg","","11","main_expt"
"251","","bandit","90","305006","0.0-51.0-0.0","10882846","wem/bandit_either","A3BJNFU4T7RU11","either","6","","","","","","","0","0","1","0.4534589675","","0.6","0.8","0.2","0.4","","","","","0.4534589675","0.2144966391","0.1358134986","0.1267534428","","","","","","","72","H","0","img/none_selected.jpg","","12","main_expt"
"239","","bandit","91","306768","0.0-52.0-0.0","10882846","wem/bandit_either","A3BJNFU4T7RU11","either","6","","","","","","","0","1","0","","0.4474824422","0.6","0.8","0.2","0.4","0.4474824422","0.1443049275","0.1105925571","0.1179877152","","","","","","","","","","","72","H","0","img/none_selected.jpg","","13","main_expt"
"318","","bandit","92","308609","0.0-53.0-0.0","10882846","wem/bandit_either","A3BJNFU4T7RU11","either","6","","","","","","","0","1","0","","0.4125602811","0.6","0.8","0.2","0.4","0.4125602811","0.149160688","0.09057326494","0.1300626215","","","","","","","","","","","72","H","0","img/none_selected.jpg","","14","main_expt"
"169","","bandit","93","310303","0.0-54.0-0.0","10882846","wem/bandit_either","A3BJNFU4T7RU11","either","6","","","","","","","0","1","0","","0.3715785473","0.6","0.8","0.2","0.4","0.3715785473","0.1525333278","0.05963436345","0.1129073675","","","","","","","","","","","72","H","0","img/none_selected.jpg","","15","main_expt"
"110","","bandit","94","311932","0.0-55.0-0.0","10882846","wem/bandit_either","A3BJNFU4T7RU11","either","6","","","","","","","0","0","1","0.1437253933","","0.6","0.8","0.2","0.4","","","","","0.3670357029","0.1437253933","0.03970917029","0.1132840383","","","","","","","74","J","1","","","16","main_expt"
"155","","bandit","95","313615","0.0-56.0-0.0","10882846","wem/bandit_either","A3BJNFU4T7RU11","either","6","","","","","","","0","0","1","0.1191274054","","0.6","0.8","0.2","0.4","","","","","0.333794799","0.1191274054","0.03301664506","0.1530786807","","","","","","","74","J","1","","","17","main_expt"
"40","","bandit","96","315188","0.0-57.0-0.0","10882846","wem/bandit_either","A3BJNFU4T7RU11","either","6","","","","","","","0","0","1","0.1231388663","","0.6","0.8","0.2","0.4","","","","","0.3720862831","0.1231388663","0.0325619","0.1367655081","","","","","","","74","J","1","","","18","main_expt"
"264","","bandit","97","316986","0.0-58.0-0.0","10882846","wem/bandit_either","A3BJNFU4T7RU11","either","6","","","","","","","0","0","1","0.1014962652","","0.6","0.8","0.2","0.4","","","","","0.3940248177","0.1014962652","0.05136562407","0.1519969922","","","","","","","74","J","1","","","19","main_expt"
"401","","bandit","98","318908","0.0-59.0-0.0","10882846","wem/bandit_either","A3BJNFU4T7RU11","either","6","","","","","","","0","0","1","0.1184271466","","0.6","0.8","0.2","0.4","","","","","0.3980303587","0.1184271466","0.05620034239","0.2344823222","","","","","","","74","J","1","","","20","main_expt"
"160","","bandit","99","320603","0.0-60.0-0.0","10882846","wem/bandit_either","A3BJNFU4T7RU11","either","6","","","","","","","0","0","1","","0.04865895453","0.6","0.8","0.2","0.4","0.405953395","0.1434190777","0.04865895453","0.2227593861","","","","","","","","","","","75","K","2","","","21","main_expt"
"66","","bandit","100","322190","0.0-61.0-0.0","10882846","wem/bandit_either","A3BJNFU4T7RU11","either","6","","","","","","","0","0","1","0.05276066643","","0.6","0.8","0.2","0.4","","","","","0.37898799","0.1323354157","0.05276066643","0.1831098024","","","","","","","75","K","2","","","22","main_expt"
"158","","bandit","101","323871","0.0-62.0-0.0","10882846","wem/bandit_either","A3BJNFU4T7RU11","either","6","","","","","","","0","0","1","","0.05284133488","0.6","0.8","0.2","0.4","0.3661255489","0.1384191998","0.05284133488","0.1660310818","","","","","","","","","","","75","K","2","","","23","main_expt"
"163","","bandit","102","325559","0.0-63.0-0.0","10882846","wem/bandit_either","A3BJNFU4T7RU11","either","6","","","","","","","0","0","1","","0.0333904923","0.6","0.8","0.2","0.4","0.3576379461","0.1395593146","0.0333904923","0.1400827643","","","","","","","","","","","75","K","2","","","24","main_expt"
"43","","bandit","103","327131","0.0-64.0-0.0","10882846","wem/bandit_either","A3BJNFU4T7RU11","either","6","","","","","","","0","0","1","0.2022937807","","0.6","0.8","0.2","0.4","","","","","0.3346121782","0.1696236693","0.04666446392","0.2022937807","","","","","","","76","L","3","","","25","main_expt"
"110","","bandit","104","328768","0.0-65.0-0.0","10882846","wem/bandit_either","A3BJNFU4T7RU11","either","6","","","","","","","0","0","1","","0.1725383963","0.6","0.8","0.2","0.4","0.3790434843","0.1754084838","0.04067930801","0.1725383963","","","","","","","","","","","76","L","3","","","26","main_expt"
"177","","bandit","105","330476","0.0-66.0-0.0","10882846","wem/bandit_either","A3BJNFU4T7RU11","either","6","","","","","","","0","0","1","0.1735642386","","0.6","0.8","0.2","0.4","","","","","0.3744762435","0.118483546","0.03070036018","0.1735642386","","","","","","","76","L","3","","","27","main_expt"
"34","","bandit","106","332039","0.0-67.0-0.0","10882846","wem/bandit_either","A3BJNFU4T7RU11","either","6","","","","","","","0","0","1","","0.149532802","0.6","0.8","0.2","0.4","0.3650769418","0.1259847853","0.02292460278","0.149532802","","","","","","","","","","","76","L","3","","","28","main_expt"
"219","","bandit","107","333784","0.0-68.0-0.0","10882846","wem/bandit_either","A3BJNFU4T7RU11","either","6","","","","","","","0","0","1","","0.1597785082","0.6","0.8","0.2","0.4","0.3299345172","0.1072727049","0.03476379039","0.1597785082","","","","","","","","","","","76","L","3","","","29","main_expt"
"24","","bandit","108","335333","0.0-69.0-0.0","10882846","wem/bandit_either","A3BJNFU4T7RU11","either","6","","","","","","","1","0","0","0.3010095271","","0.6","0.8","0.2","0.4","","","","","0.3010095271","0.07952930744","0.04211589453","0.1978771271","","","","","","","72","H","0","img/none_selected.jpg","","30","main_expt"
"27","","bandit","109","336886","0.0-70.0-0.0","10882846","wem/bandit_either","A3BJNFU4T7RU11","either","6","","","","","","","0","0","1","","0.331530841","0.6","0.8","0.2","0.4","0.331530841","0.09691030242","0.04495483672","0.1928768267","","","","","","","","","","","72","H","0","img/none_selected.jpg","","31","main_expt"
"209","","bandit","110","338621","0.0-71.0-0.0","10882846","wem/bandit_either","A3BJNFU4T7RU11","either","6","","","","","","","1","0","0","0.3469043085","","0.6","0.8","0.2","0.4","","","","","0.3469043085","0.1338720944","0.04126869591","0.1511047494","","","","","","","72","H","0","img/none_selected.jpg","","32","main_expt"
"150","","bandit","111","340296","0.0-72.0-0.0","10882846","wem/bandit_either","A3BJNFU4T7RU11","either","6","","","","","","","0","1","0","","0.2778139242","0.6","0.8","0.2","0.4","0.2778139242","0.1428203538","0.02396570111","0.09247049486","","","","","","","","","","","72","H","0","img/none_selected.jpg","","33","main_expt"
"80","","bandit","112","341900","0.0-73.0-0.0","10882846","wem/bandit_either","A3BJNFU4T7RU11","either","6","","","","","","","0","0","1","0.236883459","","0.6","0.8","0.2","0.4","","","","","0.236883459","0.1258169527","0.03561151332","0.1127946788","","","","","","","72","H","0","img/none_selected.jpg","","34","main_expt"
"40","","bandit","113","343469","0.0-74.0-0.0","10882846","wem/bandit_either","A3BJNFU4T7RU11","either","6","","","","","","","0","0","1","0.2656196476","","0.6","0.8","0.2","0.4","","","","","0.2656196476","0.1652362889","0.04565222073","0.1279928094","","","","","","","72","H","0","img/none_selected.jpg","","35","main_expt"
"6","","bandit","114","344997","0.0-75.0-0.0","10882846","wem/bandit_either","A3BJNFU4T7RU11","either","6","","","","","","","0","0","1","","0.2309028503","0.6","0.8","0.2","0.4","0.2309028503","0.1472348388","0.05036449293","0.09285608896","","","","","","","","","","","72","H","0","img/none_selected.jpg","","36","main_expt"
"1231","","bandit","115","347749","0.0-76.0-0.0","10882846","wem/bandit_either","A3BJNFU4T7RU11","either","6","","","","","","","0","0","1","0.1961267878","","0.6","0.8","0.2","0.4","","","","","0.1961267878","0.20581188","0.04764774511","0.1251507517","","","","","","","72","H","0","img/none_selected.jpg","","37","main_expt"
"195","","bandit","116","349474","0.0-77.0-0.0","10882846","wem/bandit_either","A3BJNFU4T7RU11","either","6","","","","","","","0","0","1","0.2197692452","","0.6","0.8","0.2","0.4","","","","","0.2197692452","0.2096070571","0.04692466818","0.1248439258","","","","","","","72","H","0","img/none_selected.jpg","","38","main_expt"
"585","","bandit","117","351582","0.0-78.0-0.0","10882846","wem/bandit_either","A3BJNFU4T7RU11","either","6","","","","","","","0","0","1","0.1783178102","","0.6","0.8","0.2","0.4","","","","","0.1783178102","0.1888903691","0.06150360576","0.1192858938","","","","","","","72","H","0","img/none_selected.jpg","","39","main_expt"
"134","","bandit","118","353239","0.0-79.0-0.0","10882846","wem/bandit_either","A3BJNFU4T7RU11","either","6","","","","","","","0","0","1","0.1354267005","","0.6","0.8","0.2","0.4","","","","","0.1354267005","0.1769314034","0.1025324214","0.1457630933","","","","","","","72","H","0","img/none_selected.jpg","","40","main_expt"
"336","","bandit","119","355098","0.0-80.0-0.0","10882846","wem/bandit_either","A3BJNFU4T7RU11","either","6","","","","","","","0","0","1","0.1307301687","","0.6","0.8","0.2","0.4","","","","","0.1307301687","0.1764673912","0.1278282258","0.1788887836","","","","","","","72","H","0","img/none_selected.jpg","","41","main_expt"
"231","","bandit","120","356853","0.0-81.0-0.0","10882846","wem/bandit_either","A3BJNFU4T7RU11","either","6","","","","","","","0","0","1","","0.1002459791","0.6","0.8","0.2","0.4","0.1002459791","0.1164002711","0.1144783829","0.1550439797","","","","","","","","","","","72","H","0","img/none_selected.jpg","","42","main_expt"
"134","","bandit","121","358512","0.0-82.0-0.0","10882846","wem/bandit_either","A3BJNFU4T7RU11","either","6","","","","","","","0","0","1","0.1248357276","","0.6","0.8","0.2","0.4","","","","","0.06131682752","0.1248357276","0.148274456","0.1624336935","","","","","","","74","J","1","","","43","main_expt"
"249","","bandit","122","360287","0.0-83.0-0.0","10882846","wem/bandit_either","A3BJNFU4T7RU11","either","6","","","","","","","0","0","1","0.1801883524","","0.6","0.8","0.2","0.4","","","","","0.05757194937","0.1801883524","0.1733993608","0.2610419313","","","","","","","74","J","1","","","44","main_expt"
"130","","bandit","123","361947","0.0-84.0-0.0","10882846","wem/bandit_either","A3BJNFU4T7RU11","either","6","","","","","","","0","0","1","","0.1731137141","0.6","0.8","0.2","0.4","0.06317169253","0.1536252234","0.1731137141","0.2547096211","","","","","","","","","","","75","K","2","","","45","main_expt"
"61","","bandit","124","363529","0.0-85.0-0.0","10882846","wem/bandit_either","A3BJNFU4T7RU11","either","6","","","","","","","0","0","1","","0.2577534017","0.6","0.8","0.2","0.4","0.08604650327","0.1453657368","0.2577534017","0.2690630982","","","","","","","","","","","75","K","2","","","46","main_expt"
"203","","bandit","125","365253","0.0-86.0-0.0","10882846","wem/bandit_either","A3BJNFU4T7RU11","either","6","","","","","","","1","0","0","0.2613787364","","0.6","0.8","0.2","0.4","","","","","0.07503215105","0.1163474927","0.2436059896","0.2613787364","","","","","","","76","L","3","","","47","main_expt"
"213","","bandit","126","366993","0.0-87.0-0.0","10882846","wem/bandit_either","A3BJNFU4T7RU11","either","6","","","","","","","0","0","1","","0.2764851171","0.6","0.8","0.2","0.4","0.09661626413","0.1187671899","0.261356988","0.2764851171","","","","","","","","","","","76","L","3","","","48","main_expt"
"113","","bandit","127","368635","0.0-88.0-0.0","10882846","wem/bandit_either","A3BJNFU4T7RU11","either","6","","","","","","","1","0","0","0.2628846066","","0.6","0.8","0.2","0.4","","","","","0.141419135","0.1321787199","0.2707362224","0.2628846066","","","","","","","76","L","3","","","49","main_expt"
"212","","bandit","128","370371","0.0-89.0-0.0","10882846","wem/bandit_either","A3BJNFU4T7RU11","either","6","","","","","","","0","0","1","","0.3634831931","0.6","0.8","0.2","0.4","0.1341637883","0.1310663867","0.2733601765","0.3634831931","","","","","","","","","","","76","L","3","","","50","main_expt"
"449","","bandit","129","372350","0.0-90.0-0.0","10882846","wem/bandit_either","A3BJNFU4T7RU11","either","6","","","","","","","0","0","1","","0.3771608335","0.6","0.8","0.2","0.4","0.1225974466","0.1450472339","0.2590969561","0.3771608335","","","","","","","","","","","76","L","3","","","51","main_expt"
"84","","bandit","130","373958","0.0-91.0-0.0","10882846","wem/bandit_either","A3BJNFU4T7RU11","either","6","","","","","","","1","0","0","0.3093307572","","0.6","0.8","0.2","0.4","","","","","0.1145468474","0.1731775471","0.2515646212","0.3093307572","","","","","","","76","L","3","","","52","main_expt"
"311","","bandit","131","375813","0.0-92.0-0.0","10882846","wem/bandit_either","A3BJNFU4T7RU11","either","6","","","","","","","0","1","0","","0.2990929044","0.6","0.8","0.2","0.4","0.1059564611","0.2258016315","0.2257746054","0.2990929044","","","","","","","","","","","76","L","3","","","53","main_expt"
"225","","bandit","132","377569","0.0-93.0-0.0","10882846","wem/bandit_either","A3BJNFU4T7RU11","either","6","","","","","","","0","0","1","","0.2221679908","0.6","0.8","0.2","0.4","0.1090017536","0.2172527187","0.2750925763","0.2221679908","","","","","","","","","","","76","L","3","","","54","main_expt"
"182","","bandit","133","379280","0.0-94.0-0.0","10882846","wem/bandit_either","A3BJNFU4T7RU11","either","6","","","","","","","0","0","1","","0.1886471815","0.6","0.8","0.2","0.4","0.1249444004","0.1652356872","0.3608357377","0.1886471815","","","","","","","","","","","76","L","3","","","55","main_expt"
"159","","bandit","134","380966","0.0-95.0-0.0","10882846","wem/bandit_either","A3BJNFU4T7RU11","either","6","","","","","","","0","0","1","","0.1973213641","0.6","0.8","0.2","0.4","0.09043885587","0.1576418272","0.4022545085","0.1973213641","","","","","","","","","","","76","L","3","","","56","main_expt"
"299","","bandit","135","382800","0.0-96.0-0.0","10882846","wem/bandit_either","A3BJNFU4T7RU11","either","6","","","","","","","0","0","1","0.2207101474","","0.6","0.8","0.2","0.4","","","","","0.07448640425","0.180776926","0.3867568464","0.2207101474","","","","","","","76","L","3","","","57","main_expt"
"536","","bandit","136","384859","0.0-97.0-0.0","10882846","wem/bandit_either","A3BJNFU4T7RU11","either","6","","","","","","","0","0","1","","0.2480089655","0.6","0.8","0.2","0.4","0.09808879237","0.1489081552","0.3840355114","0.2480089655","","","","","","","","","","","76","L","3","","","58","main_expt"
"218","","bandit","137","386606","0.0-98.0-0.0","10882846","wem/bandit_either","A3BJNFU4T7RU11","either","6","","","","","","","0","0","1","0.2667579505","","0.6","0.8","0.2","0.4","","","","","0.0721355853","0.125555473","0.3617876187","0.2667579505","","","","","","","76","L","3","","","59","main_expt"
"165","","bandit","138","388298","0.0-99.0-0.0","10882846","wem/bandit_either","A3BJNFU4T7RU11","either","6","","","","","","","0","0","1","0.2637313595","","0.6","0.8","0.2","0.4","","","","","0.08871326978","0.1228814318","0.3018070945","0.2637313595","","","","","","","76","L","3","","","60","main_expt"
"235","","bandit","139","390062","0.0-100.0-0.0","10882846","wem/bandit_either","A3BJNFU4T7RU11","either","6","","","","","","","0","0","1","","0.2687465691","0.6","0.8","0.2","0.4","0.1472383223","0.195834737","0.2687465691","0.2400462537","","","","","","","","","","","75","K","2","","","61","main_expt"
"322","","bandit","140","391908","0.0-101.0-0.0","10882846","wem/bandit_either","A3BJNFU4T7RU11","either","6","","","","","","","0","0","1","0.1952904108","","0.6","0.8","0.2","0.4","","","","","0.1625866577","0.1952904108","0.287622952","0.2396546157","","","","","","","74","J","1","","","62","main_expt"
"217","","bandit","141","393663","0.0-102.0-0.0","10882846","wem/bandit_either","A3BJNFU4T7RU11","either","6","","","","","","","0","0","1","","0.2060093557","0.6","0.8","0.2","0.4","0.1196153378","0.187392073","0.2060093557","0.2558687718","","","","","","","","","","","75","K","2","","","63","main_expt"
"8","","bandit","142","395191","0.0-103.0-0.0","10882846","wem/bandit_either","A3BJNFU4T7RU11","either","6","","","","","","","0","0","1","0.1774517964","","0.6","0.8","0.2","0.4","","","","","0.1025290435","0.1774517964","0.1865830226","0.1789331692","","","","","","","74","J","1","","","64","main_expt"
"41","","bandit","143","396770","0.0-104.0-0.0","10882846","wem/bandit_either","A3BJNFU4T7RU11","either","6","","","","","","","0","0","1","","0.06637487434","0.6","0.8","0.2","0.4","0.06637487434","0.1956590225","0.2242960511","0.2041721298","","","","","","","","","","","72","H","0","img/none_selected.jpg","","65","main_expt"
"50","","bandit","144","398349","0.0-105.0-0.0","10882846","wem/bandit_either","A3BJNFU4T7RU11","either","6","","","","","","","0","0","1","0.09888809835","","0.6","0.8","0.2","0.4","","","","","0.09888809835","0.1559932489","0.213739571","0.1083731131","","","","","","","72","H","0","img/none_selected.jpg","","66","main_expt"
"197","","bandit","145","400071","0.0-106.0-0.0","10882846","wem/bandit_either","A3BJNFU4T7RU11","either","6","","","","","","","0","0","1","0.08148965902","","0.6","0.8","0.2","0.4","","","","","0.08542348091","0.1327283285","0.2463093088","0.08148965902","","","","","","","76","L","3","","","67","main_expt"
"81","","bandit","146","401682","0.0-107.0-0.0","10882846","wem/bandit_either","A3BJNFU4T7RU11","either","6","","","","","","","0","0","1","","0.115871946","0.6","0.8","0.2","0.4","0.05648132023","0.1646421129","0.1863602012","0.115871946","","","","","","","","","","","76","L","3","","","68","main_expt"
"245","","bandit","147","403452","0.0-108.0-0.0","10882846","wem/bandit_either","A3BJNFU4T7RU11","either","6","","","","","","","0","0","1","0.1049465522","","0.6","0.8","0.2","0.4","","","","","0.07427448495","0.1879918005","0.1481768435","0.1049465522","","","","","","","76","L","3","","","69","main_expt"
"60","","bandit","148","405036","0.0-109.0-0.0","10882846","wem/bandit_either","A3BJNFU4T7RU11","either","6","","","","","","","0","0","1","","0.1224614501","0.6","0.8","0.2","0.4","0.1052870039","0.1708527721","0.2062415021","0.1224614501","","","","","","","","","","","76","L","3","","","70","main_expt"
"25","","bandit","149","406596","0.0-110.0-0.0","10882846","wem/bandit_either","A3BJNFU4T7RU11","either","6","","","","","","","0","0","1","","0.1687358413","0.6","0.8","0.2","0.4","0.1114501371","0.1930923514","0.2175562698","0.1687358413","","","","","","","","","","","76","L","3","","","71","main_expt"
"58","","bandit","150","408187","0.0-111.0-0.0","10882846","wem/bandit_either","A3BJNFU4T7RU11","either","6","","","","","","","0","0","1","0.2182173038","","0.6","0.8","0.2","0.4","","","","","0.1282799478","0.2289396243","0.2182173038","0.1902964731","","","","","","","75","K","2","","","72","main_expt"
"1","","bandit","151","409723","0.0-112.0-0.0","10882846","wem/bandit_either","A3BJNFU4T7RU11","either","6","","","","","","","0","1","0","","0.1629952044","0.6","0.8","0.2","0.4","0.1113050996","0.2223781067","0.1629952044","0.1764690901","","","","","","","","","","","75","K","2","","","73","main_expt"
"120","","bandit","152","411364","0.0-113.0-0.0","10882846","wem/bandit_either","A3BJNFU4T7RU11","either","6","","","","","","","0","0","1","","0.2291178652","0.6","0.8","0.2","0.4","0.1573287606","0.1664819569","0.2291178652","0.1720288853","","","","","","","","","","","75","K","2","","","74","main_expt"
"167","","bandit","153","413059","0.0-114.0-0.0","10882846","wem/bandit_either","A3BJNFU4T7RU11","either","6","","","","","","","0","0","1","0.2087405931","","0.6","0.8","0.2","0.4","","","","","0.168318459","0.1157276324","0.2087405931","0.098780463","","","","","","","75","K","2","","","75","main_expt"
"143","","bandit","154","414734","0.0-115.0-0.0","10882846","wem/bandit_either","A3BJNFU4T7RU11","either","6","","","","","","","0","0","1","","0.1981976751","0.6","0.8","0.2","0.4","0.131742089","0.06912044911","0.1981976751","0.08192786134","","","","","","","","","","","75","K","2","","","76","main_expt"
"95","","bandit","155","416361","0.0-116.0-0.0","10882846","wem/bandit_either","A3BJNFU4T7RU11","either","6","","","","","","","0","1","0","","0.2302368041","0.6","0.8","0.2","0.4","0.1382621175","0.06151132513","0.2302368041","0.03620126105","","","","","","","","","","","75","K","2","","","77","main_expt"
"41","","bandit","156","417947","0.0-117.0-0.0","10882846","wem/bandit_either","A3BJNFU4T7RU11","either","6","","","","","","","0","0","1","","0.2538269909","0.6","0.8","0.2","0.4","0.1351161864","0.08824794056","0.2538269909","0.03362754592","","","","","","","","","","","75","K","2","","","78","main_expt"
"66","","bandit","157","419545","0.0-118.0-0.0","10882846","wem/bandit_either","A3BJNFU4T7RU11","either","6","","","","","","","0","0","1","","0.221492582","0.6","0.8","0.2","0.4","0.1125986002","0.08425003046","0.221492582","0.03917851348","","","","","","","","","","","75","K","2","","","79","main_expt"
"119","","bandit","158","421194","0.0-119.0-0.0","10882846","wem/bandit_either","A3BJNFU4T7RU11","either","6","","","","","","","0","0","1","","0.2126184008","0.6","0.8","0.2","0.4","0.1071358869","0.1059393704","0.2126184008","0.06916691586","","","","","","","","","","","75","K","2","","","80","main_expt"
"33","","bandit","159","422752","0.0-120.0-0.0","10882846","wem/bandit_either","A3BJNFU4T7RU11","either","6","","","","","","","0","0","1","","0.1803612399","0.6","0.8","0.2","0.4","0.1410751298","0.114990546","0.1803612399","0.1110223174","","","","","","","","","","","75","K","2","","","81","main_expt"
"7","","bandit","160","424283","0.0-121.0-0.0","10882846","wem/bandit_either","A3BJNFU4T7RU11","either","6","","","","","","","0","0","1","","0.1246300745","0.6","0.8","0.2","0.4","0.1518454263","0.1246300745","0.1883980103","0.08899533144","","","","","","","","","","","74","J","1","","","82","main_expt"
"7","","bandit","161","425818","0.0-122.0-0.0","10882846","wem/bandit_either","A3BJNFU4T7RU11","either","6","","","","","","","0","0","1","0.1523433176","","0.6","0.8","0.2","0.4","","","","","0.1285150734","0.1523433176","0.2099895667","0.1383499545","","","","","","","74","J","1","","","83","main_expt"
"90","","bandit","162","427436","0.0-123.0-0.0","10882846","wem/bandit_either","A3BJNFU4T7RU11","either","6","","","","","","","0","0","1","0.1230513595","","0.6","0.8","0.2","0.4","","","","","0.1083679187","0.1230513595","0.1760666055","0.1815119679","","","","","","","74","J","1","","","84","main_expt"
"147","","bandit","163","429116","0.0-124.0-0.0","10882846","wem/bandit_either","A3BJNFU4T7RU11","either","6","","","","","","","0","0","1","0.1460595132","","0.6","0.8","0.2","0.4","","","","","0.08985983991","0.1460595132","0.2077415988","0.2121304898","","","","","","","74","J","1","","","85","main_expt"
"277","","bandit","164","430920","0.0-125.0-0.0","10882846","wem/bandit_either","A3BJNFU4T7RU11","either","6","","","","","","","0","0","1","","0.1931166697","0.6","0.8","0.2","0.4","0.08377758623","0.1578730034","0.1940704576","0.1931166697","","","","","","","","","","","76","L","3","","","86","main_expt"
"517","","bandit","165","432964","0.0-126.0-0.0","10882846","wem/bandit_either","A3BJNFU4T7RU11","either","6","","","","","","","0","0","1","","0.1908876969","0.6","0.8","0.2","0.4","0.08340742779","0.1329566931","0.1920524506","0.1908876969","","","","","","","","","","","76","L","3","","","87","main_expt"
"221","","bandit","166","434718","0.0-127.0-0.0","10882846","wem/bandit_either","A3BJNFU4T7RU11","either","6","","","","","","","0","0","1","","0.1727332377","0.6","0.8","0.2","0.4","0.06937011617","0.1156353122","0.2525081946","0.1727332377","","","","","","","","","","","76","L","3","","","88","main_expt"
"311","","bandit","167","436573","0.0-128.0-0.0","10882846","wem/bandit_either","A3BJNFU4T7RU11","either","6","","","","","","","0","0","1","","0.08556693901","0.6","0.8","0.2","0.4","0.08556693901","0.1169245856","0.2476280913","0.1747664758","","","","","","","","","","","72","H","0","img/none_selected.jpg","","89","main_expt"
"200","","bandit","168","438294","0.0-129.0-0.0","10882846","wem/bandit_either","A3BJNFU4T7RU11","either","6","","","","","","","0","0","1","0.1013294801","","0.6","0.8","0.2","0.4","","","","","0.1013294801","0.1276927611","0.2476417222","0.1302891894","","","","","","","72","H","0","img/none_selected.jpg","","90","main_expt"
"199","","bandit","169","440021","0.0-130.0-0.0","10882846","wem/bandit_either","A3BJNFU4T7RU11","either","6","","","","","","","0","0","1","","0.1567130635","0.6","0.8","0.2","0.4","0.1567130635","0.1633868825","0.1875867431","0.1143331172","","","","","","","","","","","72","H","0","img/none_selected.jpg","","91","main_expt"
"416","","bandit","170","441964","0.0-131.0-0.0","10882846","wem/bandit_either","A3BJNFU4T7RU11","either","6","","","","","","","0","0","1","0.1214255195","","0.6","0.8","0.2","0.4","","","","","0.1214255195","0.2172033847","0.1804963823","0.1674068059","","","","","","","72","H","0","img/none_selected.jpg","","92","main_expt"
"170","","bandit","171","443663","0.0-132.0-0.0","10882846","wem/bandit_either","A3BJNFU4T7RU11","either","6","","","","","","","0","0","1","0.1405005834","","0.6","0.8","0.2","0.4","","","","","0.1317465968","0.2178255547","0.1468121695","0.1405005834","","","","","","","76","L","3","","","93","main_expt"
"322","","bandit","172","445513","0.0-133.0-0.0","10882846","wem/bandit_either","A3BJNFU4T7RU11","either","6","","","","","","","0","0","1","","0.1270151289","0.6","0.8","0.2","0.4","0.1810196293","0.2058786334","0.1270151289","0.1338278818","","","","","","","","","","","75","K","2","","","94","main_expt"
"107","","bandit","173","447147","0.0-134.0-0.0","10882846","wem/bandit_either","A3BJNFU4T7RU11","either","6","","","","","","","0","0","1","","0.1049494322","0.6","0.8","0.2","0.4","0.1537803575","0.2009860572","0.1049494322","0.16416917","","","","","","","","","","","75","K","2","","","95","main_expt"
"93","","bandit","174","448768","0.0-135.0-0.0","10882846","wem/bandit_either","A3BJNFU4T7RU11","either","6","","","","","","","0","0","1","","0.1242023773","0.6","0.8","0.2","0.4","0.2255368078","0.2792576191","0.1242023773","0.1075549125","","","","","","","","","","","75","K","2","","","96","main_expt"
"118","","bandit","175","450412","0.0-136.0-0.0","10882846","wem/bandit_either","A3BJNFU4T7RU11","either","6","","","","","","","0","0","1","","0.101802889","0.6","0.8","0.2","0.4","0.1881791955","0.291042229","0.101802889","0.07285617598","","","","","","","","","","","75","K","2","","","97","main_expt"
"262","","bandit","176","452199","0.0-137.0-0.0","10882846","wem/bandit_either","A3BJNFU4T7RU11","either","6","","","","","","","0","0","1","","0.08559904752","0.6","0.8","0.2","0.4","0.1722186849","0.2919937097","0.08559904752","0.1128802937","","","","","","","","","","","75","K","2","","","98","main_expt"
"101","","bandit","177","453836","0.0-138.0-0.0","10882846","wem/bandit_either","A3BJNFU4T7RU11","either","6","","","","","","","0","0","1","","0.04480153982","0.6","0.8","0.2","0.4","0.2581810796","0.338066437","0.04480153982","0.07338875894","","","","","","","","","","","75","K","2","","","99","main_expt"
"4","","bandit","178","455372","0.0-139.0-0.0","10882846","wem/bandit_either","A3BJNFU4T7RU11","either","6","","","","","","","1","0","0","0.3466775547","","0.6","0.8","0.2","0.4","","","","","0.3094702251","0.3466775547","0.03694367041","0.06256672301","","","","","","","74","J","1","","","100","main_expt"
"4","","bandit","179","456903","0.0-140.0-0.0","10882846","wem/bandit_either","A3BJNFU4T7RU11","either","6","","","","","","","0","0","1","0.3776837944","","0.6","0.8","0.2","0.4","","","","","0.3217449289","0.3776837944","0.02534596886","0.06765033746","","","","","","","74","J","1","","","101","main_expt"
"67","","bandit","180","458498","0.0-141.0-0.0","10882846","wem/bandit_either","A3BJNFU4T7RU11","either","6","","","","","","","1","0","0","0.3988278911","","0.6","0.8","0.2","0.4","","","","","0.3656493725","0.3988278911","0.03456503798","0.08460413752","","","","","","","74","J","1","","","102","main_expt"
"59","","bandit","181","460087","0.0-142.0-0.0","10882846","wem/bandit_either","A3BJNFU4T7RU11","either","6","","","","","","","0","0","1","0.3642388176","","0.6","0.8","0.2","0.4","","","","","0.4097417878","0.3642388176","0.03116272615","0.1149622558","","","","","","","74","J","1","","","103","main_expt"
"10","","bandit","182","461648","0.0-143.0-0.0","10882846","wem/bandit_either","A3BJNFU4T7RU11","either","6","","","","","","","0","1","0","","0.3059376685","0.6","0.8","0.2","0.4","0.4005896235","0.3059376685","0.04034009898","0.1223821921","","","","","","","","","","","74","J","1","","","104","main_expt"
"187","","bandit","183","463368","0.0-144.0-0.0","10882846","wem/bandit_either","A3BJNFU4T7RU11","either","6","","","","","","","0","0","1","0.2658022239","","0.6","0.8","0.2","0.4","","","","","0.3967946647","0.2658022239","0.06132200156","0.1302837569","","","","","","","74","J","1","","","105","main_expt"
"110","","bandit","184","465009","0.0-145.0-0.0","10882846","wem/bandit_either","A3BJNFU4T7RU11","either","6","","","","","","","0","0","1","0.2583534607","","0.6","0.8","0.2","0.4","","","","","0.3920329447","0.2583534607","0.03171667797","0.1405927316","","","","","","","74","J","1","","","106","main_expt"
"158","","bandit","185","466697","0.0-146.0-0.0","10882846","wem/bandit_either","A3BJNFU4T7RU11","either","6","","","","","","","0","0","1","0.2402432731","","0.6","0.8","0.2","0.4","","","","","0.3973329777","0.2402432731","0.06603394544","0.1835021143","","","","","","","74","J","1","","","107","main_expt"
"75","","bandit","186","468296","0.0-147.0-0.0","10882846","wem/bandit_either","A3BJNFU4T7RU11","either","6","","","","","","","0","0","1","0.2364509509","","0.6","0.8","0.2","0.4","","","","","0.3839010997","0.2364509509","0.08137973005","0.2124513917","","","","","","","74","J","1","","","108","main_expt"
"235","","bandit","187","470059","0.0-148.0-0.0","10882846","wem/bandit_either","A3BJNFU4T7RU11","either","6","","","","","","","1","0","0","0.3879107289","","0.6","0.8","0.2","0.4","","","","","0.3879107289","0.2164051194","0.04765661509","0.218007314","","","","","","","72","H","0","img/none_selected.jpg","","109","main_expt"
"239","","bandit","188","471835","0.0-149.0-0.0","10882846","wem/bandit_either","A3BJNFU4T7RU11","either","6","","","","","","","0","0","1","0.3989855113","","0.6","0.8","0.2","0.4","","","","","0.3989855113","0.1611838666","0.06789381979","0.229469423","","","","","","","72","H","0","img/none_selected.jpg","","110","main_expt"
"108","","bandit","189","473473","0.0-150.0-0.0","10882846","wem/bandit_either","A3BJNFU4T7RU11","either","6","","","","","","","0","0","1","","0.3959495959","0.6","0.8","0.2","0.4","0.3959495959","0.2042622235","0.08972795074","0.2923436213","","","","","","","","","","","72","H","0","img/none_selected.jpg","","111","main_expt"
"65","","bandit","190","475066","0.0-151.0-0.0","10882846","wem/bandit_either","A3BJNFU4T7RU11","either","6","","","","","","","0","0","1","0.335596647","","0.6","0.8","0.2","0.4","","","","","0.335596647","0.2113733305","0.1176683061","0.2778802509","","","","","","","72","H","0","img/none_selected.jpg","","112","main_expt"
"304","","bandit","191","476898","0.0-152.0-0.0","10882846","wem/bandit_either","A3BJNFU4T7RU11","either","6","","","","","","","0","1","0","","0.2876347753","0.6","0.8","0.2","0.4","0.2876347753","0.220236308","0.1973953549","0.2852166322","","","","","","","","","","","72","H","0","img/none_selected.jpg","","113","main_expt"
"127","","bandit","192","478563","0.0-153.0-0.0","10882846","wem/bandit_either","A3BJNFU4T7RU11","either","6","","","","","","","0","0","1","0.2811359795","","0.6","0.8","0.2","0.4","","","","","0.2811359795","0.2453392608","0.200840576","0.3222351196","","","","","","","72","H","0","img/none_selected.jpg","","114","main_expt"
"84","","bandit","193","480176","0.0-154.0-0.0","10882846","wem/bandit_either","A3BJNFU4T7RU11","either","6","","","","","","","0","0","1","0.2056035349","","0.6","0.8","0.2","0.4","","","","","0.2056035349","0.2311931225","0.2544006126","0.2865303103","","","","","","","72","H","0","img/none_selected.jpg","","115","main_expt"
"156","","bandit","194","481856","0.0-155.0-0.0","10882846","wem/bandit_either","A3BJNFU4T7RU11","either","6","","","","","","","0","0","1","0.2435386161","","0.6","0.8","0.2","0.4","","","","","0.2435386161","0.2290532582","0.2264812366","0.1901772154","","","","","","","72","H","0","img/none_selected.jpg","","116","main_expt"
"295","","bandit","195","483688","0.0-156.0-0.0","10882846","wem/bandit_either","A3BJNFU4T7RU11","either","6","","","","","","","0","1","0","","0.2523066444","0.6","0.8","0.2","0.4","0.2523066444","0.2610634121","0.2535822563","0.1854727963","","","","","","","","","","","72","H","0","img/none_selected.jpg","","117","main_expt"
"88","","bandit","196","485310","0.0-157.0-0.0","10882846","wem/bandit_either","A3BJNFU4T7RU11","either","6","","","","","","","1","0","0","0.258758296","","0.6","0.8","0.2","0.4","","","","","0.258758296","0.2915584027","0.288462609","0.223078523","","","","","","","72","H","0","img/none_selected.jpg","","118","main_expt"
"31","","bandit","197","486878","0.0-158.0-0.0","10882846","wem/bandit_either","A3BJNFU4T7RU11","either","6","","","","","","","1","0","0","0.2513882557","","0.6","0.8","0.2","0.4","","","","","0.2513882557","0.3240034744","0.3077733757","0.2157898803","","","","","","","72","H","0","img/none_selected.jpg","","119","main_expt"
"95","","bandit","198","488506","0.0-159.0-0.0","10882846","wem/bandit_either","A3BJNFU4T7RU11","either","6","","","","","","","0","1","0","","0.2178230887","0.6","0.8","0.2","0.4","0.2178230887","0.3584552205","0.3470363664","0.2055853597","","","","","","","","","","","72","H","0","img/none_selected.jpg","","120","main_expt"
"31","","bandit","199","490068","0.0-160.0-0.0","10882846","wem/bandit_either","A3BJNFU4T7RU11","either","6","","","","","","","0","0","1","0.2249913612","","0.6","0.8","0.2","0.4","","","","","0.2249913612","0.3392259721","0.36369082","0.2308362602","","","","","","","72","H","0","img/none_selected.jpg","","121","main_expt"
"84","","bandit","200","491687","0.0-161.0-0.0","10882846","wem/bandit_either","A3BJNFU4T7RU11","either","6","","","","","","","0","0","1","0.2135386538","","0.6","0.8","0.2","0.4","","","","","0.2135386538","0.3211990091","0.3740977319","0.1858821776","","","","","","","72","H","0","img/none_selected.jpg","","122","main_expt"
"4","","bandit","201","493223","0.0-162.0-0.0","10882846","wem/bandit_either","A3BJNFU4T7RU11","either","6","","","","","","","0","0","1","0.2742148462","","0.6","0.8","0.2","0.4","","","","","0.2742148462","0.3082515077","0.3617230251","0.1948645322","","","","","","","72","H","0","img/none_selected.jpg","","123","main_expt"
"89","","bandit","202","494843","0.0-163.0-0.0","10882846","wem/bandit_either","A3BJNFU4T7RU11","either","6","","","","","","","0","0","1","","0.3092488957","0.6","0.8","0.2","0.4","0.3092488957","0.3337980485","0.3189133642","0.1875433284","","","","","","","","","","","72","H","0","img/none_selected.jpg","","124","main_expt"
"163","","bandit","203","496544","0.0-164.0-0.0","10882846","wem/bandit_either","A3BJNFU4T7RU11","either","6","","","","","","","0","0","1","","0.1805360773","0.6","0.8","0.2","0.4","0.2832498899","0.2815584253","0.3134342975","0.1805360773","","","","","","","","","","","76","L","3","","","125","main_expt"
"28","","bandit","204","498104","0.0-165.0-0.0","10882846","wem/bandit_either","A3BJNFU4T7RU11","either","6","","","","","","","1","0","0","0.2199741614","","0.6","0.8","0.2","0.4","","","","","0.321902755","0.2544389989","0.2889117865","0.2199741614","","","","","","","76","L","3","","","126","main_expt"
"296","","bandit","205","499940","0.0-166.0-0.0","10882846","wem/bandit_either","A3BJNFU4T7RU11","either","6","","","","","","","0","0","1","","0.212963778","0.6","0.8","0.2","0.4","0.3163630435","0.217883989","0.3101500906","0.212963778","","","","","","","","","","","76","L","3","","","127","main_expt"
"69","","bandit","206","501548","0.0-167.0-0.0","10882846","wem/bandit_either","A3BJNFU4T7RU11","either","6","","","","","","","0","0","1","0.1853882534","","0.6","0.8","0.2","0.4","","","","","0.3242789072","0.1941215274","0.3257933697","0.1853882534","","","","","","","76","L","3","","","128","main_expt"
"133","","bandit","207","503216","0.0-168.0-0.0","10882846","wem/bandit_either","A3BJNFU4T7RU11","either","6","","","","","","","0","0","1","","0.1486900389","0.6","0.8","0.2","0.4","0.3430844202","0.2093197904","0.2767822115","0.1486900389","","","","","","","","","","","76","L","3","","","129","main_expt"
"177","","bandit","208","504925","0.0-169.0-0.0","10882846","wem/bandit_either","A3BJNFU4T7RU11","either","6","","","","","","","0","0","1","0.3389859305","","0.6","0.8","0.2","0.4","","","","","0.3487272729","0.2325895014","0.3389859305","0.1581202816","","","","","","","75","K","2","","","130","main_expt"
"6","","bandit","209","506474","0.0-170.0-0.0","10882846","wem/bandit_either","A3BJNFU4T7RU11","either","6","","","","","","","0","0","1","0.2807576759","","0.6","0.8","0.2","0.4","","","","","0.3850752379","0.2680880231","0.2807576759","0.1189605486","","","","","","","75","K","2","","","131","main_expt"
"63","","bandit","210","508066","0.0-171.0-0.0","10882846","wem/bandit_either","A3BJNFU4T7RU11","either","6","","","","","","","0","0","1","","0.2044414959","0.6","0.8","0.2","0.4","0.3547422913","0.2053564998","0.2044414959","0.08638656351","","","","","","","","","","","75","K","2","","","132","main_expt"
"225","","bandit","211","509823","0.0-172.0-0.0","10882846","wem/bandit_either","A3BJNFU4T7RU11","either","6","","","","","","","0","0","1","0.104542274","","0.6","0.8","0.2","0.4","","","","","0.3256782816","0.2102644512","0.2352631215","0.104542274","","","","","","","76","L","3","","","133","main_expt"
"212","","bandit","212","511573","0.0-173.0-0.0","10882846","wem/bandit_either","A3BJNFU4T7RU11","either","6","","","","","","","1","0","0","0.2808822736","","0.6","0.8","0.2","0.4","","","","","0.2479378245","0.2028105977","0.2808822736","0.1401790922","","","","","","","75","K","2","","","134","main_expt"
"36","","bandit","213","513138","0.0-174.0-0.0","10882846","wem/bandit_either","A3BJNFU4T7RU11","either","6","","","","","","","0","0","1","","0.3053704558","0.6","0.8","0.2","0.4","0.24301602","0.1556880781","0.3053704558","0.1818128853","","","","","","","","","","","75","K","2","","","135","main_expt"
"180","","bandit","214","514853","0.0-175.0-0.0","10882846","wem/bandit_either","A3BJNFU4T7RU11","either","6","","","","","","","0","0","1","","0.3140058771","0.6","0.8","0.2","0.4","0.2630427063","0.1428421262","0.3140058771","0.1583738081","","","","","","","","","","","75","K","2","","","136","main_expt"
"82","","bandit","215","516469","0.0-176.0-0.0","10882846","wem/bandit_either","A3BJNFU4T7RU11","either","6","","","","","","","1","0","0","0.323699752","","0.6","0.8","0.2","0.4","","","","","0.3053425806","0.1039390038","0.323699752","0.1497920091","","","","","","","75","K","2","","","137","main_expt"
"149","","bandit","216","518147","0.0-177.0-0.0","10882846","wem/bandit_either","A3BJNFU4T7RU11","either","6","","","","","","","0","1","0","","0.3435108126","0.6","0.8","0.2","0.4","0.3588623722","0.07132433681","0.3435108126","0.1128601551","","","","","","","","","","","75","K","2","","","138","main_expt"
"87","","bandit","217","519765","0.0-178.0-0.0","10882846","wem/bandit_either","A3BJNFU4T7RU11","either","6","","","","","","","0","0","1","","0.3505637202","0.6","0.8","0.2","0.4","0.2762704672","0.1047165976","0.3505637202","0.1073604677","","","","","","","","","","","75","K","2","","","139","main_expt"
"36","","bandit","218","521336","0.0-179.0-0.0","10882846","wem/bandit_either","A3BJNFU4T7RU11","either","6","","","","","","","0","1","0","","0.4185251601","0.6","0.8","0.2","0.4","0.2475753012","0.09043849554","0.4185251601","0.1376710563","","","","","","","","","","","75","K","2","","","140","main_expt"
"267","","bandit","219","523137","0.0-180.0-0.0","10882846","wem/bandit_either","A3BJNFU4T7RU11","either","6","","","","","","","0","0","1","0.4225289085","","0.6","0.8","0.2","0.4","","","","","0.2436306075","0.05096505815","0.4225289085","0.1412662962","","","","","","","75","K","2","","","141","main_expt"
"164","","bandit","220","524839","0.0-181.0-0.0","10882846","wem/bandit_either","A3BJNFU4T7RU11","either","6","","","","","","","1","0","0","0.455259632","","0.6","0.8","0.2","0.4","","","","","0.1998899021","0.02973759478","0.455259632","0.1543424817","","","","","","","75","K","2","","","142","main_expt"
"218","","bandit","221","526597","0.0-182.0-0.0","10882846","wem/bandit_either","A3BJNFU4T7RU11","either","6","","","","","","","0","1","0","","0.4287003803","0.6","0.8","0.2","0.4","0.2568100034","0.04457260366","0.4287003803","0.1552636118","","","","","","","","","","","75","K","2","","","143","main_expt"
"209","","bandit","222","528338","0.0-183.0-0.0","10882846","wem/bandit_either","A3BJNFU4T7RU11","either","6","","","","","","","0","1","0","","0.4260506414","0.6","0.8","0.2","0.4","0.2859833531","0.04060115041","0.4260506414","0.2241753426","","","","","","","","","","","75","K","2","","","144","main_expt"
"218","","bandit","223","530083","0.0-184.0-0.0","10882846","wem/bandit_either","A3BJNFU4T7RU11","either","6","","","","","","","0","0","1","0.4202170594","","0.6","0.8","0.2","0.4","","","","","0.2080640158","0.06712401514","0.4202170594","0.2484131349","","","","","","","75","K","2","","","145","main_expt"
"237","","bandit","224","531853","0.0-185.0-0.0","10882846","wem/bandit_either","A3BJNFU4T7RU11","either","6","","","","","","","0","0","1","0.08780921534","","0.6","0.8","0.2","0.4","","","","","0.2469639643","0.08780921534","0.4333226383","0.2905032103","","","","","","","74","J","1","","","146","main_expt"
"155","","bandit","225","533541","0.0-186.0-0.0","10882846","wem/bandit_either","A3BJNFU4T7RU11","either","6","","","","","","","0","1","0","","0.4340954059","0.6","0.8","0.2","0.4","0.2169279296","0.1333368233","0.4340954059","0.2846703457","","","","","","","","","","","75","K","2","","","147","main_expt"
"15","","bandit","226","535101","0.0-187.0-0.0","10882846","wem/bandit_either","A3BJNFU4T7RU11","either","6","","","","","","","0","0","1","","0.3903754431","0.6","0.8","0.2","0.4","0.1248284812","0.09264147873","0.3903754431","0.3010433131","","","","","","","","","","","75","K","2","","","148","main_expt"
"72","","bandit","227","536707","0.0-188.0-0.0","10882846","wem/bandit_either","A3BJNFU4T7RU11","either","6","","","","","","","1","0","0","0.4161192262","","0.6","0.8","0.2","0.4","","","","","0.1498862571","0.123708687","0.4161192262","0.3421268102","","","","","","","75","K","2","","","149","main_expt"
"45","","bandit","228","538283","0.0-189.0-0.0","10882846","wem/bandit_either","A3BJNFU4T7RU11","either","6","","","","","","","0","0","1","0.4545257836","","0.6","0.8","0.2","0.4","","","","","0.2044632824","0.1087811601","0.4545257836","0.3382865341","","","","","","","75","K","2","","","150","main_expt"
"66","","bandit","229","539884","0.0-190.0-0.0","10882846","wem/bandit_either","A3BJNFU4T7RU11","either","6","","","","","","","0","0","1","","0.4553704948","0.6","0.8","0.2","0.4","0.1630699797","0.1640336927","0.4553704948","0.3031951358","","","","","","","","","","","75","K","2","","","151","main_expt"
"4","","bandit","230","541420","0.0-191.0-0.0","10882846","wem/bandit_either","A3BJNFU4T7RU11","either","6","","","","","","","0","0","1","0.1474195158","","0.6","0.8","0.2","0.4","","","","","0.1534962237","0.1474195158","0.4692720684","0.3163498213","","","","","","","74","J","1","","","152","main_expt"
"57","","bandit","231","543011","0.0-192.0-0.0","10882846","wem/bandit_either","A3BJNFU4T7RU11","either","6","","","","","","","0","0","1","0.1200421148","","0.6","0.8","0.2","0.4","","","","","0.1506701345","0.1200421148","0.4794448159","0.3205280093","","","","","","","74","J","1","","","153","main_expt"
"178","","bandit","232","544727","0.0-193.0-0.0","10882846","wem/bandit_either","A3BJNFU4T7RU11","either","6","","","","","","","0","0","1","0.1295208369","","0.6","0.8","0.2","0.4","","","","","0.1810992197","0.1295208369","0.4762011242","0.2780981807","","","","","","","74","J","1","","","154","main_expt"
"155","","bandit","233","546411","0.0-194.0-0.0","10882846","wem/bandit_either","A3BJNFU4T7RU11","either","6","","","","","","","0","0","1","0.4797315341","","0.6","0.8","0.2","0.4","","","","","0.2574031695","0.1189574303","0.4797315341","0.2543788853","","","","","","","75","K","2","","","155","main_expt"
"242","","bandit","234","548195","0.0-195.0-0.0","10882846","wem/bandit_either","A3BJNFU4T7RU11","either","6","","","","","","","0","1","0","","0.4815153028","0.6","0.8","0.2","0.4","0.1838662476","0.1511338071","0.4815153028","0.2601772157","","","","","","","","","","","75","K","2","","","156","main_expt"
"17","","bandit","235","549744","0.0-196.0-0.0","10882846","wem/bandit_either","A3BJNFU4T7RU11","either","6","","","","","","","0","0","1","","0.4769669351","0.6","0.8","0.2","0.4","0.1951262555","0.1494559257","0.4769669351","0.27050514","","","","","","","","","","","75","K","2","","","157","main_expt"
"4","","bandit","236","551291","0.0-197.0-0.0","10882846","wem/bandit_either","A3BJNFU4T7RU11","either","6","","","","","","","0","0","1","","0.4819637572","0.6","0.8","0.2","0.4","0.1711173681","0.1398300683","0.4819637572","0.2912044809","","","","","","","","","","","75","K","2","","","158","main_expt"
"55","","bandit","237","552881","0.0-198.0-0.0","10882846","wem/bandit_either","A3BJNFU4T7RU11","either","6","","","","","","","0","0","1","","0.4802617926","0.6","0.8","0.2","0.4","0.1262927185","0.1482700517","0.4802617926","0.2863852675","","","","","","","","","","","75","K","2","","","159","main_expt"
"50","","bandit","238","554471","0.0-199.0-0.0","10882846","wem/bandit_either","A3BJNFU4T7RU11","either","6","","","","","","","0","0","1","0.1327856751","","0.6","0.8","0.2","0.4","","","","","0.1289005464","0.1327856751","0.4834703177","0.3188379944","","","","","","","74","J","1","","","160","main_expt"
"41","","bandit","239","556042","0.0-200.0-0.0","10882846","wem/bandit_either","A3BJNFU4T7RU11","either","6","","","","","","","0","0","1","0.1936248495","","0.6","0.8","0.2","0.4","","","","","0.07062595825","0.1936248495","0.4783639554","0.3918259889","","","","","","","74","J","1","","","161","main_expt"
"118","","bandit","240","557703","0.0-201.0-0.0","10882846","wem/bandit_either","A3BJNFU4T7RU11","either","6","","","","","","","0","0","1","0.1917288119","","0.6","0.8","0.2","0.4","","","","","0.08554885259","0.1917288119","0.4702379588","0.3825352776","","","","","","","74","J","1","","","162","main_expt"
"36","","bandit","241","559269","0.0-202.0-0.0","10882846","wem/bandit_either","A3BJNFU4T7RU11","either","6","","","","","","","1","0","0","0.2410074379","","0.6","0.8","0.2","0.4","","","","","0.05790820845","0.2410074379","0.4761999765","0.3500114378","","","","","","","74","J","1","","","163","main_expt"
"41","","bandit","242","560845","0.0-203.0-0.0","10882846","wem/bandit_either","A3BJNFU4T7RU11","either","6","","","","","","","0","0","1","0.2717164652","","0.6","0.8","0.2","0.4","","","","","0.04744410613","0.2717164652","0.4683988395","0.3138306729","","","","","","","74","J","1","","","164","main_expt"
"6","","bandit","243","562392","0.0-204.0-0.0","10882846","wem/bandit_either","A3BJNFU4T7RU11","either","6","","","","","","","0","0","1","0.3360488911","","0.6","0.8","0.2","0.4","","","","","0.07721988326","0.3360488911","0.4594806004","0.3066591237","","","","","","","74","J","1","","","165","main_expt"
"9","","bandit","244","563933","0.0-205.0-0.0","10882846","wem/bandit_either","A3BJNFU4T7RU11","either","6","","","","","","","1","0","0","0.3288768439","","0.6","0.8","0.2","0.4","","","","","0.09276645858","0.3288768439","0.4769271284","0.359337808","","","","","","","74","J","1","","","166","main_expt"
"134","","bandit","245","565596","0.0-206.0-0.0","10882846","wem/bandit_either","A3BJNFU4T7RU11","either","6","","","","","","","0","0","1","","0.341079324","0.6","0.8","0.2","0.4","0.1092251717","0.341079324","0.4824675089","0.3888119778","","","","","","","","","","","74","J","1","","","167","main_expt"
"31","","bandit","246","567160","0.0-207.0-0.0","10882846","wem/bandit_either","A3BJNFU4T7RU11","either","6","","","","","","","0","0","1","0.2972081376","","0.6","0.8","0.2","0.4","","","","","0.09704797424","0.2972081376","0.4731218304","0.3188253523","","","","","","","74","J","1","","","168","main_expt"
"248","","bandit","247","568936","0.0-208.0-0.0","10882846","wem/bandit_either","A3BJNFU4T7RU11","either","6","","","","","","","0","0","1","0.2716537329","","0.6","0.8","0.2","0.4","","","","","0.1131958007","0.2716537329","0.4558692975","0.3035082617","","","","","","","74","J","1","","","169","main_expt"
"453","","bandit","248","570925","0.0-209.0-0.0","10882846","wem/bandit_either","A3BJNFU4T7RU11","either","6","","","","","","","0","0","1","","0.1636150477","0.6","0.8","0.2","0.4","0.1636150477","0.3705489528","0.424927817","0.3540810543","","","","","","","","","","","72","H","0","img/none_selected.jpg","","170","main_expt"
"86","","bandit","249","572538","0.0-210.0-0.0","10882846","wem/bandit_either","A3BJNFU4T7RU11","either","6","","","","","","","0","0","1","0.3259531709","","0.6","0.8","0.2","0.4","","","","","0.1889182236","0.3259531709","0.4254050478","0.2912941695","","","","","","","74","J","1","","","171","main_expt"
"136","","bandit","250","574207","0.0-211.0-0.0","10882846","wem/bandit_either","A3BJNFU4T7RU11","either","6","","","","","","","0","0","1","0.1494540944","","0.6","0.8","0.2","0.4","","","","","0.1494540944","0.3253578443","0.4319935488","0.2964718019","","","","","","","72","H","0","img/none_selected.jpg","","172","main_expt"
"103","","bandit","251","575839","0.0-212.0-0.0","10882846","wem/bandit_either","A3BJNFU4T7RU11","either","6","","","","","","","0","0","1","0.1700291406","","0.6","0.8","0.2","0.4","","","","","0.1700291406","0.3133285256","0.4157756128","0.2411205861","","","","","","","72","H","0","img/none_selected.jpg","","173","main_expt"
"48","","bandit","252","577423","0.0-213.0-0.0","10882846","wem/bandit_either","A3BJNFU4T7RU11","either","6","","","","","","","1","0","0","0.3470844982","","0.6","0.8","0.2","0.4","","","","","0.2007600912","0.3470844982","0.3650518631","0.2132737127","","","","","","","74","J","1","","","174","main_expt"
"181","","bandit","253","579131","0.0-214.0-0.0","10882846","wem/bandit_either","A3BJNFU4T7RU11","either","6","","","","","","","0","0","1","","0.3615725976","0.6","0.8","0.2","0.4","0.1613291475","0.3615725976","0.3583375904","0.2722172758","","","","","","","","","","","74","J","1","","","175","main_expt"
"281","","bandit","254","580945","0.0-215.0-0.0","10882846","wem/bandit_either","A3BJNFU4T7RU11","either","6","","","","","","","1","0","0","0.3592449917","","0.6","0.8","0.2","0.4","","","","","0.1618540135","0.3592449917","0.3849487833","0.3158297255","","","","","","","74","J","1","","","176","main_expt"
"128","","bandit","255","582601","0.0-216.0-0.0","10882846","wem/bandit_either","A3BJNFU4T7RU11","either","6","","","","","","","1","0","0","0.3614776984","","0.6","0.8","0.2","0.4","","","","","0.1337509382","0.3614776984","0.3741193846","0.3033070912","","","","","","","74","J","1","","","177","main_expt"
"10","","bandit","256","584142","0.0-217.0-0.0","10882846","wem/bandit_either","A3BJNFU4T7RU11","either","6","","","","","","","0","0","1","","0.4042649322","0.6","0.8","0.2","0.4","0.172909152","0.4042649322","0.3704436283","0.3070990366","","","","","","","","","","","74","J","1","","","178","main_expt"
"948","","bandit","257","586619","0.0-218.0-0.0","10882846","wem/bandit_either","A3BJNFU4T7RU11","either","6","","","","","","","1","0","0","0.3626499081","","0.6","0.8","0.2","0.4","","","","","0.2306318455","0.3626499081","0.3718647044","0.349206168","","","","","","","74","J","1","","","179","main_expt"
"270","","bandit","258","588419","0.0-219.0-0.0","10882846","wem/bandit_either","A3BJNFU4T7RU11","either","6","","","","","","","1","0","0","0.365831292","","0.6","0.8","0.2","0.4","","","","","0.2531752843","0.365831292","0.3144845341","0.3533593609","","","","","","","74","J","1","","","180","main_expt"
"209","","bandit","259","590156","0.0-220.0-0.0","10882846","wem/bandit_either","A3BJNFU4T7RU11","either","6","","","","","","","0","0","1","","0.3720079561","0.6","0.8","0.2","0.4","0.2995137733","0.3720079561","0.3328992573","0.3792633926","","","","","","","","","","","74","J","1","","","181","main_expt"
"112","","bandit","260","591797","0.0-221.0-0.0","10882846","wem/bandit_either","A3BJNFU4T7RU11","either","6","","","","","","","0","0","1","0.3747751333","","0.6","0.8","0.2","0.4","","","","","0.2818604164","0.3747751333","0.3443004049","0.4170401524","","","","","","","74","J","1","","","182","main_expt"
"89","","bandit","261","593422","0.0-222.0-0.0","10882846","wem/bandit_either","A3BJNFU4T7RU11","either","6","","","","","","","0","1","0","","0.3772869326","0.6","0.8","0.2","0.4","0.2706787236","0.3772869326","0.3572445505","0.4349898381","","","","","","","","","","","74","J","1","","","183","main_expt"
"5","","bandit","262","594967","0.0-223.0-0.0","10882846","wem/bandit_either","A3BJNFU4T7RU11","either","6","","","","","","","0","0","1","0.3719200221","","0.6","0.8","0.2","0.4","","","","","0.2788381055","0.3719200221","0.358140682","0.4355724899","","","","","","","74","J","1","","","184","main_expt"
"166","","bandit","263","596672","0.0-224.0-0.0","10882846","wem/bandit_either","A3BJNFU4T7RU11","either","6","","","","","","","0","0","1","0.3759280431","","0.6","0.8","0.2","0.4","","","","","0.2591604306","0.3759280431","0.2938856532","0.443517249","","","","","","","74","J","1","","","185","main_expt"
"6","","bandit","264","598214","0.0-225.0-0.0","10882846","wem/bandit_either","A3BJNFU4T7RU11","either","6","","","","","","","0","0","1","0.3686405037","","0.6","0.8","0.2","0.4","","","","","0.1717283936","0.3686405037","0.2570442146","0.4185550765","","","","","","","74","J","1","","","186","main_expt"
"5","","bandit","265","599752","0.0-226.0-0.0","10882846","wem/bandit_either","A3BJNFU4T7RU11","either","6","","","","","","","0","0","1","0.3693778387","","0.6","0.8","0.2","0.4","","","","","0.1399016055","0.3693778387","0.2781151114","0.4582246802","","","","","","","74","J","1","","","187","main_expt"
"188","","bandit","266","601471","0.0-227.0-0.0","10882846","wem/bandit_either","A3BJNFU4T7RU11","either","6","","","","","","","0","1","0","","0.3858781765","0.6","0.8","0.2","0.4","0.116743447","0.3858781765","0.2510368257","0.4499637214","","","","","","","","","","","74","J","1","","","188","main_expt"
"69","","bandit","267","603072","0.0-228.0-0.0","10882846","wem/bandit_either","A3BJNFU4T7RU11","either","6","","","","","","","0","0","1","0.353665234","","0.6","0.8","0.2","0.4","","","","","0.09810356538","0.353665234","0.2299291889","0.4681283031","","","","","","","74","J","1","","","189","main_expt"
"98","","bandit","268","604713","0.0-229.0-0.0","10882846","wem/bandit_either","A3BJNFU4T7RU11","either","6","","","","","","","0","0","1","0.3702546744","","0.6","0.8","0.2","0.4","","","","","0.1333212727","0.3702546744","0.2957770397","0.4672384316","","","","","","","74","J","1","","","190","main_expt"
"151","","bandit","269","606403","0.0-230.0-0.0","10882846","wem/bandit_either","A3BJNFU4T7RU11","either","6","","","","","","","0","0","1","0.07289491444","","0.6","0.8","0.2","0.4","","","","","0.07289491444","0.3373283559","0.2806998676","0.4633056668","","","","","","","72","H","0","img/none_selected.jpg","","191","main_expt"
"60","","bandit","270","608000","0.0-231.0-0.0","10882846","wem/bandit_either","A3BJNFU4T7RU11","either","6","","","","","","","0","0","1","0.09060717316","","0.6","0.8","0.2","0.4","","","","","0.09060717316","0.3717228864","0.2578649702","0.4701423021","","","","","","","72","H","0","img/none_selected.jpg","","192","main_expt"
"4","","bandit","271","609534","0.0-232.0-0.0","10882846","wem/bandit_either","A3BJNFU4T7RU11","either","6","","","","","","","0","0","1","0.1038106097","","0.6","0.8","0.2","0.4","","","","","0.1038106097","0.3861484819","0.3019093773","0.4625827917","","","","","","","72","H","0","img/none_selected.jpg","","193","main_expt"
"146","","bandit","272","611215","0.0-233.0-0.0","10882846","wem/bandit_either","A3BJNFU4T7RU11","either","6","","","","","","","0","0","1","","0.3884838939","0.6","0.8","0.2","0.4","0.1222204007","0.3884838939","0.3028603149","0.4480064119","","","","","","","","","","","74","J","1","","","194","main_expt"
"180","","bandit","273","612929","0.0-234.0-0.0","10882846","wem/bandit_either","A3BJNFU4T7RU11","either","6","","","","","","","0","0","1","0.1230179676","","0.6","0.8","0.2","0.4","","","","","0.1230179676","0.4058549971","0.2933095063","0.4263193963","","","","","","","72","H","0","img/none_selected.jpg","","195","main_expt"
"102","","bandit","274","614567","0.0-235.0-0.0","10882846","wem/bandit_either","A3BJNFU4T7RU11","either","6","","","","","","","0","0","1","0.1972068901","","0.6","0.8","0.2","0.4","","","","","0.1972068901","0.3894648227","0.3333663608","0.4399191733","","","","","","","72","H","0","img/none_selected.jpg","","196","main_expt"
"102","","bandit","275","616199","0.0-236.0-0.0","10882846","wem/bandit_either","A3BJNFU4T7RU11","either","6","","","","","","","0","0","1","","0.2091218652","0.6","0.8","0.2","0.4","0.2091218652","0.3452919481","0.3472763543","0.4303685687","","","","","","","","","","","72","H","0","img/none_selected.jpg","","197","main_expt"
"68","","bandit","276","617811","0.0-237.0-0.0","10882846","wem/bandit_either","A3BJNFU4T7RU11","either","6","","","","","","","0","0","1","0.3571156804","","0.6","0.8","0.2","0.4","","","","","0.2316117542","0.3571156804","0.3420385624","0.4166638701","","","","","","","74","J","1","","","198","main_expt"
"56","","bandit","277","619406","0.0-238.0-0.0","10882846","wem/bandit_either","A3BJNFU4T7RU11","either","6","","","","","","","0","0","1","0.1983173389","","0.6","0.8","0.2","0.4","","","","","0.1983173389","0.3761278261","0.3009927129","0.4166192342","","","","","","","72","H","0","img/none_selected.jpg","","199","main_expt"
"181","","bandit","278","621119","0.0-239.0-0.0","10882846","wem/bandit_either","A3BJNFU4T7RU11","either","6","","","","","","","0","0","1","0.4065109498","","0.6","0.8","0.2","0.4","","","","","0.2275108597","0.3623939384","0.2834367318","0.4065109498","","","","","","","76","L","3","","","200","main_expt"
"4","","bandit","279","622664","0.0-240.0-0.0","10882846","wem/bandit_either","A3BJNFU4T7RU11","either","6","","","","","","","0","0","1","","0.2305195973","0.6","0.8","0.2","0.4","0.2753755663","0.3470966653","0.2305195973","0.4210367682","","","","","","","","","","","75","K","2","","","201","main_expt"
"120","","bandit","280","624320","0.0-241.0-0.0","10882846","wem/bandit_either","A3BJNFU4T7RU11","either","6","","","","","","","0","0","1","0.236439039","","0.6","0.8","0.2","0.4","","","","","0.2867984519","0.3738670455","0.236439039","0.4059774394","","","","","","","75","K","2","","","202","main_expt"
"266","","bandit","281","626119","0.0-242.0-0.0","10882846","wem/bandit_either","A3BJNFU4T7RU11","either","6","","","","","","","1","0","0","0.4217634448","","0.6","0.8","0.2","0.4","","","","","0.227681123","0.4434414113","0.207292508","0.4217634448","","","","","","","76","L","3","","","203","main_expt"
"67","","bandit","282","627721","0.0-243.0-0.0","10882846","wem/bandit_either","A3BJNFU4T7RU11","either","6","","","","","","","0","0","1","","0.417590799","0.6","0.8","0.2","0.4","0.2421814767","0.4363530878","0.2706274655","0.417590799","","","","","","","","","","","76","L","3","","","204","main_expt"
"169","","bandit","283","629421","0.0-244.0-0.0","10882846","wem/bandit_either","A3BJNFU4T7RU11","either","6","","","","","","","0","0","1","","0.3892328218","0.6","0.8","0.2","0.4","0.2250127273","0.4390009565","0.2688171721","0.3892328218","","","","","","","","","","","76","L","3","","","205","main_expt"
"181","","bandit","284","631138","0.0-245.0-0.0","10882846","wem/bandit_either","A3BJNFU4T7RU11","either","6","","","","","","","0","0","1","","0.2774640617","0.6","0.8","0.2","0.4","0.2148063869","0.4606838579","0.2774640617","0.3877758809","","","","","","","","","","","75","K","2","","","206","main_expt"
"64","","bandit","285","632738","0.0-246.0-0.0","10882846","wem/bandit_either","A3BJNFU4T7RU11","either","6","","","","","","","0","0","1","0.3344078408","","0.6","0.8","0.2","0.4","","","","","0.2370073307","0.4679198071","0.31303597","0.3344078408","","","","","","","76","L","3","","","207","main_expt"
"144","","bandit","286","634412","0.0-247.0-0.0","10882846","wem/bandit_either","A3BJNFU4T7RU11","either","6","","","","","","","0","0","1","0.1736764344","","0.6","0.8","0.2","0.4","","","","","0.1736764344","0.4731710197","0.3187850143","0.3285414067","","","","","","","72","H","0","img/none_selected.jpg","","208","main_expt"
"290","","bandit","287","636234","0.0-248.0-0.0","10882846","wem/bandit_either","A3BJNFU4T7RU11","either","6","","","","","","","0","1","0","","0.337659841","0.6","0.8","0.2","0.4","0.2033963155","0.472507437","0.3031297305","0.337659841","","","","","","","","","","","76","L","3","","","209","main_expt"
"6","","bandit","288","637787","0.0-249.0-0.0","10882846","wem/bandit_either","A3BJNFU4T7RU11","either","6","","","","","","","0","0","1","0.322880172","","0.6","0.8","0.2","0.4","","","","","0.1849029676","0.4759946166","0.3593083662","0.322880172","","","","","","","76","L","3","","","210","main_expt"
"559","","bandit","289","639889","0.0-250.0-0.0","10882846","wem/bandit_either","A3BJNFU4T7RU11","either","6","","","","","","","0","0","1","","0.3440981268","0.6","0.8","0.2","0.4","0.08033524441","0.4838002785","0.3758292662","0.3440981268","","","","","","","","","","","76","L","3","","","211","main_expt"
"271","","bandit","290","641701","0.0-251.0-0.0","10882846","wem/bandit_either","A3BJNFU4T7RU11","either","6","","","","","","","1","0","0","0.3135232579","","0.6","0.8","0.2","0.4","","","","","0.1024936548","0.4871609062","0.3771764803","0.3135232579","","","","","","","76","L","3","","","212","main_expt"
"252","","bandit","291","643493","0.0-252.0-0.0","10882846","wem/bandit_either","A3BJNFU4T7RU11","either","6","","","","","","","0","0","1","0.328558382","","0.6","0.8","0.2","0.4","","","","","0.1380366818","0.4829725273","0.3935517348","0.328558382","","","","","","","76","L","3","","","213","main_expt"
"66","","bandit","292","645101","0.0-253.0-0.0","10882846","wem/bandit_either","A3BJNFU4T7RU11","either","6","","","","","","","0","0","1","","0.3024402918","0.6","0.8","0.2","0.4","0.1206441992","0.4742933803","0.3792377037","0.3024402918","","","","","","","","","","","76","L","3","","","214","main_expt"
"170","","bandit","293","646811","0.0-254.0-0.0","10882846","wem/bandit_either","A3BJNFU4T7RU11","either","6","","","","","","","0","0","1","0.3024001881","","0.6","0.8","0.2","0.4","","","","","0.1320715796","0.4754417465","0.3364308411","0.3024001881","","","","","","","76","L","3","","","215","main_expt"
"10","","bandit","294","648370","0.0-255.0-0.0","10882846","wem/bandit_either","A3BJNFU4T7RU11","either","6","","","","","","","0","0","1","0.2975117226","","0.6","0.8","0.2","0.4","","","","","0.1152906885","0.4764866221","0.3348871659","0.2975117226","","","","","","","76","L","3","","","216","main_expt"
"172","","bandit","295","650074","0.0-256.0-0.0","10882846","wem/bandit_either","A3BJNFU4T7RU11","either","6","","","","","","","0","1","0","","0.3331298207","0.6","0.8","0.2","0.4","0.1191406027","0.4727866334","0.321293363","0.3331298207","","","","","","","","","","","76","L","3","","","217","main_expt"
"127","","bandit","296","651733","0.0-257.0-0.0","10882846","wem/bandit_either","A3BJNFU4T7RU11","either","6","","","","","","","0","1","0","","0.2905667849","0.6","0.8","0.2","0.4","0.1177717736","0.4664653133","0.3530973922","0.2905667849","","","","","","","","","","","76","L","3","","","218","main_expt"
"80","","bandit","297","653347","0.0-258.0-0.0","10882846","wem/bandit_either","A3BJNFU4T7RU11","either","6","","","","","","","0","0","1","","0.2701708387","0.6","0.8","0.2","0.4","0.1178729669","0.4636837267","0.3837093308","0.2701708387","","","","","","","","","","","76","L","3","","","219","main_expt"
"63","","bandit","298","654948","0.0-259.0-0.0","10882846","wem/bandit_either","A3BJNFU4T7RU11","either","6","","","","","","","0","0","1","0.2395453957","","0.6","0.8","0.2","0.4","","","","","0.1284790336","0.4599900571","0.3651541458","0.2395453957","","","","","","","76","L","3","","","220","main_expt"
"177","","bandit","299","656670","0.0-260.0-0.0","10882846","wem/bandit_either","A3BJNFU4T7RU11","either","6","","","","","","","0","0","1","0.2770622605","","0.6","0.8","0.2","0.4","","","","","0.147465279","0.4490722186","0.254085412","0.2770622605","","","","","","","76","L","3","","","221","main_expt"
"346","","bandit","300","658557","0.0-261.0-0.0","10882846","wem/bandit_either","A3BJNFU4T7RU11","either","6","","","","","","","0","0","1","0.3390746663","","0.6","0.8","0.2","0.4","","","","","0.1441925756","0.4253353094","0.2590796483","0.3390746663","","","","","","","76","L","3","","","222","main_expt"
"381","","bandit","301","660471","0.0-262.0-0.0","10882846","wem/bandit_either","A3BJNFU4T7RU11","either","6","","","","","","","0","0","1","","0.384843876","0.6","0.8","0.2","0.4","0.1731110736","0.4559825987","0.2640852941","0.384843876","","","","","","","","","","","76","L","3","","","223","main_expt"
"528","","bandit","302","662529","0.0-263.0-0.0","10882846","wem/bandit_either","A3BJNFU4T7RU11","either","6","","","","","","","0","0","1","","0.1124600034","0.6","0.8","0.2","0.4","0.1124600034","0.464560515","0.2636590797","0.4367619307","","","","","","","","","","","72","H","0","img/none_selected.jpg","","224","main_expt"
"192","","bandit","303","664258","0.0-264.0-0.0","10882846","wem/bandit_either","A3BJNFU4T7RU11","either","6","","","","","","","0","0","1","0.3110444069","","0.6","0.8","0.2","0.4","","","","","0.1174510337","0.4528378766","0.3110444069","0.42055701","","","","","","","75","K","2","","","225","main_expt"
"28","","bandit","304","665828","0.0-265.0-0.0","10882846","wem/bandit_either","A3BJNFU4T7RU11","either","6","","","","","","","1","0","0","0.1494320736","","0.6","0.8","0.2","0.4","","","","","0.1494320736","0.4585160156","0.3268768972","0.4282593698","","","","","","","72","H","0","img/none_selected.jpg","","226","main_expt"
"145","","bandit","305","667503","0.0-266.0-0.0","10882846","wem/bandit_either","A3BJNFU4T7RU11","either","6","","","","","","","0","0","1","0.1655037845","","0.6","0.8","0.2","0.4","","","","","0.1655037845","0.4525914875","0.3112991039","0.4213985596","","","","","","","72","H","0","img/none_selected.jpg","","227","main_expt"
"227","","bandit","306","669268","0.0-267.0-0.0","10882846","wem/bandit_either","A3BJNFU4T7RU11","either","6","","","","","","","0","0","1","0.1595877114","","0.6","0.8","0.2","0.4","","","","","0.1595877114","0.4618810074","0.3481066565","0.4115599459","","","","","","","72","H","0","img/none_selected.jpg","","228","main_expt"
"92","","bandit","307","670901","0.0-268.0-0.0","10882846","wem/bandit_either","A3BJNFU4T7RU11","either","6","","","","","","","0","0","1","0.1811982871","","0.6","0.8","0.2","0.4","","","","","0.1811982871","0.4661541784","0.3267856819","0.375967734","","","","","","","72","H","0","img/none_selected.jpg","","229","main_expt"
"49","","bandit","308","672487","0.0-269.0-0.0","10882846","wem/bandit_either","A3BJNFU4T7RU11","either","6","","","","","","","1","0","0","0.2088208598","","0.6","0.8","0.2","0.4","","","","","0.2088208598","0.4681373403","0.3043034776","0.4172813036","","","","","","","72","H","0","img/none_selected.jpg","","230","main_expt"
"24","","bandit","309","674048","0.0-270.0-0.0","10882846","wem/bandit_either","A3BJNFU4T7RU11","either","6","","","","","","","0","0","1","","0.2062946352","0.6","0.8","0.2","0.4","0.2062946352","0.4733838814","0.3127123154","0.3871641603","","","","","","","","","","","72","H","0","img/none_selected.jpg","","231","main_expt"
"183","","bandit","310","675768","0.0-271.0-0.0","10882846","wem/bandit_either","A3BJNFU4T7RU11","either","6","","","","","","","0","0","1","0.1448621505","","0.6","0.8","0.2","0.4","","","","","0.1448621505","0.455942125","0.3039198066","0.3381606844","","","","","","","72","H","0","img/none_selected.jpg","","232","main_expt"
"85","","bandit","311","677388","0.0-272.0-0.0","10882846","wem/bandit_either","A3BJNFU4T7RU11","either","6","","","","","","","0","0","1","0.1096360744","","0.6","0.8","0.2","0.4","","","","","0.1096360744","0.4523014459","0.2846072758","0.2918198365","","","","","","","72","H","0","img/none_selected.jpg","","233","main_expt"
"298","","bandit","312","679222","0.0-273.0-0.0","10882846","wem/bandit_either","A3BJNFU4T7RU11","either","6","","","","","","","0","0","1","","0.1102272527","0.6","0.8","0.2","0.4","0.1102272527","0.4715877437","0.2430061478","0.3016980071","","","","","","","","","","","72","H","0","img/none_selected.jpg","","234","main_expt"
"89","","bandit","313","680850","0.0-274.0-0.0","10882846","wem/bandit_either","A3BJNFU4T7RU11","either","6","","","","","","","0","0","1","","0.263037213","0.6","0.8","0.2","0.4","0.1428859574","0.4667146267","0.263037213","0.2940059945","","","","","","","","","","","75","K","2","","","235","main_expt"
"202","","bandit","314","682588","0.0-275.0-0.0","10882846","wem/bandit_either","A3BJNFU4T7RU11","either","6","","","","","","","1","0","0","0.4638430617","","0.6","0.8","0.2","0.4","","","","","0.1659437887","0.4638430617","0.2976510001","0.2926833733","","","","","","","74","J","1","","","236","main_expt"
"185","","bandit","315","684313","0.0-276.0-0.0","10882846","wem/bandit_either","A3BJNFU4T7RU11","either","6","","","","","","","1","0","0","0.4584702359","","0.6","0.8","0.2","0.4","","","","","0.1948695303","0.4584702359","0.2789990486","0.278351659","","","","","","","74","J","1","","","237","main_expt"
"72","","bandit","316","685927","0.0-277.0-0.0","10882846","wem/bandit_either","A3BJNFU4T7RU11","either","6","","","","","","","1","0","0","0.4297714473","","0.6","0.8","0.2","0.4","","","","","0.2231382717","0.4297714473","0.2760904485","0.2475781625","","","","","","","74","J","1","","","238","main_expt"
"156","","bandit","317","687623","0.0-278.0-0.0","10882846","wem/bandit_either","A3BJNFU4T7RU11","either","6","","","","","","","1","0","0","0.4225482751","","0.6","0.8","0.2","0.4","","","","","0.2118273477","0.4225482751","0.2679201555","0.2476463542","","","","","","","74","J","1","","","239","main_expt"
"251","","bandit","318","689417","0.0-279.0-0.0","10882846","wem/bandit_either","A3BJNFU4T7RU11","either","6","","","","","","","0","1","0","","0.3911766626","0.6","0.8","0.2","0.4","0.175879666","0.3911766626","0.1815101208","0.2691810592","","","","","","","","","","","74","J","1","","","240","main_expt"
"268","","bandit","319","691221","0.0-280.0-0.0","10882846","wem/bandit_either","A3BJNFU4T7RU11","either","6","","","","","","","0","0","1","","0.3576719612","0.6","0.8","0.2","0.4","0.2619723004","0.3576719612","0.2107278188","0.2600118225","","","","","","","","","","","74","J","1","","","241","main_expt"
"177","","bandit","320","692937","0.0-281.0-0.0","10882846","wem/bandit_either","A3BJNFU4T7RU11","either","6","","","","","","","0","0","1","0.3649942216","","0.6","0.8","0.2","0.4","","","","","0.253357122","0.3649942216","0.1890457695","0.2585740571","","","","","","","74","J","1","","","242","main_expt"
"151","","bandit","321","694634","0.0-282.0-0.0","10882846","wem/bandit_either","A3BJNFU4T7RU11","either","6","","","","","","","0","1","0","","0.3462843793","0.6","0.8","0.2","0.4","0.2937411872","0.3462843793","0.1983598585","0.1943885749","","","","","","","","","","","74","J","1","","","243","main_expt"
"65","","bandit","322","696245","0.0-283.0-0.0","10882846","wem/bandit_either","A3BJNFU4T7RU11","either","6","","","","","","","0","0","1","0.3520149162","","0.6","0.8","0.2","0.4","","","","","0.2743784529","0.3520149162","0.2165838592","0.1861062248","","","","","","","74","J","1","","","244","main_expt"
"20","","bandit","323","697888","0.0-284.0-0.0","10882846","wem/bandit_either","A3BJNFU4T7RU11","either","6","","","","","","","0","0","1","0.3483485742","","0.6","0.8","0.2","0.4","","","","","0.2734657034","0.3483485742","0.1823109088","0.1398782291","","","","","","","74","J","1","","","245","main_expt"
"70","","bandit","324","699498","0.0-285.0-0.0","10882846","wem/bandit_either","A3BJNFU4T7RU11","either","6","","","","","","","0","0","1","0.172760958","","0.6","0.8","0.2","0.4","","","","","0.2285423815","0.3814570076","0.172760958","0.1392076576","","","","","","","75","K","2","","","246","main_expt"
"181","","bandit","325","701215","0.0-286.0-0.0","10882846","wem/bandit_either","A3BJNFU4T7RU11","either","6","","","","","","","0","0","1","","0.1955602127","0.6","0.8","0.2","0.4","0.269943793","0.3871035364","0.1955602127","0.2028121248","","","","","","","","","","","75","K","2","","","247","main_expt"
"94","","bandit","326","702846","0.0-287.0-0.0","10882846","wem/bandit_either","A3BJNFU4T7RU11","either","6","","","","","","","0","0","1","","0.2522392451","0.6","0.8","0.2","0.4","0.2974302923","0.3746835134","0.1770790361","0.2522392451","","","","","","","","","","","76","L","3","","","248","main_expt"
"49","","bandit","327","704432","0.0-288.0-0.0","10882846","wem/bandit_either","A3BJNFU4T7RU11","either","6","","","","","","","1","0","0","0.2667415426","","0.6","0.8","0.2","0.4","","","","","0.2667415426","0.3787028279","0.1884848562","0.234975876","","","","","","","72","H","0","img/none_selected.jpg","","249","main_expt"
"144","","bandit","328","706123","0.0-289.0-0.0","10882846","wem/bandit_either","A3BJNFU4T7RU11","either","6","","","","","","","1","0","0","0.3302420342","","0.6","0.8","0.2","0.4","","","","","0.3302420342","0.3475116331","0.2314514176","0.2388523745","","","","","","","72","H","0","img/none_selected.jpg","","250","main_expt"
"134","","bandit","329","707801","0.0-290.0-0.0","10882846","wem/bandit_either","A3BJNFU4T7RU11","either","6","","","","","","","0","0","1","0.3080318139","","0.6","0.8","0.2","0.4","","","","","0.3080318139","0.3297368302","0.2028544779","0.2412642198","","","","","","","72","H","0","img/none_selected.jpg","","251","main_expt"
"18","","bandit","330","709357","0.0-291.0-0.0","10882846","wem/bandit_either","A3BJNFU4T7RU11","either","6","","","","","","","1","0","0","0.2931646133","","0.6","0.8","0.2","0.4","","","","","0.2931646133","0.2830962297","0.2296758881","0.2662386667","","","","","","","72","H","0","img/none_selected.jpg","","252","main_expt"
"83","","bandit","331","710983","0.0-292.0-0.0","10882846","wem/bandit_either","A3BJNFU4T7RU11","either","6","","","","","","","0","0","1","0.3315577467","","0.6","0.8","0.2","0.4","","","","","0.3315577467","0.2360872172","0.1527325802","0.288812178","","","","","","","72","H","0","img/none_selected.jpg","","253","main_expt"
"166","","bandit","332","712686","0.0-293.0-0.0","10882846","wem/bandit_either","A3BJNFU4T7RU11","either","6","","","","","","","0","0","1","","0.3042928979","0.6","0.8","0.2","0.4","0.3042928979","0.2413611774","0.1248180068","0.2411004805","","","","","","","","","","","72","H","0","img/none_selected.jpg","","254","main_expt"
