"rt","responses","trial_type","trial_index","time_elapsed","internal_node_id","subjID","study","MID","cond","drift","key_press","expt_phase","target","like","value","connected","gems","bombs","no_reward","GemPrChosen","BombPrChosen","GainOverPainPr_0","GainOverPainPr_1","GainOverPainPr_2","GainOverPainPr_3","LosePr_0","LosePr_1","LosePr_2","LosePr_3","WinPr_0","WinPr_1","WinPr_2","WinPr_3","Q0","Q1","Q2","gender","age","ethnicity","respCharCode","respKey","respChoiceNum","respChoice","practice","trial_counter","trial_label"
"4259","{""Q0"":""A1ALBJU1XOKYFH""}","survey-text","0","4266","0.0-0.0","13043210","wem/bandit_either","A1ALBJU1XOKYFH","either","4","","","","","","","","","","","","","","","","","","","","","","","","","","","","","","","","","","","",""
"11098","","text","1","16367","0.0-1.0","13043210","wem/bandit_either","A1ALBJU1XOKYFH","either","4","32","","","","","","","","","","","","","","","","","","","","","","","","","","","","","","","","","","",""
"7077","","text","2","23445","0.0-2.0","13043210","wem/bandit_either","A1ALBJU1XOKYFH","either","4","32","","","","","","","","","","","","","","","","","","","","","","","","","","","","","","","","","","",""
"135510","","text","3","158959","0.0-3.0","13043210","wem/bandit_either","A1ALBJU1XOKYFH","either","4","32","","","","","","","","","","","","","","","","","","","","","","","","","","","","","","","","","","",""
"11925","","text","4","170886","0.0-4.0","13043210","wem/bandit_either","A1ALBJU1XOKYFH","either","4","32","","","","","","","","","","","","","","","","","","","","","","","","","","","","","","","","","","",""
"17478","","text","5","188366","0.0-5.0","13043210","wem/bandit_either","A1ALBJU1XOKYFH","either","4","32","","","","","","","","","","","","","","","","","","","","","","","","","","","","","","","","","","",""
"11870","","text","6","200237","0.0-6.0","13043210","wem/bandit_either","A1ALBJU1XOKYFH","either","4","32","","","","","","","","","","","","","","","","","","","","","","","","","","","","","","","","","","",""
"4639","","text","7","204877","0.0-7.0","13043210","wem/bandit_either","A1ALBJU1XOKYFH","either","4","32","","","","","","","","","","","","","","","","","","","","","","","","","","","","","","","","","","",""
"7799","","identification","8","212695","0.0-8.0-0.0","13043210","wem/bandit_either","A1ALBJU1XOKYFH","either","4","","identification_pre","the village of Zur","","","","","","","","","","","","","","","","","","","","","","","","","","","","","","","","",""
"3089","","identification","9","216805","0.0-8.0-1.0","13043210","wem/bandit_either","A1ALBJU1XOKYFH","either","4","","identification_pre","the village of Nyx","","","","","","","","","","","","","","","","","","","","","","","","","","","","","","","","",""
"7366","","text","10","225173","0.0-9.0","13043210","wem/bandit_either","A1ALBJU1XOKYFH","either","4","32","","","","","","","","","","","","","","","","","","","","","","","","","","","","","","","","","","",""
"2655","","text","11","227829","0.0-10.0","13043210","wem/bandit_either","A1ALBJU1XOKYFH","either","4","32","","","","","","","","","","","","","","","","","","","","","","","","","","","","","","","","","","",""
"2095","","text","12","229925","0.0-11.0","13043210","wem/bandit_either","A1ALBJU1XOKYFH","either","4","32","","","","","","","","","","","","","","","","","","","","","","","","","","","","","","","","","","",""
"4687","","text","13","234613","0.0-12.0","13043210","wem/bandit_either","A1ALBJU1XOKYFH","either","4","32","","","","","","","","","","","","","","","","","","","","","","","","","","","","","","","","","","",""
"938","","bandit","14","237066","0.0-13.0-0.0","13043210","wem/bandit_either","A1ALBJU1XOKYFH","either","4","","","","","","","0","0","1","0","0","","","","","0","","","","0","","","","","","","","","","74","J","0","img/none_selected_demo.jpg","true","0",""
"2272","","bandit","15","240849","0.0-14.0-0.0","13043210","wem/bandit_either","A1ALBJU1XOKYFH","either","4","","","","","","","0","0","1","0","0","","","","","0","","","","0","","","","","","","","","","75","K","0","img/none_selected_demo.jpg","true","0",""
"8547","","text","16","249397","0.0-15.0","13043210","wem/bandit_either","A1ALBJU1XOKYFH","either","4","32","","","","","","","","","","","","","","","","","","","","","","","","","","","","","","","","","","",""
"16631","","text","17","266029","0.0-16.0","13043210","wem/bandit_either","A1ALBJU1XOKYFH","either","4","32","","","","","","","","","","","","","","","","","","","","","","","","","","","","","","","","","","",""
"7855","","text","18","273885","0.0-17.0","13043210","wem/bandit_either","A1ALBJU1XOKYFH","either","4","32","","","","","","","","","","","","","","","","","","","","","","","","","","","","","","","","","","",""
"2559","","text","19","276445","0.0-18.0","13043210","wem/bandit_either","A1ALBJU1XOKYFH","either","4","32","","","","","","","","","","","","","","","","","","","","","","","","","","","","","","","","","","",""
"612","","bandit","20","278569","0.0-19.0-0.0","13043210","wem/bandit_either","A1ALBJU1XOKYFH","either","4","","","","","","","1","0","0","0.8","","0.5","0.5","","","","","","","0.8","0.2","","","","","","","","","74","J","0","img/none_selected_demo.jpg","true","0","80_20_practice"
"391","","bandit","21","280472","0.0-19.0-1.0","13043210","wem/bandit_either","A1ALBJU1XOKYFH","either","4","","","","","","","1","0","0","0.8","","0.5","0.5","","","","","","","0.8","0.2","","","","","","","","","74","J","0","img/none_selected_demo.jpg","true","0","80_20_practice"
"433","","bandit","22","282415","0.0-19.0-2.0","13043210","wem/bandit_either","A1ALBJU1XOKYFH","either","4","","","","","","","0","0","1","","0.8","0.5","0.5","","","0.8","0.2","","","","","","","","","","","","","74","J","0","img/none_selected_demo.jpg","true","0","80_20_practice"
"426","","bandit","23","284355","0.0-19.0-3.0","13043210","wem/bandit_either","A1ALBJU1XOKYFH","either","4","","","","","","","0","1","0","","0.8","0.5","0.5","","","0.8","0.2","","","","","","","","","","","","","74","J","0","img/none_selected_demo.jpg","true","0","80_20_practice"
"371","","bandit","24","286241","0.0-19.0-4.0","13043210","wem/bandit_either","A1ALBJU1XOKYFH","either","4","","","","","","","0","1","0","","0.8","0.5","0.5","","","0.8","0.2","","","","","","","","","","","","","74","J","0","img/none_selected_demo.jpg","true","0","80_20_practice"
"384","","bandit","25","288135","0.0-19.0-5.0","13043210","wem/bandit_either","A1ALBJU1XOKYFH","either","4","","","","","","","1","0","0","0.8","","0.5","0.5","","","","","","","0.8","0.2","","","","","","","","","74","J","0","img/none_selected_demo.jpg","true","0","80_20_practice"
"370","","bandit","26","290016","0.0-19.0-6.0","13043210","wem/bandit_either","A1ALBJU1XOKYFH","either","4","","","","","","","0","1","0","","0.8","0.5","0.5","","","0.8","0.2","","","","","","","","","","","","","74","J","0","img/none_selected_demo.jpg","true","0","80_20_practice"
"306","","bandit","27","291831","0.0-19.0-7.0","13043210","wem/bandit_either","A1ALBJU1XOKYFH","either","4","","","","","","","0","1","0","","0.8","0.5","0.5","","","0.8","0.2","","","","","","","","","","","","","74","J","0","img/none_selected_demo.jpg","true","0","80_20_practice"
"274","","bandit","28","293616","0.0-19.0-8.0","13043210","wem/bandit_either","A1ALBJU1XOKYFH","either","4","","","","","","","0","1","0","","0.8","0.5","0.5","","","0.8","0.2","","","","","","","","","","","","","74","J","0","img/none_selected_demo.jpg","true","0","80_20_practice"
"240","","bandit","29","295367","0.0-19.0-9.0","13043210","wem/bandit_either","A1ALBJU1XOKYFH","either","4","","","","","","","1","0","0","0.8","","0.5","0.5","","","","","","","0.8","0.2","","","","","","","","","74","J","0","img/none_selected_demo.jpg","true","0","80_20_practice"
"257","","bandit","30","297136","0.0-19.0-10.0","13043210","wem/bandit_either","A1ALBJU1XOKYFH","either","4","","","","","","","0","1","0","","0.8","0.5","0.5","","","0.8","0.2","","","","","","","","","","","","","74","J","0","img/none_selected_demo.jpg","true","0","80_20_practice"
"316","","bandit","31","298968","0.0-19.0-11.0","13043210","wem/bandit_either","A1ALBJU1XOKYFH","either","4","","","","","","","1","0","0","0.8","","0.5","0.5","","","","","","","0.8","0.2","","","","","","","","","74","J","0","img/none_selected_demo.jpg","true","0","80_20_practice"
"297","","bandit","32","300775","0.0-19.0-12.0","13043210","wem/bandit_either","A1ALBJU1XOKYFH","either","4","","","","","","","1","0","0","0.8","","0.5","0.5","","","","","","","0.8","0.2","","","","","","","","","74","J","0","img/none_selected_demo.jpg","true","0","80_20_practice"
"354","","bandit","33","302639","0.0-19.0-13.0","13043210","wem/bandit_either","A1ALBJU1XOKYFH","either","4","","","","","","","1","0","0","0.8","","0.5","0.5","","","","","","","0.8","0.2","","","","","","","","","74","J","0","img/none_selected_demo.jpg","true","0","80_20_practice"
"266","","bandit","34","304416","0.0-19.0-14.0","13043210","wem/bandit_either","A1ALBJU1XOKYFH","either","4","","","","","","","0","0","1","0.2","","0.5","0.5","","","","","","","0.8","0.2","","","","","","","","","75","K","1","","true","0","80_20_practice"
"290","","bandit","35","306215","0.0-19.0-15.0","13043210","wem/bandit_either","A1ALBJU1XOKYFH","either","4","","","","","","","1","0","0","0.8","","0.5","0.5","","","","","","","0.8","0.2","","","","","","","","","74","J","0","img/none_selected_demo.jpg","true","0","80_20_practice"
"450","","bandit","36","308175","0.0-19.0-16.0","13043210","wem/bandit_either","A1ALBJU1XOKYFH","either","4","","","","","","","1","0","0","0.8","","0.5","0.5","","","","","","","0.8","0.2","","","","","","","","","74","J","0","img/none_selected_demo.jpg","true","0","80_20_practice"
"475","","bandit","37","310160","0.0-19.0-17.0","13043210","wem/bandit_either","A1ALBJU1XOKYFH","either","4","","","","","","","1","0","0","0.8","","0.5","0.5","","","","","","","0.8","0.2","","","","","","","","","74","J","0","img/none_selected_demo.jpg","true","0","80_20_practice"
"312","","bandit","38","311984","0.0-19.0-18.0","13043210","wem/bandit_either","A1ALBJU1XOKYFH","either","4","","","","","","","1","0","0","0.8","","0.5","0.5","","","","","","","0.8","0.2","","","","","","","","","74","J","0","img/none_selected_demo.jpg","true","0","80_20_practice"
"265","","bandit","39","313760","0.0-19.0-19.0","13043210","wem/bandit_either","A1ALBJU1XOKYFH","either","4","","","","","","","0","1","0","","0.8","0.5","0.5","","","0.8","0.2","","","","","","","","","","","","","74","J","0","img/none_selected_demo.jpg","true","0","80_20_practice"
"3444","","text","40","317206","0.0-20.0","13043210","wem/bandit_either","A1ALBJU1XOKYFH","either","4","32","","","","","","","","","","","","","","","","","","","","","","","","","","","","","","","","","","",""
"1531","","bandit","41","320248","0.0-21.0-0.0","13043210","wem/bandit_either","A1ALBJU1XOKYFH","either","4","","","","","","","1","0","0","1","0","","","","","0","1","","","1","0","","","","","","","","","74","J","0","img/none_selected_demo.jpg","true","0",""
"7628","","text","42","327877","0.0-22.0","13043210","wem/bandit_either","A1ALBJU1XOKYFH","either","4","32","","","","","","","","","","","","","","","","","","","","","","","","","","","","","","","","","","",""
"3262","","text","43","331141","0.0-23.0","13043210","wem/bandit_either","A1ALBJU1XOKYFH","either","4","32","","","","","","","","","","","","","","","","","","","","","","","","","","","","","","","","","","",""
"6438","","text","44","337581","0.0-24.0","13043210","wem/bandit_either","A1ALBJU1XOKYFH","either","4","32","","","","","","","","","","","","","","","","","","","","","","","","","","","","","","","","","","",""
"2927","","text","45","340509","0.0-25.0","13043210","wem/bandit_either","A1ALBJU1XOKYFH","either","4","32","","","","","","","","","","","","","","","","","","","","","","","","","","","","","","","","","","",""
"13661","","text","46","354173","0.0-26.0","13043210","wem/bandit_either","A1ALBJU1XOKYFH","either","4","32","","","","","","","","","","","","","","","","","","","","","","","","","","","","","","","","","","",""
"3670","","text","47","357845","0.0-27.0","13043210","wem/bandit_either","A1ALBJU1XOKYFH","either","4","32","","","","","","","","","","","","","","","","","","","","","","","","","","","","","","","","","","",""
"4086","","text","48","361933","0.0-28.0","13043210","wem/bandit_either","A1ALBJU1XOKYFH","either","4","32","","","","","","","","","","","","","","","","","","","","","","","","","","","","","","","","","","",""
"5094","","text","49","367029","0.0-29.0","13043210","wem/bandit_either","A1ALBJU1XOKYFH","either","4","32","","","","","","","","","","","","","","","","","","","","","","","","","","","","","","","","","","",""
"6374","","text","50","373405","0.0-30.0","13043210","wem/bandit_either","A1ALBJU1XOKYFH","either","4","32","","","","","","","","","","","","","","","","","","","","","","","","","","","","","","","","","","",""
"2614","","text","51","376021","0.0-31.0","13043210","wem/bandit_either","A1ALBJU1XOKYFH","either","4","32","","","","","","","","","","","","","","","","","","","","","","","","","","","","","","","","","","",""
"2326","","text","52","378349","0.0-32.0","13043210","wem/bandit_either","A1ALBJU1XOKYFH","either","4","32","","","","","","","","","","","","","","","","","","","","","","","","","","","","","","","","","","",""
"620","","bandit","53","380481","0.0-33.0-0.0","13043210","wem/bandit_either","A1ALBJU1XOKYFH","either","4","","","","","","","0","0","1","","0.8","0.5","0.5","0.5","0.5","0.8","0.2","0.6","0.2","","","","","","","","","","","72","H","0","img/none_selected.jpg","true","0","full_practice"
"384","","bandit","54","382376","0.0-33.0-1.0","13043210","wem/bandit_either","A1ALBJU1XOKYFH","either","4","","","","","","","0","1","0","","0.8","0.5","0.5","0.5","0.5","0.8","0.2","0.6","0.2","","","","","","","","","","","72","H","0","img/none_selected.jpg","true","0","full_practice"
"337","","bandit","55","384223","0.0-33.0-2.0","13043210","wem/bandit_either","A1ALBJU1XOKYFH","either","4","","","","","","","0","1","0","","0.8","0.5","0.5","0.5","0.5","0.8","0.2","0.6","0.2","","","","","","","","","","","72","H","0","img/none_selected.jpg","true","0","full_practice"
"322","","bandit","56","386056","0.0-33.0-3.0","13043210","wem/bandit_either","A1ALBJU1XOKYFH","either","4","","","","","","","0","1","0","","0.8","0.5","0.5","0.5","0.5","0.8","0.2","0.6","0.2","","","","","","","","","","","72","H","0","img/none_selected.jpg","true","0","full_practice"
"289","","bandit","57","387855","0.0-33.0-4.0","13043210","wem/bandit_either","A1ALBJU1XOKYFH","either","4","","","","","","","1","0","0","0.8","","0.5","0.5","0.5","0.5","","","","","0.8","0.2","0.6","0.2","","","","","","","72","H","0","img/none_selected.jpg","true","0","full_practice"
"314","","bandit","58","389681","0.0-33.0-5.0","13043210","wem/bandit_either","A1ALBJU1XOKYFH","either","4","","","","","","","0","1","0","","0.8","0.5","0.5","0.5","0.5","0.8","0.2","0.6","0.2","","","","","","","","","","","72","H","0","img/none_selected.jpg","true","0","full_practice"
"248","","bandit","59","391439","0.0-33.0-6.0","13043210","wem/bandit_either","A1ALBJU1XOKYFH","either","4","","","","","","","0","0","1","0.8","","0.5","0.5","0.5","0.5","","","","","0.8","0.2","0.6","0.2","","","","","","","72","H","0","img/none_selected.jpg","true","0","full_practice"
"146","","bandit","60","393095","0.0-33.0-7.0","13043210","wem/bandit_either","A1ALBJU1XOKYFH","either","4","","","","","","","0","1","0","","0.8","0.5","0.5","0.5","0.5","0.8","0.2","0.6","0.2","","","","","","","","","","","72","H","0","img/none_selected.jpg","true","0","full_practice"
"297","","bandit","61","394903","0.0-33.0-8.0","13043210","wem/bandit_either","A1ALBJU1XOKYFH","either","4","","","","","","","1","0","0","0.8","","0.5","0.5","0.5","0.5","","","","","0.8","0.2","0.6","0.2","","","","","","","72","H","0","img/none_selected.jpg","true","0","full_practice"
"378","","bandit","62","396791","0.0-33.0-9.0","13043210","wem/bandit_either","A1ALBJU1XOKYFH","either","4","","","","","","","0","0","1","","0.8","0.5","0.5","0.5","0.5","0.8","0.2","0.6","0.2","","","","","","","","","","","72","H","0","img/none_selected.jpg","true","0","full_practice"
"298","","bandit","63","398599","0.0-33.0-10.0","13043210","wem/bandit_either","A1ALBJU1XOKYFH","either","4","","","","","","","0","0","1","0.8","","0.5","0.5","0.5","0.5","","","","","0.8","0.2","0.6","0.2","","","","","","","72","H","0","img/none_selected.jpg","true","0","full_practice"
"282","","bandit","64","400392","0.0-33.0-11.0","13043210","wem/bandit_either","A1ALBJU1XOKYFH","either","4","","","","","","","0","0","1","0.2","","0.5","0.5","0.5","0.5","","","","","0.8","0.2","0.6","0.2","","","","","","","74","J","1","","true","0","full_practice"
"281","","bandit","65","402183","0.0-33.0-12.0","13043210","wem/bandit_either","A1ALBJU1XOKYFH","either","4","","","","","","","1","0","0","0.6","","0.5","0.5","0.5","0.5","","","","","0.8","0.2","0.6","0.2","","","","","","","75","K","2","","true","0","full_practice"
"282","","bandit","66","403975","0.0-33.0-13.0","13043210","wem/bandit_either","A1ALBJU1XOKYFH","either","4","","","","","","","0","0","1","0.6","","0.5","0.5","0.5","0.5","","","","","0.8","0.2","0.6","0.2","","","","","","","75","K","2","","true","0","full_practice"
"258","","bandit","67","405743","0.0-33.0-14.0","13043210","wem/bandit_either","A1ALBJU1XOKYFH","either","4","","","","","","","0","1","0","","0.6","0.5","0.5","0.5","0.5","0.8","0.2","0.6","0.2","","","","","","","","","","","75","K","2","","true","0","full_practice"
"265","","bandit","68","407519","0.0-33.0-15.0","13043210","wem/bandit_either","A1ALBJU1XOKYFH","either","4","","","","","","","0","0","1","0.6","","0.5","0.5","0.5","0.5","","","","","0.8","0.2","0.6","0.2","","","","","","","75","K","2","","true","0","full_practice"
"258","","bandit","69","409288","0.0-33.0-16.0","13043210","wem/bandit_either","A1ALBJU1XOKYFH","either","4","","","","","","","0","1","0","","0.6","0.5","0.5","0.5","0.5","0.8","0.2","0.6","0.2","","","","","","","","","","","75","K","2","","true","0","full_practice"
"305","","bandit","70","411103","0.0-33.0-17.0","13043210","wem/bandit_either","A1ALBJU1XOKYFH","either","4","","","","","","","1","0","0","0.6","","0.5","0.5","0.5","0.5","","","","","0.8","0.2","0.6","0.2","","","","","","","75","K","2","","true","0","full_practice"
"273","","bandit","71","412888","0.0-33.0-18.0","13043210","wem/bandit_either","A1ALBJU1XOKYFH","either","4","","","","","","","0","1","0","","0.6","0.5","0.5","0.5","0.5","0.8","0.2","0.6","0.2","","","","","","","","","","","75","K","2","","true","0","full_practice"
"409","","bandit","72","414807","0.0-33.0-19.0","13043210","wem/bandit_either","A1ALBJU1XOKYFH","either","4","","","","","","","0","1","0","","0.6","0.5","0.5","0.5","0.5","0.8","0.2","0.6","0.2","","","","","","","","","","","75","K","2","","true","0","full_practice"
"3599","","text","73","418413","0.0-34.0","13043210","wem/bandit_either","A1ALBJU1XOKYFH","either","4","32","","","","","","","","","","","","","","","","","","","","","","","","","","","","","","","","","","",""
"14741","","text","74","434158","0.0-35.0","13043210","wem/bandit_either","A1ALBJU1XOKYFH","either","4","32","","","","","","","","","","","","","","","","","","","","","","","","","","","","","","","","","","",""
"10453","","text","75","444613","0.0-36.0","13043210","wem/bandit_either","A1ALBJU1XOKYFH","either","4","32","","","","","","","","","","","","","","","","","","","","","","","","","","","","","","","","","","",""
"12109","","text","76","456725","0.0-37.0","13043210","wem/bandit_either","A1ALBJU1XOKYFH","either","4","32","","","","","","","","","","","","","","","","","","","","","","","","","","","","","","","","","","",""
"7477","","text","77","464205","0.0-38.0","13043210","wem/bandit_either","A1ALBJU1XOKYFH","either","4","32","","","","","","","","","","","","","","","","","","","","","","","","","","","","","","","","","","",""
"8109","","text","78","472317","0.0-39.0","13043210","wem/bandit_either","A1ALBJU1XOKYFH","either","4","32","","","","","","","","","","","","","","","","","","","","","","","","","","","","","","","","","","",""
"723","","bandit","79","474552","0.0-40.0-0.0","13043210","wem/bandit_either","A1ALBJU1XOKYFH","either","4","","","","","","","0","0","1","0.3894728165","","0.6","0.8","0.4","0.2","","","","","0.3894728165","0.3242650943","0.3525715257","0.2771551185","","","","","","","72","H","0","img/none_selected.jpg","","1","main_expt"
"361","","bandit","80","476423","0.0-41.0-0.0","13043210","wem/bandit_either","A1ALBJU1XOKYFH","either","4","","","","","","","0","0","1","","0.3296228245","0.6","0.8","0.4","0.2","0.363660736","0.3296228245","0.390153736","0.3030893157","","","","","","","","","","","74","J","1","","","2","main_expt"
"271","","bandit","81","478209","0.0-42.0-0.0","13043210","wem/bandit_either","A1ALBJU1XOKYFH","either","4","","","","","","","0","0","1","0.3725447061","","0.6","0.8","0.4","0.2","","","","","0.3842171554","0.3102780753","0.3725447061","0.3211059343","","","","","","","75","K","2","","","3","main_expt"
"327","","bandit","82","480048","0.0-43.0-0.0","13043210","wem/bandit_either","A1ALBJU1XOKYFH","either","4","","","","","","","0","0","1","","0.2804386453","0.6","0.8","0.4","0.2","0.3831963053","0.2749892112","0.3431524481","0.2804386453","","","","","","","","","","","76","L","3","","","4","main_expt"
"184","","bandit","83","481743","0.0-44.0-0.0","13043210","wem/bandit_either","A1ALBJU1XOKYFH","either","4","","","","","","","0","0","1","","0.4056596471","0.6","0.8","0.4","0.2","0.4056596471","0.3037824898","0.3448007793","0.2609559086","","","","","","","","","","","72","H","0","img/none_selected.jpg","","5","main_expt"
"281","","bandit","84","483535","0.0-45.0-0.0","13043210","wem/bandit_either","A1ALBJU1XOKYFH","either","4","","","","","","","0","0","1","","0.3217417103","0.6","0.8","0.4","0.2","0.4409946319","0.3217417103","0.3980888019","0.2259287768","","","","","","","","","","","74","J","1","","","6","main_expt"
"137","","bandit","85","485184","0.0-46.0-0.0","13043210","wem/bandit_either","A1ALBJU1XOKYFH","either","4","","","","","","","0","0","1","0.3693121862","","0.6","0.8","0.4","0.2","","","","","0.3821747998","0.3018715163","0.3693121862","0.2433618728","","","","","","","75","K","2","","","7","main_expt"
"305","","bandit","86","486999","0.0-47.0-0.0","13043210","wem/bandit_either","A1ALBJU1XOKYFH","either","4","","","","","","","0","0","1","","0.2025356769","0.6","0.8","0.4","0.2","0.3841844813","0.3643645816","0.2933697555","0.2025356769","","","","","","","","","","","76","L","3","","","8","main_expt"
"201","","bandit","87","488711","0.0-48.0-0.0","13043210","wem/bandit_either","A1ALBJU1XOKYFH","either","4","","","","","","","0","0","1","0.3418610374","","0.6","0.8","0.4","0.2","","","","","0.3412237964","0.3418610374","0.3036212831","0.1441028094","","","","","","","74","J","1","","","9","main_expt"
"257","","bandit","88","490480","0.0-49.0-0.0","13043210","wem/bandit_either","A1ALBJU1XOKYFH","either","4","","","","","","","0","0","1","","0.308020301","0.6","0.8","0.4","0.2","0.3256420777","0.3190157878","0.308020301","0.1736005971","","","","","","","","","","","75","K","2","","","10","main_expt"
"489","","bandit","89","492479","0.0-50.0-0.0","13043210","wem/bandit_either","A1ALBJU1XOKYFH","either","4","","","","","","","0","0","1","","0.3514007431","0.6","0.8","0.4","0.2","0.3514007431","0.2998731478","0.3065973113","0.1836365694","","","","","","","","","","","72","H","0","img/none_selected.jpg","","11","main_expt"
"337","","bandit","90","494327","0.0-51.0-0.0","13043210","wem/bandit_either","A1ALBJU1XOKYFH","either","4","","","","","","","0","1","0","","0.2942822571","0.6","0.8","0.4","0.2","0.3722032088","0.2942822571","0.3271859636","0.2143869662","","","","","","","","","","","74","J","1","","","12","main_expt"
"313","","bandit","91","496151","0.0-52.0-0.0","13043210","wem/bandit_either","A1ALBJU1XOKYFH","either","4","","","","","","","0","1","0","","0.3009212619","0.6","0.8","0.4","0.2","0.3681707299","0.3009212619","0.2761076709","0.1637139448","","","","","","","","","","","74","J","1","","","13","main_expt"
"680","","bandit","92","498344","0.0-53.0-0.0","13043210","wem/bandit_either","A1ALBJU1XOKYFH","either","4","","","","","","","0","0","1","0.3227424667","","0.6","0.8","0.4","0.2","","","","","0.3528222564","0.3227424667","0.2311164494","0.1488535162","","","","","","","74","J","1","","","14","main_expt"
"296","","bandit","93","500151","0.0-54.0-0.0","13043210","wem/bandit_either","A1ALBJU1XOKYFH","either","4","","","","","","","0","1","0","","0.3547546862","0.6","0.8","0.4","0.2","0.3738838661","0.3547546862","0.2905977425","0.1332411271","","","","","","","","","","","74","J","1","","","15","main_expt"
"352","","bandit","94","502015","0.0-55.0-0.0","13043210","wem/bandit_either","A1ALBJU1XOKYFH","either","4","","","","","","","1","0","0","0.3241157583","","0.6","0.8","0.4","0.2","","","","","0.3385239332","0.3241157583","0.2924554969","0.09882415698","","","","","","","74","J","1","","","16","main_expt"
"321","","bandit","95","503848","0.0-56.0-0.0","13043210","wem/bandit_either","A1ALBJU1XOKYFH","either","4","","","","","","","1","0","0","0.3363410386","","0.6","0.8","0.4","0.2","","","","","0.3111355138","0.3363410386","0.3114836302","0.1069157009","","","","","","","74","J","1","","","17","main_expt"
"271","","bandit","96","505631","0.0-57.0-0.0","13043210","wem/bandit_either","A1ALBJU1XOKYFH","either","4","","","","","","","1","0","0","0.3880947854","","0.6","0.8","0.4","0.2","","","","","0.3487767647","0.3880947854","0.3215333475","0.134958137","","","","","","","74","J","1","","","18","main_expt"
"400","","bandit","97","507544","0.0-58.0-0.0","13043210","wem/bandit_either","A1ALBJU1XOKYFH","either","4","","","","","","","0","0","1","0.4116912081","","0.6","0.8","0.4","0.2","","","","","0.3010303499","0.4116912081","0.2733398822","0.1230418706","","","","","","","74","J","1","","","19","main_expt"
"312","","bandit","98","509368","0.0-59.0-0.0","13043210","wem/bandit_either","A1ALBJU1XOKYFH","either","4","","","","","","","0","0","1","","0.3973894305","0.6","0.8","0.4","0.2","0.2907203997","0.3973894305","0.2351410235","0.09866604889","","","","","","","","","","","74","J","1","","","20","main_expt"
"312","","bandit","99","511193","0.0-60.0-0.0","13043210","wem/bandit_either","A1ALBJU1XOKYFH","either","4","","","","","","","0","0","1","0.3088108907","","0.6","0.8","0.4","0.2","","","","","0.3088108907","0.369037109","0.2257810982","0.1021222834","","","","","","","72","H","0","img/none_selected.jpg","","21","main_expt"
"272","","bandit","100","512977","0.0-61.0-0.0","13043210","wem/bandit_either","A1ALBJU1XOKYFH","either","4","","","","","","","0","0","1","0.349202701","","0.6","0.8","0.4","0.2","","","","","0.349202701","0.4179468344","0.2221856846","0.1234138809","","","","","","","72","H","0","img/none_selected.jpg","","22","main_expt"
"271","","bandit","101","514760","0.0-62.0-0.0","13043210","wem/bandit_either","A1ALBJU1XOKYFH","either","4","","","","","","","1","0","0","0.2127124712","","0.6","0.8","0.4","0.2","","","","","0.3785068464","0.4276062926","0.2127124712","0.1030640584","","","","","","","75","K","2","","","23","main_expt"
"167","","bandit","102","516440","0.0-63.0-0.0","13043210","wem/bandit_either","A1ALBJU1XOKYFH","either","4","","","","","","","0","0","1","","0.1882566648","0.6","0.8","0.4","0.2","0.4012919653","0.4078122208","0.1882566648","0.1261035851","","","","","","","","","","","75","K","2","","","24","main_expt"
"231","","bandit","103","518184","0.0-64.0-0.0","13043210","wem/bandit_either","A1ALBJU1XOKYFH","either","4","","","","","","","1","0","0","0.1273223766","","0.6","0.8","0.4","0.2","","","","","0.400899794","0.3950411191","0.1273223766","0.1796705612","","","","","","","75","K","2","","","25","main_expt"
"384","","bandit","104","520083","0.0-65.0-0.0","13043210","wem/bandit_either","A1ALBJU1XOKYFH","either","4","","","","","","","0","0","1","0.15747458","","0.6","0.8","0.4","0.2","","","","","0.4126274585","0.4322303329","0.15747458","0.2414651519","","","","","","","75","K","2","","","26","main_expt"
"299","","bandit","105","521897","0.0-66.0-0.0","13043210","wem/bandit_either","A1ALBJU1XOKYFH","either","4","","","","","","","0","0","1","","0.1442684908","0.6","0.8","0.4","0.2","0.3992263875","0.4353643722","0.1442684908","0.2005374927","","","","","","","","","","","75","K","2","","","27","main_expt"
"295","","bandit","106","523704","0.0-67.0-0.0","13043210","wem/bandit_either","A1ALBJU1XOKYFH","either","4","","","","","","","0","0","1","0.3197257227","","0.6","0.8","0.4","0.2","","","","","0.3846584236","0.4464017809","0.2255404594","0.3197257227","","","","","","","76","L","3","","","28","main_expt"
"335","","bandit","107","525553","0.0-68.0-0.0","13043210","wem/bandit_either","A1ALBJU1XOKYFH","either","4","","","","","","","0","0","1","","0.3141869899","0.6","0.8","0.4","0.2","0.3561298134","0.4417109462","0.2730951691","0.3141869899","","","","","","","","","","","76","L","3","","","29","main_expt"
"286","","bandit","108","527351","0.0-69.0-0.0","13043210","wem/bandit_either","A1ALBJU1XOKYFH","either","4","","","","","","","0","0","1","","0.4065908859","0.6","0.8","0.4","0.2","0.3101363315","0.4065908859","0.2890412698","0.3445991012","","","","","","","","","","","74","J","1","","","30","main_expt"
"313","","bandit","109","529176","0.0-70.0-0.0","13043210","wem/bandit_either","A1ALBJU1XOKYFH","either","4","","","","","","","0","0","1","0.3954582793","","0.6","0.8","0.4","0.2","","","","","0.3322219809","0.3954582793","0.3309226042","0.3456655029","","","","","","","74","J","1","","","31","main_expt"
"320","","bandit","110","531007","0.0-71.0-0.0","13043210","wem/bandit_either","A1ALBJU1XOKYFH","either","4","","","","","","","0","0","1","","0.3516269472","0.6","0.8","0.4","0.2","0.3516269472","0.3716723047","0.3519301717","0.3826172224","","","","","","","","","","","72","H","0","img/none_selected.jpg","","32","main_expt"
"256","","bandit","111","532775","0.0-72.0-0.0","13043210","wem/bandit_either","A1ALBJU1XOKYFH","either","4","","","","","","","0","0","1","0.3852085553","","0.6","0.8","0.4","0.2","","","","","0.3852085553","0.3799724366","0.3414953842","0.3804083149","","","","","","","72","H","0","img/none_selected.jpg","","33","main_expt"
"232","","bandit","112","534519","0.0-73.0-0.0","13043210","wem/bandit_either","A1ALBJU1XOKYFH","either","4","","","","","","","0","0","1","0.2938412915","","0.6","0.8","0.4","0.2","","","","","0.4196644934","0.409480615","0.2938412915","0.3808178469","","","","","","","75","K","2","","","34","main_expt"
"208","","bandit","113","536239","0.0-74.0-0.0","13043210","wem/bandit_either","A1ALBJU1XOKYFH","either","4","","","","","","","0","0","1","","0.2256616696","0.6","0.8","0.4","0.2","0.420891004","0.3869649509","0.2256616696","0.376129724","","","","","","","","","","","75","K","2","","","35","main_expt"
"232","","bandit","114","537984","0.0-75.0-0.0","13043210","wem/bandit_either","A1ALBJU1XOKYFH","either","4","","","","","","","0","0","1","","0.2525957923","0.6","0.8","0.4","0.2","0.3808881167","0.3045389962","0.2525957923","0.4027809904","","","","","","","","","","","75","K","2","","","36","main_expt"
"207","","bandit","115","539704","0.0-76.0-0.0","13043210","wem/bandit_either","A1ALBJU1XOKYFH","either","4","","","","","","","1","0","0","0.2954217214","","0.6","0.8","0.4","0.2","","","","","0.3634360393","0.2954217214","0.2333373749","0.3715556026","","","","","","","74","J","1","","","37","main_expt"
"168","","bandit","116","541383","0.0-77.0-0.0","13043210","wem/bandit_either","A1ALBJU1XOKYFH","either","4","","","","","","","0","0","1","0.2749906923","","0.6","0.8","0.4","0.2","","","","","0.3432691328","0.2749906923","0.2126884676","0.354842885","","","","","","","74","J","1","","","38","main_expt"
"193","","bandit","117","543087","0.0-78.0-0.0","13043210","wem/bandit_either","A1ALBJU1XOKYFH","either","4","","","","","","","0","1","0","","0.2911873598","0.6","0.8","0.4","0.2","0.3113322025","0.2911873598","0.212498526","0.3066825603","","","","","","","","","","","74","J","1","","","39","main_expt"
"385","","bandit","118","544984","0.0-79.0-0.0","13043210","wem/bandit_either","A1ALBJU1XOKYFH","either","4","","","","","","","0","0","1","0.3066149412","","0.6","0.8","0.4","0.2","","","","","0.3298138996","0.3066149412","0.2031275136","0.3208648015","","","","","","","74","J","1","","","40","main_expt"
"287","","bandit","119","546783","0.0-80.0-0.0","13043210","wem/bandit_either","A1ALBJU1XOKYFH","either","4","","","","","","","0","0","1","0.2612722093","","0.6","0.8","0.4","0.2","","","","","0.3590557929","0.2612722093","0.2409224204","0.2774570704","","","","","","","74","J","1","","","41","main_expt"
"256","","bandit","120","548551","0.0-81.0-0.0","13043210","wem/bandit_either","A1ALBJU1XOKYFH","either","4","","","","","","","0","0","1","0.2579482203","","0.6","0.8","0.4","0.2","","","","","0.3455434044","0.2579482203","0.2166695961","0.3092882543","","","","","","","74","J","1","","","42","main_expt"
"169","","bandit","121","550231","0.0-82.0-0.0","13043210","wem/bandit_either","A1ALBJU1XOKYFH","either","4","","","","","","","0","0","1","0.4020043176","","0.6","0.8","0.4","0.2","","","","","0.4020043176","0.2232302517","0.2314197793","0.3161251671","","","","","","","72","H","0","img/none_selected.jpg","","43","main_expt"
"112","","bandit","122","551856","0.0-83.0-0.0","13043210","wem/bandit_either","A1ALBJU1XOKYFH","either","4","","","","","","","0","0","1","","0.4088695108","0.6","0.8","0.4","0.2","0.4088695108","0.2435669349","0.1889371852","0.3032549762","","","","","","","","","","","72","H","0","img/none_selected.jpg","","44","main_expt"
"240","","bandit","123","553607","0.0-84.0-0.0","13043210","wem/bandit_either","A1ALBJU1XOKYFH","either","4","","","","","","","0","0","1","0.2152104473","","0.6","0.8","0.4","0.2","","","","","0.3914045207","0.1885724617","0.2152104473","0.3012359134","","","","","","","75","K","2","","","45","main_expt"
"280","","bandit","124","555399","0.0-85.0-0.0","13043210","wem/bandit_either","A1ALBJU1XOKYFH","either","4","","","","","","","0","0","1","","0.2260726972","0.6","0.8","0.4","0.2","0.3682142312","0.104230756","0.2260726972","0.2994346937","","","","","","","","","","","75","K","2","","","46","main_expt"
"200","","bandit","125","557112","0.0-86.0-0.0","13043210","wem/bandit_either","A1ALBJU1XOKYFH","either","4","","","","","","","0","1","0","","0.3169549043","0.6","0.8","0.4","0.2","0.3462276735","0.09013225529","0.2330399618","0.3169549043","","","","","","","","","","","76","L","3","","","47","main_expt"
"287","","bandit","126","558911","0.0-87.0-0.0","13043210","wem/bandit_either","A1ALBJU1XOKYFH","either","4","","","","","","","0","0","1","","0.3137179834","0.6","0.8","0.4","0.2","0.3501405617","0.1066227192","0.2769685944","0.3137179834","","","","","","","","","","","76","L","3","","","48","main_expt"
"240","","bandit","127","560664","0.0-88.0-0.0","13043210","wem/bandit_either","A1ALBJU1XOKYFH","either","4","","","","","","","1","0","0","0.3026837323","","0.6","0.8","0.4","0.2","","","","","0.3607669766","0.1273062614","0.2954986192","0.3026837323","","","","","","","76","L","3","","","49","main_expt"
"256","","bandit","128","562432","0.0-89.0-0.0","13043210","wem/bandit_either","A1ALBJU1XOKYFH","either","4","","","","","","","0","1","0","","0.2690248343","0.6","0.8","0.4","0.2","0.3776327681","0.08158159543","0.2730110453","0.2690248343","","","","","","","","","","","76","L","3","","","50","main_expt"
"111","","bandit","129","564055","0.0-90.0-0.0","13043210","wem/bandit_either","A1ALBJU1XOKYFH","either","4","","","","","","","0","1","0","","0.2407215714","0.6","0.8","0.4","0.2","0.3922012959","0.08035098666","0.2672659715","0.2407215714","","","","","","","","","","","76","L","3","","","51","main_expt"
"272","","bandit","130","565839","0.0-91.0-0.0","13043210","wem/bandit_either","A1ALBJU1XOKYFH","either","4","","","","","","","0","0","1","","0.2758158767","0.6","0.8","0.4","0.2","0.3532085343","0.1007468434","0.2552972095","0.2758158767","","","","","","","","","","","76","L","3","","","52","main_expt"
"256","","bandit","131","567607","0.0-92.0-0.0","13043210","wem/bandit_either","A1ALBJU1XOKYFH","either","4","","","","","","","0","0","1","0.2661511239","","0.6","0.8","0.4","0.2","","","","","0.3597378762","0.1479770317","0.1954439593","0.2661511239","","","","","","","76","L","3","","","53","main_expt"
"240","","bandit","132","569359","0.0-93.0-0.0","13043210","wem/bandit_either","A1ALBJU1XOKYFH","either","4","","","","","","","0","1","0","","0.250303373","0.6","0.8","0.4","0.2","0.3553644404","0.1450389045","0.1250298759","0.250303373","","","","","","","","","","","76","L","3","","","54","main_expt"
"336","","bandit","133","571207","0.0-94.0-0.0","13043210","wem/bandit_either","A1ALBJU1XOKYFH","either","4","","","","","","","0","0","1","","0.1850572083","0.6","0.8","0.4","0.2","0.3427354451","0.1678096349","0.1224949652","0.1850572083","","","","","","","","","","","76","L","3","","","55","main_expt"
"120","","bandit","134","572839","0.0-95.0-0.0","13043210","wem/bandit_either","A1ALBJU1XOKYFH","either","4","","","","","","","0","0","1","","0.2410157884","0.6","0.8","0.4","0.2","0.3158877586","0.1748395718","0.1312048923","0.2410157884","","","","","","","","","","","76","L","3","","","56","main_expt"
"79","","bandit","135","574431","0.0-96.0-0.0","13043210","wem/bandit_either","A1ALBJU1XOKYFH","either","4","","","","","","","0","0","1","0.14452077","","0.6","0.8","0.4","0.2","","","","","0.3224611445","0.146986137","0.14452077","0.2657224069","","","","","","","75","K","2","","","57","main_expt"
"240","","bandit","136","576184","0.0-97.0-0.0","13043210","wem/bandit_either","A1ALBJU1XOKYFH","either","4","","","","","","","0","0","1","0.1198415177","","0.6","0.8","0.4","0.2","","","","","0.3378672788","0.1316135006","0.1198415177","0.2361308133","","","","","","","75","K","2","","","58","main_expt"
"231","","bandit","137","577927","0.0-98.0-0.0","13043210","wem/bandit_either","A1ALBJU1XOKYFH","either","4","","","","","","","0","1","0","","0.1776120447","0.6","0.8","0.4","0.2","0.3438075972","0.1776120447","0.1674914914","0.2078360154","","","","","","","","","","","74","J","1","","","59","main_expt"
"248","","bandit","138","579687","0.0-99.0-0.0","13043210","wem/bandit_either","A1ALBJU1XOKYFH","either","4","","","","","","","0","0","1","0.2034864675","","0.6","0.8","0.4","0.2","","","","","0.2950987239","0.2034864675","0.147959707","0.2256957235","","","","","","","74","J","1","","","60","main_expt"
"248","","bandit","139","581447","0.0-100.0-0.0","13043210","wem/bandit_either","A1ALBJU1XOKYFH","either","4","","","","","","","0","0","1","0.1325668513","","0.6","0.8","0.4","0.2","","","","","0.2939622289","0.1325668513","0.1217284172","0.2713547376","","","","","","","74","J","1","","","61","main_expt"
"240","","bandit","140","583199","0.0-101.0-0.0","13043210","wem/bandit_either","A1ALBJU1XOKYFH","either","4","","","","","","","0","0","1","0.125492747","","0.6","0.8","0.4","0.2","","","","","0.2907096119","0.125492747","0.1392905859","0.2800078023","","","","","","","74","J","1","","","62","main_expt"
"264","","bandit","141","584976","0.0-102.0-0.0","13043210","wem/bandit_either","A1ALBJU1XOKYFH","either","4","","","","","","","0","0","1","0.2696382907","","0.6","0.8","0.4","0.2","","","","","0.2696382907","0.1081989139","0.1953314019","0.362183352","","","","","","","72","H","0","img/none_selected.jpg","","63","main_expt"
"231","","bandit","142","586719","0.0-103.0-0.0","13043210","wem/bandit_either","A1ALBJU1XOKYFH","either","4","","","","","","","0","0","1","","0.2496415039","0.6","0.8","0.4","0.2","0.2496415039","0.09104284411","0.2618523415","0.3354395381","","","","","","","","","","","72","H","0","img/none_selected.jpg","","64","main_expt"
"327","","bandit","143","588559","0.0-104.0-0.0","13043210","wem/bandit_either","A1ALBJU1XOKYFH","either","4","","","","","","","0","0","1","0.2364994079","","0.6","0.8","0.4","0.2","","","","","0.2364994079","0.1264903162","0.2686672798","0.2893845237","","","","","","","72","H","0","img/none_selected.jpg","","65","main_expt"
"272","","bandit","144","590343","0.0-105.0-0.0","13043210","wem/bandit_either","A1ALBJU1XOKYFH","either","4","","","","","","","0","0","1","0.2451656397","","0.6","0.8","0.4","0.2","","","","","0.2541683514","0.1665937301","0.2451656397","0.2355717356","","","","","","","75","K","2","","","66","main_expt"
"264","","bandit","145","592119","0.0-106.0-0.0","13043210","wem/bandit_either","A1ALBJU1XOKYFH","either","4","","","","","","","0","0","1","","0.2445320338","0.6","0.8","0.4","0.2","0.2985471382","0.1740025863","0.2445320338","0.2848755716","","","","","","","","","","","75","K","2","","","67","main_expt"
"263","","bandit","146","593896","0.0-107.0-0.0","13043210","wem/bandit_either","A1ALBJU1XOKYFH","either","4","","","","","","","0","0","1","0.2261158315","","0.6","0.8","0.4","0.2","","","","","0.3391290389","0.2300011382","0.2261158315","0.3341158043","","","","","","","75","K","2","","","68","main_expt"
"271","","bandit","147","595679","0.0-108.0-0.0","13043210","wem/bandit_either","A1ALBJU1XOKYFH","either","4","","","","","","","1","0","0","0.1768594062","","0.6","0.8","0.4","0.2","","","","","0.3114764975","0.1768594062","0.1627286519","0.3253412689","","","","","","","74","J","1","","","69","main_expt"
"167","","bandit","148","597359","0.0-109.0-0.0","13043210","wem/bandit_either","A1ALBJU1XOKYFH","either","4","","","","","","","0","1","0","","0.1906145184","0.6","0.8","0.4","0.2","0.3056328376","0.1906145184","0.1301009224","0.3280915152","","","","","","","","","","","74","J","1","","","70","main_expt"
"239","","bandit","149","599111","0.0-110.0-0.0","13043210","wem/bandit_either","A1ALBJU1XOKYFH","either","4","","","","","","","0","0","1","0.1451664327","","0.6","0.8","0.4","0.2","","","","","0.3445325487","0.1451664327","0.1356707761","0.3772643828","","","","","","","74","J","1","","","71","main_expt"
"304","","bandit","150","600927","0.0-111.0-0.0","13043210","wem/bandit_either","A1ALBJU1XOKYFH","either","4","","","","","","","0","0","1","0.1091447996","","0.6","0.8","0.4","0.2","","","","","0.364612409","0.1091447996","0.1045412551","0.4074174212","","","","","","","74","J","1","","","72","main_expt"
"319","","bandit","151","602758","0.0-112.0-0.0","13043210","wem/bandit_either","A1ALBJU1XOKYFH","either","4","","","","","","","0","0","1","0.1248737042","","0.6","0.8","0.4","0.2","","","","","0.4454774056","0.1248737042","0.0867882282","0.3736299767","","","","","","","74","J","1","","","73","main_expt"
"296","","bandit","152","604567","0.0-113.0-0.0","13043210","wem/bandit_either","A1ALBJU1XOKYFH","either","4","","","","","","","0","1","0","","0.383211712","0.6","0.8","0.4","0.2","0.4492830973","0.1073746888","0.1018359722","0.383211712","","","","","","","","","","","76","L","3","","","74","main_expt"
"223","","bandit","153","606303","0.0-114.0-0.0","13043210","wem/bandit_either","A1ALBJU1XOKYFH","either","4","","","","","","","0","1","0","","0.3681962321","0.6","0.8","0.4","0.2","0.449321966","0.1051395745","0.09443707336","0.3681962321","","","","","","","","","","","76","L","3","","","75","main_expt"
"391","","bandit","154","608208","0.0-115.0-0.0","13043210","wem/bandit_either","A1ALBJU1XOKYFH","either","4","","","","","","","0","0","1","","0.3574328021","0.6","0.8","0.4","0.2","0.4299726132","0.09171451076","0.08768691443","0.3574328021","","","","","","","","","","","76","L","3","","","76","main_expt"
"319","","bandit","155","610039","0.0-116.0-0.0","13043210","wem/bandit_either","A1ALBJU1XOKYFH","either","4","","","","","","","0","0","1","","0.4041720962","0.6","0.8","0.4","0.2","0.4349340462","0.1256070833","0.07744448812","0.4041720962","","","","","","","","","","","76","L","3","","","77","main_expt"
"415","","bandit","156","611967","0.0-117.0-0.0","13043210","wem/bandit_either","A1ALBJU1XOKYFH","either","4","","","","","","","0","0","1","0.1398604905","","0.6","0.8","0.4","0.2","","","","","0.4112950215","0.1398604905","0.05712631425","0.4000946746","","","","","","","74","J","1","","","78","main_expt"
"111","","bandit","157","613592","0.0-118.0-0.0","13043210","wem/bandit_either","A1ALBJU1XOKYFH","either","4","","","","","","","0","0","1","","0.4123046053","0.6","0.8","0.4","0.2","0.4123046053","0.1303191282","0.03981704588","0.425248604","","","","","","","","","","","72","H","0","img/none_selected.jpg","","79","main_expt"
"191","","bandit","158","615295","0.0-119.0-0.0","13043210","wem/bandit_either","A1ALBJU1XOKYFH","either","4","","","","","","","0","0","1","0.02961196177","","0.6","0.8","0.4","0.2","","","","","0.4345430878","0.1491340647","0.02961196177","0.4263383456","","","","","","","75","K","2","","","80","main_expt"
"255","","bandit","159","617063","0.0-120.0-0.0","13043210","wem/bandit_either","A1ALBJU1XOKYFH","either","4","","","","","","","0","0","1","","0.1484119081","0.6","0.8","0.4","0.2","0.4255274095","0.1484119081","0.0408206899","0.4377411966","","","","","","","","","","","74","J","1","","","81","main_expt"
"263","","bandit","160","618839","0.0-121.0-0.0","13043210","wem/bandit_either","A1ALBJU1XOKYFH","either","4","","","","","","","0","0","1","","0.4263216968","0.6","0.8","0.4","0.2","0.4266934287","0.135460029","0.03491361241","0.4263216968","","","","","","","","","","","76","L","3","","","82","main_expt"
"135","","bandit","161","620486","0.0-122.0-0.0","13043210","wem/bandit_either","A1ALBJU1XOKYFH","either","4","","","","","","","0","0","1","0.01881925386","","0.6","0.8","0.4","0.2","","","","","0.4321646522","0.09497461961","0.01881925386","0.4536492548","","","","","","","75","K","2","","","83","main_expt"
"80","","bandit","162","622080","0.0-123.0-0.0","13043210","wem/bandit_either","A1ALBJU1XOKYFH","either","4","","","","","","","0","1","0","","0.43129245","0.6","0.8","0.4","0.2","0.43129245","0.0956585677","0.03441768066","0.4344769981","","","","","","","","","","","72","H","0","img/none_selected.jpg","","84","main_expt"
"310","","bandit","163","623904","0.0-124.0-0.0","13043210","wem/bandit_either","A1ALBJU1XOKYFH","either","4","","","","","","","0","1","0","","0.4307495417","0.6","0.8","0.4","0.2","0.4307495417","0.08427930603","0.04015732792","0.4167097255","","","","","","","","","","","72","H","0","img/none_selected.jpg","","85","main_expt"
"270","","bandit","164","625687","0.0-125.0-0.0","13043210","wem/bandit_either","A1ALBJU1XOKYFH","either","4","","","","","","","0","0","1","0.4327415212","","0.6","0.8","0.4","0.2","","","","","0.4327415212","0.09540141202","0.0462821445","0.4215971904","","","","","","","72","H","0","img/none_selected.jpg","","86","main_expt"
"335","","bandit","165","627535","0.0-126.0-0.0","13043210","wem/bandit_either","A1ALBJU1XOKYFH","either","4","","","","","","","1","0","0","0.4507305815","","0.6","0.8","0.4","0.2","","","","","0.4507305815","0.06504543429","0.07236867375","0.3962725568","","","","","","","72","H","0","img/none_selected.jpg","","87","main_expt"
"287","","bandit","166","629336","0.0-127.0-0.0","13043210","wem/bandit_either","A1ALBJU1XOKYFH","either","4","","","","","","","0","1","0","","0.4571393315","0.6","0.8","0.4","0.2","0.4571393315","0.05894337134","0.1132918069","0.4038430626","","","","","","","","","","","72","H","0","img/none_selected.jpg","","88","main_expt"
"286","","bandit","167","631135","0.0-128.0-0.0","13043210","wem/bandit_either","A1ALBJU1XOKYFH","either","4","","","","","","","0","1","0","","0.4639779763","0.6","0.8","0.4","0.2","0.4639779763","0.06803635399","0.1466354559","0.4247877058","","","","","","","","","","","72","H","0","img/none_selected.jpg","","89","main_expt"
"286","","bandit","168","632936","0.0-129.0-0.0","13043210","wem/bandit_either","A1ALBJU1XOKYFH","either","4","","","","","","","0","0","1","0.4620017245","","0.6","0.8","0.4","0.2","","","","","0.4620017245","0.09657856289","0.1746819083","0.4196700557","","","","","","","72","H","0","img/none_selected.jpg","","90","main_expt"
"142","","bandit","169","634592","0.0-130.0-0.0","13043210","wem/bandit_either","A1ALBJU1XOKYFH","either","4","","","","","","","0","0","1","0.4492963398","","0.6","0.8","0.4","0.2","","","","","0.4492963398","0.08522031428","0.1864657318","0.401758082","","","","","","","72","H","0","img/none_selected.jpg","","91","main_expt"
"206","","bandit","170","636311","0.0-131.0-0.0","13043210","wem/bandit_either","A1ALBJU1XOKYFH","either","4","","","","","","","0","0","1","","0.3422099147","0.6","0.8","0.4","0.2","0.462009279","0.07078380504","0.2124622091","0.3422099147","","","","","","","","","","","76","L","3","","","92","main_expt"
"87","","bandit","171","637911","0.0-132.0-0.0","13043210","wem/bandit_either","A1ALBJU1XOKYFH","either","4","","","","","","","0","0","1","0.0564278809","","0.6","0.8","0.4","0.2","","","","","0.4363090379","0.0564278809","0.245786276","0.3279059742","","","","","","","74","J","1","","","93","main_expt"
"40","","bandit","172","639472","0.0-133.0-0.0","13043210","wem/bandit_either","A1ALBJU1XOKYFH","either","4","","","","","","","0","0","1","","0.2316759231","0.6","0.8","0.4","0.2","0.4457519602","0.06067733924","0.2316759231","0.3155724737","","","","","","","","","","","75","K","2","","","94","main_expt"
"198","","bandit","173","641184","0.0-134.0-0.0","13043210","wem/bandit_either","A1ALBJU1XOKYFH","either","4","","","","","","","1","0","0","0.4231248902","","0.6","0.8","0.4","0.2","","","","","0.4231248902","0.08632751489","0.2231756969","0.3519625041","","","","","","","72","H","0","img/none_selected.jpg","","95","main_expt"
"238","","bandit","174","642935","0.0-135.0-0.0","13043210","wem/bandit_either","A1ALBJU1XOKYFH","either","4","","","","","","","1","0","0","0.4210676831","","0.6","0.8","0.4","0.2","","","","","0.4210676831","0.08481729553","0.1957128212","0.3661455107","","","","","","","72","H","0","img/none_selected.jpg","","96","main_expt"
"439","","bandit","175","644888","0.0-136.0-0.0","13043210","wem/bandit_either","A1ALBJU1XOKYFH","either","4","","","","","","","1","0","0","0.4022895305","","0.6","0.8","0.4","0.2","","","","","0.4022895305","0.08386440452","0.1638116915","0.3558031673","","","","","","","72","H","0","img/none_selected.jpg","","97","main_expt"
"350","","bandit","176","646751","0.0-137.0-0.0","13043210","wem/bandit_either","A1ALBJU1XOKYFH","either","4","","","","","","","0","1","0","","0.4187351015","0.6","0.8","0.4","0.2","0.4187351015","0.0940701929","0.1405816365","0.3558230887","","","","","","","","","","","72","H","0","img/none_selected.jpg","","98","main_expt"
"327","","bandit","177","648592","0.0-138.0-0.0","13043210","wem/bandit_either","A1ALBJU1XOKYFH","either","4","","","","","","","1","0","0","0.3981340028","","0.6","0.8","0.4","0.2","","","","","0.3981340028","0.1285058524","0.1435678602","0.3064708089","","","","","","","72","H","0","img/none_selected.jpg","","99","main_expt"
"294","","bandit","178","650400","0.0-139.0-0.0","13043210","wem/bandit_either","A1ALBJU1XOKYFH","either","4","","","","","","","0","0","1","","0.3520446815","0.6","0.8","0.4","0.2","0.3520446815","0.065882019","0.1478754355","0.352498313","","","","","","","","","","","72","H","0","img/none_selected.jpg","","100","main_expt"
"190","","bandit","179","652103","0.0-140.0-0.0","13043210","wem/bandit_either","A1ALBJU1XOKYFH","either","4","","","","","","","0","0","1","0.3715523215","","0.6","0.8","0.4","0.2","","","","","0.3715523215","0.05692140794","0.1532559328","0.3511810171","","","","","","","72","H","0","img/none_selected.jpg","","101","main_expt"
"286","","bandit","180","653903","0.0-141.0-0.0","13043210","wem/bandit_either","A1ALBJU1XOKYFH","either","4","","","","","","","0","1","0","","0.3966955113","0.6","0.8","0.4","0.2","0.3966955113","0.04322280369","0.15857411","0.3246867477","","","","","","","","","","","72","H","0","img/none_selected.jpg","","102","main_expt"
"318","","bandit","181","655736","0.0-142.0-0.0","13043210","wem/bandit_either","A1ALBJU1XOKYFH","either","4","","","","","","","1","0","0","0.3865714765","","0.6","0.8","0.4","0.2","","","","","0.3865714765","0.05121437093","0.1552377357","0.2827689756","","","","","","","72","H","0","img/none_selected.jpg","","103","main_expt"
"278","","bandit","182","657528","0.0-143.0-0.0","13043210","wem/bandit_either","A1ALBJU1XOKYFH","either","4","","","","","","","0","0","1","","0.3440646931","0.6","0.8","0.4","0.2","0.3440646931","0.06548077564","0.1584193753","0.3307995119","","","","","","","","","","","72","H","0","img/none_selected.jpg","","104","main_expt"
"230","","bandit","183","659271","0.0-144.0-0.0","13043210","wem/bandit_either","A1ALBJU1XOKYFH","either","4","","","","","","","0","0","1","","0.330981063","0.6","0.8","0.4","0.2","0.330981063","0.07577357845","0.192058402","0.3078297571","","","","","","","","","","","72","H","0","img/none_selected.jpg","","105","main_expt"
"286","","bandit","184","661072","0.0-145.0-0.0","13043210","wem/bandit_either","A1ALBJU1XOKYFH","either","4","","","","","","","0","0","1","0.3317280627","","0.6","0.8","0.4","0.2","","","","","0.3317280627","0.09041352565","0.1562344916","0.3202685942","","","","","","","72","H","0","img/none_selected.jpg","","106","main_expt"
"239","","bandit","185","662824","0.0-146.0-0.0","13043210","wem/bandit_either","A1ALBJU1XOKYFH","either","4","","","","","","","0","1","0","","0.2760665195","0.6","0.8","0.4","0.2","0.2760665195","0.1184921167","0.1493116313","0.3163418234","","","","","","","","","","","72","H","0","img/none_selected.jpg","","107","main_expt"
"325","","bandit","186","664664","0.0-147.0-0.0","13043210","wem/bandit_either","A1ALBJU1XOKYFH","either","4","","","","","","","1","0","0","0.2826301941","","0.6","0.8","0.4","0.2","","","","","0.2826301941","0.1057615429","0.1357435498","0.3425943818","","","","","","","72","H","0","img/none_selected.jpg","","108","main_expt"
"301","","bandit","187","666480","0.0-148.0-0.0","13043210","wem/bandit_either","A1ALBJU1XOKYFH","either","4","","","","","","","0","0","1","","0.318117281","0.6","0.8","0.4","0.2","0.318117281","0.1464484126","0.1164074326","0.2852030557","","","","","","","","","","","72","H","0","img/none_selected.jpg","","109","main_expt"
"205","","bandit","188","668200","0.0-149.0-0.0","13043210","wem/bandit_either","A1ALBJU1XOKYFH","either","4","","","","","","","0","0","1","0.3358587519","","0.6","0.8","0.4","0.2","","","","","0.3358587519","0.1641354829","0.1444451916","0.3392406975","","","","","","","72","H","0","img/none_selected.jpg","","110","main_expt"
"293","","bandit","189","670007","0.0-150.0-0.0","13043210","wem/bandit_either","A1ALBJU1XOKYFH","either","4","","","","","","","0","0","1","0.3031660534","","0.6","0.8","0.4","0.2","","","","","0.3031660534","0.1386891192","0.09905323685","0.3023411017","","","","","","","72","H","0","img/none_selected.jpg","","111","main_expt"
"285","","bandit","190","671808","0.0-151.0-0.0","13043210","wem/bandit_either","A1ALBJU1XOKYFH","either","4","","","","","","","0","0","1","","0.2773548355","0.6","0.8","0.4","0.2","0.2773548355","0.1847512065","0.09652445584","0.296849772","","","","","","","","","","","72","H","0","img/none_selected.jpg","","112","main_expt"
"197","","bandit","191","673521","0.0-152.0-0.0","13043210","wem/bandit_either","A1ALBJU1XOKYFH","either","4","","","","","","","0","0","1","","0.2370758425","0.6","0.8","0.4","0.2","0.2370758425","0.1304555333","0.09961189632","0.2673419259","","","","","","","","","","","72","H","0","img/none_selected.jpg","","113","main_expt"
"157","","bandit","192","675191","0.0-153.0-0.0","13043210","wem/bandit_either","A1ALBJU1XOKYFH","either","4","","","","","","","0","0","1","","0.1770102637","0.6","0.8","0.4","0.2","0.1821928837","0.1770102637","0.1036139638","0.2670531803","","","","","","","","","","","74","J","1","","","114","main_expt"
"38","","bandit","193","676744","0.0-154.0-0.0","13043210","wem/bandit_either","A1ALBJU1XOKYFH","either","4","","","","","","","0","0","1","","0.0968506792","0.6","0.8","0.4","0.2","0.1315453283","0.1564651975","0.0968506792","0.2825009356","","","","","","","","","","","75","K","2","","","115","main_expt"
"22","","bandit","194","678278","0.0-155.0-0.0","13043210","wem/bandit_either","A1ALBJU1XOKYFH","either","4","","","","","","","0","1","0","","0.3237719372","0.6","0.8","0.4","0.2","0.1102777544","0.1665702367","0.08782875681","0.3237719372","","","","","","","","","","","76","L","3","","","116","main_expt"
"111","","bandit","195","679903","0.0-156.0-0.0","13043210","wem/bandit_either","A1ALBJU1XOKYFH","either","4","","","","","","","0","1","0","","0.3154846423","0.6","0.8","0.4","0.2","0.1101610351","0.1530687496","0.06031800864","0.3154846423","","","","","","","","","","","76","L","3","","","117","main_expt"
"246","","bandit","196","681663","0.0-157.0-0.0","13043210","wem/bandit_either","A1ALBJU1XOKYFH","either","4","","","","","","","0","1","0","","0.2584508078","0.6","0.8","0.4","0.2","0.122460482","0.1674206906","0.05633053331","0.2584508078","","","","","","","","","","","76","L","3","","","118","main_expt"
"311","","bandit","197","683487","0.0-158.0-0.0","13043210","wem/bandit_either","A1ALBJU1XOKYFH","either","4","","","","","","","0","0","1","","0.2141905193","0.6","0.8","0.4","0.2","0.1451868924","0.1990215448","0.07530514027","0.2141905193","","","","","","","","","","","76","L","3","","","119","main_expt"
"246","","bandit","198","685247","0.0-159.0-0.0","13043210","wem/bandit_either","A1ALBJU1XOKYFH","either","4","","","","","","","0","0","1","","0.2341954374","0.6","0.8","0.4","0.2","0.09092593383","0.2208640619","0.09639595661","0.2341954374","","","","","","","","","","","76","L","3","","","120","main_expt"
"198","","bandit","199","686960","0.0-160.0-0.0","13043210","wem/bandit_either","A1ALBJU1XOKYFH","either","4","","","","","","","0","0","1","","0.1886372651","0.6","0.8","0.4","0.2","0.1080456108","0.2602917539","0.1421799471","0.1886372651","","","","","","","","","","","76","L","3","","","121","main_expt"
"277","","bandit","200","688751","0.0-161.0-0.0","13043210","wem/bandit_either","A1ALBJU1XOKYFH","either","4","","","","","","","0","0","1","0.1624760489","","0.6","0.8","0.4","0.2","","","","","0.1169053248","0.2512498235","0.1624760489","0.1597592322","","","","","","","75","K","2","","","122","main_expt"
"277","","bandit","201","690543","0.0-162.0-0.0","13043210","wem/bandit_either","A1ALBJU1XOKYFH","either","4","","","","","","","0","0","1","0.2266242761","","0.6","0.8","0.4","0.2","","","","","0.1571594809","0.2266242761","0.1640214383","0.1895266442","","","","","","","74","J","1","","","123","main_expt"
"325","","bandit","202","692384","0.0-163.0-0.0","13043210","wem/bandit_either","A1ALBJU1XOKYFH","either","4","","","","","","","0","0","1","0.2231804049","","0.6","0.8","0.4","0.2","","","","","0.2231804049","0.2373824638","0.2014340991","0.2042850732","","","","","","","72","H","0","img/none_selected.jpg","","124","main_expt"
"308","","bandit","203","694208","0.0-164.0-0.0","13043210","wem/bandit_either","A1ALBJU1XOKYFH","either","4","","","","","","","0","0","1","","0.1812515389","0.6","0.8","0.4","0.2","0.2232794356","0.2538727107","0.2229229076","0.1812515389","","","","","","","","","","","76","L","3","","","125","main_expt"
"253","","bandit","204","695975","0.0-165.0-0.0","13043210","wem/bandit_either","A1ALBJU1XOKYFH","either","4","","","","","","","0","0","1","0.2324712723","","0.6","0.8","0.4","0.2","","","","","0.2316903634","0.290219491","0.2324712723","0.1694736183","","","","","","","75","K","2","","","126","main_expt"
"222","","bandit","205","697712","0.0-166.0-0.0","13043210","wem/bandit_either","A1ALBJU1XOKYFH","either","4","","","","","","","0","0","1","0.2542505169","","0.6","0.8","0.4","0.2","","","","","0.2337524142","0.2542505169","0.2628391623","0.1624528765","","","","","","","74","J","1","","","127","main_expt"
"157","","bandit","206","699383","0.0-167.0-0.0","13043210","wem/bandit_either","A1ALBJU1XOKYFH","either","4","","","","","","","0","0","1","","0.2198210178","0.6","0.8","0.4","0.2","0.2198210178","0.2582316027","0.2654356302","0.1632982916","","","","","","","","","","","72","H","0","img/none_selected.jpg","","128","main_expt"
"157","","bandit","207","701056","0.0-168.0-0.0","13043210","wem/bandit_either","A1ALBJU1XOKYFH","either","4","","","","","","","0","1","0","","0.2280168395","0.6","0.8","0.4","0.2","0.2280168395","0.3267566011","0.2070569149","0.2264598068","","","","","","","","","","","72","H","0","img/none_selected.jpg","","129","main_expt"
"108","","bandit","208","702679","0.0-169.0-0.0","13043210","wem/bandit_either","A1ALBJU1XOKYFH","either","4","","","","","","","1","0","0","0.243895296","","0.6","0.8","0.4","0.2","","","","","0.243895296","0.3323271388","0.2579182239","0.202760285","","","","","","","72","H","0","img/none_selected.jpg","","130","main_expt"
"198","","bandit","209","704390","0.0-170.0-0.0","13043210","wem/bandit_either","A1ALBJU1XOKYFH","either","4","","","","","","","1","0","0","0.2164454501","","0.6","0.8","0.4","0.2","","","","","0.2164454501","0.2666668646","0.2329110821","0.1585094705","","","","","","","72","H","0","img/none_selected.jpg","","131","main_expt"
"366","","bandit","210","706271","0.0-171.0-0.0","13043210","wem/bandit_either","A1ALBJU1XOKYFH","either","4","","","","","","","0","0","1","0.200468731","","0.6","0.8","0.4","0.2","","","","","0.200468731","0.2359119393","0.2400232435","0.1304261544","","","","","","","72","H","0","img/none_selected.jpg","","132","main_expt"
"293","","bandit","211","708079","0.0-172.0-0.0","13043210","wem/bandit_either","A1ALBJU1XOKYFH","either","4","","","","","","","0","0","1","","0.2038597077","0.6","0.8","0.4","0.2","0.2038597077","0.2540740643","0.2084798617","0.09339990826","","","","","","","","","","","72","H","0","img/none_selected.jpg","","133","main_expt"
"310","","bandit","212","709904","0.0-173.0-0.0","13043210","wem/bandit_either","A1ALBJU1XOKYFH","either","4","","","","","","","0","0","1","0.2263269307","","0.6","0.8","0.4","0.2","","","","","0.2263269307","0.2414927735","0.2034544","0.08524612959","","","","","","","72","H","0","img/none_selected.jpg","","134","main_expt"
"269","","bandit","213","711688","0.0-174.0-0.0","13043210","wem/bandit_either","A1ALBJU1XOKYFH","either","4","","","","","","","1","0","0","0.2632369982","","0.6","0.8","0.4","0.2","","","","","0.2686469146","0.2632369982","0.2088958693","0.0622033461","","","","","","","74","J","1","","","135","main_expt"
"196","","bandit","214","713400","0.0-175.0-0.0","13043210","wem/bandit_either","A1ALBJU1XOKYFH","either","4","","","","","","","1","0","0","0.3032623762","","0.6","0.8","0.4","0.2","","","","","0.3170393738","0.3032623762","0.2573758916","0.05632890875","","","","","","","74","J","1","","","136","main_expt"
"317","","bandit","215","715232","0.0-176.0-0.0","13043210","wem/bandit_either","A1ALBJU1XOKYFH","either","4","","","","","","","0","0","1","0.2984046037","","0.6","0.8","0.4","0.2","","","","","0.338962466","0.2984046037","0.2467438462","0.06052980877","","","","","","","74","J","1","","","137","main_expt"
"180","","bandit","216","716927","0.0-177.0-0.0","13043210","wem/bandit_either","A1ALBJU1XOKYFH","either","4","","","","","","","0","0","1","0.3110629865","","0.6","0.8","0.4","0.2","","","","","0.3586643031","0.3110629865","0.2221944767","0.1038497792","","","","","","","74","J","1","","","138","main_expt"
"149","","bandit","217","718592","0.0-178.0-0.0","13043210","wem/bandit_either","A1ALBJU1XOKYFH","either","4","","","","","","","0","1","0","","0.3048373826","0.6","0.8","0.4","0.2","0.3430902759","0.3048373826","0.2750517365","0.08561062373","","","","","","","","","","","74","J","1","","","139","main_expt"
"213","","bandit","218","720319","0.0-179.0-0.0","13043210","wem/bandit_either","A1ALBJU1XOKYFH","either","4","","","","","","","0","0","1","","0.3163642845","0.6","0.8","0.4","0.2","0.3777112835","0.3163642845","0.277474309","0.08025295029","","","","","","","","","","","74","J","1","","","140","main_expt"
"2","","bandit","219","721836","0.0-180.0-0.0","13043210","wem/bandit_either","A1ALBJU1XOKYFH","either","4","","","","","","","0","0","1","0.2213861514","","0.6","0.8","0.4","0.2","","","","","0.4276051364","0.2213861514","0.2932007391","0.09309891757","","","","","","","74","J","1","","","141","main_expt"
"704","","bandit","220","724056","0.0-181.0-0.0","13043210","wem/bandit_either","A1ALBJU1XOKYFH","either","4","","","","","","","0","0","1","0.2492613222","","0.6","0.8","0.4","0.2","","","","","0.4312347149","0.2492613222","0.3001807938","0.1107976638","","","","","","","74","J","1","","","142","main_expt"
"284","","bandit","221","725856","0.0-182.0-0.0","13043210","wem/bandit_either","A1ALBJU1XOKYFH","either","4","","","","","","","1","0","0","0.3640878437","","0.6","0.8","0.4","0.2","","","","","0.386657586","0.2645663874","0.3640878437","0.09575525052","","","","","","","75","K","2","","","143","main_expt"
"252","","bandit","222","727623","0.0-183.0-0.0","13043210","wem/bandit_either","A1ALBJU1XOKYFH","either","4","","","","","","","0","0","1","","0.2706796495","0.6","0.8","0.4","0.2","0.3409851627","0.2928215939","0.2706796495","0.07222794989","","","","","","","","","","","75","K","2","","","144","main_expt"
"245","","bandit","223","729384","0.0-184.0-0.0","13043210","wem/bandit_either","A1ALBJU1XOKYFH","either","4","","","","","","","0","0","1","0.2359726437","","0.6","0.8","0.4","0.2","","","","","0.3538709708","0.3178979655","0.2359726437","0.03203798906","","","","","","","75","K","2","","","145","main_expt"
"219","","bandit","224","731120","0.0-185.0-0.0","13043210","wem/bandit_either","A1ALBJU1XOKYFH","either","4","","","","","","","0","0","1","","0.2200332621","0.6","0.8","0.4","0.2","0.2745956728","0.2850957273","0.2200332621","0.03073079809","","","","","","","","","","","75","K","2","","","146","main_expt"
"172","","bandit","225","732808","0.0-186.0-0.0","13043210","wem/bandit_either","A1ALBJU1XOKYFH","either","4","","","","","","","0","0","1","0.05105424151","","0.6","0.8","0.4","0.2","","","","","0.2375793476","0.2483519338","0.1957794229","0.05105424151","","","","","","","76","L","3","","","147","main_expt"
"116","","bandit","226","734440","0.0-187.0-0.0","13043210","wem/bandit_either","A1ALBJU1XOKYFH","either","4","","","","","","","0","0","1","","0.04045355104","0.6","0.8","0.4","0.2","0.2954602587","0.2309770791","0.1790722045","0.04045355104","","","","","","","","","","","76","L","3","","","148","main_expt"
"236","","bandit","227","736192","0.0-188.0-0.0","13043210","wem/bandit_either","A1ALBJU1XOKYFH","either","4","","","","","","","0","0","1","","0.06416506337","0.6","0.8","0.4","0.2","0.3435099865","0.1759049641","0.2189150546","0.06416506337","","","","","","","","","","","76","L","3","","","149","main_expt"
"308","","bandit","228","738016","0.0-189.0-0.0","13043210","wem/bandit_either","A1ALBJU1XOKYFH","either","4","","","","","","","0","0","1","","0.268900415","0.6","0.8","0.4","0.2","0.268900415","0.1910702346","0.2119229637","0.07819388902","","","","","","","","","","","72","H","0","img/none_selected.jpg","","150","main_expt"
"300","","bandit","229","739831","0.0-190.0-0.0","13043210","wem/bandit_either","A1ALBJU1XOKYFH","either","4","","","","","","","0","0","1","0.2326488896","","0.6","0.8","0.4","0.2","","","","","0.2326488896","0.1799178466","0.2472398003","0.1186979887","","","","","","","72","H","0","img/none_selected.jpg","","151","main_expt"
"349","","bandit","230","741696","0.0-191.0-0.0","13043210","wem/bandit_either","A1ALBJU1XOKYFH","either","4","","","","","","","0","0","1","","0.2768057641","0.6","0.8","0.4","0.2","0.2768057641","0.1826140084","0.2148428051","0.1084773402","","","","","","","","","","","72","H","0","img/none_selected.jpg","","152","main_expt"
"164","","bandit","231","743375","0.0-192.0-0.0","13043210","wem/bandit_either","A1ALBJU1XOKYFH","either","4","","","","","","","1","0","0","0.147924298","","0.6","0.8","0.4","0.2","","","","","0.2997660112","0.147924298","0.1598057249","0.1314289417","","","","","","","74","J","1","","","153","main_expt"
"141","","bandit","232","745031","0.0-193.0-0.0","13043210","wem/bandit_either","A1ALBJU1XOKYFH","either","4","","","","","","","0","0","1","0.1388357139","","0.6","0.8","0.4","0.2","","","","","0.3196464983","0.1388357139","0.1489099923","0.1354051011","","","","","","","74","J","1","","","154","main_expt"
"269","","bandit","233","746816","0.0-194.0-0.0","13043210","wem/bandit_either","A1ALBJU1XOKYFH","either","4","","","","","","","1","0","0","0.1658398244","","0.6","0.8","0.4","0.2","","","","","0.3141654429","0.1658398244","0.1502541116","0.1085215933","","","","","","","74","J","1","","","155","main_expt"
"340","","bandit","234","748671","0.0-195.0-0.0","13043210","wem/bandit_either","A1ALBJU1XOKYFH","either","4","","","","","","","0","0","1","0.1104921729","","0.6","0.8","0.4","0.2","","","","","0.2667217688","0.1104921729","0.1605084188","0.1383379057","","","","","","","74","J","1","","","156","main_expt"
"340","","bandit","235","750527","0.0-196.0-0.0","13043210","wem/bandit_either","A1ALBJU1XOKYFH","either","4","","","","","","","0","0","1","0.09530810267","","0.6","0.8","0.4","0.2","","","","","0.2867075714","0.09530810267","0.1684101418","0.1428990181","","","","","","","74","J","1","","","157","main_expt"
"300","","bandit","236","752344","0.0-197.0-0.0","13043210","wem/bandit_either","A1ALBJU1XOKYFH","either","4","","","","","","","0","0","1","0.1211627972","","0.6","0.8","0.4","0.2","","","","","0.2788639118","0.1211627972","0.1807688322","0.07455979893","","","","","","","74","J","1","","","158","main_expt"
"492","","bandit","237","754351","0.0-198.0-0.0","13043210","wem/bandit_either","A1ALBJU1XOKYFH","either","4","","","","","","","0","0","1","","0.3020710819","0.6","0.8","0.4","0.2","0.3020710819","0.1012897464","0.1516426412","0.1009372764","","","","","","","","","","","72","H","0","img/none_selected.jpg","","159","main_expt"
"284","","bandit","238","756152","0.0-199.0-0.0","13043210","wem/bandit_either","A1ALBJU1XOKYFH","either","4","","","","","","","0","0","1","","0.1638698877","0.6","0.8","0.4","0.2","0.3404227007","0.1188035868","0.1638698877","0.05118862797","","","","","","","","","","","75","K","2","","","160","main_expt"
"259","","bandit","239","757928","0.0-200.0-0.0","13043210","wem/bandit_either","A1ALBJU1XOKYFH","either","4","","","","","","","0","0","1","","0.05265847637","0.6","0.8","0.4","0.2","0.2876249865","0.1606836622","0.1645359983","0.05265847637","","","","","","","","","","","76","L","3","","","161","main_expt"
"212","","bandit","240","759655","0.0-201.0-0.0","13043210","wem/bandit_either","A1ALBJU1XOKYFH","either","4","","","","","","","0","0","1","0.1859884171","","0.6","0.8","0.4","0.2","","","","","0.2401308511","0.1859884171","0.2509918509","0.07938684611","","","","","","","74","J","1","","","162","main_expt"
"188","","bandit","241","761359","0.0-202.0-0.0","13043210","wem/bandit_either","A1ALBJU1XOKYFH","either","4","","","","","","","0","1","0","","0.1883685458","0.6","0.8","0.4","0.2","0.2486605046","0.2528258464","0.1883685458","0.0970900163","","","","","","","","","","","75","K","2","","","163","main_expt"
"309","","bandit","242","763184","0.0-203.0-0.0","13043210","wem/bandit_either","A1ALBJU1XOKYFH","either","4","","","","","","","0","0","1","","0.2179532334","0.6","0.8","0.4","0.2","0.22675384","0.2515292425","0.2179532334","0.07401968201","","","","","","","","","","","75","K","2","","","164","main_expt"
"260","","bandit","243","764959","0.0-204.0-0.0","13043210","wem/bandit_either","A1ALBJU1XOKYFH","either","4","","","","","","","0","0","1","","0.2143704678","0.6","0.8","0.4","0.2","0.2841151948","0.2068970429","0.2143704678","0.06633104104","","","","","","","","","","","75","K","2","","","165","main_expt"
"716","","bandit","244","767191","0.0-205.0-0.0","13043210","wem/bandit_either","A1ALBJU1XOKYFH","either","4","","","","","","","1","0","0","0.2175899085","","0.6","0.8","0.4","0.2","","","","","0.2842980464","0.1413778631","0.2175899085","0.05309652092","","","","","","","75","K","2","","","166","main_expt"
"564","","bandit","245","769272","0.0-206.0-0.0","13043210","wem/bandit_either","A1ALBJU1XOKYFH","either","4","","","","","","","0","0","1","","0.2137120923","0.6","0.8","0.4","0.2","0.3007590714","0.1999497975","0.2137120923","0.07357446968","","","","","","","","","","","75","K","2","","","167","main_expt"
"571","","bandit","246","771359","0.0-207.0-0.0","13043210","wem/bandit_either","A1ALBJU1XOKYFH","either","4","","","","","","","0","0","1","0.2331560811","","0.6","0.8","0.4","0.2","","","","","0.2884936601","0.1696145944","0.2331560811","0.1054325378","","","","","","","75","K","2","","","168","main_expt"
"733","","bandit","247","773608","0.0-208.0-0.0","13043210","wem/bandit_either","A1ALBJU1XOKYFH","either","4","","","","","","","0","0","1","0.2367963754","","0.6","0.8","0.4","0.2","","","","","0.2803439438","0.1338518967","0.2367963754","0.08536867429","","","","","","","75","K","2","","","169","main_expt"
"363","","bandit","248","775488","0.0-209.0-0.0","13043210","wem/bandit_either","A1ALBJU1XOKYFH","either","4","","","","","","","0","1","0","","0.1083432756","0.6","0.8","0.4","0.2","0.3010437192","0.1307598277","0.2378050175","0.1083432756","","","","","","","","","","","76","L","3","","","170","main_expt"
"84","","bandit","249","777087","0.0-210.0-0.0","13043210","wem/bandit_either","A1ALBJU1XOKYFH","either","4","","","","","","","0","0","1","","0.09185370626","0.6","0.8","0.4","0.2","0.3243802095","0.1200375331","0.2253696972","0.09185370626","","","","","","","","","","","76","L","3","","","171","main_expt"
"244","","bandit","250","778848","0.0-211.0-0.0","13043210","wem/bandit_either","A1ALBJU1XOKYFH","either","4","","","","","","","0","0","1","","0.09458096772","0.6","0.8","0.4","0.2","0.3140094691","0.07514546963","0.2903394368","0.09458096772","","","","","","","","","","","76","L","3","","","172","main_expt"
"211","","bandit","251","780575","0.0-212.0-0.0","13043210","wem/bandit_either","A1ALBJU1XOKYFH","either","4","","","","","","","0","0","1","","0.2384828248","0.6","0.8","0.4","0.2","0.2433770114","0.07704486673","0.2384828248","0.1016296913","","","","","","","","","","","75","K","2","","","173","main_expt"
"236","","bandit","252","782327","0.0-213.0-0.0","13043210","wem/bandit_either","A1ALBJU1XOKYFH","either","4","","","","","","","0","0","1","0.04061738922","","0.6","0.8","0.4","0.2","","","","","0.2080779891","0.04061738922","0.2823111034","0.117107939","","","","","","","74","J","1","","","174","main_expt"
"37","","bandit","253","783879","0.0-214.0-0.0","13043210","wem/bandit_either","A1ALBJU1XOKYFH","either","4","","","","","","","0","0","1","0.2211365803","","0.6","0.8","0.4","0.2","","","","","0.2211365803","0.02968316822","0.292147578","0.1254773658","","","","","","","72","H","0","img/none_selected.jpg","","175","main_expt"
"244","","bandit","254","785639","0.0-215.0-0.0","13043210","wem/bandit_either","A1ALBJU1XOKYFH","either","4","","","","","","","0","0","1","","0.231280906","0.6","0.8","0.4","0.2","0.231280906","0.04419366322","0.2928295457","0.1518856622","","","","","","","","","","","72","H","0","img/none_selected.jpg","","176","main_expt"
"164","","bandit","255","787319","0.0-216.0-0.0","13043210","wem/bandit_either","A1ALBJU1XOKYFH","either","4","","","","","","","0","0","1","0.04140429262","","0.6","0.8","0.4","0.2","","","","","0.1689881391","0.04140429262","0.297241693","0.1502483312","","","","","","","74","J","1","","","177","main_expt"
"75","","bandit","256","788912","0.0-217.0-0.0","13043210","wem/bandit_either","A1ALBJU1XOKYFH","either","4","","","","","","","0","0","1","","0.276241128","0.6","0.8","0.4","0.2","0.1699404395","0.06103489621","0.276241128","0.2073149786","","","","","","","","","","","75","K","2","","","178","main_expt"
"131","","bandit","257","790559","0.0-218.0-0.0","13043210","wem/bandit_either","A1ALBJU1XOKYFH","either","4","","","","","","","0","0","1","","0.1928578162","0.6","0.8","0.4","0.2","0.1571972967","0.053608248","0.2405339857","0.1928578162","","","","","","","","","","","76","L","3","","","179","main_expt"
"196","","bandit","258","792272","0.0-219.0-0.0","13043210","wem/bandit_either","A1ALBJU1XOKYFH","either","4","","","","","","","0","0","1","","0.233428307","0.6","0.8","0.4","0.2","0.1567782565","0.06289379635","0.233428307","0.1412953234","","","","","","","","","","","75","K","2","","","180","main_expt"
"59","","bandit","259","793848","0.0-220.0-0.0","13043210","wem/bandit_either","A1ALBJU1XOKYFH","either","4","","","","","","","0","0","1","0.07748386732","","0.6","0.8","0.4","0.2","","","","","0.1492691696","0.07748386732","0.1459310114","0.1258774719","","","","","","","74","J","1","","","181","main_expt"
"83","","bandit","260","795447","0.0-221.0-0.0","13043210","wem/bandit_either","A1ALBJU1XOKYFH","either","4","","","","","","","0","0","1","","0.1609613705","0.6","0.8","0.4","0.2","0.1609613705","0.096714051","0.1796360657","0.1121960069","","","","","","","","","","","72","H","0","img/none_selected.jpg","","182","main_expt"
"4","","bandit","261","796968","0.0-222.0-0.0","13043210","wem/bandit_either","A1ALBJU1XOKYFH","either","4","","","","","","","0","0","1","","0.08335286121","0.6","0.8","0.4","0.2","0.1982891881","0.05351369794","0.1907874973","0.08335286121","","","","","","","","","","","76","L","3","","","183","main_expt"
"299","","bandit","262","798783","0.0-223.0-0.0","13043210","wem/bandit_either","A1ALBJU1XOKYFH","either","4","","","","","","","0","0","1","0.1703318442","","0.6","0.8","0.4","0.2","","","","","0.1703318442","0.08854511538","0.1451627339","0.1085923678","","","","","","","72","H","0","img/none_selected.jpg","","184","main_expt"
"59","","bandit","263","800359","0.0-224.0-0.0","13043210","wem/bandit_either","A1ALBJU1XOKYFH","either","4","","","","","","","0","0","1","","0.1692531577","0.6","0.8","0.4","0.2","0.09566746086","0.136385666","0.1692531577","0.1113654269","","","","","","","","","","","75","K","2","","","185","main_expt"
"316","","bandit","264","802192","0.0-225.0-0.0","13043210","wem/bandit_either","A1ALBJU1XOKYFH","either","4","","","","","","","0","0","1","0.1848043888","","0.6","0.8","0.4","0.2","","","","","0.1254261761","0.1848043888","0.1885113298","0.1383531569","","","","","","","74","J","1","","","186","main_expt"
"147","","bandit","265","803855","0.0-226.0-0.0","13043210","wem/bandit_either","A1ALBJU1XOKYFH","either","4","","","","","","","0","0","1","","0.1640989128","0.6","0.8","0.4","0.2","0.1081798115","0.1640989128","0.2088125345","0.1739713275","","","","","","","","","","","74","J","1","","","187","main_expt"
"171","","bandit","266","805543","0.0-227.0-0.0","13043210","wem/bandit_either","A1ALBJU1XOKYFH","either","4","","","","","","","0","0","1","","0.1926366302","0.6","0.8","0.4","0.2","0.08529062399","0.1301402021","0.2228369986","0.1926366302","","","","","","","","","","","76","L","3","","","188","main_expt"
"44","","bandit","267","807104","0.0-228.0-0.0","13043210","wem/bandit_either","A1ALBJU1XOKYFH","either","4","","","","","","","0","0","1","","0.2567428292","0.6","0.8","0.4","0.2","0.07250281893","0.1980942663","0.2567428292","0.2499935398","","","","","","","","","","","75","K","2","","","189","main_expt"
"59","","bandit","268","808679","0.0-229.0-0.0","13043210","wem/bandit_either","A1ALBJU1XOKYFH","either","4","","","","","","","0","0","1","","0.3177850294","0.6","0.8","0.4","0.2","0.07895395147","0.1842725295","0.3177850294","0.2367317824","","","","","","","","","","","75","K","2","","","190","main_expt"
"227","","bandit","269","810424","0.0-230.0-0.0","13043210","wem/bandit_either","A1ALBJU1XOKYFH","either","4","","","","","","","0","0","1","0.06204701637","","0.6","0.8","0.4","0.2","","","","","0.06204701637","0.2087081259","0.2876912335","0.2515026666","","","","","","","72","H","0","img/none_selected.jpg","","191","main_expt"
"235","","bandit","270","812176","0.0-231.0-0.0","13043210","wem/bandit_either","A1ALBJU1XOKYFH","either","4","","","","","","","0","0","1","0.064067899","","0.6","0.8","0.4","0.2","","","","","0.064067899","0.1800110976","0.2383873749","0.2451916405","","","","","","","72","H","0","img/none_selected.jpg","","192","main_expt"
"163","","bandit","271","813856","0.0-232.0-0.0","13043210","wem/bandit_either","A1ALBJU1XOKYFH","either","4","","","","","","","0","0","1","0.1519186298","","0.6","0.8","0.4","0.2","","","","","0.1286650472","0.1519186298","0.24690957","0.2353451433","","","","","","","74","J","1","","","193","main_expt"
"258","","bandit","272","815640","0.0-233.0-0.0","13043210","wem/bandit_either","A1ALBJU1XOKYFH","either","4","","","","","","","0","0","1","0.1431656489","","0.6","0.8","0.4","0.2","","","","","0.1746490116","0.1431656489","0.2728455101","0.307075739","","","","","","","74","J","1","","","194","main_expt"
"43","","bandit","273","817199","0.0-234.0-0.0","13043210","wem/bandit_either","A1ALBJU1XOKYFH","either","4","","","","","","","0","0","1","","0.2421292151","0.6","0.8","0.4","0.2","0.129035247","0.1868251083","0.2421292151","0.3011001907","","","","","","","","","","","75","K","2","","","195","main_expt"
"259","","bandit","274","818975","0.0-235.0-0.0","13043210","wem/bandit_either","A1ALBJU1XOKYFH","either","4","","","","","","","0","0","1","","0.2598052724","0.6","0.8","0.4","0.2","0.09052040682","0.176624335","0.2598052724","0.2861216794","","","","","","","","","","","75","K","2","","","196","main_expt"
"100","","bandit","275","820592","0.0-236.0-0.0","13043210","wem/bandit_either","A1ALBJU1XOKYFH","either","4","","","","","","","0","0","1","","0.2121549007","0.6","0.8","0.4","0.2","0.08675464884","0.2383323772","0.2540930088","0.2121549007","","","","","","","","","","","76","L","3","","","197","main_expt"
"203","","bandit","276","822311","0.0-237.0-0.0","13043210","wem/bandit_either","A1ALBJU1XOKYFH","either","4","","","","","","","0","0","1","","0.260340052","0.6","0.8","0.4","0.2","0.09429549835","0.260618614","0.2460150375","0.260340052","","","","","","","","","","","76","L","3","","","198","main_expt"
"179","","bandit","277","824008","0.0-238.0-0.0","13043210","wem/bandit_either","A1ALBJU1XOKYFH","either","4","","","","","","","0","1","0","","0.3009562829","0.6","0.8","0.4","0.2","0.09303778716","0.2935067364","0.2217343644","0.3009562829","","","","","","","","","","","76","L","3","","","199","main_expt"
"170","","bandit","278","825696","0.0-239.0-0.0","13043210","wem/bandit_either","A1ALBJU1XOKYFH","either","4","","","","","","","0","1","0","","0.3430896668","0.6","0.8","0.4","0.2","0.07354084322","0.362920627","0.2830302048","0.3430896668","","","","","","","","","","","76","L","3","","","200","main_expt"
"75","","bandit","279","827287","0.0-240.0-0.0","13043210","wem/bandit_either","A1ALBJU1XOKYFH","either","4","","","","","","","0","0","1","","0.2973668079","0.6","0.8","0.4","0.2","0.08115367452","0.3119044903","0.3175621279","0.2973668079","","","","","","","","","","","76","L","3","","","201","main_expt"
"107","","bandit","280","828912","0.0-241.0-0.0","13043210","wem/bandit_either","A1ALBJU1XOKYFH","either","4","","","","","","","0","1","0","","0.3219337599","0.6","0.8","0.4","0.2","0.0774842685","0.3095695708","0.3049471546","0.3219337599","","","","","","","","","","","76","L","3","","","202","main_expt"
"187","","bandit","281","830617","0.0-242.0-0.0","13043210","wem/bandit_either","A1ALBJU1XOKYFH","either","4","","","","","","","0","1","0","","0.3229991028","0.6","0.8","0.4","0.2","0.09704724367","0.3005459379","0.2975042969","0.3229991028","","","","","","","","","","","76","L","3","","","203","main_expt"
"217","","bandit","282","832352","0.0-243.0-0.0","13043210","wem/bandit_either","A1ALBJU1XOKYFH","either","4","","","","","","","0","1","0","","0.3077995671","0.6","0.8","0.4","0.2","0.1224111047","0.3116824409","0.2268457719","0.3077995671","","","","","","","","","","","76","L","3","","","204","main_expt"
"282","","bandit","283","834152","0.0-244.0-0.0","13043210","wem/bandit_either","A1ALBJU1XOKYFH","either","4","","","","","","","0","0","1","","0.3070199156","0.6","0.8","0.4","0.2","0.1627664319","0.3291635812","0.2582085449","0.3070199156","","","","","","","","","","","76","L","3","","","205","main_expt"
"162","","bandit","284","835832","0.0-245.0-0.0","13043210","wem/bandit_either","A1ALBJU1XOKYFH","either","4","","","","","","","0","1","0","","0.3109683939","0.6","0.8","0.4","0.2","0.1604236747","0.4008790519","0.2841247045","0.3109683939","","","","","","","","","","","76","L","3","","","206","main_expt"
"131","","bandit","285","837480","0.0-246.0-0.0","13043210","wem/bandit_either","A1ALBJU1XOKYFH","either","4","","","","","","","0","0","1","","0.2845075958","0.6","0.8","0.4","0.2","0.126388554","0.4202180382","0.3333225396","0.2845075958","","","","","","","","","","","76","L","3","","","207","main_expt"
"290","","bandit","286","839288","0.0-247.0-0.0","13043210","wem/bandit_either","A1ALBJU1XOKYFH","either","4","","","","","","","0","1","0","","0.2419557814","0.6","0.8","0.4","0.2","0.1602309633","0.4168586074","0.290219871","0.2419557814","","","","","","","","","","","76","L","3","","","208","main_expt"
"274","","bandit","287","841080","0.0-248.0-0.0","13043210","wem/bandit_either","A1ALBJU1XOKYFH","either","4","","","","","","","0","0","1","","0.2449545816","0.6","0.8","0.4","0.2","0.2009997365","0.3949328033","0.3426384504","0.2449545816","","","","","","","","","","","76","L","3","","","209","main_expt"
"282","","bandit","288","842879","0.0-249.0-0.0","13043210","wem/bandit_either","A1ALBJU1XOKYFH","either","4","","","","","","","0","0","1","0.2176860071","","0.6","0.8","0.4","0.2","","","","","0.1997114924","0.41782505","0.2932754766","0.2176860071","","","","","","","76","L","3","","","210","main_expt"
"283","","bandit","289","844680","0.0-250.0-0.0","13043210","wem/bandit_either","A1ALBJU1XOKYFH","either","4","","","","","","","1","0","0","0.2460847292","","0.6","0.8","0.4","0.2","","","","","0.2631807131","0.4377941382","0.2522206247","0.2460847292","","","","","","","76","L","3","","","211","main_expt"
"298","","bandit","290","846496","0.0-251.0-0.0","13043210","wem/bandit_either","A1ALBJU1XOKYFH","either","4","","","","","","","0","0","1","","0.2017704833","0.6","0.8","0.4","0.2","0.2008991105","0.4619006446","0.2323705111","0.2017704833","","","","","","","","","","","76","L","3","","","212","main_expt"
"154","","bandit","291","848167","0.0-252.0-0.0","13043210","wem/bandit_either","A1ALBJU1XOKYFH","either","4","","","","","","","0","0","1","","0.1891715169","0.6","0.8","0.4","0.2","0.1656487101","0.4508737721","0.2815580385","0.1891715169","","","","","","","","","","","76","L","3","","","213","main_expt"
"291","","bandit","292","849976","0.0-253.0-0.0","13043210","wem/bandit_either","A1ALBJU1XOKYFH","either","4","","","","","","","0","0","1","","0.1819308411","0.6","0.8","0.4","0.2","0.213788386","0.4639731149","0.2955812139","0.1819308411","","","","","","","","","","","76","L","3","","","214","main_expt"
"274","","bandit","293","851768","0.0-254.0-0.0","13043210","wem/bandit_either","A1ALBJU1XOKYFH","either","4","","","","","","","0","0","1","","0.1406935411","0.6","0.8","0.4","0.2","0.2206736926","0.4690757113","0.2988647484","0.1406935411","","","","","","","","","","","76","L","3","","","215","main_expt"
"282","","bandit","294","853567","0.0-255.0-0.0","13043210","wem/bandit_either","A1ALBJU1XOKYFH","either","4","","","","","","","0","1","0","","0.4685680314","0.6","0.8","0.4","0.2","0.2270120675","0.4685680314","0.3361974059","0.206739756","","","","","","","","","","","74","J","1","","","216","main_expt"
"138","","bandit","295","855223","0.0-256.0-0.0","13043210","wem/bandit_either","A1ALBJU1XOKYFH","either","4","","","","","","","0","0","1","","0.4873952874","0.6","0.8","0.4","0.2","0.2561581829","0.4873952874","0.2764506131","0.178624692","","","","","","","","","","","74","J","1","","","217","main_expt"
"283","","bandit","296","857024","0.0-257.0-0.0","13043210","wem/bandit_either","A1ALBJU1XOKYFH","either","4","","","","","","","1","0","0","0.4790671899","","0.6","0.8","0.4","0.2","","","","","0.2785758431","0.4790671899","0.299893698","0.2021641755","","","","","","","74","J","1","","","218","main_expt"
"219","","bandit","297","858760","0.0-258.0-0.0","13043210","wem/bandit_either","A1ALBJU1XOKYFH","either","4","","","","","","","0","1","0","","0.4769795117","0.6","0.8","0.4","0.2","0.2707863597","0.4769795117","0.3213687962","0.2076996705","","","","","","","","","","","74","J","1","","","219","main_expt"
"258","","bandit","298","860535","0.0-259.0-0.0","13043210","wem/bandit_either","A1ALBJU1XOKYFH","either","4","","","","","","","0","0","1","0.4746148145","","0.6","0.8","0.4","0.2","","","","","0.2262269101","0.4746148145","0.3782095139","0.2479045362","","","","","","","74","J","1","","","220","main_expt"
"282","","bandit","299","862336","0.0-260.0-0.0","13043210","wem/bandit_either","A1ALBJU1XOKYFH","either","4","","","","","","","0","0","1","0.4789253058","","0.6","0.8","0.4","0.2","","","","","0.2522421151","0.4789253058","0.3572699546","0.251163546","","","","","","","74","J","1","","","221","main_expt"
"290","","bandit","300","864143","0.0-261.0-0.0","13043210","wem/bandit_either","A1ALBJU1XOKYFH","either","4","","","","","","","1","0","0","0.4765400837","","0.6","0.8","0.4","0.2","","","","","0.2323100388","0.4765400837","0.332217079","0.2653622565","","","","","","","74","J","1","","","222","main_expt"
"298","","bandit","301","865959","0.0-262.0-0.0","13043210","wem/bandit_either","A1ALBJU1XOKYFH","either","4","","","","","","","0","0","1","","0.4872993944","0.6","0.8","0.4","0.2","0.2013525365","0.4872993944","0.3327789551","0.2034578964","","","","","","","","","","","74","J","1","","","223","main_expt"
"266","","bandit","302","867744","0.0-263.0-0.0","13043210","wem/bandit_either","A1ALBJU1XOKYFH","either","4","","","","","","","0","0","1","0.4864577786","","0.6","0.8","0.4","0.2","","","","","0.2017363432","0.4864577786","0.3720138676","0.1176985371","","","","","","","74","J","1","","","224","main_expt"
"490","","bandit","303","869752","0.0-264.0-0.0","13043210","wem/bandit_either","A1ALBJU1XOKYFH","either","4","","","","","","","1","0","0","0.4035982493","","0.6","0.8","0.4","0.2","","","","","0.1608447522","0.4815865163","0.4035982493","0.08531446518","","","","","","","75","K","2","","","225","main_expt"
"170","","bandit","304","871439","0.0-265.0-0.0","13043210","wem/bandit_either","A1ALBJU1XOKYFH","either","4","","","","","","","0","0","1","","0.3538577565","0.6","0.8","0.4","0.2","0.2023183299","0.4781941344","0.3538577565","0.0901010045","","","","","","","","","","","75","K","2","","","226","main_expt"
"139","","bandit","305","873096","0.0-266.0-0.0","13043210","wem/bandit_either","A1ALBJU1XOKYFH","either","4","","","","","","","0","0","1","0.4205879778","","0.6","0.8","0.4","0.2","","","","","0.1555458008","0.4742279627","0.4205879778","0.06499555022","","","","","","","75","K","2","","","227","main_expt"
"298","","bandit","306","874912","0.0-267.0-0.0","13043210","wem/bandit_either","A1ALBJU1XOKYFH","either","4","","","","","","","1","0","0","0.4082381823","","0.6","0.8","0.4","0.2","","","","","0.1210896773","0.4597327255","0.4082381823","0.06967502077","","","","","","","75","K","2","","","228","main_expt"
"275","","bandit","307","876703","0.0-268.0-0.0","13043210","wem/bandit_either","A1ALBJU1XOKYFH","either","4","","","","","","","0","0","1","0.4274963613","","0.6","0.8","0.4","0.2","","","","","0.1206830913","0.4733003713","0.4274963613","0.07642173418","","","","","","","75","K","2","","","229","main_expt"
"291","","bandit","308","878512","0.0-269.0-0.0","13043210","wem/bandit_either","A1ALBJU1XOKYFH","either","4","","","","","","","0","0","1","0.4362488765","","0.6","0.8","0.4","0.2","","","","","0.1334008039","0.4832022084","0.4362488765","0.04973788902","","","","","","","75","K","2","","","230","main_expt"
"266","","bandit","309","880296","0.0-270.0-0.0","13043210","wem/bandit_either","A1ALBJU1XOKYFH","either","4","","","","","","","0","0","1","","0.4420629534","0.6","0.8","0.4","0.2","0.1048467088","0.4802630573","0.4420629534","0.07419495466","","","","","","","","","","","75","K","2","","","231","main_expt"
"266","","bandit","310","882079","0.0-271.0-0.0","13043210","wem/bandit_either","A1ALBJU1XOKYFH","either","4","","","","","","","0","0","1","","0.1184002818","0.6","0.8","0.4","0.2","0.1184002818","0.4739318499","0.4287414635","0.08125260149","","","","","","","","","","","72","H","0","img/none_selected.jpg","","232","main_expt"
"226","","bandit","311","883823","0.0-272.0-0.0","13043210","wem/bandit_either","A1ALBJU1XOKYFH","either","4","","","","","","","0","0","1","0.08533064469","","0.6","0.8","0.4","0.2","","","","","0.08533064469","0.4709765286","0.4395511981","0.06057073796","","","","","","","72","H","0","img/none_selected.jpg","","233","main_expt"
"338","","bandit","312","885680","0.0-273.0-0.0","13043210","wem/bandit_either","A1ALBJU1XOKYFH","either","4","","","","","","","0","0","1","","0.1190123434","0.6","0.8","0.4","0.2","0.1190123434","0.4658145356","0.4479240545","0.1037411708","","","","","","","","","","","72","H","0","img/none_selected.jpg","","234","main_expt"
"146","","bandit","313","887344","0.0-274.0-0.0","13043210","wem/bandit_either","A1ALBJU1XOKYFH","either","4","","","","","","","0","0","1","0.4312508187","","0.6","0.8","0.4","0.2","","","","","0.1392024459","0.4312508187","0.4476644646","0.1267441937","","","","","","","74","J","1","","","235","main_expt"
"257","","bandit","314","889120","0.0-275.0-0.0","13043210","wem/bandit_either","A1ALBJU1XOKYFH","either","4","","","","","","","0","0","1","0.1002206095","","0.6","0.8","0.4","0.2","","","","","0.1076242464","0.4323277229","0.457106966","0.1002206095","","","","","","","76","L","3","","","236","main_expt"
"257","","bandit","315","890896","0.0-276.0-0.0","13043210","wem/bandit_either","A1ALBJU1XOKYFH","either","4","","","","","","","0","0","1","","0.08353940566","0.6","0.8","0.4","0.2","0.1539911713","0.4517679415","0.4097288684","0.08353940566","","","","","","","","","","","76","L","3","","","237","main_expt"
"338","","bandit","316","892752","0.0-277.0-0.0","13043210","wem/bandit_either","A1ALBJU1XOKYFH","either","4","","","","","","","0","0","1","","0.07847158511","0.6","0.8","0.4","0.2","0.1833253983","0.4476427196","0.4530646831","0.07847158511","","","","","","","","","","","76","L","3","","","238","main_expt"
"306","","bandit","317","894576","0.0-278.0-0.0","13043210","wem/bandit_either","A1ALBJU1XOKYFH","either","4","","","","","","","0","0","1","","0.1132310855","0.6","0.8","0.4","0.2","0.185515968","0.4421551546","0.4532148127","0.1132310855","","","","","","","","","","","76","L","3","","","239","main_expt"
"394","","bandit","318","896488","0.0-279.0-0.0","13043210","wem/bandit_either","A1ALBJU1XOKYFH","either","4","","","","","","","0","1","0","","0.4456906816","0.6","0.8","0.4","0.2","0.2545144829","0.4205303603","0.4456906816","0.130249024","","","","","","","","","","","75","K","2","","","240","main_expt"
"187","","bandit","319","898191","0.0-280.0-0.0","13043210","wem/bandit_either","A1ALBJU1XOKYFH","either","4","","","","","","","0","0","1","0.4515134246","","0.6","0.8","0.4","0.2","","","","","0.1902236802","0.4304808994","0.4515134246","0.1356270161","","","","","","","75","K","2","","","241","main_expt"
"226","","bandit","320","899935","0.0-281.0-0.0","13043210","wem/bandit_either","A1ALBJU1XOKYFH","either","4","","","","","","","0","0","1","","0.4640222466","0.6","0.8","0.4","0.2","0.2196571485","0.4318168925","0.4640222466","0.1402569013","","","","","","","","","","","75","K","2","","","242","main_expt"
"307","","bandit","321","901760","0.0-282.0-0.0","13043210","wem/bandit_either","A1ALBJU1XOKYFH","either","4","","","","","","","0","1","0","","0.4305348251","0.6","0.8","0.4","0.2","0.2691755858","0.4437639365","0.4305348251","0.1851652895","","","","","","","","","","","75","K","2","","","243","main_expt"
"394","","bandit","322","903672","0.0-283.0-0.0","13043210","wem/bandit_either","A1ALBJU1XOKYFH","either","4","","","","","","","0","1","0","","0.4444417595","0.6","0.8","0.4","0.2","0.2689580194","0.4444545885","0.4444417595","0.1871667761","","","","","","","","","","","75","K","2","","","244","main_expt"
"323","","bandit","323","905512","0.0-284.0-0.0","13043210","wem/bandit_either","A1ALBJU1XOKYFH","either","4","","","","","","","0","0","1","","0.4468105605","0.6","0.8","0.4","0.2","0.1935089033","0.445216333","0.4468105605","0.1881322931","","","","","","","","","","","75","K","2","","","245","main_expt"
"282","","bandit","324","907312","0.0-285.0-0.0","13043210","wem/bandit_either","A1ALBJU1XOKYFH","either","4","","","","","","","0","0","1","0.4453418505","","0.6","0.8","0.4","0.2","","","","","0.1466547275","0.4767449203","0.4453418505","0.187853128","","","","","","","75","K","2","","","246","main_expt"
"298","","bandit","325","909128","0.0-286.0-0.0","13043210","wem/bandit_either","A1ALBJU1XOKYFH","either","4","","","","","","","1","0","0","0.4426138654","","0.6","0.8","0.4","0.2","","","","","0.1275107348","0.4530054638","0.4426138654","0.1952756904","","","","","","","75","K","2","","","247","main_expt"
"434","","bandit","326","911079","0.0-287.0-0.0","13043210","wem/bandit_either","A1ALBJU1XOKYFH","either","4","","","","","","","0","0","1","0.464375056","","0.6","0.8","0.4","0.2","","","","","0.107785627","0.4326938674","0.464375056","0.1722543521","","","","","","","75","K","2","","","248","main_expt"
"218","","bandit","327","912816","0.0-288.0-0.0","13043210","wem/bandit_either","A1ALBJU1XOKYFH","either","4","","","","","","","0","1","0","","0.4416705694","0.6","0.8","0.4","0.2","0.1169449123","0.4276367863","0.4416705694","0.1935833679","","","","","","","","","","","75","K","2","","","249","main_expt"
"354","","bandit","328","914688","0.0-289.0-0.0","13043210","wem/bandit_either","A1ALBJU1XOKYFH","either","4","","","","","","","0","0","1","","0.4352039605","0.6","0.8","0.4","0.2","0.1474950258","0.4602627553","0.4352039605","0.1783221165","","","","","","","","","","","75","K","2","","","250","main_expt"
"338","","bandit","329","916543","0.0-290.0-0.0","13043210","wem/bandit_either","A1ALBJU1XOKYFH","either","4","","","","","","","0","0","1","","0.4625669079","0.6","0.8","0.4","0.2","0.1272017844","0.4429671406","0.4625669079","0.2191654692","","","","","","","","","","","75","K","2","","","251","main_expt"
"290","","bandit","330","918351","0.0-291.0-0.0","13043210","wem/bandit_either","A1ALBJU1XOKYFH","either","4","","","","","","","0","1","0","","0.4714010403","0.6","0.8","0.4","0.2","0.1383509771","0.4423062834","0.4714010403","0.2357097141","","","","","","","","","","","75","K","2","","","252","main_expt"
"275","","bandit","331","920144","0.0-292.0-0.0","13043210","wem/bandit_either","A1ALBJU1XOKYFH","either","4","","","","","","","0","0","1","0.4487775435","","0.6","0.8","0.4","0.2","","","","","0.1251389104","0.4509963191","0.4487775435","0.214143541","","","","","","","75","K","2","","","253","main_expt"
