"rt","responses","trial_type","trial_index","time_elapsed","internal_node_id","subjID","study","MID","cond","drift","key_press","expt_phase","target","like","value","connected","gems","bombs","no_reward","GemPrChosen","BombPrChosen","GainOverPainPr_0","GainOverPainPr_1","GainOverPainPr_2","GainOverPainPr_3","LosePr_0","LosePr_1","LosePr_2","LosePr_3","WinPr_0","WinPr_1","WinPr_2","WinPr_3","Q0","Q1","Q2","gender","age","ethnicity","respCharCode","respKey","respChoiceNum","respChoice","practice","trial_counter","trial_label"
"1606","{""Q0"":""A2WCDQDLMC6J72""}","survey-text","0","1612","0.0-0.0","13786396","wem/bandit_either","A2WCDQDLMC6J72","either","2","","","","","","","","","","","","","","","","","","","","","","","","","","","","","","","","","","","",""
"2643","","text","1","5422","0.0-1.0","13786396","wem/bandit_either","A2WCDQDLMC6J72","either","2","32","","","","","","","","","","","","","","","","","","","","","","","","","","","","","","","","","","",""
"12448","","text","2","17874","0.0-2.0","13786396","wem/bandit_either","A2WCDQDLMC6J72","either","2","32","","","","","","","","","","","","","","","","","","","","","","","","","","","","","","","","","","",""
"27740","","text","3","45618","0.0-3.0","13786396","wem/bandit_either","A2WCDQDLMC6J72","either","2","32","","","","","","","","","","","","","","","","","","","","","","","","","","","","","","","","","","",""
"13681","","text","4","59303","0.0-4.0","13786396","wem/bandit_either","A2WCDQDLMC6J72","either","2","32","","","","","","","","","","","","","","","","","","","","","","","","","","","","","","","","","","",""
"11875","","text","5","71182","0.0-5.0","13786396","wem/bandit_either","A2WCDQDLMC6J72","either","2","32","","","","","","","","","","","","","","","","","","","","","","","","","","","","","","","","","","",""
"8115","","text","6","79300","0.0-6.0","13786396","wem/bandit_either","A2WCDQDLMC6J72","either","2","32","","","","","","","","","","","","","","","","","","","","","","","","","","","","","","","","","","",""
"6412","","text","7","85716","0.0-7.0","13786396","wem/bandit_either","A2WCDQDLMC6J72","either","2","32","","","","","","","","","","","","","","","","","","","","","","","","","","","","","","","","","","",""
"7876","","identification","8","93629","0.0-8.0-0.0","13786396","wem/bandit_either","A2WCDQDLMC6J72","either","2","","identification_pre","the village of Zur","","","","","","","","","","","","","","","","","","","","","","","","","","","","","","","","",""
"3769","","identification","9","98424","0.0-8.0-1.0","13786396","wem/bandit_either","A2WCDQDLMC6J72","either","2","","identification_pre","the village of Nyx","","","","","","","","","","","","","","","","","","","","","","","","","","","","","","","","",""
"4846","","text","10","104507","0.0-9.0","13786396","wem/bandit_either","A2WCDQDLMC6J72","either","2","32","","","","","","","","","","","","","","","","","","","","","","","","","","","","","","","","","","",""
"2134","","text","11","106645","0.0-10.0","13786396","wem/bandit_either","A2WCDQDLMC6J72","either","2","32","","","","","","","","","","","","","","","","","","","","","","","","","","","","","","","","","","",""
"4369","","text","12","111018","0.0-11.0","13786396","wem/bandit_either","A2WCDQDLMC6J72","either","2","32","","","","","","","","","","","","","","","","","","","","","","","","","","","","","","","","","","",""
"5700","","text","13","116723","0.0-12.0","13786396","wem/bandit_either","A2WCDQDLMC6J72","either","2","32","","","","","","","","","","","","","","","","","","","","","","","","","","","","","","","","","","",""
"2762","","bandit","14","121123","0.0-13.0-0.0","13786396","wem/bandit_either","A2WCDQDLMC6J72","either","2","","","","","","","0","0","1","0","0","","","","","0","","","","0","","","","","","","","","","74","J","0","img/none_selected_demo.jpg","true","0",""
"2435","","bandit","15","125162","0.0-14.0-0.0","13786396","wem/bandit_either","A2WCDQDLMC6J72","either","2","","","","","","","0","0","1","0","0","","","","","0","","","","0","","","","","","","","","","75","K","0","img/none_selected_demo.jpg","true","0",""
"5108","","text","16","130274","0.0-15.0","13786396","wem/bandit_either","A2WCDQDLMC6J72","either","2","32","","","","","","","","","","","","","","","","","","","","","","","","","","","","","","","","","","",""
"7413","","text","17","137692","0.0-16.0","13786396","wem/bandit_either","A2WCDQDLMC6J72","either","2","32","","","","","","","","","","","","","","","","","","","","","","","","","","","","","","","","","","",""
"7913","","text","18","145611","0.0-17.0","13786396","wem/bandit_either","A2WCDQDLMC6J72","either","2","32","","","","","","","","","","","","","","","","","","","","","","","","","","","","","","","","","","",""
"1539","","text","19","147153","0.0-18.0","13786396","wem/bandit_either","A2WCDQDLMC6J72","either","2","32","","","","","","","","","","","","","","","","","","","","","","","","","","","","","","","","","","",""
"1760","","bandit","20","150848","0.0-19.0-0.0","13786396","wem/bandit_either","A2WCDQDLMC6J72","either","2","","","","","","","0","0","1","0.8","","0.5","0.5","","","","","","","0.8","0.2","","","","","","","","","74","J","0","img/none_selected_demo.jpg","true","0","80_20_practice"
"708","","bandit","21","153099","0.0-19.0-1.0","13786396","wem/bandit_either","A2WCDQDLMC6J72","either","2","","","","","","","0","1","0","","0.8","0.5","0.5","","","0.8","0.2","","","","","","","","","","","","","74","J","0","img/none_selected_demo.jpg","true","0","80_20_practice"
"630","","bandit","22","155435","0.0-19.0-2.0","13786396","wem/bandit_either","A2WCDQDLMC6J72","either","2","","","","","","","0","0","1","0.2","","0.5","0.5","","","","","","","0.8","0.2","","","","","","","","","75","K","1","","true","0","80_20_practice"
"609","","bandit","23","157887","0.0-19.0-3.0","13786396","wem/bandit_either","A2WCDQDLMC6J72","either","2","","","","","","","0","0","1","0.2","","0.5","0.5","","","","","","","0.8","0.2","","","","","","","","","75","K","1","","true","0","80_20_practice"
"146","","bandit","24","159553","0.0-19.0-4.0","13786396","wem/bandit_either","A2WCDQDLMC6J72","either","2","","","","","","","0","0","1","0.2","","0.5","0.5","","","","","","","0.8","0.2","","","","","","","","","75","K","1","","true","0","80_20_practice"
"767","","bandit","25","162399","0.0-19.0-5.0","13786396","wem/bandit_either","A2WCDQDLMC6J72","either","2","","","","","","","1","0","0","0.8","","0.5","0.5","","","","","","","0.8","0.2","","","","","","","","","74","J","0","img/none_selected_demo.jpg","true","0","80_20_practice"
"478","","bandit","26","164464","0.0-19.0-6.0","13786396","wem/bandit_either","A2WCDQDLMC6J72","either","2","","","","","","","1","0","0","0.8","","0.5","0.5","","","","","","","0.8","0.2","","","","","","","","","74","J","0","img/none_selected_demo.jpg","true","0","80_20_practice"
"482","","bandit","27","166502","0.0-19.0-7.0","13786396","wem/bandit_either","A2WCDQDLMC6J72","either","2","","","","","","","0","1","0","","0.8","0.5","0.5","","","0.8","0.2","","","","","","","","","","","","","74","J","0","img/none_selected_demo.jpg","true","0","80_20_practice"
"156","","bandit","28","168177","0.0-19.0-8.0","13786396","wem/bandit_either","A2WCDQDLMC6J72","either","2","","","","","","","0","1","0","","0.8","0.5","0.5","","","0.8","0.2","","","","","","","","","","","","","74","J","0","img/none_selected_demo.jpg","true","0","80_20_practice"
"508","","bandit","29","170202","0.0-19.0-9.0","13786396","wem/bandit_either","A2WCDQDLMC6J72","either","2","","","","","","","1","0","0","0.8","","0.5","0.5","","","","","","","0.8","0.2","","","","","","","","","74","J","0","img/none_selected_demo.jpg","true","0","80_20_practice"
"608","","bandit","30","172572","0.0-19.0-10.0","13786396","wem/bandit_either","A2WCDQDLMC6J72","either","2","","","","","","","0","1","0","","0.8","0.5","0.5","","","0.8","0.2","","","","","","","","","","","","","74","J","0","img/none_selected_demo.jpg","true","0","80_20_practice"
"477","","bandit","31","174568","0.0-19.0-11.0","13786396","wem/bandit_either","A2WCDQDLMC6J72","either","2","","","","","","","1","0","0","0.8","","0.5","0.5","","","","","","","0.8","0.2","","","","","","","","","74","J","0","img/none_selected_demo.jpg","true","0","80_20_practice"
"898","","bandit","32","176981","0.0-19.0-12.0","13786396","wem/bandit_either","A2WCDQDLMC6J72","either","2","","","","","","","0","1","0","","0.8","0.5","0.5","","","0.8","0.2","","","","","","","","","","","","","74","J","0","img/none_selected_demo.jpg","true","0","80_20_practice"
"198","","bandit","33","178697","0.0-19.0-13.0","13786396","wem/bandit_either","A2WCDQDLMC6J72","either","2","","","","","","","0","0","1","0.8","","0.5","0.5","","","","","","","0.8","0.2","","","","","","","","","74","J","0","img/none_selected_demo.jpg","true","0","80_20_practice"
"505","","bandit","34","180787","0.0-19.0-14.0","13786396","wem/bandit_either","A2WCDQDLMC6J72","either","2","","","","","","","0","0","1","","0.8","0.5","0.5","","","0.8","0.2","","","","","","","","","","","","","74","J","0","img/none_selected_demo.jpg","true","0","80_20_practice"
"444","","bandit","35","182765","0.0-19.0-15.0","13786396","wem/bandit_either","A2WCDQDLMC6J72","either","2","","","","","","","0","0","1","0.8","","0.5","0.5","","","","","","","0.8","0.2","","","","","","","","","74","J","0","img/none_selected_demo.jpg","true","0","80_20_practice"
"382","","bandit","36","184663","0.0-19.0-16.0","13786396","wem/bandit_either","A2WCDQDLMC6J72","either","2","","","","","","","0","1","0","","0.8","0.5","0.5","","","0.8","0.2","","","","","","","","","","","","","74","J","0","img/none_selected_demo.jpg","true","0","80_20_practice"
"1218","","bandit","37","187558","0.0-19.0-17.0","13786396","wem/bandit_either","A2WCDQDLMC6J72","either","2","","","","","","","0","0","1","","0.2","0.5","0.5","","","0.8","0.2","","","","","","","","","","","","","75","K","1","","true","0","80_20_practice"
"204","","bandit","38","189529","0.0-19.0-18.0","13786396","wem/bandit_either","A2WCDQDLMC6J72","either","2","","","","","","","0","0","1","0.2","","0.5","0.5","","","","","","","0.8","0.2","","","","","","","","","75","K","1","","true","0","80_20_practice"
"21","","bandit","39","191216","0.0-19.0-19.0","13786396","wem/bandit_either","A2WCDQDLMC6J72","either","2","","","","","","","0","0","1","","0.2","0.5","0.5","","","0.8","0.2","","","","","","","","","","","","","75","K","1","","true","0","80_20_practice"
"2813","","text","40","194033","0.0-20.0","13786396","wem/bandit_either","A2WCDQDLMC6J72","either","2","32","","","","","","","","","","","","","","","","","","","","","","","","","","","","","","","","","","",""
"1764","","bandit","41","197339","0.0-21.0-0.0","13786396","wem/bandit_either","A2WCDQDLMC6J72","either","2","","","","","","","1","0","0","1","0","","","","","0","1","","","1","0","","","","","","","","","74","J","0","img/none_selected_demo.jpg","true","0",""
"7394","","text","42","204742","0.0-22.0","13786396","wem/bandit_either","A2WCDQDLMC6J72","either","2","32","","","","","","","","","","","","","","","","","","","","","","","","","","","","","","","","","","",""
"3136","","text","43","207884","0.0-23.0","13786396","wem/bandit_either","A2WCDQDLMC6J72","either","2","32","","","","","","","","","","","","","","","","","","","","","","","","","","","","","","","","","","",""
"4413","","text","44","212302","0.0-24.0","13786396","wem/bandit_either","A2WCDQDLMC6J72","either","2","32","","","","","","","","","","","","","","","","","","","","","","","","","","","","","","","","","","",""
"4074","","text","45","216383","0.0-25.0","13786396","wem/bandit_either","A2WCDQDLMC6J72","either","2","32","","","","","","","","","","","","","","","","","","","","","","","","","","","","","","","","","","",""
"4446","","text","46","220834","0.0-26.0","13786396","wem/bandit_either","A2WCDQDLMC6J72","either","2","32","","","","","","","","","","","","","","","","","","","","","","","","","","","","","","","","","","",""
"4011","","text","47","224852","0.0-27.0","13786396","wem/bandit_either","A2WCDQDLMC6J72","either","2","32","","","","","","","","","","","","","","","","","","","","","","","","","","","","","","","","","","",""
"3030","","text","48","227888","0.0-28.0","13786396","wem/bandit_either","A2WCDQDLMC6J72","either","2","32","","","","","","","","","","","","","","","","","","","","","","","","","","","","","","","","","","",""
"4041","","text","49","231934","0.0-29.0","13786396","wem/bandit_either","A2WCDQDLMC6J72","either","2","32","","","","","","","","","","","","","","","","","","","","","","","","","","","","","","","","","","",""
"3190","","text","50","235131","0.0-30.0","13786396","wem/bandit_either","A2WCDQDLMC6J72","either","2","32","","","","","","","","","","","","","","","","","","","","","","","","","","","","","","","","","","",""
"1406","","text","51","236544","0.0-31.0","13786396","wem/bandit_either","A2WCDQDLMC6J72","either","2","32","","","","","","","","","","","","","","","","","","","","","","","","","","","","","","","","","","",""
"4925","","text","52","241474","0.0-32.0","13786396","wem/bandit_either","A2WCDQDLMC6J72","either","2","32","","","","","","","","","","","","","","","","","","","","","","","","","","","","","","","","","","",""
"260","","bandit","53","243386","0.0-33.0-0.0","13786396","wem/bandit_either","A2WCDQDLMC6J72","either","2","","","","","","","0","0","1","","0.2","0.5","0.5","0.5","0.5","0.8","0.2","0.6","0.2","","","","","","","","","","","74","J","1","","true","0","full_practice"
"1905","","bandit","54","246827","0.0-33.0-1.0","13786396","wem/bandit_either","A2WCDQDLMC6J72","either","2","","","","","","","0","0","1","","0.2","0.5","0.5","0.5","0.5","0.8","0.2","0.6","0.2","","","","","","","","","","","74","J","1","","true","0","full_practice"
"516","","bandit","55","248860","0.0-33.0-2.0","13786396","wem/bandit_either","A2WCDQDLMC6J72","either","2","","","","","","","0","0","1","0.2","","0.5","0.5","0.5","0.5","","","","","0.8","0.2","0.6","0.2","","","","","","","74","J","1","","true","0","full_practice"
"446","","bandit","56","251054","0.0-33.0-3.0","13786396","wem/bandit_either","A2WCDQDLMC6J72","either","2","","","","","","","0","0","1","0.2","","0.5","0.5","0.5","0.5","","","","","0.8","0.2","0.6","0.2","","","","","","","74","J","1","","true","0","full_practice"
"1070","","bandit","57","253657","0.0-33.0-4.0","13786396","wem/bandit_either","A2WCDQDLMC6J72","either","2","","","","","","","0","1","0","","0.8","0.5","0.5","0.5","0.5","0.8","0.2","0.6","0.2","","","","","","","","","","","72","H","0","img/none_selected.jpg","true","0","full_practice"
"319","","bandit","58","255497","0.0-33.0-5.0","13786396","wem/bandit_either","A2WCDQDLMC6J72","either","2","","","","","","","1","0","0","0.8","","0.5","0.5","0.5","0.5","","","","","0.8","0.2","0.6","0.2","","","","","","","72","H","0","img/none_selected.jpg","true","0","full_practice"
"374","","bandit","59","257397","0.0-33.0-6.0","13786396","wem/bandit_either","A2WCDQDLMC6J72","either","2","","","","","","","1","0","0","0.8","","0.5","0.5","0.5","0.5","","","","","0.8","0.2","0.6","0.2","","","","","","","72","H","0","img/none_selected.jpg","true","0","full_practice"
"219","","bandit","60","259142","0.0-33.0-7.0","13786396","wem/bandit_either","A2WCDQDLMC6J72","either","2","","","","","","","0","0","1","0.8","","0.5","0.5","0.5","0.5","","","","","0.8","0.2","0.6","0.2","","","","","","","72","H","0","img/none_selected.jpg","true","0","full_practice"
"526","","bandit","61","261425","0.0-33.0-8.0","13786396","wem/bandit_either","A2WCDQDLMC6J72","either","2","","","","","","","1","0","0","0.8","","0.5","0.5","0.5","0.5","","","","","0.8","0.2","0.6","0.2","","","","","","","72","H","0","img/none_selected.jpg","true","0","full_practice"
"219","","bandit","62","263212","0.0-33.0-9.0","13786396","wem/bandit_either","A2WCDQDLMC6J72","either","2","","","","","","","0","1","0","","0.8","0.5","0.5","0.5","0.5","0.8","0.2","0.6","0.2","","","","","","","","","","","72","H","0","img/none_selected.jpg","true","0","full_practice"
"1215","","bandit","63","265944","0.0-33.0-10.0","13786396","wem/bandit_either","A2WCDQDLMC6J72","either","2","","","","","","","0","1","0","","0.8","0.5","0.5","0.5","0.5","0.8","0.2","0.6","0.2","","","","","","","","","","","72","H","0","img/none_selected.jpg","true","0","full_practice"
"501","","bandit","64","268087","0.0-33.0-11.0","13786396","wem/bandit_either","A2WCDQDLMC6J72","either","2","","","","","","","0","1","0","","0.8","0.5","0.5","0.5","0.5","0.8","0.2","0.6","0.2","","","","","","","","","","","72","H","0","img/none_selected.jpg","true","0","full_practice"
"82","","bandit","65","269718","0.0-33.0-12.0","13786396","wem/bandit_either","A2WCDQDLMC6J72","either","2","","","","","","","0","0","1","","0.8","0.5","0.5","0.5","0.5","0.8","0.2","0.6","0.2","","","","","","","","","","","72","H","0","img/none_selected.jpg","true","0","full_practice"
"560","","bandit","66","271864","0.0-33.0-13.0","13786396","wem/bandit_either","A2WCDQDLMC6J72","either","2","","","","","","","0","0","1","","0.8","0.5","0.5","0.5","0.5","0.8","0.2","0.6","0.2","","","","","","","","","","","72","H","0","img/none_selected.jpg","true","0","full_practice"
"332","","bandit","67","273919","0.0-33.0-14.0","13786396","wem/bandit_either","A2WCDQDLMC6J72","either","2","","","","","","","1","0","0","0.8","","0.5","0.5","0.5","0.5","","","","","0.8","0.2","0.6","0.2","","","","","","","72","H","0","img/none_selected.jpg","true","0","full_practice"
"3","","bandit","68","275505","0.0-33.0-15.0","13786396","wem/bandit_either","A2WCDQDLMC6J72","either","2","","","","","","","1","0","0","0.8","","0.5","0.5","0.5","0.5","","","","","0.8","0.2","0.6","0.2","","","","","","","72","H","0","img/none_selected.jpg","true","0","full_practice"
"399","","bandit","69","277429","0.0-33.0-16.0","13786396","wem/bandit_either","A2WCDQDLMC6J72","either","2","","","","","","","0","0","1","","0.8","0.5","0.5","0.5","0.5","0.8","0.2","0.6","0.2","","","","","","","","","","","72","H","0","img/none_selected.jpg","true","0","full_practice"
"464","","bandit","70","279420","0.0-33.0-17.0","13786396","wem/bandit_either","A2WCDQDLMC6J72","either","2","","","","","","","1","0","0","0.8","","0.5","0.5","0.5","0.5","","","","","0.8","0.2","0.6","0.2","","","","","","","72","H","0","img/none_selected.jpg","true","0","full_practice"
"54","","bandit","71","281035","0.0-33.0-18.0","13786396","wem/bandit_either","A2WCDQDLMC6J72","either","2","","","","","","","0","1","0","","0.8","0.5","0.5","0.5","0.5","0.8","0.2","0.6","0.2","","","","","","","","","","","72","H","0","img/none_selected.jpg","true","0","full_practice"
"292","","bandit","72","283199","0.0-33.0-19.0","13786396","wem/bandit_either","A2WCDQDLMC6J72","either","2","","","","","","","0","1","0","","0.8","0.5","0.5","0.5","0.5","0.8","0.2","0.6","0.2","","","","","","","","","","","72","H","0","img/none_selected.jpg","true","0","full_practice"
"3385","","text","73","286601","0.0-34.0","13786396","wem/bandit_either","A2WCDQDLMC6J72","either","2","32","","","","","","","","","","","","","","","","","","","","","","","","","","","","","","","","","","",""
"17077","","text","74","304686","0.0-35.0","13786396","wem/bandit_either","A2WCDQDLMC6J72","either","2","32","","","","","","","","","","","","","","","","","","","","","","","","","","","","","","","","","","",""
"5092","","text","75","309788","0.0-36.0","13786396","wem/bandit_either","A2WCDQDLMC6J72","either","2","32","","","","","","","","","","","","","","","","","","","","","","","","","","","","","","","","","","",""
"6481","","text","76","316276","0.0-37.0","13786396","wem/bandit_either","A2WCDQDLMC6J72","either","2","32","","","","","","","","","","","","","","","","","","","","","","","","","","","","","","","","","","",""
"4336","","text","77","320620","0.0-38.0","13786396","wem/bandit_either","A2WCDQDLMC6J72","either","2","32","","","","","","","","","","","","","","","","","","","","","","","","","","","","","","","","","","",""
"4288","","text","78","324916","0.0-39.0","13786396","wem/bandit_either","A2WCDQDLMC6J72","either","2","32","","","","","","","","","","","","","","","","","","","","","","","","","","","","","","","","","","",""
"1397","","bandit","79","328103","0.0-40.0-0.0","13786396","wem/bandit_either","A2WCDQDLMC6J72","either","2","","","","","","","0","0","1","0.362799796","","0.2","0.4","0.6","0.8","","","","","0.326135308","0.4781977867","0.3653736811","0.362799796","","","","","","","76","L","3","","","1","main_expt"
"723","","bandit","80","330651","0.0-41.0-0.0","13786396","wem/bandit_either","A2WCDQDLMC6J72","either","2","","","","","","","1","0","0","0.3891507205","","0.2","0.4","0.6","0.8","","","","","0.3564958201","0.4765481994","0.3999069229","0.3891507205","","","","","","","76","L","3","","","2","main_expt"
"754","","bandit","81","333190","0.0-42.0-0.0","13786396","wem/bandit_either","A2WCDQDLMC6J72","either","2","","","","","","","0","0","1","","0.3151339382","0.2","0.4","0.6","0.8","0.3309056029","0.4722158263","0.4363582421","0.3151339382","","","","","","","","","","","76","L","3","","","3","main_expt"
"759","","bandit","82","335567","0.0-43.0-0.0","13786396","wem/bandit_either","A2WCDQDLMC6J72","either","2","","","","","","","0","0","1","","0.250648122","0.2","0.4","0.6","0.8","0.308467875","0.4609570051","0.4300921111","0.250648122","","","","","","","","","","","76","L","3","","","4","main_expt"
"2538","","bandit","83","339894","0.0-44.0-0.0","13786396","wem/bandit_either","A2WCDQDLMC6J72","either","2","","","","","","","0","0","1","0.2382585344","","0.2","0.4","0.6","0.8","","","","","0.3349995635","0.4707799186","0.3863220662","0.2382585344","","","","","","","76","L","3","","","5","main_expt"
"1160","","bandit","84","342581","0.0-45.0-0.0","13786396","wem/bandit_either","A2WCDQDLMC6J72","either","2","","","","","","","0","0","1","0.2088101903","","0.2","0.4","0.6","0.8","","","","","0.3743101545","0.4676743975","0.4192648028","0.2088101903","","","","","","","76","L","3","","","6","main_expt"
"313","","bandit","85","344412","0.0-46.0-0.0","13786396","wem/bandit_either","A2WCDQDLMC6J72","either","2","","","","","","","0","0","1","0.4218548145","","0.2","0.4","0.6","0.8","","","","","0.377506125","0.4767364015","0.4218548145","0.1884279889","","","","","","","75","K","2","","","7","main_expt"
"654","","bandit","86","346835","0.0-47.0-0.0","13786396","wem/bandit_either","A2WCDQDLMC6J72","either","2","","","","","","","0","0","1","0.4298914749","","0.2","0.4","0.6","0.8","","","","","0.3452849142","0.4837409877","0.4298914749","0.2297930851","","","","","","","75","K","2","","","8","main_expt"
"1093","","bandit","87","349509","0.0-48.0-0.0","13786396","wem/bandit_either","A2WCDQDLMC6J72","either","2","","","","","","","1","0","0","0.4215440671","","0.2","0.4","0.6","0.8","","","","","0.2713567333","0.4825212187","0.4215440671","0.2219539873","","","","","","","75","K","2","","","9","main_expt"
"931","","bandit","88","352111","0.0-49.0-0.0","13786396","wem/bandit_either","A2WCDQDLMC6J72","either","2","","","","","","","0","1","0","","0.3991616263","0.2","0.4","0.6","0.8","0.2712708503","0.4791264729","0.3991616263","0.2398128751","","","","","","","","","","","75","K","2","","","10","main_expt"
"1028","","bandit","89","354680","0.0-50.0-0.0","13786396","wem/bandit_either","A2WCDQDLMC6J72","either","2","","","","","","","1","0","0","0.4002673883","","0.2","0.4","0.6","0.8","","","","","0.2635531688","0.4762013833","0.4002673883","0.2551733424","","","","","","","75","K","2","","","11","main_expt"
"1180","","bandit","90","357604","0.0-51.0-0.0","13786396","wem/bandit_either","A2WCDQDLMC6J72","either","2","","","","","","","0","0","1","","0.368629831","0.2","0.4","0.6","0.8","0.2669056975","0.4729837645","0.368629831","0.2593424883","","","","","","","","","","","75","K","2","","","12","main_expt"
"508","","bandit","91","359949","0.0-52.0-0.0","13786396","wem/bandit_either","A2WCDQDLMC6J72","either","2","","","","","","","1","0","0","0.4189726289","","0.2","0.4","0.6","0.8","","","","","0.3204456557","0.4749786695","0.4189726289","0.2493591627","","","","","","","75","K","2","","","13","main_expt"
"594","","bandit","92","362123","0.0-53.0-0.0","13786396","wem/bandit_either","A2WCDQDLMC6J72","either","2","","","","","","","0","1","0","","0.4352425359","0.2","0.4","0.6","0.8","0.3466526728","0.4810115094","0.4352425359","0.2686446846","","","","","","","","","","","75","K","2","","","14","main_expt"
"1029","","bandit","93","364747","0.0-54.0-0.0","13786396","wem/bandit_either","A2WCDQDLMC6J72","either","2","","","","","","","0","1","0","","0.3819090161","0.2","0.4","0.6","0.8","0.3736671224","0.4705329286","0.3819090161","0.2690169042","","","","","","","","","","","75","K","2","","","15","main_expt"
"570","","bandit","94","366849","0.0-55.0-0.0","13786396","wem/bandit_either","A2WCDQDLMC6J72","either","2","","","","","","","0","1","0","","0.3737760256","0.2","0.4","0.6","0.8","0.3778143907","0.4687419894","0.3737760256","0.2518303543","","","","","","","","","","","75","K","2","","","16","main_expt"
"1","","bandit","95","368370","0.0-56.0-0.0","13786396","wem/bandit_either","A2WCDQDLMC6J72","either","2","","","","","","","0","0","1","0.4151791473","","0.2","0.4","0.6","0.8","","","","","0.3845750066","0.4594180265","0.4151791473","0.2406549936","","","","","","","75","K","2","","","17","main_expt"
"1178","","bandit","96","371238","0.0-57.0-0.0","13786396","wem/bandit_either","A2WCDQDLMC6J72","either","2","","","","","","","0","0","1","","0.4137363134","0.2","0.4","0.6","0.8","0.4041286345","0.425397146","0.4137363134","0.2670149403","","","","","","","","","","","75","K","2","","","18","main_expt"
"1222","","bandit","97","374055","0.0-58.0-0.0","13786396","wem/bandit_either","A2WCDQDLMC6J72","either","2","","","","","","","0","0","1","","0.4201246927","0.2","0.4","0.6","0.8","0.4127350431","0.4201246927","0.4084056464","0.2658482338","","","","","","","","","","","74","J","1","","","19","main_expt"
"668","","bandit","98","376308","0.0-59.0-0.0","13786396","wem/bandit_either","A2WCDQDLMC6J72","either","2","","","","","","","0","1","0","","0.3954271328","0.2","0.4","0.6","0.8","0.4107359536","0.3954271328","0.4129175496","0.2452433766","","","","","","","","","","","74","J","1","","","20","main_expt"
"449","","bandit","99","378288","0.0-60.0-0.0","13786396","wem/bandit_either","A2WCDQDLMC6J72","either","2","","","","","","","0","1","0","","0.4196431029","0.2","0.4","0.6","0.8","0.3954861765","0.4196431029","0.3888488162","0.2298761452","","","","","","","","","","","74","J","1","","","21","main_expt"
"1102","","bandit","100","380925","0.0-61.0-0.0","13786396","wem/bandit_either","A2WCDQDLMC6J72","either","2","","","","","","","0","1","0","","0.3843335182","0.2","0.4","0.6","0.8","0.3805979297","0.3843335182","0.3873149631","0.266827693","","","","","","","","","","","74","J","1","","","22","main_expt"
"358","","bandit","101","382856","0.0-62.0-0.0","13786396","wem/bandit_either","A2WCDQDLMC6J72","either","2","","","","","","","0","0","1","","0.425451992","0.2","0.4","0.6","0.8","0.425451992","0.3839977458","0.3659772031","0.2519769849","","","","","","","","","","","72","H","0","img/none_selected.jpg","","23","main_expt"
"504","","bandit","102","384880","0.0-63.0-0.0","13786396","wem/bandit_either","A2WCDQDLMC6J72","either","2","","","","","","","0","1","0","","0.4699447661","0.2","0.4","0.6","0.8","0.4699447661","0.3338939571","0.3594327093","0.2447613107","","","","","","","","","","","72","H","0","img/none_selected.jpg","","24","main_expt"
"561","","bandit","103","387198","0.0-64.0-0.0","13786396","wem/bandit_either","A2WCDQDLMC6J72","either","2","","","","","","","0","0","1","","0.4484050393","0.2","0.4","0.6","0.8","0.4484050393","0.324486952","0.3719143394","0.2350413847","","","","","","","","","","","72","H","0","img/none_selected.jpg","","25","main_expt"
"603","","bandit","104","389416","0.0-65.0-0.0","13786396","wem/bandit_either","A2WCDQDLMC6J72","either","2","","","","","","","0","1","0","","0.4190234423","0.2","0.4","0.6","0.8","0.4190234423","0.3095710384","0.3690014044","0.207774486","","","","","","","","","","","72","H","0","img/none_selected.jpg","","26","main_expt"
"435","","bandit","105","391438","0.0-66.0-0.0","13786396","wem/bandit_either","A2WCDQDLMC6J72","either","2","","","","","","","0","0","1","0.2164182795","","0.2","0.4","0.6","0.8","","","","","0.4251478254","0.3355629191","0.3940030818","0.2164182795","","","","","","","76","L","3","","","27","main_expt"
"611","","bandit","106","393885","0.0-67.0-0.0","13786396","wem/bandit_either","A2WCDQDLMC6J72","either","2","","","","","","","0","0","1","0.2164031865","","0.2","0.4","0.6","0.8","","","","","0.4287328697","0.3668681485","0.4111080327","0.2164031865","","","","","","","76","L","3","","","28","main_expt"
"141","","bandit","107","395584","0.0-68.0-0.0","13786396","wem/bandit_either","A2WCDQDLMC6J72","either","2","","","","","","","0","0","1","","0.2770000278","0.2","0.4","0.6","0.8","0.4106025245","0.343198694","0.41290056","0.2770000278","","","","","","","","","","","76","L","3","","","29","main_expt"
"495","","bandit","108","397708","0.0-69.0-0.0","13786396","wem/bandit_either","A2WCDQDLMC6J72","either","2","","","","","","","0","0","1","0.2354797847","","0.2","0.4","0.6","0.8","","","","","0.3942494676","0.326069126","0.3937480262","0.2354797847","","","","","","","76","L","3","","","30","main_expt"
"1186","","bandit","109","401199","0.0-70.0-0.0","13786396","wem/bandit_either","A2WCDQDLMC6J72","either","2","","","","","","","0","0","1","0.3997016236","","0.2","0.4","0.6","0.8","","","","","0.4285056211","0.3390127419","0.3997016236","0.2692030882","","","","","","","75","K","2","","","31","main_expt"
"648","","bandit","110","403429","0.0-71.0-0.0","13786396","wem/bandit_either","A2WCDQDLMC6J72","either","2","","","","","","","0","1","0","","0.3574295763","0.2","0.4","0.6","0.8","0.4249454459","0.3360649894","0.3574295763","0.2471118655","","","","","","","","","","","75","K","2","","","32","main_expt"
"654","","bandit","111","405604","0.0-72.0-0.0","13786396","wem/bandit_either","A2WCDQDLMC6J72","either","2","","","","","","","0","0","1","","0.3877818659","0.2","0.4","0.6","0.8","0.416417765","0.3052602024","0.3877818659","0.2879199001","","","","","","","","","","","75","K","2","","","33","main_expt"
"1137","","bandit","112","408268","0.0-73.0-0.0","13786396","wem/bandit_either","A2WCDQDLMC6J72","either","2","","","","","","","1","0","0","0.3799496232","","0.2","0.4","0.6","0.8","","","","","0.4623714429","0.3594788954","0.3799496232","0.3180115212","","","","","","","75","K","2","","","34","main_expt"
"498","","bandit","113","410450","0.0-74.0-0.0","13786396","wem/bandit_either","A2WCDQDLMC6J72","either","2","","","","","","","0","1","0","","0.3577573403","0.2","0.4","0.6","0.8","0.4591977302","0.380235832","0.3577573403","0.2524306687","","","","","","","","","","","75","K","2","","","35","main_expt"
"622","","bandit","114","412607","0.0-75.0-0.0","13786396","wem/bandit_either","A2WCDQDLMC6J72","either","2","","","","","","","0","0","1","0.3895375856","","0.2","0.4","0.6","0.8","","","","","0.4686235256","0.3459989602","0.3895375856","0.2351869563","","","","","","","75","K","2","","","36","main_expt"
"24","","bandit","115","414150","0.0-76.0-0.0","13786396","wem/bandit_either","A2WCDQDLMC6J72","either","2","","","","","","","0","0","1","","0.3783527007","0.2","0.4","0.6","0.8","0.4571547709","0.3320905149","0.3783527007","0.2629170466","","","","","","","","","","","75","K","2","","","37","main_expt"
"822","","bandit","116","416509","0.0-77.0-0.0","13786396","wem/bandit_either","A2WCDQDLMC6J72","either","2","","","","","","","0","0","1","0.284076782","","0.2","0.4","0.6","0.8","","","","","0.4688430709","0.3471020919","0.284076782","0.3090194305","","","","","","","75","K","2","","","38","main_expt"
"553","","bandit","117","418771","0.0-78.0-0.0","13786396","wem/bandit_either","A2WCDQDLMC6J72","either","2","","","","","","","0","0","1","","0.3401763967","0.2","0.4","0.6","0.8","0.4612923778","0.3401763967","0.3388972186","0.2845371228","","","","","","","","","","","74","J","1","","","39","main_expt"
"588","","bandit","118","420879","0.0-79.0-0.0","13786396","wem/bandit_either","A2WCDQDLMC6J72","either","2","","","","","","","0","1","0","","0.3260487483","0.2","0.4","0.6","0.8","0.4576194683","0.3260487483","0.2663655232","0.3076259244","","","","","","","","","","","74","J","1","","","40","main_expt"
"475","","bandit","119","423065","0.0-80.0-0.0","13786396","wem/bandit_either","A2WCDQDLMC6J72","either","2","","","","","","","0","0","1","0.3390218734","","0.2","0.4","0.6","0.8","","","","","0.4473921051","0.3390218734","0.2608266697","0.2888769276","","","","","","","74","J","1","","","41","main_expt"
"763","","bandit","120","425372","0.0-81.0-0.0","13786396","wem/bandit_either","A2WCDQDLMC6J72","either","2","","","","","","","0","0","1","","0.2889680017","0.2","0.4","0.6","0.8","0.425470286","0.2889680017","0.2287676803","0.2639198141","","","","","","","","","","","74","J","1","","","42","main_expt"
"579","","bandit","121","427471","0.0-82.0-0.0","13786396","wem/bandit_either","A2WCDQDLMC6J72","either","2","","","","","","","0","0","1","0.2784828801","","0.2","0.4","0.6","0.8","","","","","0.4030522017","0.2784828801","0.2043112358","0.2255441472","","","","","","","74","J","1","","","43","main_expt"
"497","","bandit","122","429489","0.0-83.0-0.0","13786396","wem/bandit_either","A2WCDQDLMC6J72","either","2","","","","","","","0","0","1","","0.1957049551","0.2","0.4","0.6","0.8","0.4106315797","0.2805729819","0.1957049551","0.2050272072","","","","","","","","","","","75","K","2","","","44","main_expt"
"1160","","bandit","123","432265","0.0-84.0-0.0","13786396","wem/bandit_either","A2WCDQDLMC6J72","either","2","","","","","","","0","1","0","","0.2207366272","0.2","0.4","0.6","0.8","0.4258527362","0.2195119073","0.2207366272","0.239455925","","","","","","","","","","","75","K","2","","","45","main_expt"
"1129","","bandit","124","435045","0.0-85.0-0.0","13786396","wem/bandit_either","A2WCDQDLMC6J72","either","2","","","","","","","0","1","0","","0.1727988076","0.2","0.4","0.6","0.8","0.4425966235","0.2657932304","0.1727988076","0.2414778298","","","","","","","","","","","75","K","2","","","46","main_expt"
"435","","bandit","125","437000","0.0-86.0-0.0","13786396","wem/bandit_either","A2WCDQDLMC6J72","either","2","","","","","","","0","1","0","","0.1446735631","0.2","0.4","0.6","0.8","0.4428977597","0.2678398397","0.1446735631","0.1884211613","","","","","","","","","","","75","K","2","","","47","main_expt"
"3729","","bandit","126","442368","0.0-87.0-0.0","13786396","wem/bandit_either","A2WCDQDLMC6J72","either","2","","","","","","","0","0","1","0.1681765936","","0.2","0.4","0.6","0.8","","","","","0.4479964269","0.2866904938","0.1681765936","0.1755274282","","","","","","","75","K","2","","","48","main_expt"
"617","","bandit","127","444684","0.0-88.0-0.0","13786396","wem/bandit_either","A2WCDQDLMC6J72","either","2","","","","","","","0","0","1","","0.1473883531","0.2","0.4","0.6","0.8","0.4660387519","0.2803848884","0.1473883531","0.1646396384","","","","","","","","","","","75","K","2","","","49","main_expt"
"595","","bandit","128","447010","0.0-89.0-0.0","13786396","wem/bandit_either","A2WCDQDLMC6J72","either","2","","","","","","","0","0","1","","0.4345757832","0.2","0.4","0.6","0.8","0.4345757832","0.2587411269","0.1378170987","0.2024226619","","","","","","","","","","","72","H","0","img/none_selected.jpg","","50","main_expt"
"269","","bandit","129","449213","0.0-90.0-0.0","13786396","wem/bandit_either","A2WCDQDLMC6J72","either","2","","","","","","","0","1","0","","0.4450950844","0.2","0.4","0.6","0.8","0.4450950844","0.2212901065","0.1430360168","0.1976760068","","","","","","","","","","","72","H","0","img/none_selected.jpg","","51","main_expt"
"55","","bandit","130","450832","0.0-91.0-0.0","13786396","wem/bandit_either","A2WCDQDLMC6J72","either","2","","","","","","","0","1","0","","0.4475354499","0.2","0.4","0.6","0.8","0.4475354499","0.236006857","0.1731798725","0.1796352224","","","","","","","","","","","72","H","0","img/none_selected.jpg","","52","main_expt"
"721","","bandit","131","453166","0.0-92.0-0.0","13786396","wem/bandit_either","A2WCDQDLMC6J72","either","2","","","","","","","0","0","1","","0.4627294295","0.2","0.4","0.6","0.8","0.4627294295","0.2660825342","0.1312409056","0.2451732725","","","","","","","","","","","72","H","0","img/none_selected.jpg","","53","main_expt"
"677","","bandit","132","455485","0.0-93.0-0.0","13786396","wem/bandit_either","A2WCDQDLMC6J72","either","2","","","","","","","0","1","0","","0.44829207","0.2","0.4","0.6","0.8","0.44829207","0.2458345041","0.1862053218","0.2621482643","","","","","","","","","","","72","H","0","img/none_selected.jpg","","54","main_expt"
"446","","bandit","133","457457","0.0-94.0-0.0","13786396","wem/bandit_either","A2WCDQDLMC6J72","either","2","","","","","","","0","1","0","","0.4505537928","0.2","0.4","0.6","0.8","0.4505537928","0.2265690781","0.1733563037","0.2441780383","","","","","","","","","","","72","H","0","img/none_selected.jpg","","55","main_expt"
"765","","bandit","134","460066","0.0-95.0-0.0","13786396","wem/bandit_either","A2WCDQDLMC6J72","either","2","","","","","","","0","0","1","","0.2741820357","0.2","0.4","0.6","0.8","0.4686400132","0.2741820357","0.1728369204","0.199729785","","","","","","","","","","","74","J","1","","","56","main_expt"
"591","","bandit","135","462387","0.0-96.0-0.0","13786396","wem/bandit_either","A2WCDQDLMC6J72","either","2","","","","","","","0","0","1","0.2937641054","","0.2","0.4","0.6","0.8","","","","","0.4572679106","0.2937641054","0.09176359954","0.1945085845","","","","","","","74","J","1","","","57","main_expt"
"461","","bandit","136","464376","0.0-97.0-0.0","13786396","wem/bandit_either","A2WCDQDLMC6J72","either","2","","","","","","","0","0","1","","0.2949827607","0.2","0.4","0.6","0.8","0.4300169527","0.2949827607","0.04991422033","0.2614759052","","","","","","","","","","","74","J","1","","","58","main_expt"
"1201","","bandit","137","467248","0.0-98.0-0.0","13786396","wem/bandit_either","A2WCDQDLMC6J72","either","2","","","","","","","0","0","1","0.2710075273","","0.2","0.4","0.6","0.8","","","","","0.4050829606","0.2710075273","0.053239915","0.2426118991","","","","","","","74","J","1","","","59","main_expt"
"429","","bandit","138","469548","0.0-99.0-0.0","13786396","wem/bandit_either","A2WCDQDLMC6J72","either","2","","","","","","","0","0","1","0.2766623035","","0.2","0.4","0.6","0.8","","","","","0.4070720156","0.2766623035","0.06994226662","0.2623750897","","","","","","","74","J","1","","","60","main_expt"
"18619","","bandit","139","489957","0.0-100.0-0.0","13786396","wem/bandit_either","A2WCDQDLMC6J72","either","2","","","","","","","0","0","1","","0.07064832373","0.2","0.4","0.6","0.8","0.3895400789","0.2574592035","0.07064832373","0.2139103784","","","","","","","","","","","75","K","2","","","61","main_expt"
"561","","bandit","140","492158","0.0-101.0-0.0","13786396","wem/bandit_either","A2WCDQDLMC6J72","either","2","","","","","","","0","0","1","","0.08925217872","0.2","0.4","0.6","0.8","0.4050708951","0.2425209234","0.08925217872","0.2566580444","","","","","","","","","","","75","K","2","","","62","main_expt"
"424","","bandit","141","494142","0.0-102.0-0.0","13786396","wem/bandit_either","A2WCDQDLMC6J72","either","2","","","","","","","0","0","1","","0.08505035955","0.2","0.4","0.6","0.8","0.3765761212","0.2294211584","0.08505035955","0.2393402704","","","","","","","","","","","75","K","2","","","63","main_expt"
"350","","bandit","142","496013","0.0-103.0-0.0","13786396","wem/bandit_either","A2WCDQDLMC6J72","either","2","","","","","","","1","0","0","0.09892528285","","0.2","0.4","0.6","0.8","","","","","0.3859881554","0.2350173232","0.09892528285","0.300105392","","","","","","","75","K","2","","","64","main_expt"
"453","","bandit","143","498377","0.0-104.0-0.0","13786396","wem/bandit_either","A2WCDQDLMC6J72","either","2","","","","","","","0","0","1","0.1428545766","","0.2","0.4","0.6","0.8","","","","","0.3817039273","0.2775473173","0.1428545766","0.2584268813","","","","","","","75","K","2","","","65","main_expt"
"556","","bandit","144","500750","0.0-105.0-0.0","13786396","wem/bandit_either","A2WCDQDLMC6J72","either","2","","","","","","","0","0","1","","0.120440259","0.2","0.4","0.6","0.8","0.3622232449","0.298861572","0.120440259","0.2536378703","","","","","","","","","","","75","K","2","","","66","main_expt"
"364","","bandit","145","502638","0.0-106.0-0.0","13786396","wem/bandit_either","A2WCDQDLMC6J72","either","2","","","","","","","0","0","1","0.2019700983","","0.2","0.4","0.6","0.8","","","","","0.3768721334","0.3043747659","0.2019700983","0.2548884231","","","","","","","75","K","2","","","67","main_expt"
"394","","bandit","146","504553","0.0-107.0-0.0","13786396","wem/bandit_either","A2WCDQDLMC6J72","either","2","","","","","","","1","0","0","0.1467862533","","0.2","0.4","0.6","0.8","","","","","0.3826604183","0.2533072519","0.1467862533","0.2105458193","","","","","","","75","K","2","","","68","main_expt"
"427","","bandit","147","506562","0.0-108.0-0.0","13786396","wem/bandit_either","A2WCDQDLMC6J72","either","2","","","","","","","0","0","1","","0.09022805221","0.2","0.4","0.6","0.8","0.3981811202","0.2451677402","0.09022805221","0.2901666962","","","","","","","","","","","75","K","2","","","69","main_expt"
"288","","bandit","148","508400","0.0-109.0-0.0","13786396","wem/bandit_either","A2WCDQDLMC6J72","either","2","","","","","","","0","0","1","","0.1128827508","0.2","0.4","0.6","0.8","0.3936557204","0.2403061491","0.1128827508","0.2973761433","","","","","","","","","","","75","K","2","","","70","main_expt"
"1065","","bandit","149","511000","0.0-110.0-0.0","13786396","wem/bandit_either","A2WCDQDLMC6J72","either","2","","","","","","","0","0","1","","0.1184182172","0.2","0.4","0.6","0.8","0.3949471057","0.1917576795","0.1184182172","0.2737706179","","","","","","","","","","","75","K","2","","","71","main_expt"
"418","","bandit","150","512943","0.0-111.0-0.0","13786396","wem/bandit_either","A2WCDQDLMC6J72","either","2","","","","","","","0","0","1","0.1038133506","","0.2","0.4","0.6","0.8","","","","","0.3888869603","0.1894079546","0.1038133506","0.3005227265","","","","","","","75","K","2","","","72","main_expt"
"402","","bandit","151","514901","0.0-112.0-0.0","13786396","wem/bandit_either","A2WCDQDLMC6J72","either","2","","","","","","","0","0","1","","0.07830871569","0.2","0.4","0.6","0.8","0.4015056825","0.235909594","0.07830871569","0.3205676235","","","","","","","","","","","75","K","2","","","73","main_expt"
"1619","","bandit","152","518411","0.0-113.0-0.0","13786396","wem/bandit_either","A2WCDQDLMC6J72","either","2","","","","","","","0","0","1","0.09226686474","","0.2","0.4","0.6","0.8","","","","","0.4200542591","0.2772030277","0.09226686474","0.3040473008","","","","","","","75","K","2","","","74","main_expt"
"471","","bandit","153","520457","0.0-114.0-0.0","13786396","wem/bandit_either","A2WCDQDLMC6J72","either","2","","","","","","","0","0","1","","0.07948082514","0.2","0.4","0.6","0.8","0.4353174817","0.2237268092","0.07948082514","0.2686744794","","","","","","","","","","","75","K","2","","","75","main_expt"
"766","","bandit","154","522799","0.0-115.0-0.0","13786396","wem/bandit_either","A2WCDQDLMC6J72","either","2","","","","","","","0","0","1","0.1279570505","","0.2","0.4","0.6","0.8","","","","","0.4196821318","0.1739375455","0.1279570505","0.258707356","","","","","","","75","K","2","","","76","main_expt"
"1651","","bandit","155","526375","0.0-116.0-0.0","13786396","wem/bandit_either","A2WCDQDLMC6J72","either","2","","","","","","","1","0","0","0.3010070056","","0.2","0.4","0.6","0.8","","","","","0.3787369199","0.1648796623","0.1202820049","0.3010070056","","","","","","","76","L","3","","","77","main_expt"
"974","","bandit","156","529150","0.0-117.0-0.0","13786396","wem/bandit_either","A2WCDQDLMC6J72","either","2","","","","","","","0","0","1","0.2648586626","","0.2","0.4","0.6","0.8","","","","","0.4314930014","0.1637798684","0.1054071572","0.2648586626","","","","","","","76","L","3","","","78","main_expt"
"846","","bandit","157","531519","0.0-118.0-0.0","13786396","wem/bandit_either","A2WCDQDLMC6J72","either","2","","","","","","","0","0","1","","0.1984114041","0.2","0.4","0.6","0.8","0.4155078174","0.1490076182","0.1403095361","0.1984114041","","","","","","","","","","","76","L","3","","","79","main_expt"
"596","","bandit","158","533657","0.0-119.0-0.0","13786396","wem/bandit_either","A2WCDQDLMC6J72","either","2","","","","","","","0","0","1","0.180325551","","0.2","0.4","0.6","0.8","","","","","0.4226243671","0.1093198388","0.1891235553","0.180325551","","","","","","","76","L","3","","","80","main_expt"
"644","","bandit","159","535829","0.0-120.0-0.0","13786396","wem/bandit_either","A2WCDQDLMC6J72","either","2","","","","","","","0","0","1","0.224531153","","0.2","0.4","0.6","0.8","","","","","0.4474166549","0.08868186825","0.1858030354","0.224531153","","","","","","","76","L","3","","","81","main_expt"
"959","","bandit","160","538329","0.0-121.0-0.0","13786396","wem/bandit_either","A2WCDQDLMC6J72","either","2","","","","","","","1","0","0","0.221125015","","0.2","0.4","0.6","0.8","","","","","0.4636297045","0.1073880826","0.2476542501","0.221125015","","","","","","","76","L","3","","","82","main_expt"
"653","","bandit","161","540703","0.0-122.0-0.0","13786396","wem/bandit_either","A2WCDQDLMC6J72","either","2","","","","","","","0","0","1","","0.2143237207","0.2","0.4","0.6","0.8","0.467509749","0.1022587498","0.2188241074","0.2143237207","","","","","","","","","","","76","L","3","","","83","main_expt"
"688","","bandit","162","542945","0.0-123.0-0.0","13786396","wem/bandit_either","A2WCDQDLMC6J72","either","2","","","","","","","0","0","1","0.2097367537","","0.2","0.4","0.6","0.8","","","","","0.4551111531","0.1085807699","0.2754771977","0.2097367537","","","","","","","76","L","3","","","84","main_expt"
"945","","bandit","163","545640","0.0-124.0-0.0","13786396","wem/bandit_either","A2WCDQDLMC6J72","either","2","","","","","","","0","0","1","0.1661536269","","0.2","0.4","0.6","0.8","","","","","0.4621419017","0.1263918358","0.2965575968","0.1661536269","","","","","","","76","L","3","","","85","main_expt"
"537","","bandit","164","547796","0.0-125.0-0.0","13786396","wem/bandit_either","A2WCDQDLMC6J72","either","2","","","","","","","0","0","1","0.1364458955","","0.2","0.4","0.6","0.8","","","","","0.4612050897","0.1481941301","0.257129161","0.1364458955","","","","","","","76","L","3","","","86","main_expt"
"476","","bandit","165","549797","0.0-126.0-0.0","13786396","wem/bandit_either","A2WCDQDLMC6J72","either","2","","","","","","","0","0","1","0.08235553135","","0.2","0.4","0.6","0.8","","","","","0.4334675206","0.1447872846","0.2338967043","0.08235553135","","","","","","","76","L","3","","","87","main_expt"
"419","","bandit","166","551942","0.0-127.0-0.0","13786396","wem/bandit_either","A2WCDQDLMC6J72","either","2","","","","","","","1","0","0","0.0754832669","","0.2","0.4","0.6","0.8","","","","","0.4397617206","0.1391637727","0.2161535794","0.0754832669","","","","","","","76","L","3","","","88","main_expt"
"978","","bandit","167","554489","0.0-128.0-0.0","13786396","wem/bandit_either","A2WCDQDLMC6J72","either","2","","","","","","","0","0","1","0.109361408","","0.2","0.4","0.6","0.8","","","","","0.4635478967","0.1476089376","0.2043146745","0.109361408","","","","","","","76","L","3","","","89","main_expt"
"406","","bandit","168","556839","0.0-129.0-0.0","13786396","wem/bandit_either","A2WCDQDLMC6J72","either","2","","","","","","","0","0","1","","0.07391079866","0.2","0.4","0.6","0.8","0.4234969579","0.2081489191","0.2346009907","0.07391079866","","","","","","","","","","","76","L","3","","","90","main_expt"
"605","","bandit","169","559145","0.0-130.0-0.0","13786396","wem/bandit_either","A2WCDQDLMC6J72","either","2","","","","","","","0","0","1","0.1164594673","","0.2","0.4","0.6","0.8","","","","","0.4267507071","0.1834039029","0.2333967219","0.1164594673","","","","","","","76","L","3","","","91","main_expt"
"397","","bandit","170","561067","0.0-131.0-0.0","13786396","wem/bandit_either","A2WCDQDLMC6J72","either","2","","","","","","","0","0","1","0.113043345","","0.2","0.4","0.6","0.8","","","","","0.4089505196","0.2027314649","0.2150480475","0.113043345","","","","","","","76","L","3","","","92","main_expt"
"440","","bandit","171","563039","0.0-132.0-0.0","13786396","wem/bandit_either","A2WCDQDLMC6J72","either","2","","","","","","","0","0","1","0.1714352716","","0.2","0.4","0.6","0.8","","","","","0.4112501448","0.1738894496","0.2588080464","0.1714352716","","","","","","","76","L","3","","","93","main_expt"
"433","","bandit","172","565409","0.0-133.0-0.0","13786396","wem/bandit_either","A2WCDQDLMC6J72","either","2","","","","","","","0","0","1","0.1253024032","","0.2","0.4","0.6","0.8","","","","","0.452415855","0.2484708832","0.2748849181","0.1253024032","","","","","","","76","L","3","","","94","main_expt"
"176","","bandit","173","567559","0.0-134.0-0.0","13786396","wem/bandit_either","A2WCDQDLMC6J72","either","2","","","","","","","0","0","1","0.1401284447","","0.2","0.4","0.6","0.8","","","","","0.4589197587","0.2914685715","0.2791739054","0.1401284447","","","","","","","76","L","3","","","95","main_expt"
"974","","bandit","174","570421","0.0-135.0-0.0","13786396","wem/bandit_either","A2WCDQDLMC6J72","either","2","","","","","","","0","0","1","0.1320491369","","0.2","0.4","0.6","0.8","","","","","0.4481870348","0.2417524935","0.3149564315","0.1320491369","","","","","","","76","L","3","","","96","main_expt"
"527","","bandit","175","572501","0.0-136.0-0.0","13786396","wem/bandit_either","A2WCDQDLMC6J72","either","2","","","","","","","0","1","0","","0.4597072186","0.2","0.4","0.6","0.8","0.4597072186","0.2492821404","0.372564007","0.1518453759","","","","","","","","","","","72","H","0","img/none_selected.jpg","","97","main_expt"
"556","","bandit","176","574638","0.0-137.0-0.0","13786396","wem/bandit_either","A2WCDQDLMC6J72","either","2","","","","","","","0","0","1","0.4705619112","","0.2","0.4","0.6","0.8","","","","","0.4705619112","0.3002958449","0.393328365","0.2173959583","","","","","","","72","H","0","img/none_selected.jpg","","98","main_expt"
"488","","bandit","177","576838","0.0-138.0-0.0","13786396","wem/bandit_either","A2WCDQDLMC6J72","either","2","","","","","","","0","0","1","0.4800968761","","0.2","0.4","0.6","0.8","","","","","0.4800968761","0.3544832656","0.421239771","0.2618725657","","","","","","","72","H","0","img/none_selected.jpg","","99","main_expt"
"625","","bandit","178","579122","0.0-139.0-0.0","13786396","wem/bandit_either","A2WCDQDLMC6J72","either","2","","","","","","","0","0","1","","0.4780143146","0.2","0.4","0.6","0.8","0.4780143146","0.3810954338","0.4130759476","0.2487788848","","","","","","","","","","","72","H","0","img/none_selected.jpg","","100","main_expt"
"788","","bandit","179","581433","0.0-140.0-0.0","13786396","wem/bandit_either","A2WCDQDLMC6J72","either","2","","","","","","","0","0","1","","0.4849002763","0.2","0.4","0.6","0.8","0.4849002763","0.4042362267","0.4089462913","0.2890792313","","","","","","","","","","","72","H","0","img/none_selected.jpg","","101","main_expt"
"993","","bandit","180","584417","0.0-141.0-0.0","13786396","wem/bandit_either","A2WCDQDLMC6J72","either","2","","","","","","","0","1","0","","0.4886078379","0.2","0.4","0.6","0.8","0.4886078379","0.4594696392","0.370330464","0.3136369757","","","","","","","","","","","72","H","0","img/none_selected.jpg","","102","main_expt"
"439","","bandit","181","586405","0.0-142.0-0.0","13786396","wem/bandit_either","A2WCDQDLMC6J72","either","2","","","","","","","0","0","1","","0.4588766667","0.2","0.4","0.6","0.8","0.47121906","0.4588766667","0.3306315663","0.2364671533","","","","","","","","","","","74","J","1","","","103","main_expt"
"689","","bandit","182","588654","0.0-143.0-0.0","13786396","wem/bandit_either","A2WCDQDLMC6J72","either","2","","","","","","","0","0","1","0.4372785745","","0.2","0.4","0.6","0.8","","","","","0.4760763377","0.4372785745","0.354634178","0.2202486688","","","","","","","74","J","1","","","104","main_expt"
"788","","bandit","183","590971","0.0-144.0-0.0","13786396","wem/bandit_either","A2WCDQDLMC6J72","either","2","","","","","","","0","0","1","0.4063887309","","0.2","0.4","0.6","0.8","","","","","0.4701389446","0.4063887309","0.3896605338","0.1854418088","","","","","","","74","J","1","","","105","main_expt"
"594","","bandit","184","593495","0.0-145.0-0.0","13786396","wem/bandit_either","A2WCDQDLMC6J72","either","2","","","","","","","0","0","1","","0.3778019321","0.2","0.4","0.6","0.8","0.471324938","0.3778019321","0.414339711","0.1596754559","","","","","","","","","","","74","J","1","","","106","main_expt"
"427","","bandit","185","595453","0.0-146.0-0.0","13786396","wem/bandit_either","A2WCDQDLMC6J72","either","2","","","","","","","1","0","0","0.3614143111","","0.2","0.4","0.6","0.8","","","","","0.4786694594","0.3614143111","0.4164239898","0.137099288","","","","","","","74","J","1","","","107","main_expt"
"1097","","bandit","186","598075","0.0-147.0-0.0","13786396","wem/bandit_either","A2WCDQDLMC6J72","either","2","","","","","","","1","0","0","0.3681250399","","0.2","0.4","0.6","0.8","","","","","0.4810065258","0.3681250399","0.3836571442","0.1443984823","","","","","","","74","J","1","","","108","main_expt"
"1286","","bandit","187","601231","0.0-148.0-0.0","13786396","wem/bandit_either","A2WCDQDLMC6J72","either","2","","","","","","","0","0","1","","0.3446081275","0.2","0.4","0.6","0.8","0.4816764674","0.3446081275","0.3881214568","0.1409511773","","","","","","","","","","","74","J","1","","","109","main_expt"
"486","","bandit","188","603271","0.0-149.0-0.0","13786396","wem/bandit_either","A2WCDQDLMC6J72","either","2","","","","","","","0","1","0","","0.3681270965","0.2","0.4","0.6","0.8","0.4882082215","0.3681270965","0.4266873791","0.1787750665","","","","","","","","","","","74","J","1","","","110","main_expt"
"1742","","bandit","189","606561","0.0-150.0-0.0","13786396","wem/bandit_either","A2WCDQDLMC6J72","either","2","","","","","","","0","0","1","0.391379093","","0.2","0.4","0.6","0.8","","","","","0.478642168","0.391379093","0.4475699482","0.1862786225","","","","","","","74","J","1","","","111","main_expt"
"2539","","bandit","190","610878","0.0-151.0-0.0","13786396","wem/bandit_either","A2WCDQDLMC6J72","either","2","","","","","","","0","0","1","0.4131544452","","0.2","0.4","0.6","0.8","","","","","0.4841415165","0.4131544452","0.4190314983","0.1654620982","","","","","","","74","J","1","","","112","main_expt"
"11705","","bandit","191","624112","0.0-152.0-0.0","13786396","wem/bandit_either","A2WCDQDLMC6J72","either","2","","","","","","","1","0","0","0.3963985948","","0.2","0.4","0.6","0.8","","","","","0.4883212127","0.3963985948","0.3666128881","0.1582981878","","","","","","","74","J","1","","","113","main_expt"
"1078","","bandit","192","626734","0.0-153.0-0.0","13786396","wem/bandit_either","A2WCDQDLMC6J72","either","2","","","","","","","0","1","0","","0.4117985871","0.2","0.4","0.6","0.8","0.4883790739","0.4117985871","0.3866259854","0.1922757069","","","","","","","","","","","74","J","1","","","114","main_expt"
"65","","bandit","193","628323","0.0-154.0-0.0","13786396","wem/bandit_either","A2WCDQDLMC6J72","either","2","","","","","","","0","0","1","","0.394381103","0.2","0.4","0.6","0.8","0.4902011966","0.394381103","0.354161152","0.185618385","","","","","","","","","","","74","J","1","","","115","main_expt"
"781","","bandit","194","630765","0.0-155.0-0.0","13786396","wem/bandit_either","A2WCDQDLMC6J72","either","2","","","","","","","0","0","1","0.3762408663","","0.2","0.4","0.6","0.8","","","","","0.4844723045","0.3762408663","0.3170745426","0.2057277395","","","","","","","74","J","1","","","116","main_expt"
"1090","","bandit","195","633378","0.0-156.0-0.0","13786396","wem/bandit_either","A2WCDQDLMC6J72","either","2","","","","","","","0","0","1","","0.3823674378","0.2","0.4","0.6","0.8","0.4895589844","0.3823674378","0.304536318","0.2288411079","","","","","","","","","","","74","J","1","","","117","main_expt"
"1694","","bandit","196","636850","0.0-157.0-0.0","13786396","wem/bandit_either","A2WCDQDLMC6J72","either","2","","","","","","","0","0","1","0.4050195855","","0.2","0.4","0.6","0.8","","","","","0.4899729034","0.4050195855","0.3411026949","0.2207517482","","","","","","","74","J","1","","","118","main_expt"
"1499","","bandit","197","639879","0.0-158.0-0.0","13786396","wem/bandit_either","A2WCDQDLMC6J72","either","2","","","","","","","0","1","0","","0.4227562767","0.2","0.4","0.6","0.8","0.4947041593","0.4227562767","0.3447942488","0.1955286499","","","","","","","","","","","74","J","1","","","119","main_expt"
"976","","bandit","198","642500","0.0-159.0-0.0","13786396","wem/bandit_either","A2WCDQDLMC6J72","either","2","","","","","","","1","0","0","0.4163810796","","0.2","0.4","0.6","0.8","","","","","0.4916865355","0.4163810796","0.3686185352","0.2427950695","","","","","","","74","J","1","","","120","main_expt"
"661","","bandit","199","644755","0.0-160.0-0.0","13786396","wem/bandit_either","A2WCDQDLMC6J72","either","2","","","","","","","0","1","0","","0.406821829","0.2","0.4","0.6","0.8","0.4860386064","0.406821829","0.3547669752","0.2479682904","","","","","","","","","","","74","J","1","","","121","main_expt"
"570","","bandit","200","646849","0.0-161.0-0.0","13786396","wem/bandit_either","A2WCDQDLMC6J72","either","2","","","","","","","0","0","1","","0.3999449125","0.2","0.4","0.6","0.8","0.483083859","0.3999449125","0.365994073","0.3081985406","","","","","","","","","","","74","J","1","","","122","main_expt"
"262","","bandit","201","648635","0.0-162.0-0.0","13786396","wem/bandit_either","A2WCDQDLMC6J72","either","2","","","","","","","0","0","1","","0.366626489","0.2","0.4","0.6","0.8","0.4791491275","0.366626489","0.3120596142","0.3089359708","","","","","","","","","","","74","J","1","","","123","main_expt"
"917","","bandit","202","651300","0.0-163.0-0.0","13786396","wem/bandit_either","A2WCDQDLMC6J72","either","2","","","","","","","0","0","1","0.3706278578","","0.2","0.4","0.6","0.8","","","","","0.4776777384","0.3706278578","0.302161917","0.3298338218","","","","","","","74","J","1","","","124","main_expt"
"1669","","bandit","203","654597","0.0-164.0-0.0","13786396","wem/bandit_either","A2WCDQDLMC6J72","either","2","","","","","","","0","1","0","","0.3545504723","0.2","0.4","0.6","0.8","0.478983255","0.3545504723","0.2794370347","0.2795250441","","","","","","","","","","","74","J","1","","","125","main_expt"
"709","","bandit","204","656833","0.0-165.0-0.0","13786396","wem/bandit_either","A2WCDQDLMC6J72","either","2","","","","","","","1","0","0","0.2466154908","","0.2","0.4","0.6","0.8","","","","","0.4724726719","0.3106298006","0.2466154908","0.2184127205","","","","","","","75","K","2","","","126","main_expt"
"998","","bandit","205","659496","0.0-166.0-0.0","13786396","wem/bandit_either","A2WCDQDLMC6J72","either","2","","","","","","","1","0","0","0.2712823261","","0.2","0.4","0.6","0.8","","","","","0.4796244369","0.3351405197","0.2712823261","0.2488858907","","","","","","","75","K","2","","","127","main_expt"
"973","","bandit","206","662183","0.0-167.0-0.0","13786396","wem/bandit_either","A2WCDQDLMC6J72","either","2","","","","","","","0","0","1","","0.2095517986","0.2","0.4","0.6","0.8","0.4825212971","0.2984422464","0.2095517986","0.2850827173","","","","","","","","","","","75","K","2","","","128","main_expt"
"872","","bandit","207","664819","0.0-168.0-0.0","13786396","wem/bandit_either","A2WCDQDLMC6J72","either","2","","","","","","","1","0","0","0.1986866195","","0.2","0.4","0.6","0.8","","","","","0.4877535013","0.2027892291","0.1986866195","0.2867242009","","","","","","","75","K","2","","","129","main_expt"
"504","","bandit","208","667091","0.0-169.0-0.0","13786396","wem/bandit_either","A2WCDQDLMC6J72","either","2","","","","","","","0","0","1","","0.172959111","0.2","0.4","0.6","0.8","0.4833646461","0.13768179","0.172959111","0.2509552002","","","","","","","","","","","75","K","2","","","130","main_expt"
"597","","bandit","209","669281","0.0-170.0-0.0","13786396","wem/bandit_either","A2WCDQDLMC6J72","either","2","","","","","","","0","0","1","0.163172462","","0.2","0.4","0.6","0.8","","","","","0.4790990265","0.1352832961","0.163172462","0.2172434631","","","","","","","75","K","2","","","131","main_expt"
"473","","bandit","210","671277","0.0-171.0-0.0","13786396","wem/bandit_either","A2WCDQDLMC6J72","either","2","","","","","","","0","0","1","0.161148659","","0.2","0.4","0.6","0.8","","","","","0.4882311922","0.08660982753","0.161148659","0.158295755","","","","","","","75","K","2","","","132","main_expt"
"66","","bandit","211","672894","0.0-172.0-0.0","13786396","wem/bandit_either","A2WCDQDLMC6J72","either","2","","","","","","","1","0","0","0.185310911","","0.2","0.4","0.6","0.8","","","","","0.4889625365","0.1020907376","0.1735641072","0.185310911","","","","","","","76","L","3","","","133","main_expt"
"837","","bandit","212","675569","0.0-173.0-0.0","13786396","wem/bandit_either","A2WCDQDLMC6J72","either","2","","","","","","","0","0","1","","0.1966535246","0.2","0.4","0.6","0.8","0.4916783795","0.1231499397","0.1597390633","0.1966535246","","","","","","","","","","","76","L","3","","","134","main_expt"
"468","","bandit","213","677569","0.0-174.0-0.0","13786396","wem/bandit_either","A2WCDQDLMC6J72","either","2","","","","","","","0","1","0","","0.2290191974","0.2","0.4","0.6","0.8","0.4904315354","0.1524236556","0.1460070414","0.2290191974","","","","","","","","","","","76","L","3","","","135","main_expt"
"696","","bandit","214","679790","0.0-175.0-0.0","13786396","wem/bandit_either","A2WCDQDLMC6J72","either","2","","","","","","","0","0","1","","0.2929229053","0.2","0.4","0.6","0.8","0.491666595","0.1954247664","0.105474526","0.2929229053","","","","","","","","","","","76","L","3","","","136","main_expt"
"1041","","bandit","215","682944","0.0-176.0-0.0","13786396","wem/bandit_either","A2WCDQDLMC6J72","either","2","","","","","","","0","0","1","0.2780805385","","0.2","0.4","0.6","0.8","","","","","0.4917142499","0.1833989084","0.08835118593","0.2780805385","","","","","","","76","L","3","","","137","main_expt"
"600","","bandit","216","685308","0.0-177.0-0.0","13786396","wem/bandit_either","A2WCDQDLMC6J72","either","2","","","","","","","0","0","1","","0.217224157","0.2","0.4","0.6","0.8","0.4870170403","0.1490533902","0.06418360449","0.217224157","","","","","","","","","","","76","L","3","","","138","main_expt"
"1094","","bandit","217","687932","0.0-178.0-0.0","13786396","wem/bandit_either","A2WCDQDLMC6J72","either","2","","","","","","","0","0","1","","0.4834992155","0.2","0.4","0.6","0.8","0.4834992155","0.1318817547","0.03554325754","0.2323391466","","","","","","","","","","","72","H","0","img/none_selected.jpg","","139","main_expt"
"496","","bandit","218","690476","0.0-179.0-0.0","13786396","wem/bandit_either","A2WCDQDLMC6J72","either","2","","","","","","","0","0","1","0.4927392517","","0.2","0.4","0.6","0.8","","","","","0.4927392517","0.1877412345","0.04477370895","0.244475209","","","","","","","72","H","0","img/none_selected.jpg","","140","main_expt"
"725","","bandit","219","692901","0.0-180.0-0.0","13786396","wem/bandit_either","A2WCDQDLMC6J72","either","2","","","","","","","0","0","1","","0.4872377518","0.2","0.4","0.6","0.8","0.4872377518","0.2363671377","0.03780119019","0.232604034","","","","","","","","","","","72","H","0","img/none_selected.jpg","","141","main_expt"
"408","","bandit","220","694963","0.0-181.0-0.0","13786396","wem/bandit_either","A2WCDQDLMC6J72","either","2","","","","","","","0","0","1","0.2546402356","","0.2","0.4","0.6","0.8","","","","","0.4846254936","0.2546402356","0.03149913875","0.2447345556","","","","","","","74","J","1","","","142","main_expt"
"600","","bandit","221","697196","0.0-182.0-0.0","13786396","wem/bandit_either","A2WCDQDLMC6J72","either","2","","","","","","","0","1","0","","0.2825544685","0.2","0.4","0.6","0.8","0.4815328815","0.2825544685","0.04191513266","0.26413271","","","","","","","","","","","74","J","1","","","143","main_expt"
"800","","bandit","222","699589","0.0-183.0-0.0","13786396","wem/bandit_either","A2WCDQDLMC6J72","either","2","","","","","","","0","0","1","0.2731230023","","0.2","0.4","0.6","0.8","","","","","0.4854048375","0.2731230023","0.05613120157","0.1988203511","","","","","","","74","J","1","","","144","main_expt"
"2003","","bandit","223","703129","0.0-184.0-0.0","13786396","wem/bandit_either","A2WCDQDLMC6J72","either","2","","","","","","","1","0","0","0.2943814715","","0.2","0.4","0.6","0.8","","","","","0.4813029389","0.2943814715","0.03827589539","0.217822638","","","","","","","74","J","1","","","145","main_expt"
"539","","bandit","224","705270","0.0-185.0-0.0","13786396","wem/bandit_either","A2WCDQDLMC6J72","either","2","","","","","","","0","1","0","","0.328634005","0.2","0.4","0.6","0.8","0.4884824202","0.328634005","0.02861175853","0.2009042904","","","","","","","","","","","74","J","1","","","146","main_expt"
"1087","","bandit","225","708197","0.0-186.0-0.0","13786396","wem/bandit_either","A2WCDQDLMC6J72","either","2","","","","","","","0","0","1","","0.3511209141","0.2","0.4","0.6","0.8","0.4835291327","0.3511209141","0.02140640811","0.2080446297","","","","","","","","","","","74","J","1","","","147","main_expt"
"682","","bandit","226","710406","0.0-187.0-0.0","13786396","wem/bandit_either","A2WCDQDLMC6J72","either","2","","","","","","","0","1","0","","0.3874996206","0.2","0.4","0.6","0.8","0.4716003481","0.3874996206","0.0202041473","0.1536700415","","","","","","","","","","","74","J","1","","","148","main_expt"
"530","","bandit","227","712473","0.0-188.0-0.0","13786396","wem/bandit_either","A2WCDQDLMC6J72","either","2","","","","","","","0","1","0","","0.3476646045","0.2","0.4","0.6","0.8","0.4341886607","0.3476646045","0.01154190459","0.1593661633","","","","","","","","","","","74","J","1","","","149","main_expt"
"152","","bandit","228","714167","0.0-189.0-0.0","13786396","wem/bandit_either","A2WCDQDLMC6J72","either","2","","","","","","","0","0","1","0.01291237021","","0.2","0.4","0.6","0.8","","","","","0.4014438172","0.3323010919","0.01291237021","0.144955896","","","","","","","75","K","2","","","150","main_expt"
"1074","","bandit","229","716868","0.0-190.0-0.0","13786396","wem/bandit_either","A2WCDQDLMC6J72","either","2","","","","","","","0","0","1","","0.0137789916","0.2","0.4","0.6","0.8","0.3980713407","0.3954477196","0.0137789916","0.2123564028","","","","","","","","","","","75","K","2","","","151","main_expt"
"674","","bandit","230","719353","0.0-191.0-0.0","13786396","wem/bandit_either","A2WCDQDLMC6J72","either","2","","","","","","","0","0","1","","0.01985271471","0.2","0.4","0.6","0.8","0.4002357887","0.4186327087","0.01985271471","0.2301890466","","","","","","","","","","","75","K","2","","","152","main_expt"
"775","","bandit","231","721662","0.0-192.0-0.0","13786396","wem/bandit_either","A2WCDQDLMC6J72","either","2","","","","","","","0","0","1","0.02951100453","","0.2","0.4","0.6","0.8","","","","","0.388677987","0.4029566754","0.02951100453","0.2295153641","","","","","","","75","K","2","","","153","main_expt"
"494","","bandit","232","723712","0.0-193.0-0.0","13786396","wem/bandit_either","A2WCDQDLMC6J72","either","2","","","","","","","0","0","1","0.2163321136","","0.2","0.4","0.6","0.8","","","","","0.3817747688","0.4037751878","0.02325572033","0.2163321136","","","","","","","76","L","3","","","154","main_expt"
"7682","","bandit","233","733187","0.0-194.0-0.0","13786396","wem/bandit_either","A2WCDQDLMC6J72","either","2","","","","","","","0","0","1","0.2257858177","","0.2","0.4","0.6","0.8","","","","","0.327727533","0.4078727314","0.03925092562","0.2257858177","","","","","","","76","L","3","","","155","main_expt"
"47534","","bandit","234","782296","0.0-195.0-0.0","13786396","wem/bandit_either","A2WCDQDLMC6J72","either","2","","","","","","","0","0","1","","0.3941681487","0.2","0.4","0.6","0.8","0.2821504166","0.3941681487","0.05532081832","0.2077891775","","","","","","","","","","","74","J","1","","","156","main_expt"
"576","","bandit","235","784755","0.0-196.0-0.0","13786396","wem/bandit_either","A2WCDQDLMC6J72","either","2","","","","","","","0","0","1","0.3417147062","","0.2","0.4","0.6","0.8","","","","","0.2784527126","0.3417147062","0.05983660039","0.1742908387","","","","","","","74","J","1","","","157","main_expt"
"43","","bandit","236","786401","0.0-197.0-0.0","13786396","wem/bandit_either","A2WCDQDLMC6J72","either","2","","","","","","","0","0","1","","0.2963220618","0.2","0.4","0.6","0.8","0.2857058734","0.2963220618","0.09347744845","0.162057643","","","","","","","","","","","74","J","1","","","158","main_expt"
"491","","bandit","237","788612","0.0-198.0-0.0","13786396","wem/bandit_either","A2WCDQDLMC6J72","either","2","","","","","","","1","0","0","0.09649648717","","0.2","0.4","0.6","0.8","","","","","0.2349295223","0.2961528309","0.09649648717","0.1805514511","","","","","","","75","K","2","","","159","main_expt"
"442","","bandit","238","790581","0.0-199.0-0.0","13786396","wem/bandit_either","A2WCDQDLMC6J72","either","2","","","","","","","0","0","1","","0.08382429791","0.2","0.4","0.6","0.8","0.2275717407","0.2842772575","0.08382429791","0.1724629995","","","","","","","","","","","75","K","2","","","160","main_expt"
"820","","bandit","239","792931","0.0-200.0-0.0","13786396","wem/bandit_either","A2WCDQDLMC6J72","either","2","","","","","","","0","0","1","","0.1466352983","0.2","0.4","0.6","0.8","0.2559884592","0.2747674873","0.1466352983","0.1660992999","","","","","","","","","","","75","K","2","","","161","main_expt"
"687","","bandit","240","795426","0.0-201.0-0.0","13786396","wem/bandit_either","A2WCDQDLMC6J72","either","2","","","","","","","0","0","1","0.1569467617","","0.2","0.4","0.6","0.8","","","","","0.2670526618","0.2993190406","0.1569467617","0.2281832109","","","","","","","75","K","2","","","162","main_expt"
"357","","bandit","241","797594","0.0-202.0-0.0","13786396","wem/bandit_either","A2WCDQDLMC6J72","either","2","","","","","","","0","0","1","","0.1437935099","0.2","0.4","0.6","0.8","0.2618894379","0.3102408377","0.1437935099","0.2144285545","","","","","","","","","","","75","K","2","","","163","main_expt"
"1","","bandit","242","799252","0.0-203.0-0.0","13786396","wem/bandit_either","A2WCDQDLMC6J72","either","2","","","","","","","0","0","1","0.2131293933","","0.2","0.4","0.6","0.8","","","","","0.2977476978","0.2607878409","0.1503677763","0.2131293933","","","","","","","76","L","3","","","164","main_expt"
"532","","bandit","243","801503","0.0-204.0-0.0","13786396","wem/bandit_either","A2WCDQDLMC6J72","either","2","","","","","","","0","0","1","0.251698227","","0.2","0.4","0.6","0.8","","","","","0.3138636066","0.2470054868","0.1574825995","0.251698227","","","","","","","76","L","3","","","165","main_expt"
"1619","","bandit","244","804723","0.0-205.0-0.0","13786396","wem/bandit_either","A2WCDQDLMC6J72","either","2","","","","","","","1","0","0","0.3204338644","","0.2","0.4","0.6","0.8","","","","","0.3204338644","0.2629624785","0.1500633275","0.2831539445","","","","","","","72","H","0","img/none_selected.jpg","","166","main_expt"
"434","","bandit","245","806687","0.0-206.0-0.0","13786396","wem/bandit_either","A2WCDQDLMC6J72","either","2","","","","","","","0","1","0","","0.3600517585","0.2","0.4","0.6","0.8","0.3600517585","0.2745713682","0.1137242654","0.2496169508","","","","","","","","","","","72","H","0","img/none_selected.jpg","","167","main_expt"
"422","","bandit","246","808637","0.0-207.0-0.0","13786396","wem/bandit_either","A2WCDQDLMC6J72","either","2","","","","","","","0","1","0","","0.3678373827","0.2","0.4","0.6","0.8","0.3678373827","0.2557249153","0.145192941","0.2315540067","","","","","","","","","","","72","H","0","img/none_selected.jpg","","168","main_expt"
"434","","bandit","247","810597","0.0-208.0-0.0","13786396","wem/bandit_either","A2WCDQDLMC6J72","either","2","","","","","","","0","1","0","","0.3421512568","0.2","0.4","0.6","0.8","0.3421512568","0.2016321063","0.1863479632","0.1825517174","","","","","","","","","","","72","H","0","img/none_selected.jpg","","169","main_expt"
"559","","bandit","248","812913","0.0-209.0-0.0","13786396","wem/bandit_either","A2WCDQDLMC6J72","either","2","","","","","","","0","0","1","","0.3917895485","0.2","0.4","0.6","0.8","0.3917895485","0.2210696627","0.142304713","0.2535959064","","","","","","","","","","","72","H","0","img/none_selected.jpg","","170","main_expt"
"836","","bandit","249","815544","0.0-210.0-0.0","13786396","wem/bandit_either","A2WCDQDLMC6J72","either","2","","","","","","","0","0","1","","0.3206692194","0.2","0.4","0.6","0.8","0.3206692194","0.1627904758","0.1739768979","0.3004284576","","","","","","","","","","","72","H","0","img/none_selected.jpg","","171","main_expt"
"692","","bandit","250","817897","0.0-211.0-0.0","13786396","wem/bandit_either","A2WCDQDLMC6J72","either","2","","","","","","","0","0","1","0.1421076649","","0.2","0.4","0.6","0.8","","","","","0.3198600846","0.1421076649","0.2172659048","0.2716191145","","","","","","","74","J","1","","","172","main_expt"
"1256","","bandit","251","820681","0.0-212.0-0.0","13786396","wem/bandit_either","A2WCDQDLMC6J72","either","2","","","","","","","0","1","0","","0.165050165","0.2","0.4","0.6","0.8","0.2641483633","0.165050165","0.2419731025","0.3253138029","","","","","","","","","","","74","J","1","","","173","main_expt"
"571","","bandit","252","822879","0.0-213.0-0.0","13786396","wem/bandit_either","A2WCDQDLMC6J72","either","2","","","","","","","0","0","1","0.1406738207","","0.2","0.4","0.6","0.8","","","","","0.2248062597","0.1406738207","0.2239571331","0.3419591401","","","","","","","74","J","1","","","174","main_expt"
"558","","bandit","253","825035","0.0-214.0-0.0","13786396","wem/bandit_either","A2WCDQDLMC6J72","either","2","","","","","","","0","0","1","0.138310495","","0.2","0.4","0.6","0.8","","","","","0.2370379408","0.138310495","0.2311410243","0.3442692367","","","","","","","74","J","1","","","175","main_expt"
"1077","","bandit","254","827714","0.0-215.0-0.0","13786396","wem/bandit_either","A2WCDQDLMC6J72","either","2","","","","","","","0","0","1","","0.2610077479","0.2","0.4","0.6","0.8","0.2157433706","0.1675243642","0.2610077479","0.3397266539","","","","","","","","","","","75","K","2","","","176","main_expt"
"442","","bandit","255","829682","0.0-216.0-0.0","13786396","wem/bandit_either","A2WCDQDLMC6J72","either","2","","","","","","","0","0","1","0.2780938204","","0.2","0.4","0.6","0.8","","","","","0.2014791824","0.1919885971","0.2780938204","0.2997078274","","","","","","","75","K","2","","","177","main_expt"
"414","","bandit","256","831842","0.0-217.0-0.0","13786396","wem/bandit_either","A2WCDQDLMC6J72","either","2","","","","","","","0","0","1","","0.3151752793","0.2","0.4","0.6","0.8","0.1913564418","0.2365392944","0.3151752793","0.3064007527","","","","","","","","","","","75","K","2","","","178","main_expt"
"6164","","bandit","257","839532","0.0-218.0-0.0","13786396","wem/bandit_either","A2WCDQDLMC6J72","either","2","","","","","","","1","0","0","0.3533432679","","0.2","0.4","0.6","0.8","","","","","0.1980728016","0.2509455726","0.2799621139","0.3533432679","","","","","","","76","L","3","","","179","main_expt"
"366","","bandit","258","841641","0.0-219.0-0.0","13786396","wem/bandit_either","A2WCDQDLMC6J72","either","2","","","","","","","0","0","1","0.3652522579","","0.2","0.4","0.6","0.8","","","","","0.1833491223","0.2767223981","0.3170936092","0.3652522579","","","","","","","76","L","3","","","180","main_expt"
"932","","bandit","259","844401","0.0-220.0-0.0","13786396","wem/bandit_either","A2WCDQDLMC6J72","either","2","","","","","","","0","0","1","0.3383156657","","0.2","0.4","0.6","0.8","","","","","0.1342686697","0.314600373","0.28101752","0.3383156657","","","","","","","76","L","3","","","181","main_expt"
"1318","","bandit","260","847423","0.0-221.0-0.0","13786396","wem/bandit_either","A2WCDQDLMC6J72","either","2","","","","","","","0","0","1","0.2902116232","","0.2","0.4","0.6","0.8","","","","","0.1636660304","0.3943610609","0.3043342224","0.2902116232","","","","","","","76","L","3","","","182","main_expt"
"220","","bandit","261","849204","0.0-222.0-0.0","13786396","wem/bandit_either","A2WCDQDLMC6J72","either","2","","","","","","","1","0","0","0.3026157476","","0.2","0.4","0.6","0.8","","","","","0.136761637","0.3586422101","0.3192524042","0.3026157476","","","","","","","76","L","3","","","183","main_expt"
"1686","","bandit","262","852424","0.0-223.0-0.0","13786396","wem/bandit_either","A2WCDQDLMC6J72","either","2","","","","","","","0","0","1","0.3360229169","","0.2","0.4","0.6","0.8","","","","","0.1685989701","0.3879999062","0.3332516821","0.3360229169","","","","","","","76","L","3","","","184","main_expt"
"570","","bandit","263","854579","0.0-224.0-0.0","13786396","wem/bandit_either","A2WCDQDLMC6J72","either","2","","","","","","","0","0","1","0.3336456265","","0.2","0.4","0.6","0.8","","","","","0.1663529744","0.3831340227","0.3228184693","0.3336456265","","","","","","","76","L","3","","","185","main_expt"
"1790","","bandit","264","857900","0.0-225.0-0.0","13786396","wem/bandit_either","A2WCDQDLMC6J72","either","2","","","","","","","0","0","1","0.3308881938","","0.2","0.4","0.6","0.8","","","","","0.1916836285","0.3999004662","0.3111703144","0.3308881938","","","","","","","76","L","3","","","186","main_expt"
"1840","","bandit","265","861291","0.0-226.0-0.0","13786396","wem/bandit_either","A2WCDQDLMC6J72","either","2","","","","","","","0","0","1","0.325530054","","0.2","0.4","0.6","0.8","","","","","0.1686829448","0.3875363153","0.3353611299","0.325530054","","","","","","","76","L","3","","","187","main_expt"
"388","","bandit","266","863244","0.0-227.0-0.0","13786396","wem/bandit_either","A2WCDQDLMC6J72","either","2","","","","","","","0","0","1","","0.3646937268","0.2","0.4","0.6","0.8","0.1461675531","0.3875691392","0.3646937268","0.3055482451","","","","","","","","","","","75","K","2","","","188","main_expt"
"456","","bandit","267","865406","0.0-228.0-0.0","13786396","wem/bandit_either","A2WCDQDLMC6J72","either","2","","","","","","","0","0","1","","0.3891323825","0.2","0.4","0.6","0.8","0.1382971047","0.4166866882","0.3891323825","0.3002345065","","","","","","","","","","","75","K","2","","","189","main_expt"
"619","","bandit","268","867558","0.0-229.0-0.0","13786396","wem/bandit_either","A2WCDQDLMC6J72","either","2","","","","","","","0","1","0","","0.3860741766","0.2","0.4","0.6","0.8","0.1898135375","0.4124474499","0.3860741766","0.2693931213","","","","","","","","","","","75","K","2","","","190","main_expt"
"93","","bandit","269","869179","0.0-230.0-0.0","13786396","wem/bandit_either","A2WCDQDLMC6J72","either","2","","","","","","","0","0","1","0.3864243721","","0.2","0.4","0.6","0.8","","","","","0.1264917812","0.3638199534","0.3864243721","0.3009284261","","","","","","","75","K","2","","","191","main_expt"
"160","","bandit","270","870901","0.0-231.0-0.0","13786396","wem/bandit_either","A2WCDQDLMC6J72","either","2","","","","","","","0","0","1","","0.3711146034","0.2","0.4","0.6","0.8","0.1185409567","0.3711146034","0.400448014","0.3157917784","","","","","","","","","","","74","J","1","","","192","main_expt"
"519","","bandit","271","873121","0.0-232.0-0.0","13786396","wem/bandit_either","A2WCDQDLMC6J72","either","2","","","","","","","0","0","1","","0.3654165885","0.2","0.4","0.6","0.8","0.09837948322","0.3654165885","0.3895367297","0.2999212614","","","","","","","","","","","74","J","1","","","193","main_expt"
"1212","","bandit","272","875930","0.0-233.0-0.0","13786396","wem/bandit_either","A2WCDQDLMC6J72","either","2","","","","","","","0","0","1","","0.3537818584","0.2","0.4","0.6","0.8","0.137690802","0.3537818584","0.4032313792","0.3287494418","","","","","","","","","","","74","J","1","","","194","main_expt"
"546","","bandit","273","878087","0.0-234.0-0.0","13786396","wem/bandit_either","A2WCDQDLMC6J72","either","2","","","","","","","0","0","1","0.3597494918","","0.2","0.4","0.6","0.8","","","","","0.1683354775","0.3597494918","0.337234763","0.3031978913","","","","","","","74","J","1","","","195","main_expt"
"622","","bandit","274","880315","0.0-235.0-0.0","13786396","wem/bandit_either","A2WCDQDLMC6J72","either","2","","","","","","","0","1","0","","0.1561951964","0.2","0.4","0.6","0.8","0.1561951964","0.3479121901","0.3950764453","0.2901303692","","","","","","","","","","","72","H","0","img/none_selected.jpg","","196","main_expt"
"555","","bandit","275","882572","0.0-236.0-0.0","13786396","wem/bandit_either","A2WCDQDLMC6J72","either","2","","","","","","","0","0","1","","0.1329868482","0.2","0.4","0.6","0.8","0.1329868482","0.3596292454","0.4193743727","0.2444781728","","","","","","","","","","","72","H","0","img/none_selected.jpg","","197","main_expt"
"911","","bandit","276","885017","0.0-237.0-0.0","13786396","wem/bandit_either","A2WCDQDLMC6J72","either","2","","","","","","","0","1","0","","0.1730826789","0.2","0.4","0.6","0.8","0.1730826789","0.3555371828","0.4375347816","0.2140047665","","","","","","","","","","","72","H","0","img/none_selected.jpg","","198","main_expt"
"7593","","bandit","277","894272","0.0-238.0-0.0","13786396","wem/bandit_either","A2WCDQDLMC6J72","either","2","","","","","","","0","0","1","","0.1385649096","0.2","0.4","0.6","0.8","0.1385649096","0.4016486285","0.4315030007","0.2077842613","","","","","","","","","","","72","H","0","img/none_selected.jpg","","199","main_expt"
"1190","","bandit","278","896999","0.0-239.0-0.0","13786396","wem/bandit_either","A2WCDQDLMC6J72","either","2","","","","","","","0","1","0","","0.3871107612","0.2","0.4","0.6","0.8","0.1941139053","0.3871107612","0.4340108373","0.180488049","","","","","","","","","","","74","J","1","","","200","main_expt"
"468","","bandit","279","899239","0.0-240.0-0.0","13786396","wem/bandit_either","A2WCDQDLMC6J72","either","2","","","","","","","0","0","1","","0.3856539452","0.2","0.4","0.6","0.8","0.1825013029","0.3856539452","0.441078118","0.2084987087","","","","","","","","","","","74","J","1","","","201","main_expt"
"536","","bandit","280","901375","0.0-241.0-0.0","13786396","wem/bandit_either","A2WCDQDLMC6J72","either","2","","","","","","","0","0","1","","0.358588673","0.2","0.4","0.6","0.8","0.162440572","0.358588673","0.4143682719","0.1869669721","","","","","","","","","","","74","J","1","","","202","main_expt"
"433","","bandit","281","903401","0.0-242.0-0.0","13786396","wem/bandit_either","A2WCDQDLMC6J72","either","2","","","","","","","0","0","1","0.4280720422","","0.2","0.4","0.6","0.8","","","","","0.1914238456","0.3460881607","0.4280720422","0.1383076553","","","","","","","75","K","2","","","203","main_expt"
"962","","bandit","282","905896","0.0-243.0-0.0","13786396","wem/bandit_either","A2WCDQDLMC6J72","either","2","","","","","","","0","0","1","0.4113524858","","0.2","0.4","0.6","0.8","","","","","0.1849793247","0.3091432968","0.4113524858","0.1656187697","","","","","","","75","K","2","","","204","main_expt"
"645","","bandit","283","908206","0.0-244.0-0.0","13786396","wem/bandit_either","A2WCDQDLMC6J72","either","2","","","","","","","0","1","0","","0.4151465815","0.2","0.4","0.6","0.8","0.1722293799","0.3016396897","0.4151465815","0.1699285253","","","","","","","","","","","75","K","2","","","205","main_expt"
"334","","bandit","284","910077","0.0-245.0-0.0","13786396","wem/bandit_either","A2WCDQDLMC6J72","either","2","","","","","","","1","0","0","0.4002359997","","0.2","0.4","0.6","0.8","","","","","0.1625694713","0.3300702997","0.4002359997","0.161732949","","","","","","","75","K","2","","","206","main_expt"
"464","","bandit","285","912113","0.0-246.0-0.0","13786396","wem/bandit_either","A2WCDQDLMC6J72","either","2","","","","","","","0","0","1","0.3692387261","","0.2","0.4","0.6","0.8","","","","","0.1079769143","0.2648848683","0.3692387261","0.1699017951","","","","","","","75","K","2","","","207","main_expt"
"551","","bandit","286","914201","0.0-247.0-0.0","13786396","wem/bandit_either","A2WCDQDLMC6J72","either","2","","","","","","","1","0","0","0.3283471685","","0.2","0.4","0.6","0.8","","","","","0.1380178959","0.2502792914","0.3283471685","0.1592107695","","","","","","","75","K","2","","","208","main_expt"
"391","","bandit","287","916124","0.0-248.0-0.0","13786396","wem/bandit_either","A2WCDQDLMC6J72","either","2","","","","","","","1","0","0","0.2924758898","","0.2","0.4","0.6","0.8","","","","","0.1538506734","0.2770073026","0.2924758898","0.1659907122","","","","","","","75","K","2","","","209","main_expt"
"602","","bandit","288","918459","0.0-249.0-0.0","13786396","wem/bandit_either","A2WCDQDLMC6J72","either","2","","","","","","","0","0","1","","0.2279470939","0.2","0.4","0.6","0.8","0.1406222791","0.3451435735","0.2279470939","0.229525517","","","","","","","","","","","75","K","2","","","210","main_expt"
"526","","bandit","289","920526","0.0-250.0-0.0","13786396","wem/bandit_either","A2WCDQDLMC6J72","either","2","","","","","","","0","0","1","0.2131844406","","0.2","0.4","0.6","0.8","","","","","0.08987887408","0.3514478275","0.2131844406","0.2434605193","","","","","","","75","K","2","","","211","main_expt"
"426","","bandit","290","923006","0.0-251.0-0.0","13786396","wem/bandit_either","A2WCDQDLMC6J72","either","2","","","","","","","0","0","1","0.1601793481","","0.2","0.4","0.6","0.8","","","","","0.1277875359","0.3579324364","0.1601793481","0.1633214123","","","","","","","75","K","2","","","212","main_expt"
"139","","bandit","291","924702","0.0-252.0-0.0","13786396","wem/bandit_either","A2WCDQDLMC6J72","either","2","","","","","","","0","0","1","0.1014835246","","0.2","0.4","0.6","0.8","","","","","0.134271297","0.3231243524","0.1354109392","0.1014835246","","","","","","","76","L","3","","","213","main_expt"
"577","","bandit","292","927068","0.0-253.0-0.0","13786396","wem/bandit_either","A2WCDQDLMC6J72","either","2","","","","","","","0","0","1","0.09587264096","","0.2","0.4","0.6","0.8","","","","","0.1385204111","0.2798540136","0.1142105534","0.09587264096","","","","","","","76","L","3","","","214","main_expt"
"127","","bandit","293","928736","0.0-254.0-0.0","13786396","wem/bandit_either","A2WCDQDLMC6J72","either","2","","","","","","","0","0","1","","0.08342689115","0.2","0.4","0.6","0.8","0.1089132689","0.2469391402","0.1031311673","0.08342689115","","","","","","","","","","","76","L","3","","","215","main_expt"
"413","","bandit","294","930679","0.0-255.0-0.0","13786396","wem/bandit_either","A2WCDQDLMC6J72","either","2","","","","","","","0","0","1","0.05361264496","","0.2","0.4","0.6","0.8","","","","","0.1299508563","0.3211823944","0.1031732366","0.05361264496","","","","","","","76","L","3","","","216","main_expt"
"193","","bandit","295","932699","0.0-256.0-0.0","13786396","wem/bandit_either","A2WCDQDLMC6J72","either","2","","","","","","","0","0","1","0.09912420903","","0.2","0.4","0.6","0.8","","","","","0.131109262","0.3545519007","0.1188097379","0.09912420903","","","","","","","76","L","3","","","217","main_expt"
"1675","","bandit","296","935913","0.0-257.0-0.0","13786396","wem/bandit_either","A2WCDQDLMC6J72","either","2","","","","","","","0","1","0","","0.1096623481","0.2","0.4","0.6","0.8","0.1039495344","0.3781539282","0.1096623481","0.1021137889","","","","","","","","","","","75","K","2","","","218","main_expt"
"489","","bandit","297","938046","0.0-258.0-0.0","13786396","wem/bandit_either","A2WCDQDLMC6J72","either","2","","","","","","","0","0","1","0.08679630722","","0.2","0.4","0.6","0.8","","","","","0.09488552944","0.3674409598","0.08679630722","0.1025207236","","","","","","","75","K","2","","","219","main_expt"
"308","","bandit","298","939886","0.0-259.0-0.0","13786396","wem/bandit_either","A2WCDQDLMC6J72","either","2","","","","","","","0","0","1","","0.1482089448","0.2","0.4","0.6","0.8","0.1311925698","0.315237632","0.1482089448","0.1049734862","","","","","","","","","","","75","K","2","","","220","main_expt"
"473","","bandit","299","942053","0.0-260.0-0.0","13786396","wem/bandit_either","A2WCDQDLMC6J72","either","2","","","","","","","0","0","1","","0.217172314","0.2","0.4","0.6","0.8","0.08224132258","0.3572442142","0.217172314","0.08244295151","","","","","","","","","","","75","K","2","","","221","main_expt"
"744","","bandit","300","944360","0.0-261.0-0.0","13786396","wem/bandit_either","A2WCDQDLMC6J72","either","2","","","","","","","0","0","1","","0.2796125419","0.2","0.4","0.6","0.8","0.06870998364","0.2796125419","0.2227738938","0.09815111748","","","","","","","","","","","74","J","1","","","222","main_expt"
"478","","bandit","301","946368","0.0-262.0-0.0","13786396","wem/bandit_either","A2WCDQDLMC6J72","either","2","","","","","","","0","0","1","","0.2265565182","0.2","0.4","0.6","0.8","0.111762886","0.2265565182","0.2768694491","0.09925351505","","","","","","","","","","","74","J","1","","","223","main_expt"
"594","","bandit","302","948724","0.0-263.0-0.0","13786396","wem/bandit_either","A2WCDQDLMC6J72","either","2","","","","","","","0","0","1","","0.09652303785","0.2","0.4","0.6","0.8","0.09652303785","0.1727872262","0.2895694018","0.07842644678","","","","","","","","","","","72","H","0","img/none_selected.jpg","","224","main_expt"
"487","","bandit","303","950781","0.0-264.0-0.0","13786396","wem/bandit_either","A2WCDQDLMC6J72","either","2","","","","","","","0","0","1","0.1580797834","","0.2","0.4","0.6","0.8","","","","","0.09424892582","0.1580797834","0.3515154126","0.05284632075","","","","","","","74","J","1","","","225","main_expt"
"1656","","bandit","304","953977","0.0-265.0-0.0","13786396","wem/bandit_either","A2WCDQDLMC6J72","either","2","","","","","","","0","0","1","","0.3960872924","0.2","0.4","0.6","0.8","0.1094697254","0.1206031336","0.3960872924","0.06788221328","","","","","","","","","","","75","K","2","","","226","main_expt"
"321","","bandit","305","956136","0.0-266.0-0.0","13786396","wem/bandit_either","A2WCDQDLMC6J72","either","2","","","","","","","0","0","1","","0.04226868229","0.2","0.4","0.6","0.8","0.1055794081","0.1218099769","0.3301105445","0.04226868229","","","","","","","","","","","76","L","3","","","227","main_expt"
"399","","bandit","306","958074","0.0-267.0-0.0","13786396","wem/bandit_either","A2WCDQDLMC6J72","either","2","","","","","","","0","0","1","0.06174471126","","0.2","0.4","0.6","0.8","","","","","0.1210232629","0.08458740206","0.3679650562","0.06174471126","","","","","","","76","L","3","","","228","main_expt"
"292","","bandit","307","959910","0.0-268.0-0.0","13786396","wem/bandit_either","A2WCDQDLMC6J72","either","2","","","","","","","0","0","1","0.06122033102","","0.2","0.4","0.6","0.8","","","","","0.1249199002","0.06311990622","0.3413725311","0.06122033102","","","","","","","76","L","3","","","229","main_expt"
"824","","bandit","308","962528","0.0-269.0-0.0","13786396","wem/bandit_either","A2WCDQDLMC6J72","either","2","","","","","","","0","0","1","0.3652503211","","0.2","0.4","0.6","0.8","","","","","0.1423167866","0.04674316758","0.3652503211","0.09369367087","","","","","","","75","K","2","","","230","main_expt"
"657","","bandit","309","964863","0.0-270.0-0.0","13786396","wem/bandit_either","A2WCDQDLMC6J72","either","2","","","","","","","0","0","1","","0.3774172636","0.2","0.4","0.6","0.8","0.1441411413","0.06697327866","0.3774172636","0.1378364932","","","","","","","","","","","75","K","2","","","231","main_expt"
"155","","bandit","310","966547","0.0-271.0-0.0","13786396","wem/bandit_either","A2WCDQDLMC6J72","either","2","","","","","","","0","1","0","","0.3507397895","0.2","0.4","0.6","0.8","0.1132866493","0.08617656909","0.3507397895","0.1138343256","","","","","","","","","","","75","K","2","","","232","main_expt"
"882","","bandit","311","969213","0.0-272.0-0.0","13786396","wem/bandit_either","A2WCDQDLMC6J72","either","2","","","","","","","0","0","1","","0.08388286328","0.2","0.4","0.6","0.8","0.07587191469","0.08388286328","0.3228668676","0.1602674987","","","","","","","","","","","74","J","1","","","233","main_expt"
"527","","bandit","312","971560","0.0-273.0-0.0","13786396","wem/bandit_either","A2WCDQDLMC6J72","either","2","","","","","","","0","0","1","0.08303297831","","0.2","0.4","0.6","0.8","","","","","0.08330376307","0.08303297831","0.3219168209","0.1399599793","","","","","","","74","J","1","","","234","main_expt"
"429","","bandit","313","973699","0.0-274.0-0.0","13786396","wem/bandit_either","A2WCDQDLMC6J72","either","2","","","","","","","0","0","1","0.08228619446","","0.2","0.4","0.6","0.8","","","","","0.07960395758","0.08228619446","0.2907257894","0.1577883936","","","","","","","74","J","1","","","235","main_expt"
"406","","bandit","314","975641","0.0-275.0-0.0","13786396","wem/bandit_either","A2WCDQDLMC6J72","either","2","","","","","","","0","0","1","0.06703487678","","0.2","0.4","0.6","0.8","","","","","0.06703487678","0.07856112713","0.2879125653","0.1206463377","","","","","","","72","H","0","img/none_selected.jpg","","236","main_expt"
"181","","bandit","315","977353","0.0-276.0-0.0","13786396","wem/bandit_either","A2WCDQDLMC6J72","either","2","","","","","","","0","0","1","","0.07970276757","0.2","0.4","0.6","0.8","0.07970276757","0.09394336493","0.3055933028","0.1224948263","","","","","","","","","","","72","H","0","img/none_selected.jpg","","237","main_expt"
"430","","bandit","316","979323","0.0-277.0-0.0","13786396","wem/bandit_either","A2WCDQDLMC6J72","either","2","","","","","","","0","0","1","","0.05589422377","0.2","0.4","0.6","0.8","0.05589422377","0.1044036833","0.3197806133","0.1163601633","","","","","","","","","","","72","H","0","img/none_selected.jpg","","238","main_expt"
"43","","bandit","317","981011","0.0-278.0-0.0","13786396","wem/bandit_either","A2WCDQDLMC6J72","either","2","","","","","","","0","0","1","","0.07304711058","0.2","0.4","0.6","0.8","0.07304711058","0.1010835707","0.2699970134","0.09302868556","","","","","","","","","","","72","H","0","img/none_selected.jpg","","239","main_expt"
"686","","bandit","318","983238","0.0-279.0-0.0","13786396","wem/bandit_either","A2WCDQDLMC6J72","either","2","","","","","","","0","0","1","","0.1196592177","0.2","0.4","0.6","0.8","0.05193691484","0.1196592177","0.2594796501","0.1142909623","","","","","","","","","","","74","J","1","","","240","main_expt"
"33","","bandit","319","984803","0.0-280.0-0.0","13786396","wem/bandit_either","A2WCDQDLMC6J72","either","2","","","","","","","0","0","1","","0.127320561","0.2","0.4","0.6","0.8","0.06844812817","0.127320561","0.252227353","0.1694552561","","","","","","","","","","","74","J","1","","","241","main_expt"
"400","","bandit","320","986787","0.0-281.0-0.0","13786396","wem/bandit_either","A2WCDQDLMC6J72","either","2","","","","","","","0","0","1","0.10641745","","0.2","0.4","0.6","0.8","","","","","0.07869989264","0.10641745","0.301231011","0.1828807391","","","","","","","74","J","1","","","242","main_expt"
"128","","bandit","321","988450","0.0-282.0-0.0","13786396","wem/bandit_either","A2WCDQDLMC6J72","either","2","","","","","","","0","0","1","","0.131785075","0.2","0.4","0.6","0.8","0.06084245892","0.131785075","0.2903867436","0.1236361748","","","","","","","","","","","74","J","1","","","243","main_expt"
"180","","bandit","322","990217","0.0-283.0-0.0","13786396","wem/bandit_either","A2WCDQDLMC6J72","either","2","","","","","","","0","0","1","","0.1150513838","0.2","0.4","0.6","0.8","0.04982625113","0.1150513838","0.2659167858","0.1131162958","","","","","","","","","","","74","J","1","","","244","main_expt"
"256","","bandit","323","992011","0.0-284.0-0.0","13786396","wem/bandit_either","A2WCDQDLMC6J72","either","2","","","","","","","0","0","1","0.254087564","","0.2","0.4","0.6","0.8","","","","","0.04708965441","0.1651966394","0.254087564","0.08611006768","","","","","","","75","K","2","","","245","main_expt"
"366","","bandit","324","993908","0.0-285.0-0.0","13786396","wem/bandit_either","A2WCDQDLMC6J72","either","2","","","","","","","0","0","1","","0.2551799517","0.2","0.4","0.6","0.8","0.0280961865","0.1555796254","0.2551799517","0.1123216353","","","","","","","","","","","75","K","2","","","246","main_expt"
"82","","bandit","325","995524","0.0-286.0-0.0","13786396","wem/bandit_either","A2WCDQDLMC6J72","either","2","","","","","","","0","0","1","","0.2629335529","0.2","0.4","0.6","0.8","0.04499456282","0.1703980626","0.2629335529","0.09475638668","","","","","","","","","","","75","K","2","","","247","main_expt"
"271","","bandit","326","997518","0.0-287.0-0.0","13786396","wem/bandit_either","A2WCDQDLMC6J72","either","2","","","","","","","0","0","1","0.2393496224","","0.2","0.4","0.6","0.8","","","","","0.03910304398","0.1502680902","0.2393496224","0.08309477664","","","","","","","75","K","2","","","248","main_expt"
"149","","bandit","327","999617","0.0-288.0-0.0","13786396","wem/bandit_either","A2WCDQDLMC6J72","either","2","","","","","","","0","0","1","0.2612635012","","0.2","0.4","0.6","0.8","","","","","0.02658952892","0.1515252412","0.2612635012","0.09118761135","","","","","","","75","K","2","","","249","main_expt"
"101","","bandit","328","1001257","0.0-289.0-0.0","13786396","wem/bandit_either","A2WCDQDLMC6J72","either","2","","","","","","","0","0","1","","0.2729339083","0.2","0.4","0.6","0.8","0.02715120894","0.164479444","0.2729339083","0.1173751119","","","","","","","","","","","75","K","2","","","250","main_expt"
"676","","bandit","329","1003503","0.0-290.0-0.0","13786396","wem/bandit_either","A2WCDQDLMC6J72","either","2","","","","","","","0","0","1","","0.10167128","0.2","0.4","0.6","0.8","0.02468122838","0.1036013708","0.2394547858","0.10167128","","","","","","","","","","","76","L","3","","","251","main_expt"
"440","","bandit","330","1005488","0.0-291.0-0.0","13786396","wem/bandit_either","A2WCDQDLMC6J72","either","2","","","","","","","0","0","1","","0.1297907712","0.2","0.4","0.6","0.8","0.01934001153","0.1206404305","0.1971678968","0.1297907712","","","","","","","","","","","76","L","3","","","252","main_expt"
"393","","bandit","331","1007672","0.0-292.0-0.0","13786396","wem/bandit_either","A2WCDQDLMC6J72","either","2","","","","","","","0","0","1","","0.08555329314","0.2","0.4","0.6","0.8","0.01552303999","0.144481093","0.2194815642","0.08555329314","","","","","","","","","","","76","L","3","","","253","main_expt"
"570","","bandit","332","1009865","0.0-293.0-0.0","13786396","wem/bandit_either","A2WCDQDLMC6J72","either","2","","","","","","","0","0","1","0.05661737176","","0.2","0.4","0.6","0.8","","","","","0.02294208798","0.1495858552","0.2365987297","0.05661737176","","","","","","","76","L","3","","","254","main_expt"
"271","","bandit","333","1011683","0.0-294.0-0.0","13786396","wem/bandit_either","A2WCDQDLMC6J72","either","2","","","","","","","0","0","1","0.04453848373","","0.2","0.4","0.6","0.8","","","","","0.03654195668","0.1670870388","0.2300386291","0.04453848373","","","","","","","76","L","3","","","255","main_expt"
