"rt","responses","trial_type","trial_index","time_elapsed","internal_node_id","subjID","study","MID","cond","drift","key_press","expt_phase","target","like","value","connected","gems","bombs","no_reward","GemPrChosen","BombPrChosen","GainOverPainPr_0","GainOverPainPr_1","GainOverPainPr_2","GainOverPainPr_3","LosePr_0","LosePr_1","LosePr_2","LosePr_3","WinPr_0","WinPr_1","WinPr_2","WinPr_3","Q0","Q1","Q2","gender","age","ethnicity","respCharCode","respKey","respChoiceNum","respChoice","practice","trial_counter","trial_label"
"7819","{""Q0"":""AL7TCWU718E5W""}","survey-text","0","7822","0.0-0.0","14993367","wem/bandit_either","AL7TCWU718E5W","either","3","","","","","","","","","","","","","","","","","","","","","","","","","","","","","","","","","","","",""
"16666","","text","1","25491","0.0-1.0","14993367","wem/bandit_either","AL7TCWU718E5W","either","3","32","","","","","","","","","","","","","","","","","","","","","","","","","","","","","","","","","","",""
"5990","","text","2","31482","0.0-2.0","14993367","wem/bandit_either","AL7TCWU718E5W","either","3","32","","","","","","","","","","","","","","","","","","","","","","","","","","","","","","","","","","",""
"16135","","text","3","47620","0.0-3.0","14993367","wem/bandit_either","AL7TCWU718E5W","either","3","32","","","","","","","","","","","","","","","","","","","","","","","","","","","","","","","","","","",""
"16997","","text","4","64619","0.0-4.0","14993367","wem/bandit_either","AL7TCWU718E5W","either","3","32","","","","","","","","","","","","","","","","","","","","","","","","","","","","","","","","","","",""
"31813","","text","5","96435","0.0-5.0","14993367","wem/bandit_either","AL7TCWU718E5W","either","3","32","","","","","","","","","","","","","","","","","","","","","","","","","","","","","","","","","","",""
"6430","","text","6","102867","0.0-6.0","14993367","wem/bandit_either","AL7TCWU718E5W","either","3","32","","","","","","","","","","","","","","","","","","","","","","","","","","","","","","","","","","",""
"4605","","text","7","107475","0.0-7.0","14993367","wem/bandit_either","AL7TCWU718E5W","either","3","32","","","","","","","","","","","","","","","","","","","","","","","","","","","","","","","","","","",""
"9150","","identification","8","116649","0.0-8.0-0.0","14993367","wem/bandit_either","AL7TCWU718E5W","either","3","","identification_pre","the village of Zur","","","","","","","","","","","","","","","","","","","","","","","","","","","","","","","","",""
"4762","","identification","9","122434","0.0-8.0-1.0","14993367","wem/bandit_either","AL7TCWU718E5W","either","3","","identification_pre","the village of Nyx","","","","","","","","","","","","","","","","","","","","","","","","","","","","","","","","",""
"6992","","text","10","130434","0.0-9.0","14993367","wem/bandit_either","AL7TCWU718E5W","either","3","32","","","","","","","","","","","","","","","","","","","","","","","","","","","","","","","","","","",""
"4045","","text","11","134481","0.0-10.0","14993367","wem/bandit_either","AL7TCWU718E5W","either","3","32","","","","","","","","","","","","","","","","","","","","","","","","","","","","","","","","","","",""
"2311","","text","12","136793","0.0-11.0","14993367","wem/bandit_either","AL7TCWU718E5W","either","3","32","","","","","","","","","","","","","","","","","","","","","","","","","","","","","","","","","","",""
"4143","","text","13","140937","0.0-12.0","14993367","wem/bandit_either","AL7TCWU718E5W","either","3","32","","","","","","","","","","","","","","","","","","","","","","","","","","","","","","","","","","",""
"6301","","bandit","14","148747","0.0-13.0-0.0","14993367","wem/bandit_either","AL7TCWU718E5W","either","3","","","","","","","0","0","1","0","0","","","","","0","","","","0","","","","","","","","","","74","J","0","img/none_selected_demo.jpg","true","0",""
"2049","","bandit","15","152306","0.0-14.0-0.0","14993367","wem/bandit_either","AL7TCWU718E5W","either","3","","","","","","","0","0","1","0","0","","","","","0","","","","0","","","","","","","","","","75","K","0","img/none_selected_demo.jpg","true","0",""
"9645","","text","16","161953","0.0-15.0","14993367","wem/bandit_either","AL7TCWU718E5W","either","3","32","","","","","","","","","","","","","","","","","","","","","","","","","","","","","","","","","","",""
"10638","","text","17","172593","0.0-16.0","14993367","wem/bandit_either","AL7TCWU718E5W","either","3","32","","","","","","","","","","","","","","","","","","","","","","","","","","","","","","","","","","",""
"4518","","text","18","177112","0.0-17.0","14993367","wem/bandit_either","AL7TCWU718E5W","either","3","32","","","","","","","","","","","","","","","","","","","","","","","","","","","","","","","","","","",""
"5834","","text","19","182948","0.0-18.0","14993367","wem/bandit_either","AL7TCWU718E5W","either","3","32","","","","","","","","","","","","","","","","","","","","","","","","","","","","","","","","","","",""
"984","","bandit","20","185440","0.0-19.0-0.0","14993367","wem/bandit_either","AL7TCWU718E5W","either","3","","","","","","","1","0","0","0.8","","0.5","0.5","","","","","","","0.8","0.2","","","","","","","","","74","J","0","img/none_selected_demo.jpg","true","0","80_20_practice"
"1700","","bandit","21","188649","0.0-19.0-1.0","14993367","wem/bandit_either","AL7TCWU718E5W","either","3","","","","","","","0","0","1","","0.2","0.5","0.5","","","0.8","0.2","","","","","","","","","","","","","75","K","1","","true","0","80_20_practice"
"1420","","bandit","22","191576","0.0-19.0-2.0","14993367","wem/bandit_either","AL7TCWU718E5W","either","3","","","","","","","0","0","1","","0.2","0.5","0.5","","","0.8","0.2","","","","","","","","","","","","","75","K","1","","true","0","80_20_practice"
"397","","bandit","23","193480","0.0-19.0-3.0","14993367","wem/bandit_either","AL7TCWU718E5W","either","3","","","","","","","1","0","0","0.8","","0.5","0.5","","","","","","","0.8","0.2","","","","","","","","","74","J","0","img/none_selected_demo.jpg","true","0","80_20_practice"
"1142","","bandit","24","196137","0.0-19.0-4.0","14993367","wem/bandit_either","AL7TCWU718E5W","either","3","","","","","","","0","1","0","","0.8","0.5","0.5","","","0.8","0.2","","","","","","","","","","","","","74","J","0","img/none_selected_demo.jpg","true","0","80_20_practice"
"1017","","bandit","25","198665","0.0-19.0-5.0","14993367","wem/bandit_either","AL7TCWU718E5W","either","3","","","","","","","0","0","1","0.2","","0.5","0.5","","","","","","","0.8","0.2","","","","","","","","","75","K","1","","true","0","80_20_practice"
"475","","bandit","26","200647","0.0-19.0-6.0","14993367","wem/bandit_either","AL7TCWU718E5W","either","3","","","","","","","1","0","0","0.8","","0.5","0.5","","","","","","","0.8","0.2","","","","","","","","","74","J","0","img/none_selected_demo.jpg","true","0","80_20_practice"
"646","","bandit","27","202800","0.0-19.0-7.0","14993367","wem/bandit_either","AL7TCWU718E5W","either","3","","","","","","","0","0","1","","0.2","0.5","0.5","","","0.8","0.2","","","","","","","","","","","","","75","K","1","","true","0","80_20_practice"
"526","","bandit","28","204836","0.0-19.0-8.0","14993367","wem/bandit_either","AL7TCWU718E5W","either","3","","","","","","","0","1","0","","0.8","0.5","0.5","","","0.8","0.2","","","","","","","","","","","","","74","J","0","img/none_selected_demo.jpg","true","0","80_20_practice"
"783","","bandit","29","207128","0.0-19.0-9.0","14993367","wem/bandit_either","AL7TCWU718E5W","either","3","","","","","","","0","1","0","","0.8","0.5","0.5","","","0.8","0.2","","","","","","","","","","","","","74","J","0","img/none_selected_demo.jpg","true","0","80_20_practice"
"885","","bandit","30","209520","0.0-19.0-10.0","14993367","wem/bandit_either","AL7TCWU718E5W","either","3","","","","","","","1","0","0","0.8","","0.5","0.5","","","","","","","0.8","0.2","","","","","","","","","74","J","0","img/none_selected_demo.jpg","true","0","80_20_practice"
"1701","","bandit","31","212728","0.0-19.0-11.0","14993367","wem/bandit_either","AL7TCWU718E5W","either","3","","","","","","","1","0","0","0.8","","0.5","0.5","","","","","","","0.8","0.2","","","","","","","","","74","J","0","img/none_selected_demo.jpg","true","0","80_20_practice"
"605","","bandit","32","214842","0.0-19.0-12.0","14993367","wem/bandit_either","AL7TCWU718E5W","either","3","","","","","","","0","0","1","","0.2","0.5","0.5","","","0.8","0.2","","","","","","","","","","","","","75","K","1","","true","0","80_20_practice"
"483","","bandit","33","216831","0.0-19.0-13.0","14993367","wem/bandit_either","AL7TCWU718E5W","either","3","","","","","","","1","0","0","0.8","","0.5","0.5","","","","","","","0.8","0.2","","","","","","","","","74","J","0","img/none_selected_demo.jpg","true","0","80_20_practice"
"845","","bandit","34","219184","0.0-19.0-14.0","14993367","wem/bandit_either","AL7TCWU718E5W","either","3","","","","","","","0","0","1","","0.8","0.5","0.5","","","0.8","0.2","","","","","","","","","","","","","74","J","0","img/none_selected_demo.jpg","true","0","80_20_practice"
"467","","bandit","35","221199","0.0-19.0-15.0","14993367","wem/bandit_either","AL7TCWU718E5W","either","3","","","","","","","0","0","1","0.2","","0.5","0.5","","","","","","","0.8","0.2","","","","","","","","","75","K","1","","true","0","80_20_practice"
"941","","bandit","36","223648","0.0-19.0-16.0","14993367","wem/bandit_either","AL7TCWU718E5W","either","3","","","","","","","0","0","1","","0.2","0.5","0.5","","","0.8","0.2","","","","","","","","","","","","","75","K","1","","true","0","80_20_practice"
"894","","bandit","37","226049","0.0-19.0-17.0","14993367","wem/bandit_either","AL7TCWU718E5W","either","3","","","","","","","0","0","1","","0.2","0.5","0.5","","","0.8","0.2","","","","","","","","","","","","","75","K","1","","true","0","80_20_practice"
"275","","bandit","38","227832","0.0-19.0-18.0","14993367","wem/bandit_either","AL7TCWU718E5W","either","3","","","","","","","1","0","0","0.8","","0.5","0.5","","","","","","","0.8","0.2","","","","","","","","","74","J","0","img/none_selected_demo.jpg","true","0","80_20_practice"
"637","","bandit","39","229976","0.0-19.0-19.0","14993367","wem/bandit_either","AL7TCWU718E5W","either","3","","","","","","","1","0","0","0.8","","0.5","0.5","","","","","","","0.8","0.2","","","","","","","","","74","J","0","img/none_selected_demo.jpg","true","0","80_20_practice"
"8822","","text","40","238800","0.0-20.0","14993367","wem/bandit_either","AL7TCWU718E5W","either","3","32","","","","","","","","","","","","","","","","","","","","","","","","","","","","","","","","","","",""
"2308","","bandit","41","242616","0.0-21.0-0.0","14993367","wem/bandit_either","AL7TCWU718E5W","either","3","","","","","","","1","0","0","1","0","","","","","0","1","","","1","0","","","","","","","","","74","J","0","img/none_selected_demo.jpg","true","0",""
"6495","","text","42","249113","0.0-22.0","14993367","wem/bandit_either","AL7TCWU718E5W","either","3","32","","","","","","","","","","","","","","","","","","","","","","","","","","","","","","","","","","",""
"3053","","text","43","252171","0.0-23.0","14993367","wem/bandit_either","AL7TCWU718E5W","either","3","32","","","","","","","","","","","","","","","","","","","","","","","","","","","","","","","","","","",""
"2474","","text","44","254648","0.0-24.0","14993367","wem/bandit_either","AL7TCWU718E5W","either","3","32","","","","","","","","","","","","","","","","","","","","","","","","","","","","","","","","","","",""
"2716","","text","45","257367","0.0-25.0","14993367","wem/bandit_either","AL7TCWU718E5W","either","3","32","","","","","","","","","","","","","","","","","","","","","","","","","","","","","","","","","","",""
"4181","","text","46","261551","0.0-26.0","14993367","wem/bandit_either","AL7TCWU718E5W","either","3","32","","","","","","","","","","","","","","","","","","","","","","","","","","","","","","","","","","",""
"2159","","text","47","263712","0.0-27.0","14993367","wem/bandit_either","AL7TCWU718E5W","either","3","32","","","","","","","","","","","","","","","","","","","","","","","","","","","","","","","","","","",""
"2228","","text","48","265945","0.0-28.0","14993367","wem/bandit_either","AL7TCWU718E5W","either","3","32","","","","","","","","","","","","","","","","","","","","","","","","","","","","","","","","","","",""
"4756","","text","49","270705","0.0-29.0","14993367","wem/bandit_either","AL7TCWU718E5W","either","3","32","","","","","","","","","","","","","","","","","","","","","","","","","","","","","","","","","","",""
"6019","","text","50","276728","0.0-30.0","14993367","wem/bandit_either","AL7TCWU718E5W","either","3","32","","","","","","","","","","","","","","","","","","","","","","","","","","","","","","","","","","",""
"6085","","text","51","282815","0.0-31.0","14993367","wem/bandit_either","AL7TCWU718E5W","either","3","32","","","","","","","","","","","","","","","","","","","","","","","","","","","","","","","","","","",""
"2669","","text","52","285487","0.0-32.0","14993367","wem/bandit_either","AL7TCWU718E5W","either","3","32","","","","","","","","","","","","","","","","","","","","","","","","","","","","","","","","","","",""
"811","","bandit","53","287808","0.0-33.0-0.0","14993367","wem/bandit_either","AL7TCWU718E5W","either","3","","","","","","","0","0","1","","0.2","0.5","0.5","0.5","0.5","0.8","0.2","0.6","0.2","","","","","","","","","","","76","L","3","","true","0","full_practice"
"641","","bandit","54","289961","0.0-33.0-1.0","14993367","wem/bandit_either","AL7TCWU718E5W","either","3","","","","","","","0","0","1","","0.2","0.5","0.5","0.5","0.5","0.8","0.2","0.6","0.2","","","","","","","","","","","74","J","1","","true","0","full_practice"
"353","","bandit","55","291824","0.0-33.0-2.0","14993367","wem/bandit_either","AL7TCWU718E5W","either","3","","","","","","","0","0","1","0.2","","0.5","0.5","0.5","0.5","","","","","0.8","0.2","0.6","0.2","","","","","","","76","L","3","","true","0","full_practice"
"371","","bandit","56","293703","0.0-33.0-3.0","14993367","wem/bandit_either","AL7TCWU718E5W","either","3","","","","","","","1","0","0","0.6","","0.5","0.5","0.5","0.5","","","","","0.8","0.2","0.6","0.2","","","","","","","75","K","2","","true","0","full_practice"
"300","","bandit","57","295512","0.0-33.0-4.0","14993367","wem/bandit_either","AL7TCWU718E5W","either","3","","","","","","","0","0","1","","0.8","0.5","0.5","0.5","0.5","0.8","0.2","0.6","0.2","","","","","","","","","","","72","H","0","img/none_selected.jpg","true","0","full_practice"
"387","","bandit","58","297407","0.0-33.0-5.0","14993367","wem/bandit_either","AL7TCWU718E5W","either","3","","","","","","","1","0","0","0.6","","0.5","0.5","0.5","0.5","","","","","0.8","0.2","0.6","0.2","","","","","","","75","K","2","","true","0","full_practice"
"514","","bandit","59","299431","0.0-33.0-6.0","14993367","wem/bandit_either","AL7TCWU718E5W","either","3","","","","","","","0","1","0","","0.6","0.5","0.5","0.5","0.5","0.8","0.2","0.6","0.2","","","","","","","","","","","75","K","2","","true","0","full_practice"
"500","","bandit","60","301439","0.0-33.0-7.0","14993367","wem/bandit_either","AL7TCWU718E5W","either","3","","","","","","","0","1","0","","0.8","0.5","0.5","0.5","0.5","0.8","0.2","0.6","0.2","","","","","","","","","","","72","H","0","img/none_selected.jpg","true","0","full_practice"
"644","","bandit","61","303591","0.0-33.0-8.0","14993367","wem/bandit_either","AL7TCWU718E5W","either","3","","","","","","","0","0","1","","0.2","0.5","0.5","0.5","0.5","0.8","0.2","0.6","0.2","","","","","","","","","","","76","L","3","","true","0","full_practice"
"539","","bandit","62","305640","0.0-33.0-9.0","14993367","wem/bandit_either","AL7TCWU718E5W","either","3","","","","","","","0","0","1","","0.2","0.5","0.5","0.5","0.5","0.8","0.2","0.6","0.2","","","","","","","","","","","74","J","1","","true","0","full_practice"
"362","","bandit","63","307513","0.0-33.0-10.0","14993367","wem/bandit_either","AL7TCWU718E5W","either","3","","","","","","","1","0","0","0.6","","0.5","0.5","0.5","0.5","","","","","0.8","0.2","0.6","0.2","","","","","","","75","K","2","","true","0","full_practice"
"414","","bandit","64","309438","0.0-33.0-11.0","14993367","wem/bandit_either","AL7TCWU718E5W","either","3","","","","","","","1","0","0","0.6","","0.5","0.5","0.5","0.5","","","","","0.8","0.2","0.6","0.2","","","","","","","75","K","2","","true","0","full_practice"
"483","","bandit","65","311431","0.0-33.0-12.0","14993367","wem/bandit_either","AL7TCWU718E5W","either","3","","","","","","","1","0","0","0.6","","0.5","0.5","0.5","0.5","","","","","0.8","0.2","0.6","0.2","","","","","","","75","K","2","","true","0","full_practice"
"467","","bandit","66","313406","0.0-33.0-13.0","14993367","wem/bandit_either","AL7TCWU718E5W","either","3","","","","","","","1","0","0","0.6","","0.5","0.5","0.5","0.5","","","","","0.8","0.2","0.6","0.2","","","","","","","75","K","2","","true","0","full_practice"
"312","","bandit","67","315231","0.0-33.0-14.0","14993367","wem/bandit_either","AL7TCWU718E5W","either","3","","","","","","","0","0","1","","0.6","0.5","0.5","0.5","0.5","0.8","0.2","0.6","0.2","","","","","","","","","","","75","K","2","","true","0","full_practice"
"769","","bandit","68","317511","0.0-33.0-15.0","14993367","wem/bandit_either","AL7TCWU718E5W","either","3","","","","","","","0","1","0","","0.8","0.5","0.5","0.5","0.5","0.8","0.2","0.6","0.2","","","","","","","","","","","72","H","0","img/none_selected.jpg","true","0","full_practice"
"267","","bandit","69","319369","0.0-33.0-16.0","14993367","wem/bandit_either","AL7TCWU718E5W","either","3","","","","","","","0","0","1","0.2","","0.5","0.5","0.5","0.5","","","","","0.8","0.2","0.6","0.2","","","","","","","74","J","1","","true","0","full_practice"
"269","","bandit","70","321152","0.0-33.0-17.0","14993367","wem/bandit_either","AL7TCWU718E5W","either","3","","","","","","","0","0","1","","0.2","0.5","0.5","0.5","0.5","0.8","0.2","0.6","0.2","","","","","","","","","","","76","L","3","","true","0","full_practice"
"346","","bandit","71","323007","0.0-33.0-18.0","14993367","wem/bandit_either","AL7TCWU718E5W","either","3","","","","","","","0","0","1","","0.8","0.5","0.5","0.5","0.5","0.8","0.2","0.6","0.2","","","","","","","","","","","72","H","0","img/none_selected.jpg","true","0","full_practice"
"1347","","bandit","72","325863","0.0-33.0-19.0","14993367","wem/bandit_either","AL7TCWU718E5W","either","3","","","","","","","0","0","1","","0.6","0.5","0.5","0.5","0.5","0.8","0.2","0.6","0.2","","","","","","","","","","","75","K","2","","true","0","full_practice"
"2973","","text","73","328847","0.0-34.0","14993367","wem/bandit_either","AL7TCWU718E5W","either","3","32","","","","","","","","","","","","","","","","","","","","","","","","","","","","","","","","","","",""
"10563","","text","74","340416","0.0-35.0","14993367","wem/bandit_either","AL7TCWU718E5W","either","3","32","","","","","","","","","","","","","","","","","","","","","","","","","","","","","","","","","","",""
"7466","","text","75","347888","0.0-36.0","14993367","wem/bandit_either","AL7TCWU718E5W","either","3","32","","","","","","","","","","","","","","","","","","","","","","","","","","","","","","","","","","",""
"2570","","text","76","350463","0.0-37.0","14993367","wem/bandit_either","AL7TCWU718E5W","either","3","32","","","","","","","","","","","","","","","","","","","","","","","","","","","","","","","","","","",""
"4772","","text","77","355238","0.0-38.0","14993367","wem/bandit_either","AL7TCWU718E5W","either","3","32","","","","","","","","","","","","","","","","","","","","","","","","","","","","","","","","","","",""
"4028","","text","78","359270","0.0-39.0","14993367","wem/bandit_either","AL7TCWU718E5W","either","3","32","","","","","","","","","","","","","","","","","","","","","","","","","","","","","","","","","","",""
"1585","","bandit","79","362367","0.0-40.0-0.0","14993367","wem/bandit_either","AL7TCWU718E5W","either","3","","","","","","","0","0","1","","0.4870892339","0.4","0.8","0.2","0.6","0.07685641067","0.1426046982","0.4870892339","0.1646489015","","","","","","","","","","","75","K","2","","","1","main_expt"
"825","","bandit","80","364704","0.0-41.0-0.0","14993367","wem/bandit_either","AL7TCWU718E5W","either","3","","","","","","","0","0","1","0.08388143876","","0.4","0.8","0.2","0.6","","","","","0.08388143876","0.1597004976","0.4875162112","0.2180431119","","","","","","","72","H","0","img/none_selected.jpg","","2","main_expt"
"848","","bandit","81","367063","0.0-42.0-0.0","14993367","wem/bandit_either","AL7TCWU718E5W","either","3","","","","","","","0","0","1","","0.4909945117","0.4","0.8","0.2","0.6","0.06528774038","0.1381850853","0.4909945117","0.2294217256","","","","","","","","","","","75","K","2","","","3","main_expt"
"378","","bandit","82","368950","0.0-43.0-0.0","14993367","wem/bandit_either","AL7TCWU718E5W","either","3","","","","","","","0","0","1","0.2162119515","","0.4","0.8","0.2","0.6","","","","","0.07987899881","0.1787932262","0.482579304","0.2162119515","","","","","","","76","L","3","","","4","main_expt"
"451","","bandit","83","370911","0.0-44.0-0.0","14993367","wem/bandit_either","AL7TCWU718E5W","either","3","","","","","","","0","0","1","0.1795032464","","0.4","0.8","0.2","0.6","","","","","0.0432391811","0.1795032464","0.4887913002","0.2246316054","","","","","","","74","J","1","","","5","main_expt"
"378","","bandit","84","372799","0.0-45.0-0.0","14993367","wem/bandit_either","AL7TCWU718E5W","either","3","","","","","","","0","0","1","0.4887860333","","0.4","0.8","0.2","0.6","","","","","0.03467601655","0.164375756","0.4887860333","0.2061018479","","","","","","","75","K","2","","","6","main_expt"
"313","","bandit","85","374623","0.0-46.0-0.0","14993367","wem/bandit_either","AL7TCWU718E5W","either","3","","","","","","","0","0","1","0.05033951668","","0.4","0.8","0.2","0.6","","","","","0.05033951668","0.204957223","0.4901971563","0.1795347326","","","","","","","72","H","0","img/none_selected.jpg","","7","main_expt"
"297","","bandit","86","376430","0.0-47.0-0.0","14993367","wem/bandit_either","AL7TCWU718E5W","either","3","","","","","","","0","1","0","","0.4862230721","0.4","0.8","0.2","0.6","0.07676355645","0.2162036531","0.4862230721","0.1290452752","","","","","","","","","","","75","K","2","","","8","main_expt"
"419","","bandit","87","378358","0.0-48.0-0.0","14993367","wem/bandit_either","AL7TCWU718E5W","either","3","","","","","","","0","1","0","","0.4759730645","0.4","0.8","0.2","0.6","0.08620859221","0.2167418122","0.4759730645","0.1559184374","","","","","","","","","","","75","K","2","","","9","main_expt"
"420","","bandit","88","380286","0.0-49.0-0.0","14993367","wem/bandit_either","AL7TCWU718E5W","either","3","","","","","","","0","0","1","","0.4560980466","0.4","0.8","0.2","0.6","0.1103839657","0.1607923637","0.4560980466","0.1381514788","","","","","","","","","","","75","K","2","","","10","main_expt"
"290","","bandit","89","382087","0.0-50.0-0.0","14993367","wem/bandit_either","AL7TCWU718E5W","either","3","","","","","","","0","0","1","0.1334948588","","0.4","0.8","0.2","0.6","","","","","0.1334948588","0.1386410957","0.4775116046","0.1271140015","","","","","","","72","H","0","img/none_selected.jpg","","11","main_expt"
"281","","bandit","90","383879","0.0-51.0-0.0","14993367","wem/bandit_either","AL7TCWU718E5W","either","3","","","","","","","0","1","0","","0.4705073552","0.4","0.8","0.2","0.6","0.1535602519","0.1718380738","0.4705073552","0.1854664659","","","","","","","","","","","75","K","2","","","12","main_expt"
"465","","bandit","91","385858","0.0-52.0-0.0","14993367","wem/bandit_either","AL7TCWU718E5W","either","3","","","","","","","0","0","1","","0.4851887342","0.4","0.8","0.2","0.6","0.127854239","0.1686303413","0.4851887342","0.1869952656","","","","","","","","","","","75","K","2","","","13","main_expt"
"351","","bandit","92","387718","0.0-53.0-0.0","14993367","wem/bandit_either","AL7TCWU718E5W","either","3","","","","","","","0","0","1","0.1460019496","","0.4","0.8","0.2","0.6","","","","","0.1507911491","0.1460019496","0.4731273917","0.2035171393","","","","","","","74","J","1","","","14","main_expt"
"318","","bandit","93","389549","0.0-54.0-0.0","14993367","wem/bandit_either","AL7TCWU718E5W","either","3","","","","","","","0","0","1","","0.2800299461","0.4","0.8","0.2","0.6","0.1741212098","0.1667614464","0.4585867004","0.2800299461","","","","","","","","","","","76","L","3","","","15","main_expt"
"299","","bandit","94","391358","0.0-55.0-0.0","14993367","wem/bandit_either","AL7TCWU718E5W","either","3","","","","","","","0","0","1","","0.4366533258","0.4","0.8","0.2","0.6","0.1918308831","0.1973644546","0.4366533258","0.2725454461","","","","","","","","","","","75","K","2","","","16","main_expt"
"448","","bandit","95","393337","0.0-56.0-0.0","14993367","wem/bandit_either","AL7TCWU718E5W","either","3","","","","","","","0","0","1","0.4405228744","","0.4","0.8","0.2","0.6","","","","","0.1950212473","0.1873415792","0.4405228744","0.1570621471","","","","","","","75","K","2","","","17","main_expt"
"710","","bandit","96","395557","0.0-57.0-0.0","14993367","wem/bandit_either","AL7TCWU718E5W","either","3","","","","","","","0","0","1","","0.4678551263","0.4","0.8","0.2","0.6","0.2094813194","0.1875860444","0.4678551263","0.1968188506","","","","","","","","","","","75","K","2","","","18","main_expt"
"298","","bandit","97","397366","0.0-58.0-0.0","14993367","wem/bandit_either","AL7TCWU718E5W","either","3","","","","","","","0","0","1","0.2628959394","","0.4","0.8","0.2","0.6","","","","","0.2628959394","0.1988439388","0.466140525","0.2439518204","","","","","","","72","H","0","img/none_selected.jpg","","19","main_expt"
"481","","bandit","98","399357","0.0-59.0-0.0","14993367","wem/bandit_either","AL7TCWU718E5W","either","3","","","","","","","0","0","1","0.2116504525","","0.4","0.8","0.2","0.6","","","","","0.2116504525","0.1813993393","0.4094087999","0.2806117898","","","","","","","72","H","0","img/none_selected.jpg","","20","main_expt"
"642","","bandit","99","401512","0.0-60.0-0.0","14993367","wem/bandit_either","AL7TCWU718E5W","either","3","","","","","","","0","0","1","","0.4386974508","0.4","0.8","0.2","0.6","0.1904426465","0.2012004452","0.4386974508","0.2658005831","","","","","","","","","","","75","K","2","","","21","main_expt"
"892","","bandit","100","403921","0.0-61.0-0.0","14993367","wem/bandit_either","AL7TCWU718E5W","either","3","","","","","","","0","0","1","","0.4505723784","0.4","0.8","0.2","0.6","0.1581796968","0.1958646163","0.4505723784","0.2774390086","","","","","","","","","","","75","K","2","","","22","main_expt"
"612","","bandit","101","406046","0.0-62.0-0.0","14993367","wem/bandit_either","AL7TCWU718E5W","either","3","","","","","","","0","0","1","0.2795917474","","0.4","0.8","0.2","0.6","","","","","0.2039009352","0.2626819079","0.4568000239","0.2795917474","","","","","","","76","L","3","","","23","main_expt"
"337","","bandit","102","407894","0.0-63.0-0.0","14993367","wem/bandit_either","AL7TCWU718E5W","either","3","","","","","","","0","0","1","0.2906682881","","0.4","0.8","0.2","0.6","","","","","0.228339491","0.2906682881","0.4518339256","0.2981059477","","","","","","","74","J","1","","","24","main_expt"
"611","","bandit","103","410017","0.0-64.0-0.0","14993367","wem/bandit_either","AL7TCWU718E5W","either","3","","","","","","","0","1","0","","0.4120159309","0.4","0.8","0.2","0.6","0.2602465224","0.3270173502","0.4120159309","0.3272059922","","","","","","","","","","","75","K","2","","","25","main_expt"
"790","","bandit","104","412318","0.0-65.0-0.0","14993367","wem/bandit_either","AL7TCWU718E5W","either","3","","","","","","","0","0","1","","0.4134154185","0.4","0.8","0.2","0.6","0.1939420306","0.2951289915","0.4134154185","0.3369826645","","","","","","","","","","","75","K","2","","","26","main_expt"
"666","","bandit","105","414495","0.0-66.0-0.0","14993367","wem/bandit_either","AL7TCWU718E5W","either","3","","","","","","","0","0","1","","0.4031068294","0.4","0.8","0.2","0.6","0.2387331149","0.3520126272","0.4031068294","0.2531212506","","","","","","","","","","","75","K","2","","","27","main_expt"
"274","","bandit","106","416289","0.0-67.0-0.0","14993367","wem/bandit_either","AL7TCWU718E5W","either","3","","","","","","","0","0","1","","0.2183458617","0.4","0.8","0.2","0.6","0.2183458617","0.3369287003","0.4305883772","0.2170461037","","","","","","","","","","","72","H","0","img/none_selected.jpg","","28","main_expt"
"394","","bandit","107","418199","0.0-68.0-0.0","14993367","wem/bandit_either","AL7TCWU718E5W","either","3","","","","","","","0","0","1","0.2346211465","","0.4","0.8","0.2","0.6","","","","","0.2151501268","0.3591799128","0.4383329838","0.2346211465","","","","","","","76","L","3","","","29","main_expt"
"334","","bandit","108","420047","0.0-69.0-0.0","14993367","wem/bandit_either","AL7TCWU718E5W","either","3","","","","","","","1","0","0","0.3324285477","","0.4","0.8","0.2","0.6","","","","","0.2267233056","0.3324285477","0.4233276099","0.2450860663","","","","","","","74","J","1","","","30","main_expt"
"695","","bandit","109","422254","0.0-70.0-0.0","14993367","wem/bandit_either","AL7TCWU718E5W","either","3","","","","","","","1","0","0","0.327032362","","0.4","0.8","0.2","0.6","","","","","0.2663701676","0.327032362","0.4016185005","0.2141169407","","","","","","","74","J","1","","","31","main_expt"
"853","","bandit","110","424618","0.0-71.0-0.0","14993367","wem/bandit_either","AL7TCWU718E5W","either","3","","","","","","","0","0","1","0.3230905041","","0.4","0.8","0.2","0.6","","","","","0.275969473","0.3230905041","0.4134940178","0.2347854155","","","","","","","74","J","1","","","32","main_expt"
"447","","bandit","111","426575","0.0-72.0-0.0","14993367","wem/bandit_either","AL7TCWU718E5W","either","3","","","","","","","0","0","1","","0.4331174495","0.4","0.8","0.2","0.6","0.3365270118","0.2969008969","0.4331174495","0.246596708","","","","","","","","","","","75","K","2","","","33","main_expt"
"401","","bandit","112","428486","0.0-73.0-0.0","14993367","wem/bandit_either","AL7TCWU718E5W","either","3","","","","","","","0","0","1","0.2916301021","","0.4","0.8","0.2","0.6","","","","","0.2916301021","0.2536392951","0.4454497031","0.1914370393","","","","","","","72","H","0","img/none_selected.jpg","","34","main_expt"
"360","","bandit","113","430357","0.0-74.0-0.0","14993367","wem/bandit_either","AL7TCWU718E5W","either","3","","","","","","","0","0","1","","0.1408207185","0.4","0.8","0.2","0.6","0.3236538836","0.2336030597","0.4419706984","0.1408207185","","","","","","","","","","","76","L","3","","","35","main_expt"
"394","","bandit","114","432262","0.0-75.0-0.0","14993367","wem/bandit_either","AL7TCWU718E5W","either","3","","","","","","","0","0","1","0.3110392291","","0.4","0.8","0.2","0.6","","","","","0.3317439785","0.3110392291","0.4205940312","0.09539735145","","","","","","","74","J","1","","","36","main_expt"
"369","","bandit","115","434143","0.0-76.0-0.0","14993367","wem/bandit_either","AL7TCWU718E5W","either","3","","","","","","","0","0","1","","0.4227305347","0.4","0.8","0.2","0.6","0.3620900841","0.3354302382","0.4227305347","0.08867332122","","","","","","","","","","","75","K","2","","","37","main_expt"
"392","","bandit","116","436046","0.0-77.0-0.0","14993367","wem/bandit_either","AL7TCWU718E5W","either","3","","","","","","","0","0","1","0.3359947902","","0.4","0.8","0.2","0.6","","","","","0.3649119955","0.3359947902","0.3904174821","0.0804097964","","","","","","","74","J","1","","","38","main_expt"
"322","","bandit","117","437881","0.0-78.0-0.0","14993367","wem/bandit_either","AL7TCWU718E5W","either","3","","","","","","","0","0","1","","0.3993258453","0.4","0.8","0.2","0.6","0.3993258453","0.3719467902","0.3704092514","0.1092906338","","","","","","","","","","","72","H","0","img/none_selected.jpg","","39","main_expt"
"591","","bandit","118","439982","0.0-79.0-0.0","14993367","wem/bandit_either","AL7TCWU718E5W","either","3","","","","","","","0","1","0","","0.3250394812","0.4","0.8","0.2","0.6","0.43145226","0.37180955","0.3250394812","0.08771014895","","","","","","","","","","","75","K","2","","","40","main_expt"
"352","","bandit","119","441845","0.0-80.0-0.0","14993367","wem/bandit_either","AL7TCWU718E5W","either","3","","","","","","","0","1","0","","0.3633775572","0.4","0.8","0.2","0.6","0.3925837484","0.3972707938","0.3633775572","0.1065106481","","","","","","","","","","","75","K","2","","","41","main_expt"
"610","","bandit","120","443966","0.0-81.0-0.0","14993367","wem/bandit_either","AL7TCWU718E5W","either","3","","","","","","","0","0","1","","0.3708570881","0.4","0.8","0.2","0.6","0.4020613291","0.3981555674","0.3708570881","0.0926848955","","","","","","","","","","","75","K","2","","","42","main_expt"
"321","","bandit","121","445798","0.0-82.0-0.0","14993367","wem/bandit_either","AL7TCWU718E5W","either","3","","","","","","","1","0","0","0.3698022864","","0.4","0.8","0.2","0.6","","","","","0.4199094288","0.3698022864","0.3852030547","0.09213729174","","","","","","","74","J","1","","","43","main_expt"
"603","","bandit","122","447915","0.0-83.0-0.0","14993367","wem/bandit_either","AL7TCWU718E5W","either","3","","","","","","","1","0","0","0.3278340923","","0.4","0.8","0.2","0.6","","","","","0.4362917367","0.3278340923","0.3653477133","0.0950319608","","","","","","","74","J","1","","","44","main_expt"
"553","","bandit","123","449986","0.0-84.0-0.0","14993367","wem/bandit_either","AL7TCWU718E5W","either","3","","","","","","","1","0","0","0.4004869948","","0.4","0.8","0.2","0.6","","","","","0.4310393502","0.4004869948","0.3423722135","0.07917944011","","","","","","","74","J","1","","","45","main_expt"
"443","","bandit","124","451942","0.0-85.0-0.0","14993367","wem/bandit_either","AL7TCWU718E5W","either","3","","","","","","","0","0","1","","0.4389658195","0.4","0.8","0.2","0.6","0.4301719659","0.4389658195","0.2713785315","0.08528552535","","","","","","","","","","","74","J","1","","","46","main_expt"
"713","","bandit","125","454167","0.0-86.0-0.0","14993367","wem/bandit_either","AL7TCWU718E5W","either","3","","","","","","","0","1","0","","0.2675382036","0.4","0.8","0.2","0.6","0.4274268526","0.4294918489","0.2675382036","0.08303267599","","","","","","","","","","","75","K","2","","","47","main_expt"
"838","","bandit","126","456518","0.0-87.0-0.0","14993367","wem/bandit_either","AL7TCWU718E5W","either","3","","","","","","","0","0","1","","0.3006553151","0.4","0.8","0.2","0.6","0.4559220927","0.3948346084","0.3006553151","0.1183490009","","","","","","","","","","","75","K","2","","","48","main_expt"
"689","","bandit","127","458717","0.0-88.0-0.0","14993367","wem/bandit_either","AL7TCWU718E5W","either","3","","","","","","","1","0","0","0.4226663974","","0.4","0.8","0.2","0.6","","","","","0.4362936898","0.4226663974","0.2865645246","0.09831357925","","","","","","","74","J","1","","","49","main_expt"
"793","","bandit","128","461050","0.0-89.0-0.0","14993367","wem/bandit_either","AL7TCWU718E5W","either","3","","","","","","","1","0","0","0.3943232949","","0.4","0.8","0.2","0.6","","","","","0.4001593617","0.3943232949","0.2842330123","0.0896163698","","","","","","","74","J","1","","","50","main_expt"
"828","","bandit","129","463389","0.0-90.0-0.0","14993367","wem/bandit_either","AL7TCWU718E5W","either","3","","","","","","","1","0","0","0.3911898034","","0.4","0.8","0.2","0.6","","","","","0.3737598101","0.3911898034","0.2933637591","0.08239790895","","","","","","","74","J","1","","","51","main_expt"
"480","","bandit","130","465381","0.0-91.0-0.0","14993367","wem/bandit_either","AL7TCWU718E5W","either","3","","","","","","","0","0","1","0.3897106723","","0.4","0.8","0.2","0.6","","","","","0.3490564905","0.3897106723","0.2802127762","0.06509061927","","","","","","","74","J","1","","","52","main_expt"
"305","","bandit","131","467199","0.0-92.0-0.0","14993367","wem/bandit_either","AL7TCWU718E5W","either","3","","","","","","","0","1","0","","0.2567133084","0.4","0.8","0.2","0.6","0.3606416198","0.3977919118","0.2567133084","0.05503049918","","","","","","","","","","","75","K","2","","","53","main_expt"
"681","","bandit","132","469462","0.0-93.0-0.0","14993367","wem/bandit_either","AL7TCWU718E5W","either","3","","","","","","","0","0","1","","0.304436262","0.4","0.8","0.2","0.6","0.3920172378","0.3803623479","0.304436262","0.06606451817","","","","","","","","","","","75","K","2","","","54","main_expt"
"286","","bandit","133","471263","0.0-94.0-0.0","14993367","wem/bandit_either","AL7TCWU718E5W","either","3","","","","","","","0","1","0","","0.3841867886","0.4","0.8","0.2","0.6","0.3841867886","0.3898030924","0.3050376594","0.0812436444","","","","","","","","","","","72","H","0","img/none_selected.jpg","","55","main_expt"
"398","","bandit","134","473174","0.0-95.0-0.0","14993367","wem/bandit_either","AL7TCWU718E5W","either","3","","","","","","","1","0","0","0.3752679739","","0.4","0.8","0.2","0.6","","","","","0.3752679739","0.4332266089","0.2874076515","0.05752214818","","","","","","","72","H","0","img/none_selected.jpg","","56","main_expt"
"726","","bandit","135","475413","0.0-96.0-0.0","14993367","wem/bandit_either","AL7TCWU718E5W","either","3","","","","","","","1","0","0","0.3595388075","","0.4","0.8","0.2","0.6","","","","","0.3595388075","0.4598680415","0.2633226407","0.05957573693","","","","","","","72","H","0","img/none_selected.jpg","","57","main_expt"
"593","","bandit","136","477520","0.0-97.0-0.0","14993367","wem/bandit_either","AL7TCWU718E5W","either","3","","","","","","","0","1","0","","0.2926617498","0.4","0.8","0.2","0.6","0.2926617498","0.4510058242","0.282557186","0.08347810371","","","","","","","","","","","72","H","0","img/none_selected.jpg","","58","main_expt"
"591","","bandit","137","479628","0.0-98.0-0.0","14993367","wem/bandit_either","AL7TCWU718E5W","either","3","","","","","","","0","0","1","","0.2854140482","0.4","0.8","0.2","0.6","0.2854140482","0.4587464736","0.2675679041","0.1166757522","","","","","","","","","","","72","H","0","img/none_selected.jpg","","59","main_expt"
"320","","bandit","138","481462","0.0-99.0-0.0","14993367","wem/bandit_either","AL7TCWU718E5W","either","3","","","","","","","0","1","0","","0.2654645802","0.4","0.8","0.2","0.6","0.2767785787","0.4534111386","0.2654645802","0.1223048521","","","","","","","","","","","75","K","2","","","60","main_expt"
"509","","bandit","139","483486","0.0-100.0-0.0","14993367","wem/bandit_either","AL7TCWU718E5W","either","3","","","","","","","1","0","0","0.2326588137","","0.4","0.8","0.2","0.6","","","","","0.3110110239","0.4581751116","0.2326588137","0.1341525672","","","","","","","75","K","2","","","61","main_expt"
"606","","bandit","140","485606","0.0-101.0-0.0","14993367","wem/bandit_either","AL7TCWU718E5W","either","3","","","","","","","0","0","1","","0.2430345153","0.4","0.8","0.2","0.6","0.2739379344","0.4447189615","0.2430345153","0.1748443247","","","","","","","","","","","75","K","2","","","62","main_expt"
"376","","bandit","141","487495","0.0-102.0-0.0","14993367","wem/bandit_either","AL7TCWU718E5W","either","3","","","","","","","0","0","1","0.4351057758","","0.4","0.8","0.2","0.6","","","","","0.2518438402","0.4351057758","0.2682261916","0.1872250423","","","","","","","74","J","1","","","63","main_expt"
"238","","bandit","142","489363","0.0-103.0-0.0","14993367","wem/bandit_either","AL7TCWU718E5W","either","3","","","","","","","0","0","1","0.1592276408","","0.4","0.8","0.2","0.6","","","","","0.216118181","0.4559228662","0.3136585585","0.1592276408","","","","","","","76","L","3","","","64","main_expt"
"210","","bandit","143","491085","0.0-104.0-0.0","14993367","wem/bandit_either","AL7TCWU718E5W","either","3","","","","","","","0","0","1","0.1961712117","","0.4","0.8","0.2","0.6","","","","","0.1961712117","0.4526438492","0.3208042698","0.1881419285","","","","","","","72","H","0","img/none_selected.jpg","","65","main_expt"
"256","","bandit","144","492853","0.0-105.0-0.0","14993367","wem/bandit_either","AL7TCWU718E5W","either","3","","","","","","","0","0","1","","0.3550213758","0.4","0.8","0.2","0.6","0.1821057022","0.4604690516","0.3550213758","0.2075830042","","","","","","","","","","","75","K","2","","","66","main_expt"
"288","","bandit","145","494654","0.0-106.0-0.0","14993367","wem/bandit_either","AL7TCWU718E5W","either","3","","","","","","","0","0","1","0.4479534522","","0.4","0.8","0.2","0.6","","","","","0.2221692745","0.4479534522","0.2883445083","0.210321401","","","","","","","74","J","1","","","67","main_expt"
"303","","bandit","146","496469","0.0-107.0-0.0","14993367","wem/bandit_either","AL7TCWU718E5W","either","3","","","","","","","0","0","1","","0.1740681144","0.4","0.8","0.2","0.6","0.2385328342","0.4420076102","0.2492112051","0.1740681144","","","","","","","","","","","76","L","3","","","68","main_expt"
"294","","bandit","147","498356","0.0-108.0-0.0","14993367","wem/bandit_either","AL7TCWU718E5W","either","3","","","","","","","0","0","1","","0.2693988132","0.4","0.8","0.2","0.6","0.2693988132","0.3840886122","0.1725364023","0.1495678232","","","","","","","","","","","72","H","0","img/none_selected.jpg","","69","main_expt"
"552","","bandit","148","500422","0.0-109.0-0.0","14993367","wem/bandit_either","AL7TCWU718E5W","either","3","","","","","","","0","0","1","0.1594524764","","0.4","0.8","0.2","0.6","","","","","0.2633889128","0.3764426572","0.2081322216","0.1594524764","","","","","","","76","L","3","","","70","main_expt"
"246","","bandit","149","502180","0.0-110.0-0.0","14993367","wem/bandit_either","AL7TCWU718E5W","either","3","","","","","","","0","1","0","","0.2222096595","0.4","0.8","0.2","0.6","0.2881785301","0.3925575972","0.2222096595","0.1308665948","","","","","","","","","","","75","K","2","","","71","main_expt"
"320","","bandit","150","504013","0.0-111.0-0.0","14993367","wem/bandit_either","AL7TCWU718E5W","either","3","","","","","","","0","0","1","","0.2276413934","0.4","0.8","0.2","0.6","0.3496752211","0.4055717031","0.2276413934","0.1413665491","","","","","","","","","","","75","K","2","","","72","main_expt"
"293","","bandit","151","505820","0.0-112.0-0.0","14993367","wem/bandit_either","AL7TCWU718E5W","either","3","","","","","","","1","0","0","0.4313753627","","0.4","0.8","0.2","0.6","","","","","0.3662649551","0.4313753627","0.202726327","0.1562096843","","","","","","","74","J","1","","","73","main_expt"
"336","","bandit","152","507668","0.0-113.0-0.0","14993367","wem/bandit_either","AL7TCWU718E5W","either","3","","","","","","","0","0","1","0.4294283137","","0.4","0.8","0.2","0.6","","","","","0.3318597218","0.4294283137","0.2465356434","0.1601549975","","","","","","","74","J","1","","","74","main_expt"
"295","","bandit","153","509478","0.0-114.0-0.0","14993367","wem/bandit_either","AL7TCWU718E5W","either","3","","","","","","","0","0","1","","0.2780880013","0.4","0.8","0.2","0.6","0.3129946244","0.4114775526","0.2780880013","0.1962365409","","","","","","","","","","","75","K","2","","","75","main_expt"
"253","","bandit","154","511244","0.0-115.0-0.0","14993367","wem/bandit_either","AL7TCWU718E5W","either","3","","","","","","","0","0","1","","0.3299880354","0.4","0.8","0.2","0.6","0.3299880354","0.4038916894","0.230570622","0.2315068675","","","","","","","","","","","72","H","0","img/none_selected.jpg","","76","main_expt"
"561","","bandit","155","513342","0.0-116.0-0.0","14993367","wem/bandit_either","AL7TCWU718E5W","either","3","","","","","","","0","1","0","","0.4028298088","0.4","0.8","0.2","0.6","0.2704336052","0.4028298088","0.1747897532","0.1749603823","","","","","","","","","","","74","J","1","","","77","main_expt"
"518","","bandit","156","515372","0.0-117.0-0.0","14993367","wem/bandit_either","AL7TCWU718E5W","either","3","","","","","","","0","0","1","0.4004321452","","0.4","0.8","0.2","0.6","","","","","0.2489008917","0.4004321452","0.2009150394","0.2091975686","","","","","","","74","J","1","","","78","main_expt"
"360","","bandit","157","517245","0.0-118.0-0.0","14993367","wem/bandit_either","AL7TCWU718E5W","either","3","","","","","","","0","0","1","0.2699334682","","0.4","0.8","0.2","0.6","","","","","0.2182462247","0.3909827091","0.2090883318","0.2699334682","","","","","","","76","L","3","","","79","main_expt"
"319","","bandit","158","519077","0.0-119.0-0.0","14993367","wem/bandit_either","AL7TCWU718E5W","either","3","","","","","","","0","0","1","","0.1591694045","0.4","0.8","0.2","0.6","0.1591694045","0.4289339141","0.215522018","0.2712134299","","","","","","","","","","","72","H","0","img/none_selected.jpg","","80","main_expt"
"591","","bandit","159","521180","0.0-120.0-0.0","14993367","wem/bandit_either","AL7TCWU718E5W","either","3","","","","","","","0","0","1","","0.2655955182","0.4","0.8","0.2","0.6","0.1661146317","0.4256341571","0.2655955182","0.2563236188","","","","","","","","","","","75","K","2","","","81","main_expt"
"701","","bandit","160","523397","0.0-121.0-0.0","14993367","wem/bandit_either","AL7TCWU718E5W","either","3","","","","","","","0","0","1","0.4153375647","","0.4","0.8","0.2","0.6","","","","","0.2249160828","0.4153375647","0.2642342948","0.2474856626","","","","","","","74","J","1","","","82","main_expt"
"992","","bandit","161","525901","0.0-122.0-0.0","14993367","wem/bandit_either","AL7TCWU718E5W","either","3","","","","","","","0","1","0","","0.2615040017","0.4","0.8","0.2","0.6","0.2194800234","0.4239102097","0.2615040017","0.2338037125","","","","","","","","","","","75","K","2","","","83","main_expt"
"459","","bandit","162","527876","0.0-123.0-0.0","14993367","wem/bandit_either","AL7TCWU718E5W","either","3","","","","","","","1","0","0","0.3136368113","","0.4","0.8","0.2","0.6","","","","","0.2020024956","0.4021041833","0.3136368113","0.2929655049","","","","","","","75","K","2","","","84","main_expt"
"824","","bandit","163","530212","0.0-124.0-0.0","14993367","wem/bandit_either","AL7TCWU718E5W","either","3","","","","","","","0","0","1","","0.2433538552","0.4","0.8","0.2","0.6","0.1639230135","0.4322374594","0.2433538552","0.2755572306","","","","","","","","","","","75","K","2","","","85","main_expt"
"456","","bandit","164","532180","0.0-125.0-0.0","14993367","wem/bandit_either","AL7TCWU718E5W","either","3","","","","","","","0","0","1","0.1423092638","","0.4","0.8","0.2","0.6","","","","","0.1423092638","0.4247618508","0.2583740773","0.2706615249","","","","","","","72","H","0","img/none_selected.jpg","","86","main_expt"
"480","","bandit","165","534173","0.0-126.0-0.0","14993367","wem/bandit_either","AL7TCWU718E5W","either","3","","","","","","","0","0","1","","0.4130492334","0.4","0.8","0.2","0.6","0.1623313408","0.4130492334","0.2656778135","0.3259805539","","","","","","","","","","","74","J","1","","","87","main_expt"
"288","","bandit","166","535972","0.0-127.0-0.0","14993367","wem/bandit_either","AL7TCWU718E5W","either","3","","","","","","","0","1","0","","0.3471137027","0.4","0.8","0.2","0.6","0.1459946163","0.3883747858","0.2565525481","0.3471137027","","","","","","","","","","","76","L","3","","","88","main_expt"
"392","","bandit","167","537876","0.0-128.0-0.0","14993367","wem/bandit_either","AL7TCWU718E5W","either","3","","","","","","","0","0","1","","0.3715311126","0.4","0.8","0.2","0.6","0.1684807643","0.3950807547","0.2471999074","0.3715311126","","","","","","","","","","","76","L","3","","","89","main_expt"
"463","","bandit","168","539854","0.0-129.0-0.0","14993367","wem/bandit_either","AL7TCWU718E5W","either","3","","","","","","","0","0","1","0.1937692241","","0.4","0.8","0.2","0.6","","","","","0.1937692241","0.420982679","0.2204199549","0.3571728809","","","","","","","72","H","0","img/none_selected.jpg","","90","main_expt"
"412","","bandit","169","541780","0.0-130.0-0.0","14993367","wem/bandit_either","AL7TCWU718E5W","either","3","","","","","","","0","0","1","","0.2013548925","0.4","0.8","0.2","0.6","0.1670397906","0.4012606491","0.2013548925","0.3348642023","","","","","","","","","","","75","K","2","","","91","main_expt"
"336","","bandit","170","543627","0.0-131.0-0.0","14993367","wem/bandit_either","AL7TCWU718E5W","either","3","","","","","","","1","0","0","0.3551195155","","0.4","0.8","0.2","0.6","","","","","0.1936095216","0.3950870333","0.174921714","0.3551195155","","","","","","","76","L","3","","","92","main_expt"
"369","","bandit","171","545509","0.0-132.0-0.0","14993367","wem/bandit_either","AL7TCWU718E5W","either","3","","","","","","","1","0","0","0.3494458231","","0.4","0.8","0.2","0.6","","","","","0.2399824117","0.3797372222","0.1972058505","0.3494458231","","","","","","","76","L","3","","","93","main_expt"
"567","","bandit","172","547588","0.0-133.0-0.0","14993367","wem/bandit_either","AL7TCWU718E5W","either","3","","","","","","","0","0","1","0.3759818745","","0.4","0.8","0.2","0.6","","","","","0.242536602","0.3346339076","0.2144007407","0.3759818745","","","","","","","76","L","3","","","94","main_expt"
"328","","bandit","173","549428","0.0-134.0-0.0","14993367","wem/bandit_either","AL7TCWU718E5W","either","3","","","","","","","0","0","1","0.3433005441","","0.4","0.8","0.2","0.6","","","","","0.3081296623","0.3433005441","0.2025691914","0.3467088588","","","","","","","74","J","1","","","95","main_expt"
"272","","bandit","174","551211","0.0-135.0-0.0","14993367","wem/bandit_either","AL7TCWU718E5W","either","3","","","","","","","0","0","1","0.371766452","","0.4","0.8","0.2","0.6","","","","","0.371766452","0.2900415689","0.1750118246","0.3520186383","","","","","","","72","H","0","img/none_selected.jpg","","96","main_expt"
"353","","bandit","175","553111","0.0-136.0-0.0","14993367","wem/bandit_either","AL7TCWU718E5W","either","3","","","","","","","0","0","1","0.342216001","","0.4","0.8","0.2","0.6","","","","","0.3737721809","0.3136050561","0.2433812568","0.342216001","","","","","","","76","L","3","","","97","main_expt"
"580","","bandit","176","555203","0.0-137.0-0.0","14993367","wem/bandit_either","AL7TCWU718E5W","either","3","","","","","","","0","0","1","0.3236610102","","0.4","0.8","0.2","0.6","","","","","0.3662625892","0.3236610102","0.1834100281","0.3775958225","","","","","","","74","J","1","","","98","main_expt"
"296","","bandit","177","557032","0.0-138.0-0.0","14993367","wem/bandit_either","AL7TCWU718E5W","either","3","","","","","","","0","0","1","","0.146161558","0.4","0.8","0.2","0.6","0.3912879072","0.3116662608","0.146161558","0.3490624926","","","","","","","","","","","75","K","2","","","99","main_expt"
"299","","bandit","178","558843","0.0-139.0-0.0","14993367","wem/bandit_either","AL7TCWU718E5W","either","3","","","","","","","0","1","0","","0.3916888764","0.4","0.8","0.2","0.6","0.3916888764","0.3806420769","0.1186266926","0.3418910903","","","","","","","","","","","72","H","0","img/none_selected.jpg","","100","main_expt"
"375","","bandit","179","560732","0.0-140.0-0.0","14993367","wem/bandit_either","AL7TCWU718E5W","either","3","","","","","","","0","1","0","","0.3803758031","0.4","0.8","0.2","0.6","0.3803758031","0.3825052475","0.1467879228","0.3544055354","","","","","","","","","","","72","H","0","img/none_selected.jpg","","101","main_expt"
"503","","bandit","180","562748","0.0-141.0-0.0","14993367","wem/bandit_either","AL7TCWU718E5W","either","3","","","","","","","0","1","0","","0.3685266224","0.4","0.8","0.2","0.6","0.3685266224","0.3799327693","0.1336514036","0.3580864163","","","","","","","","","","","72","H","0","img/none_selected.jpg","","102","main_expt"
"355","","bandit","181","564617","0.0-142.0-0.0","14993367","wem/bandit_either","AL7TCWU718E5W","either","3","","","","","","","0","0","1","0.336528594","","0.4","0.8","0.2","0.6","","","","","0.3754978655","0.3502018886","0.1325092095","0.336528594","","","","","","","76","L","3","","","103","main_expt"
"306","","bandit","182","566436","0.0-143.0-0.0","14993367","wem/bandit_either","AL7TCWU718E5W","either","3","","","","","","","0","0","1","0.4033056484","","0.4","0.8","0.2","0.6","","","","","0.4033056484","0.3443431466","0.1162839287","0.3190078166","","","","","","","72","H","0","img/none_selected.jpg","","104","main_expt"
"335","","bandit","183","568470","0.0-144.0-0.0","14993367","wem/bandit_either","AL7TCWU718E5W","either","3","","","","","","","0","0","1","","0.115620258","0.4","0.8","0.2","0.6","0.3617388181","0.3551378046","0.115620258","0.3100940773","","","","","","","","","","","75","K","2","","","105","main_expt"
"349","","bandit","184","570362","0.0-145.0-0.0","14993367","wem/bandit_either","AL7TCWU718E5W","either","3","","","","","","","0","1","0","","0.3177956882","0.4","0.8","0.2","0.6","0.3656875331","0.3177956882","0.1102569517","0.2964842485","","","","","","","","","","","74","J","1","","","106","main_expt"
"276","","bandit","185","572158","0.0-146.0-0.0","14993367","wem/bandit_either","AL7TCWU718E5W","either","3","","","","","","","0","0","1","0.3463124521","","0.4","0.8","0.2","0.6","","","","","0.3478183852","0.3463124521","0.110599846","0.3224579283","","","","","","","74","J","1","","","107","main_expt"
"643","","bandit","186","574623","0.0-147.0-0.0","14993367","wem/bandit_either","AL7TCWU718E5W","either","3","","","","","","","0","0","1","0.330790185","","0.4","0.8","0.2","0.6","","","","","0.3715517583","0.330790185","0.1647947233","0.3365568187","","","","","","","74","J","1","","","108","main_expt"
"698","","bandit","187","576838","0.0-148.0-0.0","14993367","wem/bandit_either","AL7TCWU718E5W","either","3","","","","","","","0","0","1","0.3259779601","","0.4","0.8","0.2","0.6","","","","","0.3713851569","0.3259779601","0.146095753","0.3200824859","","","","","","","74","J","1","","","109","main_expt"
"312","","bandit","188","578670","0.0-149.0-0.0","14993367","wem/bandit_either","AL7TCWU718E5W","either","3","","","","","","","0","1","0","","0.1691954855","0.4","0.8","0.2","0.6","0.3401672382","0.3169053314","0.1691954855","0.3179471713","","","","","","","","","","","75","K","2","","","110","main_expt"
"482","","bandit","189","580669","0.0-150.0-0.0","14993367","wem/bandit_either","AL7TCWU718E5W","either","3","","","","","","","0","0","1","0.342138516","","0.4","0.8","0.2","0.6","","","","","0.3242328008","0.342138516","0.1690298198","0.3168158386","","","","","","","74","J","1","","","111","main_expt"
"317","","bandit","190","582501","0.0-151.0-0.0","14993367","wem/bandit_either","AL7TCWU718E5W","either","3","","","","","","","0","0","1","0.2196992501","","0.4","0.8","0.2","0.6","","","","","0.2991119965","0.3597886873","0.2196992501","0.3551606626","","","","","","","75","K","2","","","112","main_expt"
"61","","bandit","191","584077","0.0-152.0-0.0","14993367","wem/bandit_either","AL7TCWU718E5W","either","3","","","","","","","0","1","0","","0.3364281798","0.4","0.8","0.2","0.6","0.3364281798","0.3580549124","0.2723467559","0.3615444015","","","","","","","","","","","72","H","0","img/none_selected.jpg","","113","main_expt"
"309","","bandit","192","585900","0.0-153.0-0.0","14993367","wem/bandit_either","AL7TCWU718E5W","either","3","","","","","","","0","1","0","","0.3495122724","0.4","0.8","0.2","0.6","0.3495122724","0.3556181037","0.2470985199","0.4043222556","","","","","","","","","","","72","H","0","img/none_selected.jpg","","114","main_expt"
"350","","bandit","193","587765","0.0-154.0-0.0","14993367","wem/bandit_either","AL7TCWU718E5W","either","3","","","","","","","0","0","1","0.324938203","","0.4","0.8","0.2","0.6","","","","","0.324938203","0.3489042174","0.2482590513","0.4179696435","","","","","","","72","H","0","img/none_selected.jpg","","115","main_expt"
"245","","bandit","194","589524","0.0-155.0-0.0","14993367","wem/bandit_either","AL7TCWU718E5W","either","3","","","","","","","1","0","0","0.4324393975","","0.4","0.8","0.2","0.6","","","","","0.3227512736","0.3466245191","0.1992012358","0.4324393975","","","","","","","76","L","3","","","116","main_expt"
"341","","bandit","195","591380","0.0-156.0-0.0","14993367","wem/bandit_either","AL7TCWU718E5W","either","3","","","","","","","1","0","0","0.4290779421","","0.4","0.8","0.2","0.6","","","","","0.2585209305","0.3581754781","0.216355905","0.4290779421","","","","","","","76","L","3","","","117","main_expt"
"574","","bandit","196","593467","0.0-157.0-0.0","14993367","wem/bandit_either","AL7TCWU718E5W","either","3","","","","","","","1","0","0","0.4459264202","","0.4","0.8","0.2","0.6","","","","","0.2817260076","0.283939031","0.1715453935","0.4459264202","","","","","","","76","L","3","","","118","main_expt"
"495","","bandit","197","595476","0.0-158.0-0.0","14993367","wem/bandit_either","AL7TCWU718E5W","either","3","","","","","","","0","0","1","0.436995295","","0.4","0.8","0.2","0.6","","","","","0.328214026","0.2992634423","0.1843456939","0.436995295","","","","","","","76","L","3","","","119","main_expt"
"37","","bandit","198","597031","0.0-159.0-0.0","14993367","wem/bandit_either","AL7TCWU718E5W","either","3","","","","","","","0","1","0","","0.1878150733","0.4","0.8","0.2","0.6","0.3355603121","0.1878150733","0.1848061615","0.4151314625","","","","","","","","","","","74","J","1","","","120","main_expt"
"490","","bandit","199","599035","0.0-160.0-0.0","14993367","wem/bandit_either","AL7TCWU718E5W","either","3","","","","","","","0","0","1","0.1679578636","","0.4","0.8","0.2","0.6","","","","","0.3829587724","0.1447458933","0.1679578636","0.4384064527","","","","","","","75","K","2","","","121","main_expt"
"374","","bandit","200","600923","0.0-161.0-0.0","14993367","wem/bandit_either","AL7TCWU718E5W","either","3","","","","","","","0","0","1","0.3995678287","","0.4","0.8","0.2","0.6","","","","","0.3995678287","0.1176060398","0.197295971","0.4417589501","","","","","","","72","H","0","img/none_selected.jpg","","122","main_expt"
"343","","bandit","201","602780","0.0-162.0-0.0","14993367","wem/bandit_either","AL7TCWU718E5W","either","3","","","","","","","0","1","0","","0.4017154396","0.4","0.8","0.2","0.6","0.3656739583","0.1097677055","0.2184653352","0.4017154396","","","","","","","","","","","76","L","3","","","123","main_expt"
"573","","bandit","202","604870","0.0-163.0-0.0","14993367","wem/bandit_either","AL7TCWU718E5W","either","3","","","","","","","0","0","1","0.3619070526","","0.4","0.8","0.2","0.6","","","","","0.3862549257","0.08048168986","0.2147868977","0.3619070526","","","","","","","76","L","3","","","124","main_expt"
"468","","bandit","203","606853","0.0-164.0-0.0","14993367","wem/bandit_either","AL7TCWU718E5W","either","3","","","","","","","0","0","1","0.07842900555","","0.4","0.8","0.2","0.6","","","","","0.3593796239","0.07842900555","0.1667936559","0.3567490645","","","","","","","74","J","1","","","125","main_expt"
"443","","bandit","204","608812","0.0-165.0-0.0","14993367","wem/bandit_either","AL7TCWU718E5W","either","3","","","","","","","0","0","1","","0.1453295256","0.4","0.8","0.2","0.6","0.3413194209","0.08318363027","0.1453295256","0.3558473019","","","","","","","","","","","75","K","2","","","126","main_expt"
"317","","bandit","205","610644","0.0-166.0-0.0","14993367","wem/bandit_either","AL7TCWU718E5W","either","3","","","","","","","0","0","1","0.3369929262","","0.4","0.8","0.2","0.6","","","","","0.3369929262","0.06812438963","0.1635755653","0.3543069734","","","","","","","72","H","0","img/none_selected.jpg","","127","main_expt"
"222","","bandit","206","612379","0.0-167.0-0.0","14993367","wem/bandit_either","AL7TCWU718E5W","either","3","","","","","","","0","0","1","0.3328374851","","0.4","0.8","0.2","0.6","","","","","0.2922989636","0.08303766286","0.1872639566","0.3328374851","","","","","","","76","L","3","","","128","main_expt"
"206","","bandit","207","614117","0.0-168.0-0.0","14993367","wem/bandit_either","AL7TCWU718E5W","either","3","","","","","","","0","0","1","","0.3095146075","0.4","0.8","0.2","0.6","0.3095146075","0.09047360051","0.2032718864","0.3238683282","","","","","","","","","","","72","H","0","img/none_selected.jpg","","129","main_expt"
"253","","bandit","208","615887","0.0-169.0-0.0","14993367","wem/bandit_either","AL7TCWU718E5W","either","3","","","","","","","0","0","1","","0.131542256","0.4","0.8","0.2","0.6","0.3068425872","0.131542256","0.2025864764","0.2750329062","","","","","","","","","","","74","J","1","","","130","main_expt"
"274","","bandit","209","617676","0.0-170.0-0.0","14993367","wem/bandit_either","AL7TCWU718E5W","either","3","","","","","","","0","0","1","0.2158584071","","0.4","0.8","0.2","0.6","","","","","0.3112504131","0.1492019489","0.2158584071","0.2751886228","","","","","","","75","K","2","","","131","main_expt"
"926","","bandit","210","620116","0.0-171.0-0.0","14993367","wem/bandit_either","AL7TCWU718E5W","either","3","","","","","","","0","0","1","0.2729729886","","0.4","0.8","0.2","0.6","","","","","0.3595653039","0.1571188116","0.2105840197","0.2729729886","","","","","","","76","L","3","","","132","main_expt"
"683","","bandit","211","622315","0.0-172.0-0.0","14993367","wem/bandit_either","AL7TCWU718E5W","either","3","","","","","","","0","0","1","","0.2328486735","0.4","0.8","0.2","0.6","0.3873527377","0.2021073832","0.2328486735","0.3248088544","","","","","","","","","","","75","K","2","","","133","main_expt"
"359","","bandit","212","624189","0.0-173.0-0.0","14993367","wem/bandit_either","AL7TCWU718E5W","either","3","","","","","","","0","0","1","","0.2693148074","0.4","0.8","0.2","0.6","0.3973884711","0.2693148074","0.2589092944","0.3596446835","","","","","","","","","","","74","J","1","","","134","main_expt"
"342","","bandit","213","626047","0.0-174.0-0.0","14993367","wem/bandit_either","AL7TCWU718E5W","either","3","","","","","","","0","1","0","","0.4080523157","0.4","0.8","0.2","0.6","0.4080523157","0.2625780805","0.2637326353","0.318377279","","","","","","","","","","","72","H","0","img/none_selected.jpg","","135","main_expt"
"402","","bandit","214","627963","0.0-175.0-0.0","14993367","wem/bandit_either","AL7TCWU718E5W","either","3","","","","","","","0","0","1","","0.4176503084","0.4","0.8","0.2","0.6","0.4176503084","0.2981707722","0.2718680576","0.3160887017","","","","","","","","","","","72","H","0","img/none_selected.jpg","","136","main_expt"
"376","","bandit","215","629853","0.0-176.0-0.0","14993367","wem/bandit_either","AL7TCWU718E5W","either","3","","","","","","","0","1","0","","0.2919957672","0.4","0.8","0.2","0.6","0.3859803947","0.3148158286","0.2919957672","0.2883225013","","","","","","","","","","","75","K","2","","","137","main_expt"
"371","","bandit","216","631741","0.0-177.0-0.0","14993367","wem/bandit_either","AL7TCWU718E5W","either","3","","","","","","","0","1","0","","0.3193993407","0.4","0.8","0.2","0.6","0.358492916","0.3111523267","0.3193993407","0.3009152141","","","","","","","","","","","75","K","2","","","138","main_expt"
"347","","bandit","217","633618","0.0-178.0-0.0","14993367","wem/bandit_either","AL7TCWU718E5W","either","3","","","","","","","0","1","0","","0.3034593298","0.4","0.8","0.2","0.6","0.3608756281","0.3034593298","0.3404434035","0.293720077","","","","","","","","","","","74","J","1","","","139","main_expt"
"420","","bandit","218","635556","0.0-179.0-0.0","14993367","wem/bandit_either","AL7TCWU718E5W","either","3","","","","","","","0","0","1","","0.2507495005","0.4","0.8","0.2","0.6","0.3421836092","0.2507495005","0.3278052243","0.286059761","","","","","","","","","","","74","J","1","","","140","main_expt"
"228","","bandit","219","637323","0.0-180.0-0.0","14993367","wem/bandit_either","AL7TCWU718E5W","either","3","","","","","","","1","0","0","0.2931724706","","0.4","0.8","0.2","0.6","","","","","0.3737340371","0.2220694513","0.3038906839","0.2931724706","","","","","","","76","L","3","","","141","main_expt"
"473","","bandit","220","639745","0.0-181.0-0.0","14993367","wem/bandit_either","AL7TCWU718E5W","either","3","","","","","","","0","0","1","","0.2182180164","0.4","0.8","0.2","0.6","0.3461121542","0.2119249064","0.2924195757","0.2182180164","","","","","","","","","","","76","L","3","","","142","main_expt"
"186","","bandit","221","641453","0.0-182.0-0.0","14993367","wem/bandit_either","AL7TCWU718E5W","either","3","","","","","","","0","1","0","","0.3305931074","0.4","0.8","0.2","0.6","0.3305931074","0.2665135591","0.2816149275","0.2015475508","","","","","","","","","","","72","H","0","img/none_selected.jpg","","143","main_expt"
"298","","bandit","222","643427","0.0-183.0-0.0","14993367","wem/bandit_either","AL7TCWU718E5W","either","3","","","","","","","0","0","1","","0.3561039987","0.4","0.8","0.2","0.6","0.3561039987","0.2854155153","0.2355525614","0.2074070562","","","","","","","","","","","72","H","0","img/none_selected.jpg","","144","main_expt"
"164","","bandit","223","645106","0.0-184.0-0.0","14993367","wem/bandit_either","AL7TCWU718E5W","either","3","","","","","","","0","1","0","","0.2185662272","0.4","0.8","0.2","0.6","0.3648023512","0.2521048148","0.2185662272","0.1415368311","","","","","","","","","","","75","K","2","","","145","main_expt"
"358","","bandit","224","646979","0.0-185.0-0.0","14993367","wem/bandit_either","AL7TCWU718E5W","either","3","","","","","","","0","1","0","","0.2321266643","0.4","0.8","0.2","0.6","0.3450315","0.2321266643","0.2209315791","0.1549520657","","","","","","","","","","","74","J","1","","","146","main_expt"
"309","","bandit","225","648803","0.0-186.0-0.0","14993367","wem/bandit_either","AL7TCWU718E5W","either","3","","","","","","","0","0","1","","0.1469310363","0.4","0.8","0.2","0.6","0.2720321141","0.3159383216","0.2889766311","0.1469310363","","","","","","","","","","","76","L","3","","","147","main_expt"
"301","","bandit","226","650619","0.0-187.0-0.0","14993367","wem/bandit_either","AL7TCWU718E5W","either","3","","","","","","","0","0","1","0.2673485129","","0.4","0.8","0.2","0.6","","","","","0.2598972664","0.2673485129","0.2859466156","0.1332828417","","","","","","","74","J","1","","","148","main_expt"
"261","","bandit","227","652395","0.0-188.0-0.0","14993367","wem/bandit_either","AL7TCWU718E5W","either","3","","","","","","","0","0","1","","0.1102010463","0.4","0.8","0.2","0.6","0.2343157719","0.3348600541","0.2588478233","0.1102010463","","","","","","","","","","","76","L","3","","","149","main_expt"
"557","","bandit","228","654468","0.0-189.0-0.0","14993367","wem/bandit_either","AL7TCWU718E5W","either","3","","","","","","","0","0","1","0.2224653457","","0.4","0.8","0.2","0.6","","","","","0.2451363599","0.3659656834","0.2224653457","0.1356103494","","","","","","","75","K","2","","","150","main_expt"
"315","","bandit","229","656300","0.0-190.0-0.0","14993367","wem/bandit_either","AL7TCWU718E5W","either","3","","","","","","","0","0","1","0.2053737132","","0.4","0.8","0.2","0.6","","","","","0.2053737132","0.36397653","0.2387237716","0.1621229287","","","","","","","72","H","0","img/none_selected.jpg","","151","main_expt"
"716","","bandit","230","658531","0.0-191.0-0.0","14993367","wem/bandit_either","AL7TCWU718E5W","either","3","","","","","","","0","0","1","0.3710672623","","0.4","0.8","0.2","0.6","","","","","0.2396242378","0.3710672623","0.2519133504","0.1412745606","","","","","","","74","J","1","","","152","main_expt"
"340","","bandit","231","660390","0.0-192.0-0.0","14993367","wem/bandit_either","AL7TCWU718E5W","either","3","","","","","","","0","0","1","0.1707580034","","0.4","0.8","0.2","0.6","","","","","0.2923277395","0.3828607765","0.3078499427","0.1707580034","","","","","","","76","L","3","","","153","main_expt"
"362","","bandit","232","662267","0.0-193.0-0.0","14993367","wem/bandit_either","AL7TCWU718E5W","either","3","","","","","","","0","0","1","","0.3283820497","0.4","0.8","0.2","0.6","0.3166515581","0.3526468527","0.3283820497","0.1717455462","","","","","","","","","","","75","K","2","","","154","main_expt"
"468","","bandit","233","664351","0.0-194.0-0.0","14993367","wem/bandit_either","AL7TCWU718E5W","either","3","","","","","","","0","0","1","","0.3194616596","0.4","0.8","0.2","0.6","0.3194616596","0.3865981945","0.3303057687","0.1785539081","","","","","","","","","","","72","H","0","img/none_selected.jpg","","155","main_expt"
"377","","bandit","234","666243","0.0-195.0-0.0","14993367","wem/bandit_either","AL7TCWU718E5W","either","3","","","","","","","0","1","0","","0.3178912443","0.4","0.8","0.2","0.6","0.3767011333","0.4328422877","0.3178912443","0.2175815231","","","","","","","","","","","75","K","2","","","156","main_expt"
"481","","bandit","235","668345","0.0-196.0-0.0","14993367","wem/bandit_either","AL7TCWU718E5W","either","3","","","","","","","0","0","1","0.3236874272","","0.4","0.8","0.2","0.6","","","","","0.3853144204","0.4224906378","0.3236874272","0.216674397","","","","","","","75","K","2","","","157","main_expt"
"399","","bandit","236","670258","0.0-197.0-0.0","14993367","wem/bandit_either","AL7TCWU718E5W","either","3","","","","","","","1","0","0","0.4428847078","","0.4","0.8","0.2","0.6","","","","","0.3519128793","0.4428847078","0.3731337511","0.2184316938","","","","","","","74","J","1","","","158","main_expt"
"333","","bandit","237","672108","0.0-198.0-0.0","14993367","wem/bandit_either","AL7TCWU718E5W","either","3","","","","","","","1","0","0","0.4498083842","","0.4","0.8","0.2","0.6","","","","","0.3255157266","0.4498083842","0.3758107074","0.2603966468","","","","","","","74","J","1","","","159","main_expt"
"386","","bandit","238","674010","0.0-199.0-0.0","14993367","wem/bandit_either","AL7TCWU718E5W","either","3","","","","","","","0","1","0","","0.4319550234","0.4","0.8","0.2","0.6","0.379238532","0.4319550234","0.3494215766","0.2242017374","","","","","","","","","","","74","J","1","","","160","main_expt"
"334","","bandit","239","675859","0.0-200.0-0.0","14993367","wem/bandit_either","AL7TCWU718E5W","either","3","","","","","","","1","0","0","0.4417514389","","0.4","0.8","0.2","0.6","","","","","0.3776335756","0.4417514389","0.3327111917","0.2014027125","","","","","","","74","J","1","","","161","main_expt"
"357","","bandit","240","677731","0.0-201.0-0.0","14993367","wem/bandit_either","AL7TCWU718E5W","either","3","","","","","","","1","0","0","0.4081293495","","0.4","0.8","0.2","0.6","","","","","0.2955751891","0.4081293495","0.3171011618","0.2038621466","","","","","","","74","J","1","","","162","main_expt"
"317","","bandit","241","679563","0.0-202.0-0.0","14993367","wem/bandit_either","AL7TCWU718E5W","either","3","","","","","","","0","0","1","0.4265776113","","0.4","0.8","0.2","0.6","","","","","0.30851492","0.4265776113","0.364183239","0.1238136799","","","","","","","74","J","1","","","163","main_expt"
"1243","","bandit","242","682322","0.0-203.0-0.0","14993367","wem/bandit_either","AL7TCWU718E5W","either","3","","","","","","","0","0","1","","0.3074756362","0.4","0.8","0.2","0.6","0.3074756362","0.427472809","0.3917374524","0.1104941302","","","","","","","","","","","72","H","0","img/none_selected.jpg","","164","main_expt"
"637","","bandit","243","684475","0.0-204.0-0.0","14993367","wem/bandit_either","AL7TCWU718E5W","either","3","","","","","","","0","0","1","","0.4016343469","0.4","0.8","0.2","0.6","0.2743039079","0.4016343469","0.3629360172","0.1099358877","","","","","","","","","","","74","J","1","","","165","main_expt"
"306","","bandit","244","686299","0.0-205.0-0.0","14993367","wem/bandit_either","AL7TCWU718E5W","either","3","","","","","","","0","0","1","","0.3697042915","0.4","0.8","0.2","0.6","0.2900226329","0.3578169927","0.3697042915","0.08082918558","","","","","","","","","","","75","K","2","","","166","main_expt"
"285","","bandit","245","688118","0.0-206.0-0.0","14993367","wem/bandit_either","AL7TCWU718E5W","either","3","","","","","","","0","0","1","0.3444017494","","0.4","0.8","0.2","0.6","","","","","0.3444017494","0.3346076013","0.3626443337","0.08539074978","","","","","","","72","H","0","img/none_selected.jpg","","167","main_expt"
"281","","bandit","246","689914","0.0-207.0-0.0","14993367","wem/bandit_either","AL7TCWU718E5W","either","3","","","","","","","0","0","1","0.1307687804","","0.4","0.8","0.2","0.6","","","","","0.3934904689","0.36326211","0.3488380128","0.1307687804","","","","","","","76","L","3","","","168","main_expt"
"357","","bandit","247","691786","0.0-208.0-0.0","14993367","wem/bandit_either","AL7TCWU718E5W","either","3","","","","","","","1","0","0","0.3389060657","","0.4","0.8","0.2","0.6","","","","","0.3712778229","0.3389060657","0.3338465455","0.09435724838","","","","","","","74","J","1","","","169","main_expt"
"317","","bandit","248","693621","0.0-209.0-0.0","14993367","wem/bandit_either","AL7TCWU718E5W","either","3","","","","","","","1","0","0","0.3820287301","","0.4","0.8","0.2","0.6","","","","","0.3348119161","0.3820287301","0.3675902536","0.09371103674","","","","","","","74","J","1","","","170","main_expt"
"466","","bandit","249","695602","0.0-210.0-0.0","14993367","wem/bandit_either","AL7TCWU718E5W","either","3","","","","","","","1","0","0","0.3738350687","","0.4","0.8","0.2","0.6","","","","","0.3697689907","0.3738350687","0.3663425941","0.0912992704","","","","","","","74","J","1","","","171","main_expt"
"493","","bandit","250","697609","0.0-211.0-0.0","14993367","wem/bandit_either","AL7TCWU718E5W","either","3","","","","","","","1","0","0","0.3449486646","","0.4","0.8","0.2","0.6","","","","","0.3438364448","0.3449486646","0.3571019768","0.1053216192","","","","","","","74","J","1","","","172","main_expt"
"406","","bandit","251","699532","0.0-212.0-0.0","14993367","wem/bandit_either","AL7TCWU718E5W","either","3","","","","","","","0","0","1","","0.3754463001","0.4","0.8","0.2","0.6","0.4064517123","0.3754463001","0.383943734","0.1119971747","","","","","","","","","","","74","J","1","","","173","main_expt"
"389","","bandit","252","701444","0.0-213.0-0.0","14993367","wem/bandit_either","AL7TCWU718E5W","either","3","","","","","","","0","0","1","0.1049574405","","0.4","0.8","0.2","0.6","","","","","0.4266345201","0.3983783957","0.378453819","0.1049574405","","","","","","","76","L","3","","","174","main_expt"
"283","","bandit","253","703461","0.0-214.0-0.0","14993367","wem/bandit_either","AL7TCWU718E5W","either","3","","","","","","","1","0","0","0.3577460836","","0.4","0.8","0.2","0.6","","","","","0.4413212306","0.4176958341","0.3577460836","0.07351671593","","","","","","","75","K","2","","","175","main_expt"
"369","","bandit","254","705347","0.0-215.0-0.0","14993367","wem/bandit_either","AL7TCWU718E5W","either","3","","","","","","","0","0","1","","0.3346789668","0.4","0.8","0.2","0.6","0.438548454","0.4336280271","0.3346789668","0.06097876817","","","","","","","","","","","75","K","2","","","176","main_expt"
"271","","bandit","255","707138","0.0-216.0-0.0","14993367","wem/bandit_either","AL7TCWU718E5W","either","3","","","","","","","0","1","0","","0.4350726265","0.4","0.8","0.2","0.6","0.4350726265","0.3863917124","0.3720341948","0.05873143133","","","","","","","","","","","72","H","0","img/none_selected.jpg","","177","main_expt"
"336","","bandit","256","708996","0.0-217.0-0.0","14993367","wem/bandit_either","AL7TCWU718E5W","either","3","","","","","","","0","1","0","","0.4029859975","0.4","0.8","0.2","0.6","0.4029859975","0.3826512014","0.4243236705","0.07829718294","","","","","","","","","","","72","H","0","img/none_selected.jpg","","178","main_expt"
"368","","bandit","257","710883","0.0-218.0-0.0","14993367","wem/bandit_either","AL7TCWU718E5W","either","3","","","","","","","0","1","0","","0.3738585124","0.4","0.8","0.2","0.6","0.3738585124","0.3681046487","0.4396564102","0.05868413977","","","","","","","","","","","72","H","0","img/none_selected.jpg","","179","main_expt"
"386","","bandit","258","712787","0.0-219.0-0.0","14993367","wem/bandit_either","AL7TCWU718E5W","either","3","","","","","","","0","1","0","","0.3884150149","0.4","0.8","0.2","0.6","0.3884150149","0.374340785","0.4501825932","0.04540529238","","","","","","","","","","","72","H","0","img/none_selected.jpg","","180","main_expt"
"338","","bandit","259","714642","0.0-220.0-0.0","14993367","wem/bandit_either","AL7TCWU718E5W","either","3","","","","","","","1","0","0","0.3977335033","","0.4","0.8","0.2","0.6","","","","","0.3977335033","0.3844034803","0.4527537228","0.04810206047","","","","","","","72","H","0","img/none_selected.jpg","","181","main_expt"
"676","","bandit","260","716835","0.0-221.0-0.0","14993367","wem/bandit_either","AL7TCWU718E5W","either","3","","","","","","","1","0","0","0.4194204302","","0.4","0.8","0.2","0.6","","","","","0.4194204302","0.3569363444","0.4733821952","0.0564969073","","","","","","","72","H","0","img/none_selected.jpg","","182","main_expt"
"331","","bandit","261","718682","0.0-222.0-0.0","14993367","wem/bandit_either","AL7TCWU718E5W","either","3","","","","","","","1","0","0","0.4050300101","","0.4","0.8","0.2","0.6","","","","","0.4050300101","0.3930074682","0.4741352064","0.06674959941","","","","","","","72","H","0","img/none_selected.jpg","","183","main_expt"
"380","","bandit","262","720582","0.0-223.0-0.0","14993367","wem/bandit_either","AL7TCWU718E5W","either","3","","","","","","","0","1","0","","0.4272992256","0.4","0.8","0.2","0.6","0.4272992256","0.4105724965","0.4835015011","0.05730522946","","","","","","","","","","","72","H","0","img/none_selected.jpg","","184","main_expt"
"314","","bandit","263","722420","0.0-224.0-0.0","14993367","wem/bandit_either","AL7TCWU718E5W","either","3","","","","","","","0","1","0","","0.4213026748","0.4","0.8","0.2","0.6","0.4213026748","0.4230276401","0.4907566516","0.0759668512","","","","","","","","","","","72","H","0","img/none_selected.jpg","","185","main_expt"
"377","","bandit","264","724487","0.0-225.0-0.0","14993367","wem/bandit_either","AL7TCWU718E5W","either","3","","","","","","","1","0","0","0.3729626057","","0.4","0.8","0.2","0.6","","","","","0.3729626057","0.4243078066","0.4777100538","0.0736669194","","","","","","","72","H","0","img/none_selected.jpg","","186","main_expt"
"342","","bandit","265","726348","0.0-226.0-0.0","14993367","wem/bandit_either","AL7TCWU718E5W","either","3","","","","","","","0","1","0","","0.4022080601","0.4","0.8","0.2","0.6","0.4022080601","0.419104652","0.4751658893","0.1020870739","","","","","","","","","","","72","H","0","img/none_selected.jpg","","187","main_expt"
"387","","bandit","266","728262","0.0-227.0-0.0","14993367","wem/bandit_either","AL7TCWU718E5W","either","3","","","","","","","0","1","0","","0.4218987807","0.4","0.8","0.2","0.6","0.4218987807","0.3917910895","0.4711403756","0.110066606","","","","","","","","","","","72","H","0","img/none_selected.jpg","","188","main_expt"
"462","","bandit","267","730248","0.0-228.0-0.0","14993367","wem/bandit_either","AL7TCWU718E5W","either","3","","","","","","","0","0","1","","0.4284519853","0.4","0.8","0.2","0.6","0.4284519853","0.3696037293","0.4848283219","0.1616324423","","","","","","","","","","","72","H","0","img/none_selected.jpg","","189","main_expt"
"1227","","bandit","268","733018","0.0-229.0-0.0","14993367","wem/bandit_either","AL7TCWU718E5W","either","3","","","","","","","0","1","0","","0.4906713727","0.4","0.8","0.2","0.6","0.4104863902","0.3722688899","0.4906713727","0.1401199573","","","","","","","","","","","75","K","2","","","190","main_expt"
"450","","bandit","269","734986","0.0-230.0-0.0","14993367","wem/bandit_either","AL7TCWU718E5W","either","3","","","","","","","0","0","1","","0.4944082075","0.4","0.8","0.2","0.6","0.4071825693","0.3956575009","0.4944082075","0.1782786715","","","","","","","","","","","75","K","2","","","191","main_expt"
"443","","bandit","270","736947","0.0-231.0-0.0","14993367","wem/bandit_either","AL7TCWU718E5W","either","3","","","","","","","0","0","1","0.3843500594","","0.4","0.8","0.2","0.6","","","","","0.4172763132","0.3843500594","0.4922337742","0.203517815","","","","","","","74","J","1","","","192","main_expt"
"346","","bandit","271","738811","0.0-232.0-0.0","14993367","wem/bandit_either","AL7TCWU718E5W","either","3","","","","","","","0","0","1","","0.172030281","0.4","0.8","0.2","0.6","0.3965334946","0.3801723293","0.4887356563","0.172030281","","","","","","","","","","","76","L","3","","","193","main_expt"
"289","","bandit","272","740619","0.0-233.0-0.0","14993367","wem/bandit_either","AL7TCWU718E5W","either","3","","","","","","","0","1","0","","0.383316574","0.4","0.8","0.2","0.6","0.383316574","0.3871645121","0.4850955297","0.1813301739","","","","","","","","","","","72","H","0","img/none_selected.jpg","","194","main_expt"
"290","","bandit","273","742426","0.0-234.0-0.0","14993367","wem/bandit_either","AL7TCWU718E5W","either","3","","","","","","","1","0","0","0.3965345796","","0.4","0.8","0.2","0.6","","","","","0.3965345796","0.3633903175","0.4848341758","0.2284295163","","","","","","","72","H","0","img/none_selected.jpg","","195","main_expt"
"378","","bandit","274","744367","0.0-235.0-0.0","14993367","wem/bandit_either","AL7TCWU718E5W","either","3","","","","","","","0","1","0","","0.3978469093","0.4","0.8","0.2","0.6","0.3978469093","0.3811675741","0.490049139","0.2501246714","","","","","","","","","","","72","H","0","img/none_selected.jpg","","196","main_expt"
"352","","bandit","275","746235","0.0-236.0-0.0","14993367","wem/bandit_either","AL7TCWU718E5W","either","3","","","","","","","0","0","1","","0.3172926233","0.4","0.8","0.2","0.6","0.3172926233","0.3487868089","0.4912643012","0.3150809007","","","","","","","","","","","72","H","0","img/none_selected.jpg","","197","main_expt"
"585","","bandit","276","748355","0.0-237.0-0.0","14993367","wem/bandit_either","AL7TCWU718E5W","either","3","","","","","","","0","1","0","","0.4793615714","0.4","0.8","0.2","0.6","0.3113170709","0.2986771554","0.4793615714","0.3442077965","","","","","","","","","","","75","K","2","","","198","main_expt"
"394","","bandit","277","750268","0.0-238.0-0.0","14993367","wem/bandit_either","AL7TCWU718E5W","either","3","","","","","","","0","1","0","","0.4661622676","0.4","0.8","0.2","0.6","0.3066116159","0.3481418533","0.4661622676","0.3675051223","","","","","","","","","","","75","K","2","","","199","main_expt"
"423","","bandit","278","752211","0.0-239.0-0.0","14993367","wem/bandit_either","AL7TCWU718E5W","either","3","","","","","","","0","0","1","","0.4479238565","0.4","0.8","0.2","0.6","0.2521122026","0.353319573","0.4479238565","0.3044821291","","","","","","","","","","","75","K","2","","","200","main_expt"
"145","","bandit","279","753874","0.0-240.0-0.0","14993367","wem/bandit_either","AL7TCWU718E5W","either","3","","","","","","","0","0","1","0.3676338631","","0.4","0.8","0.2","0.6","","","","","0.2679963248","0.3676338631","0.4429166455","0.3013824411","","","","","","","74","J","1","","","201","main_expt"
"243","","bandit","280","755633","0.0-241.0-0.0","14993367","wem/bandit_either","AL7TCWU718E5W","either","3","","","","","","","0","0","1","","0.3001954661","0.4","0.8","0.2","0.6","0.2076546236","0.311657493","0.442820363","0.3001954661","","","","","","","","","","","76","L","3","","","202","main_expt"
"449","","bandit","281","757601","0.0-242.0-0.0","14993367","wem/bandit_either","AL7TCWU718E5W","either","3","","","","","","","0","0","1","","0.4539008368","0.4","0.8","0.2","0.6","0.1881707852","0.3364041998","0.4539008368","0.3189156814","","","","","","","","","","","75","K","2","","","203","main_expt"
"276","","bandit","282","759394","0.0-243.0-0.0","14993367","wem/bandit_either","AL7TCWU718E5W","either","3","","","","","","","0","0","1","","0.2057853427","0.4","0.8","0.2","0.6","0.2057853427","0.3148670147","0.4163307037","0.3162062407","","","","","","","","","","","72","H","0","img/none_selected.jpg","","204","main_expt"
"771","","bandit","283","761684","0.0-244.0-0.0","14993367","wem/bandit_either","AL7TCWU718E5W","either","3","","","","","","","0","0","1","","0.4045388199","0.4","0.8","0.2","0.6","0.2564451259","0.3293187519","0.4045388199","0.347278619","","","","","","","","","","","75","K","2","","","205","main_expt"
"503","","bandit","284","763705","0.0-245.0-0.0","14993367","wem/bandit_either","AL7TCWU718E5W","either","3","","","","","","","0","0","1","","0.2705077244","0.4","0.8","0.2","0.6","0.3082896296","0.2705077244","0.4083422121","0.2970129147","","","","","","","","","","","74","J","1","","","206","main_expt"
"242","","bandit","285","765466","0.0-246.0-0.0","14993367","wem/bandit_either","AL7TCWU718E5W","either","3","","","","","","","0","0","1","0.3331481178","","0.4","0.8","0.2","0.6","","","","","0.3235103938","0.3083591011","0.4033585138","0.3331481178","","","","","","","76","L","3","","","207","main_expt"
"114","","bandit","286","767098","0.0-247.0-0.0","14993367","wem/bandit_either","AL7TCWU718E5W","either","3","","","","","","","0","0","1","","0.3563539536","0.4","0.8","0.2","0.6","0.3563539536","0.2489273718","0.3753320851","0.3195917859","","","","","","","","","","","72","H","0","img/none_selected.jpg","","208","main_expt"
"98","","bandit","287","768714","0.0-248.0-0.0","14993367","wem/bandit_either","AL7TCWU718E5W","either","3","","","","","","","0","0","1","0.3864970555","","0.4","0.8","0.2","0.6","","","","","0.3821305916","0.2224321457","0.3864970555","0.3642345195","","","","","","","75","K","2","","","209","main_expt"
"179","","bandit","288","770410","0.0-249.0-0.0","14993367","wem/bandit_either","AL7TCWU718E5W","either","3","","","","","","","1","0","0","0.4067483812","","0.4","0.8","0.2","0.6","","","","","0.4067483812","0.2184729634","0.3894881908","0.3518797164","","","","","","","72","H","0","img/none_selected.jpg","","210","main_expt"
"250","","bandit","289","772178","0.0-250.0-0.0","14993367","wem/bandit_either","AL7TCWU718E5W","either","3","","","","","","","0","0","1","","0.376825818","0.4","0.8","0.2","0.6","0.376825818","0.2178464352","0.4052823736","0.3781537602","","","","","","","","","","","72","H","0","img/none_selected.jpg","","211","main_expt"
"1016","","bandit","290","774713","0.0-251.0-0.0","14993367","wem/bandit_either","AL7TCWU718E5W","either","3","","","","","","","0","1","0","","0.3773353051","0.4","0.8","0.2","0.6","0.3481764155","0.1644702768","0.3783189977","0.3773353051","","","","","","","","","","","76","L","3","","","212","main_expt"
"675","","bandit","291","776906","0.0-252.0-0.0","14993367","wem/bandit_either","AL7TCWU718E5W","either","3","","","","","","","1","0","0","0.3448860985","","0.4","0.8","0.2","0.6","","","","","0.3239198888","0.1271660564","0.3804187243","0.3448860985","","","","","","","76","L","3","","","213","main_expt"
"625","","bandit","292","779049","0.0-253.0-0.0","14993367","wem/bandit_either","AL7TCWU718E5W","either","3","","","","","","","0","0","1","0.3622000499","","0.4","0.8","0.2","0.6","","","","","0.3592643085","0.1368129038","0.3964056757","0.3622000499","","","","","","","76","L","3","","","214","main_expt"
"427","","bandit","293","780993","0.0-254.0-0.0","14993367","wem/bandit_either","AL7TCWU718E5W","either","3","","","","","","","0","0","1","0.3939862607","","0.4","0.8","0.2","0.6","","","","","0.3482739819","0.07615368859","0.3939862607","0.3408682726","","","","","","","75","K","2","","","215","main_expt"
"707","","bandit","294","783360","0.0-255.0-0.0","14993367","wem/bandit_either","AL7TCWU718E5W","either","3","","","","","","","0","0","1","0.07711559412","","0.4","0.8","0.2","0.6","","","","","0.2972527025","0.07711559412","0.4062496234","0.328819006","","","","","","","74","J","1","","","216","main_expt"
"324","","bandit","295","785201","0.0-256.0-0.0","14993367","wem/bandit_either","AL7TCWU718E5W","either","3","","","","","","","0","1","0","","0.2850944341","0.4","0.8","0.2","0.6","0.2850944341","0.07728173513","0.3440498305","0.3229374792","","","","","","","","","","","72","H","0","img/none_selected.jpg","","217","main_expt"
"500","","bandit","296","787218","0.0-257.0-0.0","14993367","wem/bandit_either","AL7TCWU718E5W","either","3","","","","","","","0","0","1","0.2483413171","","0.4","0.8","0.2","0.6","","","","","0.2483413171","0.07919919155","0.3198020565","0.3616220652","","","","","","","72","H","0","img/none_selected.jpg","","218","main_expt"
"692","","bandit","297","789435","0.0-258.0-0.0","14993367","wem/bandit_either","AL7TCWU718E5W","either","3","","","","","","","0","0","1","0.3591176528","","0.4","0.8","0.2","0.6","","","","","0.2680513607","0.1270410367","0.3078290176","0.3591176528","","","","","","","76","L","3","","","219","main_expt"
"716","","bandit","298","791675","0.0-259.0-0.0","14993367","wem/bandit_either","AL7TCWU718E5W","either","3","","","","","","","0","1","0","","0.2961895162","0.4","0.8","0.2","0.6","0.304668496","0.1117499599","0.2961895162","0.2758994579","","","","","","","","","","","75","K","2","","","220","main_expt"
"630","","bandit","299","793826","0.0-260.0-0.0","14993367","wem/bandit_either","AL7TCWU718E5W","either","3","","","","","","","0","0","1","","0.2658603678","0.4","0.8","0.2","0.6","0.2773284289","0.1186324211","0.2658603678","0.3119987931","","","","","","","","","","","75","K","2","","","221","main_expt"
"681","","bandit","300","796026","0.0-261.0-0.0","14993367","wem/bandit_either","AL7TCWU718E5W","either","3","","","","","","","0","0","1","0.1141050397","","0.4","0.8","0.2","0.6","","","","","0.2152506718","0.1141050397","0.274695037","0.3106374463","","","","","","","74","J","1","","","222","main_expt"
"1081","","bandit","301","798627","0.0-262.0-0.0","14993367","wem/bandit_either","AL7TCWU718E5W","either","3","","","","","","","0","0","1","0.1007228699","","0.4","0.8","0.2","0.6","","","","","0.2445797097","0.1007228699","0.2210940289","0.3131570504","","","","","","","74","J","1","","","223","main_expt"
"1160","","bandit","302","801324","0.0-263.0-0.0","14993367","wem/bandit_either","AL7TCWU718E5W","either","3","","","","","","","0","0","1","","0.2559263424","0.4","0.8","0.2","0.6","0.2559263424","0.1380584308","0.1843933297","0.3025994915","","","","","","","","","","","72","H","0","img/none_selected.jpg","","224","main_expt"
"458","","bandit","303","803490","0.0-264.0-0.0","14993367","wem/bandit_either","AL7TCWU718E5W","either","3","","","","","","","0","0","1","0.2994132709","","0.4","0.8","0.2","0.6","","","","","0.2702522324","0.1393521225","0.212211923","0.2994132709","","","","","","","76","L","3","","","225","main_expt"
"517","","bandit","304","805530","0.0-265.0-0.0","14993367","wem/bandit_either","AL7TCWU718E5W","either","3","","","","","","","0","1","0","","0.2315036379","0.4","0.8","0.2","0.6","0.2646860425","0.2094269877","0.2315036379","0.2866794375","","","","","","","","","","","75","K","2","","","226","main_expt"
"695","","bandit","305","807746","0.0-266.0-0.0","14993367","wem/bandit_either","AL7TCWU718E5W","either","3","","","","","","","1","0","0","0.2646353212","","0.4","0.8","0.2","0.6","","","","","0.269556559","0.2959232149","0.2646353212","0.2299222882","","","","","","","75","K","2","","","227","main_expt"
"1048","","bandit","306","810313","0.0-267.0-0.0","14993367","wem/bandit_either","AL7TCWU718E5W","either","3","","","","","","","1","0","0","0.2443517867","","0.4","0.8","0.2","0.6","","","","","0.2498152532","0.374355758","0.2443517867","0.2991813551","","","","","","","75","K","2","","","228","main_expt"
"953","","bandit","307","812786","0.0-268.0-0.0","14993367","wem/bandit_either","AL7TCWU718E5W","either","3","","","","","","","0","1","0","","0.2569692975","0.4","0.8","0.2","0.6","0.2495566458","0.3876740502","0.2569692975","0.3295538921","","","","","","","","","","","75","K","2","","","229","main_expt"
"713","","bandit","308","815017","0.0-269.0-0.0","14993367","wem/bandit_either","AL7TCWU718E5W","either","3","","","","","","","0","0","1","","0.2490290172","0.4","0.8","0.2","0.6","0.2134382902","0.3341674595","0.2490290172","0.2713593359","","","","","","","","","","","75","K","2","","","230","main_expt"
"378","","bandit","309","816913","0.0-270.0-0.0","14993367","wem/bandit_either","AL7TCWU718E5W","either","3","","","","","","","0","0","1","","0.2099205747","0.4","0.8","0.2","0.6","0.2099205747","0.3558281537","0.2368643707","0.2746975787","","","","","","","","","","","72","H","0","img/none_selected.jpg","","231","main_expt"
"433","","bandit","310","818866","0.0-271.0-0.0","14993367","wem/bandit_either","AL7TCWU718E5W","either","3","","","","","","","0","0","1","0.2817934899","","0.4","0.8","0.2","0.6","","","","","0.1598609145","0.3293076861","0.2857324616","0.2817934899","","","","","","","76","L","3","","","232","main_expt"
"439","","bandit","311","820825","0.0-272.0-0.0","14993367","wem/bandit_either","AL7TCWU718E5W","either","3","","","","","","","0","0","1","0.3271309306","","0.4","0.8","0.2","0.6","","","","","0.1472569172","0.3271309306","0.226619475","0.3139736629","","","","","","","74","J","1","","","233","main_expt"
"376","","bandit","312","822721","0.0-273.0-0.0","14993367","wem/bandit_either","AL7TCWU718E5W","either","3","","","","","","","0","0","1","","0.1123375355","0.4","0.8","0.2","0.6","0.1123375355","0.3510228885","0.2448251662","0.3332560948","","","","","","","","","","","72","H","0","img/none_selected.jpg","","234","main_expt"
"647","","bandit","313","824887","0.0-274.0-0.0","14993367","wem/bandit_either","AL7TCWU718E5W","either","3","","","","","","","0","0","1","0.2996798263","","0.4","0.8","0.2","0.6","","","","","0.1562424728","0.3346663699","0.2996798263","0.3475281657","","","","","","","75","K","2","","","235","main_expt"
"395","","bandit","314","826802","0.0-275.0-0.0","14993367","wem/bandit_either","AL7TCWU718E5W","either","3","","","","","","","1","0","0","0.332043614","","0.4","0.8","0.2","0.6","","","","","0.1623269298","0.332043614","0.3220329496","0.3170984437","","","","","","","74","J","1","","","236","main_expt"
"464","","bandit","315","828786","0.0-276.0-0.0","14993367","wem/bandit_either","AL7TCWU718E5W","either","3","","","","","","","0","0","1","","0.2780661838","0.4","0.8","0.2","0.6","0.1362759337","0.2780661838","0.3672390457","0.3611259067","","","","","","","","","","","74","J","1","","","237","main_expt"
"328","","bandit","316","830632","0.0-277.0-0.0","14993367","wem/bandit_either","AL7TCWU718E5W","either","3","","","","","","","0","0","1","","0.3449339383","0.4","0.8","0.2","0.6","0.1282223372","0.3071002506","0.3702030288","0.3449339383","","","","","","","","","","","76","L","3","","","238","main_expt"
"210","","bandit","317","832361","0.0-278.0-0.0","14993367","wem/bandit_either","AL7TCWU718E5W","either","3","","","","","","","0","1","0","","0.08262393641","0.4","0.8","0.2","0.6","0.08262393641","0.3101279526","0.3486367063","0.3006984684","","","","","","","","","","","72","H","0","img/none_selected.jpg","","239","main_expt"
"392","","bandit","318","834383","0.0-279.0-0.0","14993367","wem/bandit_either","AL7TCWU718E5W","either","3","","","","","","","0","0","1","","0.09366491666","0.4","0.8","0.2","0.6","0.09366491666","0.3071576631","0.3422639114","0.3355390738","","","","","","","","","","","72","H","0","img/none_selected.jpg","","240","main_expt"
"211","","bandit","319","836113","0.0-280.0-0.0","14993367","wem/bandit_either","AL7TCWU718E5W","either","3","","","","","","","0","1","0","","0.3703795114","0.4","0.8","0.2","0.6","0.09778426954","0.3213727252","0.3703795114","0.3513118525","","","","","","","","","","","75","K","2","","","241","main_expt"
"406","","bandit","320","838041","0.0-281.0-0.0","14993367","wem/bandit_either","AL7TCWU718E5W","either","3","","","","","","","0","0","1","","0.3362310887","0.4","0.8","0.2","0.6","0.0684580113","0.3303042821","0.3362310887","0.2871404103","","","","","","","","","","","75","K","2","","","242","main_expt"
"353","","bandit","321","839913","0.0-282.0-0.0","14993367","wem/bandit_either","AL7TCWU718E5W","either","3","","","","","","","0","0","1","0.386578507","","0.4","0.8","0.2","0.6","","","","","0.05756719403","0.386578507","0.3855302341","0.2582353252","","","","","","","74","J","1","","","243","main_expt"
"641","","bandit","322","842073","0.0-283.0-0.0","14993367","wem/bandit_either","AL7TCWU718E5W","either","3","","","","","","","0","0","1","","0.2108553612","0.4","0.8","0.2","0.6","0.07954378931","0.3582196724","0.3504604058","0.2108553612","","","","","","","","","","","76","L","3","","","244","main_expt"
"280","","bandit","323","843873","0.0-284.0-0.0","14993367","wem/bandit_either","AL7TCWU718E5W","either","3","","","","","","","0","0","1","","0.07668718344","0.4","0.8","0.2","0.6","0.07668718344","0.3626170977","0.3586275713","0.190308294","","","","","","","","","","","72","H","0","img/none_selected.jpg","","245","main_expt"
"1001","","bandit","324","846394","0.0-285.0-0.0","14993367","wem/bandit_either","AL7TCWU718E5W","either","3","","","","","","","0","0","1","","0.2079876503","0.4","0.8","0.2","0.6","0.08627194322","0.2778980274","0.3202710015","0.2079876503","","","","","","","","","","","76","L","3","","","246","main_expt"
"255","","bandit","325","848168","0.0-286.0-0.0","14993367","wem/bandit_either","AL7TCWU718E5W","either","3","","","","","","","1","0","0","0.2864864277","","0.4","0.8","0.2","0.6","","","","","0.1009858539","0.2864864277","0.2874587678","0.2053262284","","","","","","","74","J","1","","","247","main_expt"
"383","","bandit","326","850073","0.0-287.0-0.0","14993367","wem/bandit_either","AL7TCWU718E5W","either","3","","","","","","","1","0","0","0.2883304048","","0.4","0.8","0.2","0.6","","","","","0.1044033157","0.2883304048","0.2703076155","0.2699327364","","","","","","","74","J","1","","","248","main_expt"
"536","","bandit","327","852135","0.0-288.0-0.0","14993367","wem/bandit_either","AL7TCWU718E5W","either","3","","","","","","","0","0","1","","0.3034325887","0.4","0.8","0.2","0.6","0.07254640656","0.3034325887","0.2212833967","0.2917851334","","","","","","","","","","","74","J","1","","","249","main_expt"
"458","","bandit","328","854120","0.0-289.0-0.0","14993367","wem/bandit_either","AL7TCWU718E5W","either","3","","","","","","","0","0","1","0.2530543584","","0.4","0.8","0.2","0.6","","","","","0.09512939239","0.2582013927","0.2174917034","0.2530543584","","","","","","","76","L","3","","","250","main_expt"
"194","","bandit","329","855832","0.0-290.0-0.0","14993367","wem/bandit_either","AL7TCWU718E5W","either","3","","","","","","","0","1","0","","0.2008338107","0.4","0.8","0.2","0.6","0.06759478125","0.2337836179","0.2008338107","0.2345859063","","","","","","","","","","","75","K","2","","","251","main_expt"
"418","","bandit","330","857768","0.0-291.0-0.0","14993367","wem/bandit_either","AL7TCWU718E5W","either","3","","","","","","","0","0","1","","0.2294508047","0.4","0.8","0.2","0.6","0.05682902113","0.2477033955","0.2294508047","0.2407419433","","","","","","","","","","","75","K","2","","","252","main_expt"
"354","","bandit","331","859644","0.0-292.0-0.0","14993367","wem/bandit_either","AL7TCWU718E5W","either","3","","","","","","","1","0","0","0.2187012899","","0.4","0.8","0.2","0.6","","","","","0.04662337877","0.2187012899","0.2678406235","0.2016139721","","","","","","","74","J","1","","","253","main_expt"
"416","","bandit","332","861586","0.0-293.0-0.0","14993367","wem/bandit_either","AL7TCWU718E5W","either","3","","","","","","","0","0","1","0.2247734494","","0.4","0.8","0.2","0.6","","","","","0.05613237953","0.2247734494","0.3248943382","0.2204455337","","","","","","","74","J","1","","","254","main_expt"
