"rt","responses","trial_type","trial_index","time_elapsed","internal_node_id","subjID","study","MID","cond","drift","key_press","expt_phase","target","like","value","connected","respCharCode","respKey","respChoiceNum","respChoice","gems","bombs","no_reward","GemPrChosen","BombPrChosen","practice","trial_counter","WinPr_0","LosePr_0","trial_label","GainOverPainPr_0","LosePr_1","GainOverPainPr_1","WinPr_1","LosePr_2","GainOverPainPr_2","LosePr_3","GainOverPainPr_3","WinPr_2","WinPr_3","Q0","Q1","Q2","gender","age","ethnicity"
"3450","{""Q0"":""A351P2O6QGTCS""}","survey-text","0","3462","0.0-0.0","15163609","wem/bandit_either","A351P2O6QGTCS","either","8","","","","","","","","","","","","","","","","","","","","","","","","","","","","","","","","","","","",""
"14877","","text","1","19346","0.0-1.0","15163609","wem/bandit_either","A351P2O6QGTCS","either","8","32","","","","","","","","","","","","","","","","","","","","","","","","","","","","","","","","","","",""
"9039","","text","2","28388","0.0-2.0","15163609","wem/bandit_either","A351P2O6QGTCS","either","8","32","","","","","","","","","","","","","","","","","","","","","","","","","","","","","","","","","","",""
"29012","","text","3","57403","0.0-3.0","15163609","wem/bandit_either","A351P2O6QGTCS","either","8","32","","","","","","","","","","","","","","","","","","","","","","","","","","","","","","","","","","",""
"47745","","text","4","105151","0.0-4.0","15163609","wem/bandit_either","A351P2O6QGTCS","either","8","32","","","","","","","","","","","","","","","","","","","","","","","","","","","","","","","","","","",""
"17533","","text","5","122686","0.0-5.0","15163609","wem/bandit_either","A351P2O6QGTCS","either","8","32","","","","","","","","","","","","","","","","","","","","","","","","","","","","","","","","","","",""
"8016","","text","6","130704","0.0-6.0","15163609","wem/bandit_either","A351P2O6QGTCS","either","8","32","","","","","","","","","","","","","","","","","","","","","","","","","","","","","","","","","","",""
"4710","","text","7","135416","0.0-7.0","15163609","wem/bandit_either","A351P2O6QGTCS","either","8","32","","","","","","","","","","","","","","","","","","","","","","","","","","","","","","","","","","",""
"9930","","identification","8","145379","0.0-8.0-0.0","15163609","wem/bandit_either","A351P2O6QGTCS","either","8","","identification_pre","the village of Zur","0","0","0","","","","","","","","","","","","","","","","","","","","","","","","","","","","","",""
"4239","","identification","9","150645","0.0-8.0-1.0","15163609","wem/bandit_either","A351P2O6QGTCS","either","8","","identification_pre","the village of Nyx","3","3","3","","","","","","","","","","","","","","","","","","","","","","","","","","","","","",""
"8416","","text","10","160064","0.0-9.0","15163609","wem/bandit_either","A351P2O6QGTCS","either","8","32","","","","","","","","","","","","","","","","","","","","","","","","","","","","","","","","","","",""
"5321","","text","11","165387","0.0-10.0","15163609","wem/bandit_either","A351P2O6QGTCS","either","8","32","","","","","","","","","","","","","","","","","","","","","","","","","","","","","","","","","","",""
"3888","","text","12","169277","0.0-11.0","15163609","wem/bandit_either","A351P2O6QGTCS","either","8","32","","","","","","","","","","","","","","","","","","","","","","","","","","","","","","","","","","",""
"4721","","text","13","174001","0.0-12.0","15163609","wem/bandit_either","A351P2O6QGTCS","either","8","32","","","","","","","","","","","","","","","","","","","","","","","","","","","","","","","","","","",""
"5232","","bandit","14","180758","0.0-13.0-0.0","15163609","wem/bandit_either","A351P2O6QGTCS","either","8","","","","","","","74","J","0","img/none_selected_demo.jpg","0","0","1","0","0","true","0","0","0","","","","","","","","","","","","","","","","",""
"2669","","bandit","15","184937","0.0-14.0-0.0","15163609","wem/bandit_either","A351P2O6QGTCS","either","8","","","","","","","75","K","0","img/none_selected_demo.jpg","0","0","1","0","0","true","0","0","0","","","","","","","","","","","","","","","","",""
"13072","","text","16","198011","0.0-15.0","15163609","wem/bandit_either","A351P2O6QGTCS","either","8","32","","","","","","","","","","","","","","","","","","","","","","","","","","","","","","","","","","",""
"15048","","text","17","213063","0.0-16.0","15163609","wem/bandit_either","A351P2O6QGTCS","either","8","32","","","","","","","","","","","","","","","","","","","","","","","","","","","","","","","","","","",""
"9205","","text","18","222270","0.0-17.0","15163609","wem/bandit_either","A351P2O6QGTCS","either","8","32","","","","","","","","","","","","","","","","","","","","","","","","","","","","","","","","","","",""
"4321","","text","19","226593","0.0-18.0","15163609","wem/bandit_either","A351P2O6QGTCS","either","8","32","","","","","","","","","","","","","","","","","","","","","","","","","","","","","","","","","","",""
"2105","","bandit","20","230206","0.0-19.0-0.0","15163609","wem/bandit_either","A351P2O6QGTCS","either","8","","","","","","","75","K","1","","0","0","1","","0.2","true","0","","0.8","80_20_practice","0.5","0.2","0.5","","","","","","","","","","","","",""
"1627","","bandit","21","233340","0.0-19.0-1.0","15163609","wem/bandit_either","A351P2O6QGTCS","either","8","","","","","","","74","J","0","img/none_selected_demo.jpg","0","1","0","","0.8","true","0","","0.8","80_20_practice","0.5","0.2","0.5","","","","","","","","","","","","",""
"1381","","bandit","22","236228","0.0-19.0-2.0","15163609","wem/bandit_either","A351P2O6QGTCS","either","8","","","","","","","74","J","0","img/none_selected_demo.jpg","0","1","0","","0.8","true","0","","0.8","80_20_practice","0.5","0.2","0.5","","","","","","","","","","","","",""
"568","","bandit","23","238306","0.0-19.0-3.0","15163609","wem/bandit_either","A351P2O6QGTCS","either","8","","","","","","","75","K","1","","0","0","1","","0.2","true","0","","0.8","80_20_practice","0.5","0.2","0.5","","","","","","","","","","","","",""
"977","","bandit","24","240790","0.0-19.0-4.0","15163609","wem/bandit_either","A351P2O6QGTCS","either","8","","","","","","","74","J","0","img/none_selected_demo.jpg","0","0","1","0.8","","true","0","0.8","","80_20_practice","0.5","","0.5","0.2","","","","","","","","","","","",""
"372","","bandit","25","242676","0.0-19.0-5.0","15163609","wem/bandit_either","A351P2O6QGTCS","either","8","","","","","","","75","K","1","","0","0","1","","0.2","true","0","","0.8","80_20_practice","0.5","0.2","0.5","","","","","","","","","","","","",""
"423","","bandit","26","244605","0.0-19.0-6.0","15163609","wem/bandit_either","A351P2O6QGTCS","either","8","","","","","","","75","K","1","","0","0","1","0.2","","true","0","0.8","","80_20_practice","0.5","","0.5","0.2","","","","","","","","","","","",""
"382","","bandit","27","246494","0.0-19.0-7.0","15163609","wem/bandit_either","A351P2O6QGTCS","either","8","","","","","","","75","K","1","","0","0","1","","0.2","true","0","","0.8","80_20_practice","0.5","0.2","0.5","","","","","","","","","","","","",""
"835","","bandit","28","248838","0.0-19.0-8.0","15163609","wem/bandit_either","A351P2O6QGTCS","either","8","","","","","","","74","J","0","img/none_selected_demo.jpg","0","0","1","0.8","","true","0","0.8","","80_20_practice","0.5","","0.5","0.2","","","","","","","","","","","",""
"405","","bandit","29","250749","0.0-19.0-9.0","15163609","wem/bandit_either","A351P2O6QGTCS","either","8","","","","","","","74","J","0","img/none_selected_demo.jpg","1","0","0","0.8","","true","0","0.8","","80_20_practice","0.5","","0.5","0.2","","","","","","","","","","","",""
"773","","bandit","30","253033","0.0-19.0-10.0","15163609","wem/bandit_either","A351P2O6QGTCS","either","8","","","","","","","74","J","0","img/none_selected_demo.jpg","0","1","0","","0.8","true","0","","0.8","80_20_practice","0.5","0.2","0.5","","","","","","","","","","","","",""
"352","","bandit","31","254925","0.0-19.0-11.0","15163609","wem/bandit_either","A351P2O6QGTCS","either","8","","","","","","","75","K","1","","0","0","1","0.2","","true","0","0.8","","80_20_practice","0.5","","0.5","0.2","","","","","","","","","","","",""
"284","","bandit","32","256716","0.0-19.0-12.0","15163609","wem/bandit_either","A351P2O6QGTCS","either","8","","","","","","","75","K","1","","0","0","1","","0.2","true","0","","0.8","80_20_practice","0.5","0.2","0.5","","","","","","","","","","","","",""
"293","","bandit","33","258517","0.0-19.0-13.0","15163609","wem/bandit_either","A351P2O6QGTCS","either","8","","","","","","","75","K","1","","0","0","1","0.2","","true","0","0.8","","80_20_practice","0.5","","0.5","0.2","","","","","","","","","","","",""
"744","","bandit","34","260769","0.0-19.0-14.0","15163609","wem/bandit_either","A351P2O6QGTCS","either","8","","","","","","","74","J","0","img/none_selected_demo.jpg","1","0","0","0.8","","true","0","0.8","","80_20_practice","0.5","","0.5","0.2","","","","","","","","","","","",""
"437","","bandit","35","262738","0.0-19.0-15.0","15163609","wem/bandit_either","A351P2O6QGTCS","either","8","","","","","","","74","J","0","img/none_selected_demo.jpg","0","1","0","","0.8","true","0","","0.8","80_20_practice","0.5","0.2","0.5","","","","","","","","","","","","",""
"388","","bandit","36","264635","0.0-19.0-16.0","15163609","wem/bandit_either","A351P2O6QGTCS","either","8","","","","","","","74","J","0","img/none_selected_demo.jpg","0","0","1","0.8","","true","0","0.8","","80_20_practice","0.5","","0.5","0.2","","","","","","","","","","","",""
"431","","bandit","37","266573","0.0-19.0-17.0","15163609","wem/bandit_either","A351P2O6QGTCS","either","8","","","","","","","74","J","0","img/none_selected_demo.jpg","1","0","0","0.8","","true","0","0.8","","80_20_practice","0.5","","0.5","0.2","","","","","","","","","","","",""
"355","","bandit","38","268436","0.0-19.0-18.0","15163609","wem/bandit_either","A351P2O6QGTCS","either","8","","","","","","","74","J","0","img/none_selected_demo.jpg","1","0","0","0.8","","true","0","0.8","","80_20_practice","0.5","","0.5","0.2","","","","","","","","","","","",""
"283","","bandit","39","270227","0.0-19.0-19.0","15163609","wem/bandit_either","A351P2O6QGTCS","either","8","","","","","","","74","J","0","img/none_selected_demo.jpg","0","0","1","0.8","","true","0","0.8","","80_20_practice","0.5","","0.5","0.2","","","","","","","","","","","",""
"5774","","text","40","276006","0.0-20.0","15163609","wem/bandit_either","A351P2O6QGTCS","either","8","32","","","","","","","","","","","","","","","","","","","","","","","","","","","","","","","","","","",""
"2822","","bandit","41","280336","0.0-21.0-0.0","15163609","wem/bandit_either","A351P2O6QGTCS","either","8","","","","","","","74","J","0","img/none_selected_demo.jpg","1","0","0","1","0","true","0","1","0","","","1","","0","","","","","","","","","","","",""
"8025","","text","42","288365","0.0-22.0","15163609","wem/bandit_either","A351P2O6QGTCS","either","8","32","","","","","","","","","","","","","","","","","","","","","","","","","","","","","","","","","","",""
"3662","","text","43","292031","0.0-23.0","15163609","wem/bandit_either","A351P2O6QGTCS","either","8","32","","","","","","","","","","","","","","","","","","","","","","","","","","","","","","","","","","",""
"2153","","text","44","294187","0.0-24.0","15163609","wem/bandit_either","A351P2O6QGTCS","either","8","32","","","","","","","","","","","","","","","","","","","","","","","","","","","","","","","","","","",""
"1862","","text","45","296052","0.0-25.0","15163609","wem/bandit_either","A351P2O6QGTCS","either","8","32","","","","","","","","","","","","","","","","","","","","","","","","","","","","","","","","","","",""
"13662","","text","46","309720","0.0-26.0","15163609","wem/bandit_either","A351P2O6QGTCS","either","8","32","","","","","","","","","","","","","","","","","","","","","","","","","","","","","","","","","","",""
"4827","","text","47","314550","0.0-27.0","15163609","wem/bandit_either","A351P2O6QGTCS","either","8","32","","","","","","","","","","","","","","","","","","","","","","","","","","","","","","","","","","",""
"4864","","text","48","319418","0.0-28.0","15163609","wem/bandit_either","A351P2O6QGTCS","either","8","32","","","","","","","","","","","","","","","","","","","","","","","","","","","","","","","","","","",""
"6332","","text","49","325753","0.0-29.0","15163609","wem/bandit_either","A351P2O6QGTCS","either","8","32","","","","","","","","","","","","","","","","","","","","","","","","","","","","","","","","","","",""
"5988","","text","50","331745","0.0-30.0","15163609","wem/bandit_either","A351P2O6QGTCS","either","8","32","","","","","","","","","","","","","","","","","","","","","","","","","","","","","","","","","","",""
"2953","","text","51","334702","0.0-31.0","15163609","wem/bandit_either","A351P2O6QGTCS","either","8","32","","","","","","","","","","","","","","","","","","","","","","","","","","","","","","","","","","",""
"7412","","text","52","342117","0.0-32.0","15163609","wem/bandit_either","A351P2O6QGTCS","either","8","32","","","","","","","","","","","","","","","","","","","","","","","","","","","","","","","","","","",""
"2312","","bandit","53","345940","0.0-33.0-0.0","15163609","wem/bandit_either","A351P2O6QGTCS","either","8","","","","","","","72","H","0","img/none_selected.jpg","0","1","0","","0.8","true","0","","0.8","full_practice","0.5","0.2","0.5","","0.6","0.5","0.2","0.5","","","","","","","",""
"358","","bandit","54","347809","0.0-33.0-1.0","15163609","wem/bandit_either","A351P2O6QGTCS","either","8","","","","","","","72","H","0","img/none_selected.jpg","1","0","0","0.8","","true","0","0.8","","full_practice","0.5","","0.5","0.2","","0.5","","0.5","0.6","0.2","","","","","",""
"382","","bandit","55","349700","0.0-33.0-2.0","15163609","wem/bandit_either","A351P2O6QGTCS","either","8","","","","","","","72","H","0","img/none_selected.jpg","1","0","0","0.8","","true","0","0.8","","full_practice","0.5","","0.5","0.2","","0.5","","0.5","0.6","0.2","","","","","",""
"314","","bandit","56","351523","0.0-33.0-3.0","15163609","wem/bandit_either","A351P2O6QGTCS","either","8","","","","","","","72","H","0","img/none_selected.jpg","0","1","0","","0.8","true","0","","0.8","full_practice","0.5","0.2","0.5","","0.6","0.5","0.2","0.5","","","","","","","",""
"296","","bandit","57","353333","0.0-33.0-4.0","15163609","wem/bandit_either","A351P2O6QGTCS","either","8","","","","","","","72","H","0","img/none_selected.jpg","1","0","0","0.8","","true","0","0.8","","full_practice","0.5","","0.5","0.2","","0.5","","0.5","0.6","0.2","","","","","",""
"332","","bandit","58","355175","0.0-33.0-5.0","15163609","wem/bandit_either","A351P2O6QGTCS","either","8","","","","","","","72","H","0","img/none_selected.jpg","1","0","0","0.8","","true","0","0.8","","full_practice","0.5","","0.5","0.2","","0.5","","0.5","0.6","0.2","","","","","",""
"312","","bandit","59","356998","0.0-33.0-6.0","15163609","wem/bandit_either","A351P2O6QGTCS","either","8","","","","","","","72","H","0","img/none_selected.jpg","1","0","0","0.8","","true","0","0.8","","full_practice","0.5","","0.5","0.2","","0.5","","0.5","0.6","0.2","","","","","",""
"311","","bandit","60","358821","0.0-33.0-7.0","15163609","wem/bandit_either","A351P2O6QGTCS","either","8","","","","","","","72","H","0","img/none_selected.jpg","1","0","0","0.8","","true","0","0.8","","full_practice","0.5","","0.5","0.2","","0.5","","0.5","0.6","0.2","","","","","",""
"354","","bandit","61","360687","0.0-33.0-8.0","15163609","wem/bandit_either","A351P2O6QGTCS","either","8","","","","","","","72","H","0","img/none_selected.jpg","0","0","1","0.8","","true","0","0.8","","full_practice","0.5","","0.5","0.2","","0.5","","0.5","0.6","0.2","","","","","",""
"455","","bandit","62","362649","0.0-33.0-9.0","15163609","wem/bandit_either","A351P2O6QGTCS","either","8","","","","","","","74","J","1","","0","0","1","0.2","","true","0","0.8","","full_practice","0.5","","0.5","0.2","","0.5","","0.5","0.6","0.2","","","","","",""
"777","","bandit","63","364936","0.0-33.0-10.0","15163609","wem/bandit_either","A351P2O6QGTCS","either","8","","","","","","","75","K","2","","1","0","0","0.6","","true","0","0.8","","full_practice","0.5","","0.5","0.2","","0.5","","0.5","0.6","0.2","","","","","",""
"335","","bandit","64","366782","0.0-33.0-11.0","15163609","wem/bandit_either","A351P2O6QGTCS","either","8","","","","","","","75","K","2","","0","1","0","","0.6","true","0","","0.8","full_practice","0.5","0.2","0.5","","0.6","0.5","0.2","0.5","","","","","","","",""
"292","","bandit","65","368583","0.0-33.0-12.0","15163609","wem/bandit_either","A351P2O6QGTCS","either","8","","","","","","","75","K","2","","0","0","1","","0.6","true","0","","0.8","full_practice","0.5","0.2","0.5","","0.6","0.5","0.2","0.5","","","","","","","",""
"144","","bandit","66","370249","0.0-33.0-13.0","15163609","wem/bandit_either","A351P2O6QGTCS","either","8","","","","","","","75","K","2","","1","0","0","0.6","","true","0","0.8","","full_practice","0.5","","0.5","0.2","","0.5","","0.5","0.6","0.2","","","","","",""
"286","","bandit","67","372050","0.0-33.0-14.0","15163609","wem/bandit_either","A351P2O6QGTCS","either","8","","","","","","","75","K","2","","0","0","1","0.6","","true","0","0.8","","full_practice","0.5","","0.5","0.2","","0.5","","0.5","0.6","0.2","","","","","",""
"388","","bandit","68","373951","0.0-33.0-15.0","15163609","wem/bandit_either","A351P2O6QGTCS","either","8","","","","","","","75","K","2","","1","0","0","0.6","","true","0","0.8","","full_practice","0.5","","0.5","0.2","","0.5","","0.5","0.6","0.2","","","","","",""
"322","","bandit","69","375781","0.0-33.0-16.0","15163609","wem/bandit_either","A351P2O6QGTCS","either","8","","","","","","","75","K","2","","1","0","0","0.6","","true","0","0.8","","full_practice","0.5","","0.5","0.2","","0.5","","0.5","0.6","0.2","","","","","",""
"318","","bandit","70","377608","0.0-33.0-17.0","15163609","wem/bandit_either","A351P2O6QGTCS","either","8","","","","","","","75","K","2","","0","0","1","0.6","","true","0","0.8","","full_practice","0.5","","0.5","0.2","","0.5","","0.5","0.6","0.2","","","","","",""
"429","","bandit","71","379547","0.0-33.0-18.0","15163609","wem/bandit_either","A351P2O6QGTCS","either","8","","","","","","","75","K","2","","1","0","0","0.6","","true","0","0.8","","full_practice","0.5","","0.5","0.2","","0.5","","0.5","0.6","0.2","","","","","",""
"330","","bandit","72","381388","0.0-33.0-19.0","15163609","wem/bandit_either","A351P2O6QGTCS","either","8","","","","","","","75","K","2","","0","1","0","","0.6","true","0","","0.8","full_practice","0.5","0.2","0.5","","0.6","0.5","0.2","0.5","","","","","","","",""
"3237","","text","73","384638","0.0-34.0","15163609","wem/bandit_either","A351P2O6QGTCS","either","8","32","","","","","","","","","","","","","","","","","","","","","","","","","","","","","","","","","","",""
"22009","","text","74","407651","0.0-35.0","15163609","wem/bandit_either","A351P2O6QGTCS","either","8","32","","","","","","","","","","","","","","","","","","","","","","","","","","","","","","","","","","",""
"2869","","text","75","410525","0.0-36.0","15163609","wem/bandit_either","A351P2O6QGTCS","either","8","32","","","","","","","","","","","","","","","","","","","","","","","","","","","","","","","","","","",""
"1315","","text","76","411845","0.0-37.0","15163609","wem/bandit_either","A351P2O6QGTCS","either","8","32","","","","","","","","","","","","","","","","","","","","","","","","","","","","","","","","","","",""
"1910","","text","77","413759","0.0-38.0","15163609","wem/bandit_either","A351P2O6QGTCS","either","8","32","","","","","","","","","","","","","","","","","","","","","","","","","","","","","","","","","","",""
"5466","","text","78","419230","0.0-39.0","15163609","wem/bandit_either","A351P2O6QGTCS","either","8","32","","","","","","","","","","","","","","","","","","","","","","","","","","","","","","","","","","",""
"3425","","bandit","79","424167","0.0-40.0-0.0","15163609","wem/bandit_either","A351P2O6QGTCS","either","8","","","","","","","72","H","0","img/none_selected.jpg","0","0","1","0.1351790469","","","1","0.1351790469","","main_expt","0.4","","0.2","0.2928194041","","0.6","","0.8","0.3540548627","0.2637293772","","","","","",""
"543","","bandit","80","426220","0.0-41.0-0.0","15163609","wem/bandit_either","A351P2O6QGTCS","either","8","","","","","","","72","H","0","img/none_selected.jpg","0","0","1","","0.125602744","","2","","0.125602744","main_expt","0.4","0.3040419902","0.2","","0.3812516843","0.6","0.2760013096","0.8","","","","","","","",""
"590","","bandit","81","428322","0.0-42.0-0.0","15163609","wem/bandit_either","A351P2O6QGTCS","either","8","","","","","","","74","J","1","","0","1","0","","0.2875251023","","3","","0.09574082279","main_expt","0.4","0.2875251023","0.2","","0.3901316494","0.6","0.3240499928","0.8","","","","","","","",""
"312","","bandit","82","430145","0.0-43.0-0.0","15163609","wem/bandit_either","A351P2O6QGTCS","either","8","","","","","","","74","J","1","","0","1","0","","0.2965567903","","4","","0.0913382225","main_expt","0.4","0.2965567903","0.2","","0.3945399471","0.6","0.3510822359","0.8","","","","","","","",""
"351","","bandit","83","432006","0.0-44.0-0.0","15163609","wem/bandit_either","A351P2O6QGTCS","either","8","","","","","","","74","J","1","","0","0","1","0.2681113314","","","5","0.106177601","","main_expt","0.4","","0.2","0.2681113314","","0.6","","0.8","0.3997977613","0.3522827721","","","","","",""
"471","","bandit","84","433990","0.0-45.0-0.0","15163609","wem/bandit_either","A351P2O6QGTCS","either","8","","","","","","","74","J","1","","0","0","1","","0.2330443498","","6","","0.08998955495","main_expt","0.4","0.2330443498","0.2","","0.390783501","0.6","0.382674005","0.8","","","","","","","",""
"160","","bandit","85","435661","0.0-46.0-0.0","15163609","wem/bandit_either","A351P2O6QGTCS","either","8","","","","","","","75","K","2","","0","0","1","0.3305693427","","","7","0.1077526668","","main_expt","0.4","","0.2","0.1630509172","","0.6","","0.8","0.3305693427","0.3998463606","","","","","",""
"312","","bandit","86","437484","0.0-47.0-0.0","15163609","wem/bandit_either","A351P2O6QGTCS","either","8","","","","","","","75","K","2","","0","0","1","","0.3056545716","","8","","0.1243697388","main_expt","0.4","0.2002468685","0.2","","0.3056545716","0.6","0.3832029687","0.8","","","","","","","",""
"1033","","bandit","87","440027","0.0-48.0-0.0","15163609","wem/bandit_either","A351P2O6QGTCS","either","8","","","","","","","76","L","3","","0","0","1","0.3796681134","","","9","0.1698108096","","main_expt","0.4","","0.2","0.1835034381","","0.6","","0.8","0.3278889804","0.3796681134","","","","","",""
"679","","bandit","88","442218","0.0-49.0-0.0","15163609","wem/bandit_either","A351P2O6QGTCS","either","8","","","","","","","76","L","3","","1","0","0","0.3614311416","","","10","0.221757114","","main_expt","0.4","","0.2","0.1939723001","","0.6","","0.8","0.3137855556","0.3614311416","","","","","",""
"470","","bandit","89","444198","0.0-50.0-0.0","15163609","wem/bandit_either","A351P2O6QGTCS","either","8","","","","","","","76","L","3","","0","0","1","0.3938737051","","","11","0.1961062924","","main_expt","0.4","","0.2","0.1949806013","","0.6","","0.8","0.3253079181","0.3938737051","","","","","",""
"308","","bandit","90","446017","0.0-51.0-0.0","15163609","wem/bandit_either","A351P2O6QGTCS","either","8","","","","","","","76","L","3","","0","0","1","0.3810544723","","","12","0.1907056259","","main_expt","0.4","","0.2","0.2587943474","","0.6","","0.8","0.3298150516","0.3810544723","","","","","",""
"295","","bandit","91","447824","0.0-52.0-0.0","15163609","wem/bandit_either","A351P2O6QGTCS","either","8","","","","","","","76","L","3","","1","0","0","0.3707046684","","","13","0.2162865666","","main_expt","0.4","","0.2","0.3085985727","","0.6","","0.8","0.3673307406","0.3707046684","","","","","",""
"309","","bandit","92","449643","0.0-53.0-0.0","15163609","wem/bandit_either","A351P2O6QGTCS","either","8","","","","","","","76","L","3","","0","0","1","","0.3486531997","","14","","0.2399362825","main_expt","0.4","0.2464992766","0.2","","0.3679224674","0.6","0.3486531997","0.8","","","","","","","",""
"316","","bandit","93","451472","0.0-54.0-0.0","15163609","wem/bandit_either","A351P2O6QGTCS","either","8","","","","","","","76","L","3","","0","0","1","0.3263578384","","","15","0.1986859052","","main_expt","0.4","","0.2","0.2474611475","","0.6","","0.8","0.3062507314","0.3263578384","","","","","",""
"515","","bandit","94","453498","0.0-55.0-0.0","15163609","wem/bandit_either","A351P2O6QGTCS","either","8","","","","","","","76","L","3","","0","0","1","0.3514189979","","","16","0.1865641621","","main_expt","0.4","","0.2","0.2835538477","","0.6","","0.8","0.2892976033","0.3514189979","","","","","",""
"777","","bandit","95","455787","0.0-56.0-0.0","15163609","wem/bandit_either","A351P2O6QGTCS","either","8","","","","","","","76","L","3","","0","0","1","0.3532592314","","","17","0.2035525071","","main_expt","0.4","","0.2","0.3256112075","","0.6","","0.8","0.2861796528","0.3532592314","","","","","",""
"704","","bandit","96","458002","0.0-57.0-0.0","15163609","wem/bandit_either","A351P2O6QGTCS","either","8","","","","","","","72","H","0","img/none_selected.jpg","0","0","1","","0.2039336531","","18","","0.2039336531","main_expt","0.4","0.3802227677","0.2","","0.2958570682","0.6","0.3858608091","0.8","","","","","","","",""
"645","","bandit","97","460159","0.0-58.0-0.0","15163609","wem/bandit_either","A351P2O6QGTCS","either","8","","","","","","","72","H","0","img/none_selected.jpg","1","0","0","0.1598579642","","","19","0.1598579642","","main_expt","0.4","","0.2","0.360566968","","0.6","","0.8","0.3353028819","0.3837638756","","","","","",""
"380","","bandit","98","462050","0.0-59.0-0.0","15163609","wem/bandit_either","A351P2O6QGTCS","either","8","","","","","","","72","H","0","img/none_selected.jpg","0","0","1","","0.1437622327","","20","","0.1437622327","main_expt","0.4","0.3696799013","0.2","","0.3139704528","0.6","0.2872100501","0.8","","","","","","","",""
"731","","bandit","99","464294","0.0-60.0-0.0","15163609","wem/bandit_either","A351P2O6QGTCS","either","8","","","","","","","72","H","0","img/none_selected.jpg","0","0","1","","0.07974703335","","21","","0.07974703335","main_expt","0.4","0.4006907501","0.2","","0.2524707143","0.6","0.2975414498","0.8","","","","","","","",""
"471","","bandit","100","466276","0.0-61.0-0.0","15163609","wem/bandit_either","A351P2O6QGTCS","either","8","","","","","","","72","H","0","img/none_selected.jpg","0","0","1","0.1361132429","","","22","0.1361132429","","main_expt","0.4","","0.2","0.4081217326","","0.6","","0.8","0.248326021","0.2741965999","","","","","",""
"7","","bandit","101","467795","0.0-62.0-0.0","15163609","wem/bandit_either","A351P2O6QGTCS","either","8","","","","","","","74","J","1","","0","1","0","","0.3740207531","","23","","0.1705973249","main_expt","0.4","0.3740207531","0.2","","0.2937153481","0.6","0.2379064449","0.8","","","","","","","",""
"1120","","bandit","102","470425","0.0-63.0-0.0","15163609","wem/bandit_either","A351P2O6QGTCS","either","8","","","","","","","74","J","1","","0","1","0","","0.3913756451","","24","","0.1392759225","main_expt","0.4","0.3913756451","0.2","","0.2625315469","0.6","0.2078598572","0.8","","","","","","","",""
"1641","","bandit","103","473577","0.0-64.0-0.0","15163609","wem/bandit_either","A351P2O6QGTCS","either","8","","","","","","","74","J","1","","0","0","1","","0.4100905738","","25","","0.1800538527","main_expt","0.4","0.4100905738","0.2","","0.2405651368","0.6","0.2764850733","0.8","","","","","","","",""
"346","","bandit","104","475433","0.0-65.0-0.0","15163609","wem/bandit_either","A351P2O6QGTCS","either","8","","","","","","","75","K","2","","0","0","1","0.2503350336","","","26","0.2146400533","","main_expt","0.4","","0.2","0.3600668969","","0.6","","0.8","0.2503350336","0.3080191348","","","","","",""
"149","","bandit","105","477093","0.0-66.0-0.0","15163609","wem/bandit_either","A351P2O6QGTCS","either","8","","","","","","","76","L","3","","0","0","1","0.3606197488","","","27","0.1948367851","","main_expt","0.4","","0.2","0.3703096079","","0.6","","0.8","0.354091838","0.3606197488","","","","","",""
"404","","bandit","106","479008","0.0-67.0-0.0","15163609","wem/bandit_either","A351P2O6QGTCS","either","8","","","","","","","76","L","3","","1","0","0","0.3696097963","","","28","0.2282666016","","main_expt","0.4","","0.2","0.3527269899","","0.6","","0.8","0.3419366675","0.3696097963","","","","","",""
"467","","bandit","107","480986","0.0-68.0-0.0","15163609","wem/bandit_either","A351P2O6QGTCS","either","8","","","","","","","76","L","3","","1","0","0","0.3434444954","","","29","0.1842618798","","main_expt","0.4","","0.2","0.2854860911","","0.6","","0.8","0.361896517","0.3434444954","","","","","",""
"341","","bandit","108","482841","0.0-69.0-0.0","15163609","wem/bandit_either","A351P2O6QGTCS","either","8","","","","","","","76","L","3","","1","0","0","0.3528183973","","","30","0.1930267653","","main_expt","0.4","","0.2","0.2971434158","","0.6","","0.8","0.3701160785","0.3528183973","","","","","",""
"363","","bandit","109","484717","0.0-70.0-0.0","15163609","wem/bandit_either","A351P2O6QGTCS","either","8","","","","","","","76","L","3","","0","1","0","","0.3436926249","","31","","0.2279264959","main_expt","0.4","0.3192935598","0.2","","0.3602312343","0.6","0.3436926249","0.8","","","","","","","",""
"363","","bandit","110","486592","0.0-71.0-0.0","15163609","wem/bandit_either","A351P2O6QGTCS","either","8","","","","","","","76","L","3","","0","0","1","0.3392376576","","","32","0.1922668126","","main_expt","0.4","","0.2","0.2910845839","","0.6","","0.8","0.3550043818","0.3392376576","","","","","",""
"246","","bandit","111","488350","0.0-72.0-0.0","15163609","wem/bandit_either","A351P2O6QGTCS","either","8","","","","","","","76","L","3","","0","0","1","0.2524106513","","","33","0.1503247695","","main_expt","0.4","","0.2","0.2956883229","","0.6","","0.8","0.3927862597","0.2524106513","","","","","",""
"325","","bandit","112","490186","0.0-73.0-0.0","15163609","wem/bandit_either","A351P2O6QGTCS","either","8","","","","","","","76","L","3","","0","0","1","0.2378308988","","","34","0.1875072744","","main_expt","0.4","","0.2","0.2918182698","","0.6","","0.8","0.4185963197","0.2378308988","","","","","",""
"433","","bandit","113","492131","0.0-74.0-0.0","15163609","wem/bandit_either","A351P2O6QGTCS","either","8","","","","","","","75","K","2","","1","0","0","0.441983755","","","35","0.2135507624","","main_expt","0.4","","0.2","0.3063909307","","0.6","","0.8","0.441983755","0.2683654211","","","","","",""
"337","","bandit","114","493982","0.0-75.0-0.0","15163609","wem/bandit_either","A351P2O6QGTCS","either","8","","","","","","","75","K","2","","0","0","1","","0.4352827683","","36","","0.2042402853","main_expt","0.4","0.2820805085","0.2","","0.4352827683","0.6","0.2645223933","0.8","","","","","","","",""
"341","","bandit","115","495835","0.0-76.0-0.0","15163609","wem/bandit_either","A351P2O6QGTCS","either","8","","","","","","","75","K","2","","1","0","0","0.450520142","","","37","0.2024605481","","main_expt","0.4","","0.2","0.2610370824","","0.6","","0.8","0.450520142","0.2360561858","","","","","",""
"319","","bandit","116","497665","0.0-77.0-0.0","15163609","wem/bandit_either","A351P2O6QGTCS","either","8","","","","","","","75","K","2","","0","0","1","0.4681224698","","","38","0.1677713785","","main_expt","0.4","","0.2","0.1896233007","","0.6","","0.8","0.4681224698","0.2001865083","","","","","",""
"292","","bandit","117","499470","0.0-78.0-0.0","15163609","wem/bandit_either","A351P2O6QGTCS","either","8","","","","","","","75","K","2","","0","0","1","","0.4711022053","","39","","0.221779122","main_expt","0.4","0.168851025","0.2","","0.4711022053","0.6","0.1687915361","0.8","","","","","","","",""
"358","","bandit","118","501342","0.0-79.0-0.0","15163609","wem/bandit_either","A351P2O6QGTCS","either","8","","","","","","","74","J","1","","0","0","1","0.1615787635","","","40","0.2722397218","","main_expt","0.4","","0.2","0.1615787635","","0.6","","0.8","0.4559447699","0.1503151413","","","","","",""
"100","","bandit","119","502958","0.0-80.0-0.0","15163609","wem/bandit_either","A351P2O6QGTCS","either","8","","","","","","","74","J","1","","0","0","1","","0.1472326003","","41","","0.3298230943","main_expt","0.4","0.1472326003","0.2","","0.4412687596","0.6","0.08168262283","0.8","","","","","","","",""
"351","","bandit","120","504821","0.0-81.0-0.0","15163609","wem/bandit_either","A351P2O6QGTCS","either","8","","","","","","","74","J","1","","0","0","1","","0.1533480506","","42","","0.3104885444","main_expt","0.4","0.1533480506","0.2","","0.4457751761","0.6","0.07668629145","0.8","","","","","","","",""
"316","","bandit","121","506649","0.0-82.0-0.0","15163609","wem/bandit_either","A351P2O6QGTCS","either","8","","","","","","","72","H","0","img/none_selected.jpg","0","0","1","","0.3005355489","","43","","0.3005355489","main_expt","0.4","0.1414351437","0.2","","0.4298378352","0.6","0.07394587158","0.8","","","","","","","",""
"144","","bandit","122","508307","0.0-83.0-0.0","15163609","wem/bandit_either","A351P2O6QGTCS","either","8","","","","","","","72","H","0","img/none_selected.jpg","0","0","1","","0.2456242138","","44","","0.2456242138","main_expt","0.4","0.1067646429","0.2","","0.4416915379","0.6","0.1192337685","0.8","","","","","","","",""
"852","","bandit","123","510669","0.0-84.0-0.0","15163609","wem/bandit_either","A351P2O6QGTCS","either","8","","","","","","","76","L","3","","0","0","1","","0.1285724119","","45","","0.2839901561","main_expt","0.4","0.1250796286","0.2","","0.3915522423","0.6","0.1285724119","0.8","","","","","","","",""
"174","","bandit","124","512357","0.0-85.0-0.0","15163609","wem/bandit_either","A351P2O6QGTCS","either","8","","","","","","","76","L","3","","1","0","0","0.1112684106","","","46","0.2353621531","","main_expt","0.4","","0.2","0.1927264636","","0.6","","0.8","0.4318427431","0.1112684106","","","","","",""
"395","","bandit","125","514264","0.0-86.0-0.0","15163609","wem/bandit_either","A351P2O6QGTCS","either","8","","","","","","","76","L","3","","0","0","1","0.1207340475","","","47","0.2405257196","","main_expt","0.4","","0.2","0.1804488412","","0.6","","0.8","0.4395998441","0.1207340475","","","","","",""
"302","","bandit","126","516080","0.0-87.0-0.0","15163609","wem/bandit_either","A351P2O6QGTCS","either","8","","","","","","","76","L","3","","0","0","1","0.1182533935","","","48","0.2629408555","","main_expt","0.4","","0.2","0.168268176","","0.6","","0.8","0.4630443269","0.1182533935","","","","","",""
"313","","bandit","127","517906","0.0-88.0-0.0","15163609","wem/bandit_either","A351P2O6QGTCS","either","8","","","","","","","76","L","3","","0","0","1","0.1460801474","","","49","0.2902453213","","main_expt","0.4","","0.2","0.1466838001","","0.6","","0.8","0.4794982466","0.1460801474","","","","","",""
"333","","bandit","128","519751","0.0-89.0-0.0","15163609","wem/bandit_either","A351P2O6QGTCS","either","8","","","","","","","75","K","2","","0","1","0","","0.4562783041","","50","","0.3033715012","main_expt","0.4","0.1336340117","0.2","","0.4562783041","0.6","0.1765155983","0.8","","","","","","","",""
"351","","bandit","129","521616","0.0-90.0-0.0","15163609","wem/bandit_either","A351P2O6QGTCS","either","8","","","","","","","75","K","2","","1","0","0","0.4515646323","","","51","0.3536831403","","main_expt","0.4","","0.2","0.1067821754","","0.6","","0.8","0.4515646323","0.1614266163","","","","","",""
"454","","bandit","130","523584","0.0-91.0-0.0","15163609","wem/bandit_either","A351P2O6QGTCS","either","8","","","","","","","75","K","2","","0","1","0","","0.4344137529","","52","","0.3058792917","main_expt","0.4","0.07294577227","0.2","","0.4344137529","0.6","0.1938643747","0.8","","","","","","","",""
"318","","bandit","131","525416","0.0-92.0-0.0","15163609","wem/bandit_either","A351P2O6QGTCS","either","8","","","","","","","75","K","2","","0","0","1","0.4421766306","","","53","0.3466820038","","main_expt","0.4","","0.2","0.07676454597","","0.6","","0.8","0.4421766306","0.1721886996","","","","","",""
"755","","bandit","132","527685","0.0-93.0-0.0","15163609","wem/bandit_either","A351P2O6QGTCS","either","8","","","","","","","75","K","2","","0","0","1","","0.4591875032","","54","","0.3159173384","main_expt","0.4","0.07707135067","0.2","","0.4591875032","0.6","0.1542880765","0.8","","","","","","","",""
"540","","bandit","133","529738","0.0-94.0-0.0","15163609","wem/bandit_either","A351P2O6QGTCS","either","8","","","","","","","74","J","1","","0","0","1","","0.08227932488","","55","","0.3205246683","main_expt","0.4","0.08227932488","0.2","","0.4455250987","0.6","0.2155598061","0.8","","","","","","","",""
"382","","bandit","134","531634","0.0-95.0-0.0","15163609","wem/bandit_either","A351P2O6QGTCS","either","8","","","","","","","74","J","1","","0","0","1","","0.09013031375","","56","","0.3067659888","main_expt","0.4","0.09013031375","0.2","","0.4200701886","0.6","0.199350645","0.8","","","","","","","",""
"130","","bandit","135","533301","0.0-96.0-0.0","15163609","wem/bandit_either","A351P2O6QGTCS","either","8","","","","","","","72","H","0","img/none_selected.jpg","0","0","1","","0.3786279545","","57","","0.3786279545","main_expt","0.4","0.106866739","0.2","","0.3635567377","0.6","0.1991981904","0.8","","","","","","","",""
"493","","bandit","136","535307","0.0-97.0-0.0","15163609","wem/bandit_either","A351P2O6QGTCS","either","8","","","","","","","72","H","0","img/none_selected.jpg","1","0","0","0.3796022377","","","58","0.3796022377","","main_expt","0.4","","0.2","0.0915584437","","0.6","","0.8","0.3647217687","0.1307276253","","","","","",""
"385","","bandit","137","537207","0.0-98.0-0.0","15163609","wem/bandit_either","A351P2O6QGTCS","either","8","","","","","","","72","H","0","img/none_selected.jpg","0","0","1","","0.3570845549","","59","","0.3570845549","main_expt","0.4","0.1036540812","0.2","","0.3975499765","0.6","0.1540949786","0.8","","","","","","","",""
"347","","bandit","138","539065","0.0-99.0-0.0","15163609","wem/bandit_either","A351P2O6QGTCS","either","8","","","","","","","72","H","0","img/none_selected.jpg","0","0","1","0.398525789","","","60","0.398525789","","main_expt","0.4","","0.2","0.07948280662","","0.6","","0.8","0.376383165","0.1187181044","","","","","",""
"1343","","bandit","139","541923","0.0-100.0-0.0","15163609","wem/bandit_either","A351P2O6QGTCS","either","8","","","","","","","74","J","1","","0","0","1","0.0685056185","","","61","0.380986593","","main_expt","0.4","","0.2","0.0685056185","","0.6","","0.8","0.3384437455","0.1734870435","","","","","",""
"364","","bandit","140","543799","0.0-101.0-0.0","15163609","wem/bandit_either","A351P2O6QGTCS","either","8","","","","","","","74","J","1","","0","0","1","","0.04196312691","","62","","0.3928002855","main_expt","0.4","0.04196312691","0.2","","0.3086389155","0.6","0.2056999461","0.8","","","","","","","",""
"86","","bandit","141","545399","0.0-102.0-0.0","15163609","wem/bandit_either","A351P2O6QGTCS","either","8","","","","","","","75","K","2","","0","0","1","","0.3098998428","","63","","0.4097838671","main_expt","0.4","0.06524357318","0.2","","0.3098998428","0.6","0.2421495796","0.8","","","","","","","",""
"176","","bandit","142","547089","0.0-103.0-0.0","15163609","wem/bandit_either","A351P2O6QGTCS","either","8","","","","","","","75","K","2","","0","0","1","","0.2859800092","","64","","0.3942475769","main_expt","0.4","0.04599317762","0.2","","0.2859800092","0.6","0.2678986655","0.8","","","","","","","",""
"581","","bandit","143","549187","0.0-104.0-0.0","15163609","wem/bandit_either","A351P2O6QGTCS","either","8","","","","","","","76","L","3","","0","0","1","0.2780805564","","","65","0.3756823908","","main_expt","0.4","","0.2","0.04738713632","","0.6","","0.8","0.2780623804","0.2780805564","","","","","",""
"320","","bandit","144","551020","0.0-105.0-0.0","15163609","wem/bandit_either","A351P2O6QGTCS","either","8","","","","","","","76","L","3","","0","0","1","0.2923516192","","","66","0.3780323226","","main_expt","0.4","","0.2","0.02873144913","","0.6","","0.8","0.2740889186","0.2923516192","","","","","",""
"271","","bandit","145","552805","0.0-106.0-0.0","15163609","wem/bandit_either","A351P2O6QGTCS","either","8","","","","","","","76","L","3","","0","0","1","","0.3481747094","","67","","0.382091886","main_expt","0.4","0.0355516853","0.2","","0.3122756929","0.6","0.3481747094","0.8","","","","","","","",""
"330","","bandit","146","554648","0.0-107.0-0.0","15163609","wem/bandit_either","A351P2O6QGTCS","either","8","","","","","","","72","H","0","img/none_selected.jpg","0","0","1","0.4080562953","","","68","0.4080562953","","main_expt","0.4","","0.2","0.04483006882","","0.6","","0.8","0.3004294993","0.3540590834","","","","","",""
"573","","bandit","147","556737","0.0-108.0-0.0","15163609","wem/bandit_either","A351P2O6QGTCS","either","8","","","","","","","72","H","0","img/none_selected.jpg","0","0","1","0.419826639","","","69","0.419826639","","main_expt","0.4","","0.2","0.04300650393","","0.6","","0.8","0.3312842332","0.3348318208","","","","","",""
"117","","bandit","148","558368","0.0-109.0-0.0","15163609","wem/bandit_either","A351P2O6QGTCS","either","8","","","","","","","74","J","1","","0","0","1","","0.03960880855","","70","","0.3889643965","main_expt","0.4","0.03960880855","0.2","","0.2362018798","0.6","0.3844983113","0.8","","","","","","","",""
"325","","bandit","149","560206","0.0-110.0-0.0","15163609","wem/bandit_either","A351P2O6QGTCS","either","8","","","","","","","74","J","1","","0","0","1","","0.02401392238","","71","","0.3492343966","main_expt","0.4","0.02401392238","0.2","","0.1838323472","0.6","0.3753843975","0.8","","","","","","","",""
"43","","bandit","150","561761","0.0-111.0-0.0","15163609","wem/bandit_either","A351P2O6QGTCS","either","8","","","","","","","75","K","2","","0","0","1","0.1749810972","","","72","0.3502155883","","main_expt","0.4","","0.2","0.008756159955","","0.6","","0.8","0.1749810972","0.3861429343","","","","","",""
"2","","bandit","151","563281","0.0-112.0-0.0","15163609","wem/bandit_either","A351P2O6QGTCS","either","8","","","","","","","75","K","2","","0","0","1","0.1664097112","","","73","0.3568691787","","main_expt","0.4","","0.2","0.006257651783","","0.6","","0.8","0.1664097112","0.3978436086","","","","","",""
"277","","bandit","152","565071","0.0-113.0-0.0","15163609","wem/bandit_either","A351P2O6QGTCS","either","8","","","","","","","76","L","3","","1","0","0","0.3847979518","","","74","0.3303653739","","main_expt","0.4","","0.2","0.004732084297","","0.6","","0.8","0.2001176207","0.3847979518","","","","","",""
"338","","bandit","153","566924","0.0-114.0-0.0","15163609","wem/bandit_either","A351P2O6QGTCS","either","8","","","","","","","76","L","3","","1","0","0","0.3974319157","","","75","0.3353283381","","main_expt","0.4","","0.2","0.006967558871","","0.6","","0.8","0.1848717924","0.3974319157","","","","","",""
"314","","bandit","154","568753","0.0-115.0-0.0","15163609","wem/bandit_either","A351P2O6QGTCS","either","8","","","","","","","76","L","3","","1","0","0","0.3987985884","","","76","0.3009524994","","main_expt","0.4","","0.2","0.004525860487","","0.6","","0.8","0.1510178238","0.3987985884","","","","","",""
"341","","bandit","155","570609","0.0-116.0-0.0","15163609","wem/bandit_either","A351P2O6QGTCS","either","8","","","","","","","76","L","3","","0","0","1","","0.4127312768","","77","","0.3316028908","main_expt","0.4","0.007245535115","0.2","","0.2089633591","0.6","0.4127312768","0.8","","","","","","","",""
"297","","bandit","156","572418","0.0-117.0-0.0","15163609","wem/bandit_either","A351P2O6QGTCS","either","8","","","","","","","76","L","3","","0","0","1","0.4257675477","","","78","0.3571024926","","main_expt","0.4","","0.2","0.00483057751","","0.6","","0.8","0.2285147345","0.4257675477","","","","","",""
"73","","bandit","157","574006","0.0-118.0-0.0","15163609","wem/bandit_either","A351P2O6QGTCS","either","8","","","","","","","76","L","3","","1","0","0","0.4331167668","","","79","0.3542776451","","main_expt","0.4","","0.2","0.005956317848","","0.6","","0.8","0.2246975601","0.4331167668","","","","","",""
"283","","bandit","158","575805","0.0-119.0-0.0","15163609","wem/bandit_either","A351P2O6QGTCS","either","8","","","","","","","76","L","3","","0","1","0","","0.4294395537","","80","","0.3201174307","main_expt","0.4","0.0076590047","0.2","","0.1878766281","0.6","0.4294395537","0.8","","","","","","","",""
"347","","bandit","159","577668","0.0-120.0-0.0","15163609","wem/bandit_either","A351P2O6QGTCS","either","8","","","","","","","76","L","3","","0","0","1","0.4234249918","","","81","0.3503003334","","main_expt","0.4","","0.2","0.009115568074","","0.6","","0.8","0.2436254364","0.4234249918","","","","","",""
"319","","bandit","160","579504","0.0-121.0-0.0","15163609","wem/bandit_either","A351P2O6QGTCS","either","8","","","","","","","76","L","3","","0","0","1","","0.3956977209","","82","","0.3509066846","main_expt","0.4","0.01382977225","0.2","","0.2627531714","0.6","0.3956977209","0.8","","","","","","","",""
"179","","bandit","161","581196","0.0-122.0-0.0","15163609","wem/bandit_either","A351P2O6QGTCS","either","8","","","","","","","76","L","3","","0","0","1","0.4248650233","","","83","0.3951868033","","main_expt","0.4","","0.2","0.01500629599","","0.6","","0.8","0.2672212524","0.4248650233","","","","","",""
"70","","bandit","162","582784","0.0-123.0-0.0","15163609","wem/bandit_either","A351P2O6QGTCS","either","8","","","","","","","75","K","2","","0","0","1","0.2817484998","","","84","0.4131477378","","main_expt","0.4","","0.2","0.02310127573","","0.6","","0.8","0.2817484998","0.4196907627","","","","","",""
"430","","bandit","163","584727","0.0-124.0-0.0","15163609","wem/bandit_either","A351P2O6QGTCS","either","8","","","","","","","75","K","2","","1","0","0","0.3074775227","","","85","0.3889697292","","main_expt","0.4","","0.2","0.02639065846","","0.6","","0.8","0.3074775227","0.435633498","","","","","",""
"389","","bandit","164","586629","0.0-125.0-0.0","15163609","wem/bandit_either","A351P2O6QGTCS","either","8","","","","","","","75","K","2","","0","1","0","","0.2717847629","","86","","0.3885636443","main_expt","0.4","0.01746441632","0.2","","0.2717847629","0.6","0.4322222521","0.8","","","","","","","",""
"499","","bandit","165","588641","0.0-126.0-0.0","15163609","wem/bandit_either","A351P2O6QGTCS","either","8","","","","","","","75","K","2","","1","0","0","0.2183858348","","","87","0.4028282504","","main_expt","0.4","","0.2","0.01256144444","","0.6","","0.8","0.2183858348","0.4476119451","","","","","",""
"691","","bandit","166","590848","0.0-127.0-0.0","15163609","wem/bandit_either","A351P2O6QGTCS","either","8","","","","","","","75","K","2","","0","0","1","0.2054961256","","","88","0.4306890759","","main_expt","0.4","","0.2","0.01178158386","","0.6","","0.8","0.2054961256","0.4073123198","","","","","",""
"377","","bandit","167","592746","0.0-128.0-0.0","15163609","wem/bandit_either","A351P2O6QGTCS","either","8","","","","","","","75","K","2","","1","0","0","0.1452714398","","","89","0.4103738654","","main_expt","0.4","","0.2","0.008722555822","","0.6","","0.8","0.1452714398","0.3862301724","","","","","",""
"371","","bandit","168","594635","0.0-129.0-0.0","15163609","wem/bandit_either","A351P2O6QGTCS","either","8","","","","","","","75","K","2","","0","0","1","0.1077779513","","","90","0.3980827974","","main_expt","0.4","","0.2","0.008232471735","","0.6","","0.8","0.1077779513","0.3596745144","","","","","",""
"179","","bandit","169","596326","0.0-130.0-0.0","15163609","wem/bandit_either","A351P2O6QGTCS","either","8","","","","","","","75","K","2","","0","0","1","0.1308407065","","","91","0.4040531024","","main_expt","0.4","","0.2","0.01249180717","","0.6","","0.8","0.1308407065","0.3082854458","","","","","",""
"376","","bandit","170","598218","0.0-131.0-0.0","15163609","wem/bandit_either","A351P2O6QGTCS","either","8","","","","","","","75","K","2","","1","0","0","0.1652322036","","","92","0.3462944796","","main_expt","0.4","","0.2","0.01470986316","","0.6","","0.8","0.1652322036","0.312225492","","","","","",""
"320","","bandit","171","600052","0.0-132.0-0.0","15163609","wem/bandit_either","A351P2O6QGTCS","either","8","","","","","","","75","K","2","","0","0","1","","0.1344678182","","93","","0.3411451966","main_expt","0.4","0.02655281846","0.2","","0.1344678182","0.6","0.3671658277","0.8","","","","","","","",""
"344","","bandit","172","601912","0.0-133.0-0.0","15163609","wem/bandit_either","A351P2O6QGTCS","either","8","","","","","","","75","K","2","","0","0","1","0.1301314301","","","94","0.3384154489","","main_expt","0.4","","0.2","0.02575246025","","0.6","","0.8","0.1301314301","0.3401731108","","","","","",""
"930","","bandit","173","604356","0.0-134.0-0.0","15163609","wem/bandit_either","A351P2O6QGTCS","either","8","","","","","","","74","J","1","","0","0","1","","0.02262355665","","95","","0.3126988266","main_expt","0.4","0.02262355665","0.2","","0.1746055711","0.6","0.3413923724","0.8","","","","","","","",""
"300","","bandit","174","606170","0.0-135.0-0.0","15163609","wem/bandit_either","A351P2O6QGTCS","either","8","","","","","","","74","J","1","","0","0","1","0.02047181149","","","96","0.3800019137","","main_expt","0.4","","0.2","0.02047181149","","0.6","","0.8","0.1994244555","0.3570420485","","","","","",""
"415","","bandit","175","608100","0.0-136.0-0.0","15163609","wem/bandit_either","A351P2O6QGTCS","either","8","","","","","","","74","J","1","","0","0","1","","0.0207754381","","97","","0.3328121005","main_expt","0.4","0.0207754381","0.2","","0.1834602947","0.6","0.3435474977","0.8","","","","","","","",""
"361","","bandit","176","609976","0.0-137.0-0.0","15163609","wem/bandit_either","A351P2O6QGTCS","either","8","","","","","","","72","H","0","img/none_selected.jpg","0","0","1","0.332228596","","","98","0.332228596","","main_expt","0.4","","0.2","0.02955834597","","0.6","","0.8","0.1719221531","0.3614714926","","","","","",""
"61","","bandit","177","611554","0.0-138.0-0.0","15163609","wem/bandit_either","A351P2O6QGTCS","either","8","","","","","","","72","H","0","img/none_selected.jpg","0","0","1","0.2843854285","","","99","0.2843854285","","main_expt","0.4","","0.2","0.0383131093","","0.6","","0.8","0.1183399241","0.3176405447","","","","","",""
"357","","bandit","178","613427","0.0-139.0-0.0","15163609","wem/bandit_either","A351P2O6QGTCS","either","8","","","","","","","72","H","0","img/none_selected.jpg","0","0","1","0.309751149","","","100","0.309751149","","main_expt","0.4","","0.2","0.03580757471","","0.6","","0.8","0.1558635017","0.3586553183","","","","","",""
"384","","bandit","179","615326","0.0-140.0-0.0","15163609","wem/bandit_either","A351P2O6QGTCS","either","8","","","","","","","74","J","1","","0","0","1","","0.04899620691","","101","","0.2993195944","main_expt","0.4","0.04899620691","0.2","","0.1389665978","0.6","0.2951503345","0.8","","","","","","","",""
"164","","bandit","180","617007","0.0-141.0-0.0","15163609","wem/bandit_either","A351P2O6QGTCS","either","8","","","","","","","74","J","1","","0","0","1","","0.08055650644","","102","","0.3551890872","main_expt","0.4","0.08055650644","0.2","","0.1377203561","0.6","0.2998391809","0.8","","","","","","","",""
"100","","bandit","181","618622","0.0-142.0-0.0","15163609","wem/bandit_either","A351P2O6QGTCS","either","8","","","","","","","74","J","1","","0","1","0","","0.1040447627","","103","","0.3148404956","main_expt","0.4","0.1040447627","0.2","","0.1285548106","0.6","0.2791823827","0.8","","","","","","","",""
"487","","bandit","182","620628","0.0-143.0-0.0","15163609","wem/bandit_either","A351P2O6QGTCS","either","8","","","","","","","74","J","1","","0","1","0","","0.1143547335","","104","","0.3286912191","main_expt","0.4","0.1143547335","0.2","","0.1555523735","0.6","0.3382769334","0.8","","","","","","","",""
"476","","bandit","183","622620","0.0-144.0-0.0","15163609","wem/bandit_either","A351P2O6QGTCS","either","8","","","","","","","74","J","1","","0","0","1","","0.1487676438","","105","","0.298340497","main_expt","0.4","0.1487676438","0.2","","0.1775592141","0.6","0.3339697125","0.8","","","","","","","",""
"570","","bandit","184","624705","0.0-145.0-0.0","15163609","wem/bandit_either","A351P2O6QGTCS","either","8","","","","","","","74","J","1","","0","0","1","","0.152088545","","106","","0.3504464386","main_expt","0.4","0.152088545","0.2","","0.2263451353","0.6","0.3124129253","0.8","","","","","","","",""
"231","","bandit","185","626451","0.0-146.0-0.0","15163609","wem/bandit_either","A351P2O6QGTCS","either","8","","","","","","","75","K","2","","0","0","1","0.1679769802","","","107","0.3510410077","","main_expt","0.4","","0.2","0.2406734145","","0.6","","0.8","0.1679769802","0.3400683723","","","","","",""
"383","","bandit","186","628351","0.0-147.0-0.0","15163609","wem/bandit_either","A351P2O6QGTCS","either","8","","","","","","","75","K","2","","0","0","1","0.1999870147","","","108","0.3282766846","","main_expt","0.4","","0.2","0.3048040024","","0.6","","0.8","0.1999870147","0.3557340834","","","","","",""
"318","","bandit","187","630183","0.0-148.0-0.0","15163609","wem/bandit_either","A351P2O6QGTCS","either","8","","","","","","","75","K","2","","0","0","1","0.208992856","","","109","0.3561186451","","main_expt","0.4","","0.2","0.3418503096","","0.6","","0.8","0.208992856","0.3846418901","","","","","",""
"98","","bandit","188","631797","0.0-149.0-0.0","15163609","wem/bandit_either","A351P2O6QGTCS","either","8","","","","","","","76","L","3","","0","0","1","0.4057962062","","","110","0.3576445865","","main_expt","0.4","","0.2","0.3198501315","","0.6","","0.8","0.1716040471","0.4057962062","","","","","",""
"301","","bandit","189","633615","0.0-150.0-0.0","15163609","wem/bandit_either","A351P2O6QGTCS","either","8","","","","","","","76","L","3","","1","0","0","0.3692451483","","","111","0.3377543854","","main_expt","0.4","","0.2","0.3681534847","","0.6","","0.8","0.08984071331","0.3692451483","","","","","",""
"330","","bandit","190","635460","0.0-151.0-0.0","15163609","wem/bandit_either","A351P2O6QGTCS","either","8","","","","","","","76","L","3","","0","0","1","0.3577317973","","","112","0.286234052","","main_expt","0.4","","0.2","0.3757830796","","0.6","","0.8","0.1243463141","0.3577317973","","","","","",""
"98","","bandit","191","637076","0.0-152.0-0.0","15163609","wem/bandit_either","A351P2O6QGTCS","either","8","","","","","","","76","L","3","","0","1","0","","0.3328808086","","113","","0.1932674395","main_expt","0.4","0.3838999828","0.2","","0.1433440675","0.6","0.3328808086","0.8","","","","","","","",""
"287","","bandit","192","638877","0.0-153.0-0.0","15163609","wem/bandit_either","A351P2O6QGTCS","either","8","","","","","","","76","L","3","","0","0","1","0.3416979579","","","114","0.2403040534","","main_expt","0.4","","0.2","0.4157938717","","0.6","","0.8","0.1510662198","0.3416979579","","","","","",""
"385","","bandit","193","640786","0.0-154.0-0.0","15163609","wem/bandit_either","A351P2O6QGTCS","either","8","","","","","","","76","L","3","","0","0","1","","0.3377137281","","115","","0.254937398","main_expt","0.4","0.4055870595","0.2","","0.09845245139","0.6","0.3377137281","0.8","","","","","","","",""
"584","","bandit","194","642886","0.0-155.0-0.0","15163609","wem/bandit_either","A351P2O6QGTCS","either","8","","","","","","","76","L","3","","0","0","1","0.3039448029","","","116","0.2605063941","","main_expt","0.4","","0.2","0.4161015278","","0.6","","0.8","0.107393795","0.3039448029","","","","","",""
"488","","bandit","195","644891","0.0-156.0-0.0","15163609","wem/bandit_either","A351P2O6QGTCS","either","8","","","","","","","72","H","0","img/none_selected.jpg","0","0","1","0.2161328783","","","117","0.2161328783","","main_expt","0.4","","0.2","0.414877819","","0.6","","0.8","0.07879800556","0.2974336912","","","","","",""
"240","","bandit","196","646647","0.0-157.0-0.0","15163609","wem/bandit_either","A351P2O6QGTCS","either","8","","","","","","","72","H","0","img/none_selected.jpg","0","0","1","0.1931197841","","","118","0.1931197841","","main_expt","0.4","","0.2","0.3968259953","","0.6","","0.8","0.08383735875","0.2651867246","","","","","",""
"473","","bandit","197","648636","0.0-158.0-0.0","15163609","wem/bandit_either","A351P2O6QGTCS","either","8","","","","","","","74","J","1","","0","1","0","","0.4198241006","","119","","0.1638183597","main_expt","0.4","0.4198241006","0.2","","0.1392474383","0.6","0.3131666206","0.8","","","","","","","",""
"462","","bandit","198","650615","0.0-159.0-0.0","15163609","wem/bandit_either","A351P2O6QGTCS","either","8","","","","","","","74","J","1","","0","1","0","","0.4286088018","","120","","0.1893282748","main_expt","0.4","0.4286088018","0.2","","0.1649404926","0.6","0.358829095","0.8","","","","","","","",""
"316","","bandit","199","652447","0.0-160.0-0.0","15163609","wem/bandit_either","A351P2O6QGTCS","either","8","","","","","","","74","J","1","","0","0","1","0.4253829576","","","121","0.2290368179","","main_expt","0.4","","0.2","0.4253829576","","0.6","","0.8","0.1764152442","0.3189860171","","","","","",""
"369","","bandit","200","654335","0.0-161.0-0.0","15163609","wem/bandit_either","A351P2O6QGTCS","either","8","","","","","","","74","J","1","","0","0","1","0.4235175979","","","122","0.2445441383","","main_expt","0.4","","0.2","0.4235175979","","0.6","","0.8","0.2092397698","0.3011672979","","","","","",""
"355","","bandit","201","656205","0.0-162.0-0.0","15163609","wem/bandit_either","A351P2O6QGTCS","either","8","","","","","","","75","K","2","","0","0","1","0.1884058447","","","123","0.2091075756","","main_expt","0.4","","0.2","0.4182090072","","0.6","","0.8","0.1884058447","0.3037948063","","","","","",""
"317","","bandit","202","658039","0.0-163.0-0.0","15163609","wem/bandit_either","A351P2O6QGTCS","either","8","","","","","","","75","K","2","","0","0","1","","0.1876417206","","124","","0.2216111921","main_expt","0.4","0.4356016004","0.2","","0.1876417206","0.6","0.2446200253","0.8","","","","","","","",""
"341","","bandit","203","659909","0.0-164.0-0.0","15163609","wem/bandit_either","A351P2O6QGTCS","either","8","","","","","","","75","K","2","","0","0","1","0.1890564589","","","125","0.1622020501","","main_expt","0.4","","0.2","0.403953628","","0.6","","0.8","0.1890564589","0.2464628806","","","","","",""
"71","","bandit","204","661498","0.0-165.0-0.0","15163609","wem/bandit_either","A351P2O6QGTCS","either","8","","","","","","","76","L","3","","0","0","1","","0.281169445","","126","","0.173533554","main_expt","0.4","0.4020675328","0.2","","0.1659850756","0.6","0.281169445","0.8","","","","","","","",""
"289","","bandit","205","663329","0.0-166.0-0.0","15163609","wem/bandit_either","A351P2O6QGTCS","either","8","","","","","","","76","L","3","","0","0","1","","0.290080064","","127","","0.189829559","main_expt","0.4","0.338443572","0.2","","0.2006343121","0.6","0.290080064","0.8","","","","","","","",""
"323","","bandit","206","665171","0.0-167.0-0.0","15163609","wem/bandit_either","A351P2O6QGTCS","either","8","","","","","","","76","L","3","","1","0","0","0.3280989756","","","128","0.1764696366","","main_expt","0.4","","0.2","0.323123489","","0.6","","0.8","0.2637444583","0.3280989756","","","","","",""
"336","","bandit","207","667026","0.0-168.0-0.0","15163609","wem/bandit_either","A351P2O6QGTCS","either","8","","","","","","","76","L","3","","1","0","0","0.3052704822","","","129","0.172709194","","main_expt","0.4","","0.2","0.3615310162","","0.6","","0.8","0.2783394686","0.3052704822","","","","","",""
"307","","bandit","208","668853","0.0-169.0-0.0","15163609","wem/bandit_either","A351P2O6QGTCS","either","8","","","","","","","76","L","3","","1","0","0","0.314718742","","","130","0.1407460215","","main_expt","0.4","","0.2","0.3667448715","","0.6","","0.8","0.2674474002","0.314718742","","","","","",""
"325","","bandit","209","670695","0.0-170.0-0.0","15163609","wem/bandit_either","A351P2O6QGTCS","either","8","","","","","","","76","L","3","","0","0","1","0.2492347367","","","131","0.143826562","","main_expt","0.4","","0.2","0.341745941","","0.6","","0.8","0.2122920843","0.2492347367","","","","","",""
"182","","bandit","210","672398","0.0-171.0-0.0","15163609","wem/bandit_either","A351P2O6QGTCS","either","8","","","","","","","75","K","2","","1","0","0","0.1969346152","","","132","0.1862992663","","main_expt","0.4","","0.2","0.2615325727","","0.6","","0.8","0.1969346152","0.2495736985","","","","","",""
"300","","bandit","211","674218","0.0-172.0-0.0","15163609","wem/bandit_either","A351P2O6QGTCS","either","8","","","","","","","75","K","2","","0","0","1","0.1390835973","","","133","0.185648564","","main_expt","0.4","","0.2","0.27905624","","0.6","","0.8","0.1390835973","0.2487120015","","","","","",""
"289","","bandit","212","676023","0.0-173.0-0.0","15163609","wem/bandit_either","A351P2O6QGTCS","either","8","","","","","","","74","J","1","","0","0","1","","0.2751163123","","134","","0.2002276213","main_expt","0.4","0.2751163123","0.2","","0.1437640715","0.6","0.3239420422","0.8","","","","","","","",""
"321","","bandit","213","677860","0.0-174.0-0.0","15163609","wem/bandit_either","A351P2O6QGTCS","either","8","","","","","","","74","J","1","","0","0","1","","0.2586507773","","135","","0.2474552851","main_expt","0.4","0.2586507773","0.2","","0.1175999949","0.6","0.3903525049","0.8","","","","","","","",""
"91","","bandit","214","679470","0.0-175.0-0.0","15163609","wem/bandit_either","A351P2O6QGTCS","either","8","","","","","","","72","H","0","img/none_selected.jpg","0","0","1","","0.2454982057","","136","","0.2454982057","main_expt","0.4","0.2385277364","0.2","","0.1108499649","0.6","0.3703049055","0.8","","","","","","","",""
"505","","bandit","215","681491","0.0-176.0-0.0","15163609","wem/bandit_either","A351P2O6QGTCS","either","8","","","","","","","72","H","0","img/none_selected.jpg","0","0","1","0.2708690816","","","137","0.2708690816","","main_expt","0.4","","0.2","0.1935782534","","0.6","","0.8","0.1208727618","0.3657944308","","","","","",""
"283","","bandit","216","683291","0.0-177.0-0.0","15163609","wem/bandit_either","A351P2O6QGTCS","either","8","","","","","","","76","L","3","","1","0","0","0.3452946514","","","138","0.2219039101","","main_expt","0.4","","0.2","0.14087624","","0.6","","0.8","0.1098805161","0.3452946514","","","","","",""
"359","","bandit","217","685178","0.0-178.0-0.0","15163609","wem/bandit_either","A351P2O6QGTCS","either","8","","","","","","","76","L","3","","0","0","1","0.3225052804","","","139","0.2485571535","","main_expt","0.4","","0.2","0.1340930794","","0.6","","0.8","0.1359731218","0.3225052804","","","","","",""
"297","","bandit","218","686993","0.0-179.0-0.0","15163609","wem/bandit_either","A351P2O6QGTCS","either","8","","","","","","","76","L","3","","0","0","1","","0.2997250911","","140","","0.2605640439","main_expt","0.4","0.1170750994","0.2","","0.1419248406","0.6","0.2997250911","0.8","","","","","","","",""
"282","","bandit","219","688792","0.0-180.0-0.0","15163609","wem/bandit_either","A351P2O6QGTCS","either","8","","","","","","","76","L","3","","0","0","1","0.311933389","","","141","0.2260680923","","main_expt","0.4","","0.2","0.1316830279","","0.6","","0.8","0.1269577117","0.311933389","","","","","",""
"303","","bandit","220","690616","0.0-181.0-0.0","15163609","wem/bandit_either","A351P2O6QGTCS","either","8","","","","","","","72","H","0","img/none_selected.jpg","0","0","1","","0.2354846983","","142","","0.2354846983","main_expt","0.4","0.09490366034","0.2","","0.1073819056","0.6","0.3442568425","0.8","","","","","","","",""
"383","","bandit","221","692516","0.0-182.0-0.0","15163609","wem/bandit_either","A351P2O6QGTCS","either","8","","","","","","","72","H","0","img/none_selected.jpg","0","0","1","0.2089358464","","","143","0.2089358464","","main_expt","0.4","","0.2","0.1246024154","","0.6","","0.8","0.1152767294","0.3117203045","","","","","",""
"172","","bandit","222","694204","0.0-183.0-0.0","15163609","wem/bandit_either","A351P2O6QGTCS","either","8","","","","","","","74","J","1","","0","0","1","","0.1179874238","","144","","0.1844607625","main_expt","0.4","0.1179874238","0.2","","0.1317444946","0.6","0.3080771123","0.8","","","","","","","",""
"304","","bandit","223","696028","0.0-184.0-0.0","15163609","wem/bandit_either","A351P2O6QGTCS","either","8","","","","","","","74","J","1","","0","0","1","","0.1211842963","","145","","0.1940384654","main_expt","0.4","0.1211842963","0.2","","0.1058600218","0.6","0.3146876691","0.8","","","","","","","",""
"146","","bandit","224","697692","0.0-185.0-0.0","15163609","wem/bandit_either","A351P2O6QGTCS","either","8","","","","","","","75","K","2","","0","0","1","0.1862633901","","","146","0.2532022814","","main_expt","0.4","","0.2","0.06212451067","","0.6","","0.8","0.1862633901","0.3526806189","","","","","",""
"693","","bandit","225","699902","0.0-186.0-0.0","15163609","wem/bandit_either","A351P2O6QGTCS","either","8","","","","","","","75","K","2","","0","0","1","0.1944793183","","","147","0.272856749","","main_expt","0.4","","0.2","0.05826033827","","0.6","","0.8","0.1944793183","0.3859334927","","","","","",""
"222","","bandit","226","701642","0.0-187.0-0.0","15163609","wem/bandit_either","A351P2O6QGTCS","either","8","","","","","","","75","K","2","","0","0","1","","0.1572605535","","148","","0.2441255329","main_expt","0.4","0.04847575149","0.2","","0.1572605535","0.6","0.4089873985","0.8","","","","","","","",""
"230","","bandit","227","703389","0.0-188.0-0.0","15163609","wem/bandit_either","A351P2O6QGTCS","either","8","","","","","","","76","L","3","","0","0","1","0.3317076441","","","149","0.2304797635","","main_expt","0.4","","0.2","0.07397138717","","0.6","","0.8","0.1632070519","0.3317076441","","","","","",""
"236","","bandit","228","705142","0.0-189.0-0.0","15163609","wem/bandit_either","A351P2O6QGTCS","either","8","","","","","","","76","L","3","","0","0","1","0.2514439341","","","150","0.2645424191","","main_expt","0.4","","0.2","0.1178437277","","0.6","","0.8","0.2162169298","0.2514439341","","","","","",""
"232","","bandit","229","706896","0.0-190.0-0.0","15163609","wem/bandit_either","A351P2O6QGTCS","either","8","","","","","","","76","L","3","","0","0","1","0.2209696772","","","151","0.2919476008","","main_expt","0.4","","0.2","0.1116740648","","0.6","","0.8","0.2806681102","0.2209696772","","","","","",""
"311","","bandit","230","708726","0.0-191.0-0.0","15163609","wem/bandit_either","A351P2O6QGTCS","either","8","","","","","","","75","K","2","","0","0","1","","0.25223767","","152","","0.3004198658","main_expt","0.4","0.09681320826","0.2","","0.25223767","0.6","0.2004300668","0.8","","","","","","","",""
"185","","bandit","231","710428","0.0-192.0-0.0","15163609","wem/bandit_either","A351P2O6QGTCS","either","8","","","","","","","75","K","2","","1","0","0","0.2259503681","","","153","0.2910243242","","main_expt","0.4","","0.2","0.1162344283","","0.6","","0.8","0.2259503681","0.1803159607","","","","","",""
"289","","bandit","232","712235","0.0-193.0-0.0","15163609","wem/bandit_either","A351P2O6QGTCS","either","8","","","","","","","75","K","2","","0","1","0","","0.2520515582","","154","","0.2858680692","main_expt","0.4","0.1441765144","0.2","","0.2520515582","0.6","0.1793353988","0.8","","","","","","","",""
"294","","bandit","233","714045","0.0-194.0-0.0","15163609","wem/bandit_either","A351P2O6QGTCS","either","8","","","","","","","75","K","2","","0","0","1","0.246895917","","","155","0.276906037","","main_expt","0.4","","0.2","0.1506434262","","0.6","","0.8","0.246895917","0.175125938","","","","","",""
"511","","bandit","234","716075","0.0-195.0-0.0","15163609","wem/bandit_either","A351P2O6QGTCS","either","8","","","","","","","75","K","2","","1","0","0","0.2067462234","","","156","0.3087514371","","main_expt","0.4","","0.2","0.1691825384","","0.6","","0.8","0.2067462234","0.19004546","","","","","",""
"330","","bandit","235","717922","0.0-196.0-0.0","15163609","wem/bandit_either","A351P2O6QGTCS","either","8","","","","","","","75","K","2","","0","0","1","0.1736677602","","","157","0.3400763937","","main_expt","0.4","","0.2","0.1465267651","","0.6","","0.8","0.1736677602","0.1538528063","","","","","",""
"349","","bandit","236","719790","0.0-197.0-0.0","15163609","wem/bandit_either","A351P2O6QGTCS","either","8","","","","","","","75","K","2","","0","1","0","","0.2437422656","","158","","0.3388441277","main_expt","0.4","0.1517260174","0.2","","0.2437422656","0.6","0.1624419901","0.8","","","","","","","",""
"301","","bandit","237","721611","0.0-198.0-0.0","15163609","wem/bandit_either","A351P2O6QGTCS","either","8","","","","","","","75","K","2","","0","1","0","","0.2627628197","","159","","0.3496437485","main_expt","0.4","0.143579764","0.2","","0.2627628197","0.6","0.1749682205","0.8","","","","","","","",""
"314","","bandit","238","723445","0.0-199.0-0.0","15163609","wem/bandit_either","A351P2O6QGTCS","either","8","","","","","","","75","K","2","","0","0","1","0.2532756584","","","160","0.3347491532","","main_expt","0.4","","0.2","0.1701049762","","0.6","","0.8","0.2532756584","0.2227833177","","","","","",""
"172","","bandit","239","725136","0.0-200.0-0.0","15163609","wem/bandit_either","A351P2O6QGTCS","either","8","","","","","","","72","H","0","img/none_selected.jpg","0","1","0","","0.3036625801","","161","","0.3036625801","main_expt","0.4","0.1596038406","0.2","","0.2846030245","0.6","0.1616195486","0.8","","","","","","","",""
"373","","bandit","240","727027","0.0-201.0-0.0","15163609","wem/bandit_either","A351P2O6QGTCS","either","8","","","","","","","72","H","0","img/none_selected.jpg","0","0","1","0.2735804545","","","162","0.2735804545","","main_expt","0.4","","0.2","0.1186271452","","0.6","","0.8","0.2480450928","0.1440802068","","","","","",""
"150","","bandit","241","728694","0.0-202.0-0.0","15163609","wem/bandit_either","A351P2O6QGTCS","either","8","","","","","","","74","J","1","","0","0","1","0.1460830151","","","163","0.2219233964","","main_expt","0.4","","0.2","0.1460830151","","0.6","","0.8","0.3217860246","0.1349250059","","","","","",""
"407","","bandit","242","730622","0.0-203.0-0.0","15163609","wem/bandit_either","A351P2O6QGTCS","either","8","","","","","","","74","J","1","","0","0","1","","0.1924179555","","164","","0.2489701673","main_expt","0.4","0.1924179555","0.2","","0.3528623486","0.6","0.1482528248","0.8","","","","","","","",""
"267","","bandit","243","732405","0.0-204.0-0.0","15163609","wem/bandit_either","A351P2O6QGTCS","either","8","","","","","","","75","K","2","","1","0","0","0.3113737792","","","165","0.2424219606","","main_expt","0.4","","0.2","0.1909643941","","0.6","","0.8","0.3113737792","0.1444116863","","","","","",""
"280","","bandit","244","734203","0.0-205.0-0.0","15163609","wem/bandit_either","A351P2O6QGTCS","either","8","","","","","","","75","K","2","","0","0","1","0.2820045276","","","166","0.1899742571","","main_expt","0.4","","0.2","0.1917506842","","0.6","","0.8","0.2820045276","0.1621449425","","","","","",""
"362","","bandit","245","736084","0.0-206.0-0.0","15163609","wem/bandit_either","A351P2O6QGTCS","either","8","","","","","","","76","L","3","","0","0","1","0.1695256229","","","167","0.2298880826","","main_expt","0.4","","0.2","0.2238056512","","0.6","","0.8","0.2539690707","0.1695256229","","","","","",""
"433","","bandit","246","738035","0.0-207.0-0.0","15163609","wem/bandit_either","A351P2O6QGTCS","either","8","","","","","","","76","L","3","","0","0","1","","0.1712445676","","168","","0.241220494","main_expt","0.4","0.2132240521","0.2","","0.2177565821","0.6","0.1712445676","0.8","","","","","","","",""
"98","","bandit","247","739650","0.0-208.0-0.0","15163609","wem/bandit_either","A351P2O6QGTCS","either","8","","","","","","","76","L","3","","0","0","1","0.191079104","","","169","0.2113351254","","main_expt","0.4","","0.2","0.1363713625","","0.6","","0.8","0.183214586","0.191079104","","","","","",""
"244","","bandit","248","741414","0.0-209.0-0.0","15163609","wem/bandit_either","A351P2O6QGTCS","either","8","","","","","","","75","K","2","","0","0","1","0.1757282231","","","170","0.2224744884","","main_expt","0.4","","0.2","0.2007690262","","0.6","","0.8","0.1757282231","0.2227666825","","","","","",""
"252","","bandit","249","743185","0.0-210.0-0.0","15163609","wem/bandit_either","A351P2O6QGTCS","either","8","","","","","","","75","K","2","","0","0","1","0.1679331046","","","171","0.262177911","","main_expt","0.4","","0.2","0.1238998316","","0.6","","0.8","0.1679331046","0.2719914804","","","","","",""
"525","","bandit","250","745229","0.0-211.0-0.0","15163609","wem/bandit_either","A351P2O6QGTCS","either","8","","","","","","","75","K","2","","0","0","1","0.14560319","","","172","0.2822992514","","main_expt","0.4","","0.2","0.09746419185","","0.6","","0.8","0.14560319","0.2330128459","","","","","",""
"293","","bandit","251","747039","0.0-212.0-0.0","15163609","wem/bandit_either","A351P2O6QGTCS","either","8","","","","","","","74","J","1","","0","0","1","","0.1018164217","","173","","0.2545762091","main_expt","0.4","0.1018164217","0.2","","0.1341549344","0.6","0.2840251313","0.8","","","","","","","",""
"722","","bandit","252","749280","0.0-213.0-0.0","15163609","wem/bandit_either","A351P2O6QGTCS","either","8","","","","","","","74","J","1","","0","0","1","","0.1401689619","","174","","0.2838184637","main_expt","0.4","0.1401689619","0.2","","0.1471305278","0.6","0.2739042306","0.8","","","","","","","",""
"273","","bandit","253","751071","0.0-214.0-0.0","15163609","wem/bandit_either","A351P2O6QGTCS","either","8","","","","","","","74","J","1","","0","0","1","0.1697524679","","","175","0.3002790513","","main_expt","0.4","","0.2","0.1697524679","","0.6","","0.8","0.173963405","0.3444735506","","","","","",""
"210","","bandit","254","752805","0.0-215.0-0.0","15163609","wem/bandit_either","A351P2O6QGTCS","either","8","","","","","","","72","H","0","img/none_selected.jpg","1","0","0","0.3771690292","","","176","0.3771690292","","main_expt","0.4","","0.2","0.1896898672","","0.6","","0.8","0.1821857965","0.3223017316","","","","","",""
"347","","bandit","255","754670","0.0-216.0-0.0","15163609","wem/bandit_either","A351P2O6QGTCS","either","8","","","","","","","72","H","0","img/none_selected.jpg","0","0","1","0.4047809956","","","177","0.4047809956","","main_expt","0.4","","0.2","0.2441254625","","0.6","","0.8","0.1444884472","0.2964924158","","","","","",""
"471","","bandit","256","756664","0.0-217.0-0.0","15163609","wem/bandit_either","A351P2O6QGTCS","either","8","","","","","","","72","H","0","img/none_selected.jpg","0","0","1","","0.4344960837","","178","","0.4344960837","main_expt","0.4","0.2427722412","0.2","","0.1207783293","0.6","0.2780576925","0.8","","","","","","","",""
"408","","bandit","257","758591","0.0-218.0-0.0","15163609","wem/bandit_either","A351P2O6QGTCS","either","8","","","","","","","72","H","0","img/none_selected.jpg","0","0","1","","0.4287912686","","179","","0.4287912686","main_expt","0.4","0.2284650367","0.2","","0.111585665","0.6","0.2859751729","0.8","","","","","","","",""
"339","","bandit","258","760452","0.0-219.0-0.0","15163609","wem/bandit_either","A351P2O6QGTCS","either","8","","","","","","","74","J","1","","0","0","1","0.2694081366","","","180","0.4294180747","","main_expt","0.4","","0.2","0.2694081366","","0.6","","0.8","0.06891525065","0.283533164","","","","","",""
"320","","bandit","259","762292","0.0-220.0-0.0","15163609","wem/bandit_either","A351P2O6QGTCS","either","8","","","","","","","74","J","1","","0","1","0","","0.2471628034","","181","","0.3887332701","main_expt","0.4","0.2471628034","0.2","","0.07407739619","0.6","0.2430023428","0.8","","","","","","","",""
"313","","bandit","260","764126","0.0-221.0-0.0","15163609","wem/bandit_either","A351P2O6QGTCS","either","8","","","","","","","74","J","1","","0","0","1","","0.275372354","","182","","0.3910635387","main_expt","0.4","0.275372354","0.2","","0.07501704201","0.6","0.223254837","0.8","","","","","","","",""
"305","","bandit","261","765949","0.0-222.0-0.0","15163609","wem/bandit_either","A351P2O6QGTCS","either","8","","","","","","","75","K","2","","0","0","1","0.09354103142","","","183","0.3957792538","","main_expt","0.4","","0.2","0.2378950907","","0.6","","0.8","0.09354103142","0.2274286797","","","","","",""
"312","","bandit","262","767782","0.0-223.0-0.0","15163609","wem/bandit_either","A351P2O6QGTCS","either","8","","","","","","","76","L","3","","0","0","1","0.2485964068","","","184","0.3777829694","","main_expt","0.4","","0.2","0.2611999536","","0.6","","0.8","0.06673830493","0.2485964068","","","","","",""
"257","","bandit","263","769559","0.0-224.0-0.0","15163609","wem/bandit_either","A351P2O6QGTCS","either","8","","","","","","","72","H","0","img/none_selected.jpg","0","0","1","0.4130939835","","","185","0.4130939835","","main_expt","0.4","","0.2","0.2799245071","","0.6","","0.8","0.08617836821","0.2080173303","","","","","",""
"302","","bandit","264","771379","0.0-225.0-0.0","15163609","wem/bandit_either","A351P2O6QGTCS","either","8","","","","","","","74","J","1","","0","0","1","","0.2275386122","","186","","0.376930599","main_expt","0.4","0.2275386122","0.2","","0.05054014018","0.6","0.2538883687","0.8","","","","","","","",""
"277","","bandit","265","773174","0.0-226.0-0.0","15163609","wem/bandit_either","A351P2O6QGTCS","either","8","","","","","","","75","K","2","","0","0","1","0.1101456656","","","187","0.3934592684","","main_expt","0.4","","0.2","0.2558518805","","0.6","","0.8","0.1101456656","0.2267652077","","","","","",""
"165","","bandit","266","774858","0.0-227.0-0.0","15163609","wem/bandit_either","A351P2O6QGTCS","either","8","","","","","","","76","L","3","","0","1","0","","0.2583789709","","188","","0.4086060551","main_expt","0.4","0.2757393749","0.2","","0.1076418148","0.6","0.2583789709","0.8","","","","","","","",""
"318","","bandit","267","776700","0.0-228.0-0.0","15163609","wem/bandit_either","A351P2O6QGTCS","either","8","","","","","","","76","L","3","","0","0","1","0.2329768584","","","189","0.447145564","","main_expt","0.4","","0.2","0.3326758055","","0.6","","0.8","0.1230456027","0.2329768584","","","","","",""
"13","","bandit","268","778236","0.0-229.0-0.0","15163609","wem/bandit_either","A351P2O6QGTCS","either","8","","","","","","","75","K","2","","0","0","1","","0.1872873117","","190","","0.386091063","main_expt","0.4","0.332927569","0.2","","0.1872873117","0.6","0.2002510669","0.8","","","","","","","",""
"316","","bandit","269","780074","0.0-230.0-0.0","15163609","wem/bandit_either","A351P2O6QGTCS","either","8","","","","","","","74","J","1","","0","0","1","0.3859199101","","","191","0.4221145333","","main_expt","0.4","","0.2","0.3859199101","","0.6","","0.8","0.1413073252","0.2182600554","","","","","",""
"56","","bandit","270","781650","0.0-231.0-0.0","15163609","wem/bandit_either","A351P2O6QGTCS","either","8","","","","","","","72","H","0","img/none_selected.jpg","0","1","0","","0.3913199708","","192","","0.3913199708","main_expt","0.4","0.392668484","0.2","","0.1868627967","0.6","0.2681613901","0.8","","","","","","","",""
"328","","bandit","271","783498","0.0-232.0-0.0","15163609","wem/bandit_either","A351P2O6QGTCS","either","8","","","","","","","72","H","0","img/none_selected.jpg","0","0","1","0.4013624592","","","193","0.4013624592","","main_expt","0.4","","0.2","0.3789843676","","0.6","","0.8","0.2312719224","0.3035027483","","","","","",""
"396","","bandit","272","785418","0.0-233.0-0.0","15163609","wem/bandit_either","A351P2O6QGTCS","either","8","","","","","","","76","L","3","","1","0","0","0.275531754","","","194","0.3668237699","","main_expt","0.4","","0.2","0.3689216281","","0.6","","0.8","0.2585201677","0.275531754","","","","","",""
"315","","bandit","273","787253","0.0-234.0-0.0","15163609","wem/bandit_either","A351P2O6QGTCS","either","8","","","","","","","76","L","3","","0","0","1","0.2716401532","","","195","0.3856266791","","main_expt","0.4","","0.2","0.4136905162","","0.6","","0.8","0.2786104129","0.2716401532","","","","","",""
"259","","bandit","274","789032","0.0-235.0-0.0","15163609","wem/bandit_either","A351P2O6QGTCS","either","8","","","","","","","76","L","3","","0","0","1","0.2814611543","","","196","0.3702439493","","main_expt","0.4","","0.2","0.4258575101","","0.6","","0.8","0.2407834285","0.2814611543","","","","","",""
"76","","bandit","275","790630","0.0-236.0-0.0","15163609","wem/bandit_either","A351P2O6QGTCS","either","8","","","","","","","75","K","2","","0","1","0","","0.2550568011","","197","","0.3665926528","main_expt","0.4","0.3976178043","0.2","","0.2550568011","0.6","0.2588010394","0.8","","","","","","","",""
"302","","bandit","276","792456","0.0-237.0-0.0","15163609","wem/bandit_either","A351P2O6QGTCS","either","8","","","","","","","75","K","2","","0","0","1","","0.3094863904","","198","","0.3432124584","main_expt","0.4","0.3802378075","0.2","","0.3094863904","0.6","0.3094610495","0.8","","","","","","","",""
"40","","bandit","277","794016","0.0-238.0-0.0","15163609","wem/bandit_either","A351P2O6QGTCS","either","8","","","","","","","76","L","3","","0","0","1","0.3139278769","","","199","0.4096574544","","main_expt","0.4","","0.2","0.3926800246","","0.6","","0.8","0.3012985694","0.3139278769","","","","","",""
"226","","bandit","278","795765","0.0-239.0-0.0","15163609","wem/bandit_either","A351P2O6QGTCS","either","8","","","","","","","76","L","3","","1","0","0","0.3459706187","","","200","0.3799023259","","main_expt","0.4","","0.2","0.3814844917","","0.6","","0.8","0.3149132519","0.3459706187","","","","","",""
"324","","bandit","279","797608","0.0-240.0-0.0","15163609","wem/bandit_either","A351P2O6QGTCS","either","8","","","","","","","76","L","3","","0","0","1","0.3038365479","","","201","0.3513783521","","main_expt","0.4","","0.2","0.3831630738","","0.6","","0.8","0.3236307962","0.3038365479","","","","","",""
"65","","bandit","280","799196","0.0-241.0-0.0","15163609","wem/bandit_either","A351P2O6QGTCS","either","8","","","","","","","76","L","3","","0","0","1","0.2964599608","","","202","0.3439351057","","main_expt","0.4","","0.2","0.3957430938","","0.6","","0.8","0.3163717903","0.2964599608","","","","","",""
"251","","bandit","281","800966","0.0-242.0-0.0","15163609","wem/bandit_either","A351P2O6QGTCS","either","8","","","","","","","75","K","2","","0","0","1","","0.3165936227","","203","","0.2615327891","main_expt","0.4","0.4175506619","0.2","","0.3165936227","0.6","0.280336616","0.8","","","","","","","",""
"280","","bandit","282","802765","0.0-243.0-0.0","15163609","wem/bandit_either","A351P2O6QGTCS","either","8","","","","","","","75","K","2","","1","0","0","0.3166231072","","","204","0.2211517471","","main_expt","0.4","","0.2","0.4356800279","","0.6","","0.8","0.3166231072","0.262900641","","","","","",""
"354","","bandit","283","804639","0.0-244.0-0.0","15163609","wem/bandit_either","A351P2O6QGTCS","either","8","","","","","","","75","K","2","","0","0","1","0.2983153058","","","205","0.1955747294","","main_expt","0.4","","0.2","0.4342993254","","0.6","","0.8","0.2983153058","0.3403150927","","","","","",""
"366","","bandit","284","806525","0.0-245.0-0.0","15163609","wem/bandit_either","A351P2O6QGTCS","either","8","","","","","","","74","J","1","","0","0","1","0.4515967499","","","206","0.3137251184","","main_expt","0.4","","0.2","0.4515967499","","0.6","","0.8","0.255573156","0.3407188883","","","","","",""
"327","","bandit","285","808372","0.0-246.0-0.0","15163609","wem/bandit_either","A351P2O6QGTCS","either","8","","","","","","","74","J","1","","0","1","0","","0.4559700358","","207","","0.2982459604","main_expt","0.4","0.4559700358","0.2","","0.2816724171","0.6","0.2955601217","0.8","","","","","","","",""
"278","","bandit","286","810171","0.0-247.0-0.0","15163609","wem/bandit_either","A351P2O6QGTCS","either","8","","","","","","","74","J","1","","0","1","0","","0.4711787588","","208","","0.2359404152","main_expt","0.4","0.4711787588","0.2","","0.2462622089","0.6","0.2832193826","0.8","","","","","","","",""
"295","","bandit","287","811986","0.0-248.0-0.0","15163609","wem/bandit_either","A351P2O6QGTCS","either","8","","","","","","","74","J","1","","1","0","0","0.4859779177","","","209","0.2396635106","","main_expt","0.4","","0.2","0.4859779177","","0.6","","0.8","0.2608633631","0.25637755","","","","","",""
"254","","bandit","288","813760","0.0-249.0-0.0","15163609","wem/bandit_either","A351P2O6QGTCS","either","8","","","","","","","74","J","1","","0","0","1","","0.4798195452","","210","","0.2320506775","main_expt","0.4","0.4798195452","0.2","","0.2649708152","0.6","0.2500912527","0.8","","","","","","","",""
"325","","bandit","289","815605","0.0-250.0-0.0","15163609","wem/bandit_either","A351P2O6QGTCS","either","8","","","","","","","74","J","1","","1","0","0","0.4754072522","","","211","0.1894847828","","main_expt","0.4","","0.2","0.4754072522","","0.6","","0.8","0.2658594566","0.2481129288","","","","","",""
"299","","bandit","290","817426","0.0-251.0-0.0","15163609","wem/bandit_either","A351P2O6QGTCS","either","8","","","","","","","74","J","1","","0","1","0","","0.4780703898","","212","","0.2330804604","main_expt","0.4","0.4780703898","0.2","","0.2648449814","0.6","0.3192168596","0.8","","","","","","","",""
"295","","bandit","291","819239","0.0-252.0-0.0","15163609","wem/bandit_either","A351P2O6QGTCS","either","8","","","","","","","74","J","1","","0","0","1","","0.4883488692","","213","","0.2484053244","main_expt","0.4","0.4883488692","0.2","","0.286492297","0.6","0.2361953268","0.8","","","","","","","",""
"291","","bandit","292","821052","0.0-253.0-0.0","15163609","wem/bandit_either","A351P2O6QGTCS","either","8","","","","","","","74","J","1","","0","0","1","","0.4872562331","","214","","0.2182548364","main_expt","0.4","0.4872562331","0.2","","0.2540339129","0.6","0.2308921763","0.8","","","","","","","",""
"144","","bandit","293","822722","0.0-254.0-0.0","15163609","wem/bandit_either","A351P2O6QGTCS","either","8","","","","","","","72","H","0","img/none_selected.jpg","0","1","0","","0.1824073789","","215","","0.1824073789","main_expt","0.4","0.4749609167","0.2","","0.254651127","0.6","0.2161033537","0.8","","","","","","","",""
"474","","bandit","294","824716","0.0-255.0-0.0","15163609","wem/bandit_either","A351P2O6QGTCS","either","8","","","","","","","72","H","0","img/none_selected.jpg","0","1","0","","0.1923730387","","216","","0.1923730387","main_expt","0.4","0.4798413464","0.2","","0.3140517816","0.6","0.1896756427","0.8","","","","","","","",""
"365","","bandit","295","826601","0.0-256.0-0.0","15163609","wem/bandit_either","A351P2O6QGTCS","either","8","","","","","","","72","H","0","img/none_selected.jpg","0","0","1","","0.2266612446","","217","","0.2266612446","main_expt","0.4","0.4865144435","0.2","","0.3338676317","0.6","0.1724286307","0.8","","","","","","","",""
"105","","bandit","296","828228","0.0-257.0-0.0","15163609","wem/bandit_either","A351P2O6QGTCS","either","8","","","","","","","74","J","1","","0","0","1","","0.4789145001","","218","","0.1702705737","main_expt","0.4","0.4789145001","0.2","","0.3397001125","0.6","0.161168334","0.8","","","","","","","",""
"23","","bandit","297","829778","0.0-258.0-0.0","15163609","wem/bandit_either","A351P2O6QGTCS","either","8","","","","","","","74","J","1","","0","0","1","","0.4834748692","","219","","0.1159766116","main_expt","0.4","0.4834748692","0.2","","0.2982528089","0.6","0.2021763003","0.8","","","","","","","",""
"29","","bandit","298","831328","0.0-259.0-0.0","15163609","wem/bandit_either","A351P2O6QGTCS","either","8","","","","","","","75","K","2","","0","0","1","0.2770934022","","","220","0.09529473055","","main_expt","0.4","","0.2","0.4722371777","","0.6","","0.8","0.2770934022","0.2142164272","","","","","",""
"326","","bandit","299","833176","0.0-260.0-0.0","15163609","wem/bandit_either","A351P2O6QGTCS","either","8","","","","","","","75","K","2","","0","0","1","0.2696770889","","","221","0.09060922323","","main_expt","0.4","","0.2","0.4654689219","","0.6","","0.8","0.2696770889","0.189068297","","","","","",""
"190","","bandit","300","834887","0.0-261.0-0.0","15163609","wem/bandit_either","A351P2O6QGTCS","either","8","","","","","","","76","L","3","","1","0","0","0.2120997892","","","222","0.1250772464","","main_expt","0.4","","0.2","0.4533789701","","0.6","","0.8","0.3103502417","0.2120997892","","","","","",""
"304","","bandit","301","836712","0.0-262.0-0.0","15163609","wem/bandit_either","A351P2O6QGTCS","either","8","","","","","","","76","L","3","","0","0","1","0.1937664477","","","223","0.1177235221","","main_expt","0.4","","0.2","0.4473019993","","0.6","","0.8","0.3477728299","0.1937664477","","","","","",""
"164","","bandit","302","838400","0.0-263.0-0.0","15163609","wem/bandit_either","A351P2O6QGTCS","either","8","","","","","","","76","L","3","","0","0","1","0.2195846313","","","224","0.1589673504","","main_expt","0.4","","0.2","0.4651086175","","0.6","","0.8","0.3230244909","0.2195846313","","","","","",""
"23","","bandit","303","839948","0.0-264.0-0.0","15163609","wem/bandit_either","A351P2O6QGTCS","either","8","","","","","","","76","L","3","","0","0","1","0.1973587738","","","225","0.1582937281","","main_expt","0.4","","0.2","0.4704934375","","0.6","","0.8","0.3641913847","0.1973587738","","","","","",""
"253","","bandit","304","841723","0.0-265.0-0.0","15163609","wem/bandit_either","A351P2O6QGTCS","either","8","","","","","","","75","K","2","","0","0","1","0.3211822138","","","226","0.1585786296","","main_expt","0.4","","0.2","0.4545632724","","0.6","","0.8","0.3211822138","0.2029059012","","","","","",""
"317","","bandit","305","843565","0.0-266.0-0.0","15163609","wem/bandit_either","A351P2O6QGTCS","either","8","","","","","","","75","K","2","","1","0","0","0.3318596792","","","227","0.1614007709","","main_expt","0.4","","0.2","0.4313330006","","0.6","","0.8","0.3318596792","0.1677618241","","","","","",""
"335","","bandit","306","845423","0.0-267.0-0.0","15163609","wem/bandit_either","A351P2O6QGTCS","either","8","","","","","","","75","K","2","","0","0","1","","0.3715738924","","228","","0.1160982884","main_expt","0.4","0.4253897179","0.2","","0.3715738924","0.6","0.2079318551","0.8","","","","","","","",""
"274","","bandit","307","847224","0.0-268.0-0.0","15163609","wem/bandit_either","A351P2O6QGTCS","either","8","","","","","","","74","J","1","","1","0","0","0.4416009531","","","229","0.1327168588","","main_expt","0.4","","0.2","0.4416009531","","0.6","","0.8","0.3571583743","0.1860779256","","","","","",""
"320","","bandit","308","849066","0.0-269.0-0.0","15163609","wem/bandit_either","A351P2O6QGTCS","either","8","","","","","","","74","J","1","","0","0","1","0.4612445757","","","230","0.1751239199","","main_expt","0.4","","0.2","0.4612445757","","0.6","","0.8","0.3455313741","0.1294985144","","","","","",""
"460","","bandit","309","851047","0.0-270.0-0.0","15163609","wem/bandit_either","A351P2O6QGTCS","either","8","","","","","","","72","H","0","img/none_selected.jpg","0","1","0","","0.2080149414","","231","","0.2080149414","main_expt","0.4","0.4455927364","0.2","","0.3114256563","0.6","0.1424139305","0.8","","","","","","","",""
"308","","bandit","310","852875","0.0-271.0-0.0","15163609","wem/bandit_either","A351P2O6QGTCS","either","8","","","","","","","72","H","0","img/none_selected.jpg","0","1","0","","0.2305008548","","232","","0.2305008548","main_expt","0.4","0.4449483857","0.2","","0.3127001645","0.6","0.1777617008","0.8","","","","","","","",""
"311","","bandit","311","854709","0.0-272.0-0.0","15163609","wem/bandit_either","A351P2O6QGTCS","either","8","","","","","","","72","H","0","img/none_selected.jpg","0","0","1","","0.2331895239","","233","","0.2331895239","main_expt","0.4","0.4570404202","0.2","","0.2953609795","0.6","0.1408291819","0.8","","","","","","","",""
"21","","bandit","312","856255","0.0-273.0-0.0","15163609","wem/bandit_either","A351P2O6QGTCS","either","8","","","","","","","75","K","2","","0","0","1","0.2743769666","","","234","0.2007149185","","main_expt","0.4","","0.2","0.4785018613","","0.6","","0.8","0.2743769666","0.09563300426","","","","","",""
"373","","bandit","313","858153","0.0-274.0-0.0","15163609","wem/bandit_either","A351P2O6QGTCS","either","8","","","","","","","74","J","1","","0","0","1","","0.4708517218","","235","","0.1428876463","main_expt","0.4","0.4708517218","0.2","","0.2842570603","0.6","0.06508254785","0.8","","","","","","","",""
"40","","bandit","314","859717","0.0-275.0-0.0","15163609","wem/bandit_either","A351P2O6QGTCS","either","8","","","","","","","76","L","3","","0","0","1","0.05272484418","","","236","0.1327756685","","main_expt","0.4","","0.2","0.4721911582","","0.6","","0.8","0.3536106974","0.05272484418","","","","","",""
"267","","bandit","315","861505","0.0-276.0-0.0","15163609","wem/bandit_either","A351P2O6QGTCS","either","8","","","","","","","76","L","3","","0","0","1","0.05000735717","","","237","0.1969646424","","main_expt","0.4","","0.2","0.4567984566","","0.6","","0.8","0.3777879982","0.05000735717","","","","","",""
"407","","bandit","316","863435","0.0-277.0-0.0","15163609","wem/bandit_either","A351P2O6QGTCS","either","8","","","","","","","75","K","2","","0","1","0","","0.3819628943","","238","","0.2040955009","main_expt","0.4","0.4601910044","0.2","","0.3819628943","0.6","0.03409798278","0.8","","","","","","","",""
"327","","bandit","317","865285","0.0-278.0-0.0","15163609","wem/bandit_either","A351P2O6QGTCS","either","8","","","","","","","75","K","2","","0","0","1","0.3590612953","","","239","0.1885012088","","main_expt","0.4","","0.2","0.4663275819","","0.6","","0.8","0.3590612953","0.03555143528","","","","","",""
"330","","bandit","318","867140","0.0-279.0-0.0","15163609","wem/bandit_either","A351P2O6QGTCS","either","8","","","","","","","74","J","1","","0","0","1","","0.4781926851","","240","","0.1779850251","main_expt","0.4","0.4781926851","0.2","","0.3943681209","0.6","0.06633834621","0.8","","","","","","","",""
"220","","bandit","319","868883","0.0-280.0-0.0","15163609","wem/bandit_either","A351P2O6QGTCS","either","8","","","","","","","74","J","1","","0","0","1","","0.4813407325","","241","","0.2132761508","main_expt","0.4","0.4813407325","0.2","","0.4178476804","0.6","0.0332650027","0.8","","","","","","","",""
"96","","bandit","320","870506","0.0-281.0-0.0","15163609","wem/bandit_either","A351P2O6QGTCS","either","8","","","","","","","72","H","0","img/none_selected.jpg","0","0","1","0.2181708985","","","242","0.2181708985","","main_expt","0.4","","0.2","0.4758201438","","0.6","","0.8","0.4083523659","0.03674005559","","","","","",""
"347","","bandit","321","872378","0.0-282.0-0.0","15163609","wem/bandit_either","A351P2O6QGTCS","either","8","","","","","","","72","H","0","img/none_selected.jpg","0","0","1","","0.1880751836","","243","","0.1880751836","main_expt","0.4","0.4739127226","0.2","","0.4107673147","0.6","0.02732183546","0.8","","","","","","","",""
"290","","bandit","322","874195","0.0-283.0-0.0","15163609","wem/bandit_either","A351P2O6QGTCS","either","8","","","","","","","74","J","1","","0","1","0","","0.4467527753","","244","","0.2693527465","main_expt","0.4","0.4467527753","0.2","","0.3914084711","0.6","0.02742276317","0.8","","","","","","","",""
"362","","bandit","323","876080","0.0-284.0-0.0","15163609","wem/bandit_either","A351P2O6QGTCS","either","8","","","","","","","74","J","1","","0","1","0","","0.4492118003","","245","","0.2474629182","main_expt","0.4","0.4492118003","0.2","","0.4117032301","0.6","0.03322496416","0.8","","","","","","","",""
"304","","bandit","324","877910","0.0-285.0-0.0","15163609","wem/bandit_either","A351P2O6QGTCS","either","8","","","","","","","74","J","1","","0","0","1","","0.4702058379","","246","","0.3019125269","main_expt","0.4","0.4702058379","0.2","","0.4225436654","0.6","0.0538648904","0.8","","","","","","","",""
"106","","bandit","325","879539","0.0-286.0-0.0","15163609","wem/bandit_either","A351P2O6QGTCS","either","8","","","","","","","75","K","2","","0","0","1","","0.4327875568","","247","","0.3013832462","main_expt","0.4","0.4717010128","0.2","","0.4327875568","0.6","0.05538537946","0.8","","","","","","","",""
"290","","bandit","326","881352","0.0-287.0-0.0","15163609","wem/bandit_either","A351P2O6QGTCS","either","8","","","","","","","75","K","2","","1","0","0","0.4478523955","","","248","0.2917300956","","main_expt","0.4","","0.2","0.4750055548","","0.6","","0.8","0.4478523955","0.07377210468","","","","","",""
"274","","bandit","327","883153","0.0-288.0-0.0","15163609","wem/bandit_either","A351P2O6QGTCS","either","8","","","","","","","75","K","2","","1","0","0","0.4221620221","","","249","0.2976682537","","main_expt","0.4","","0.2","0.4608113614","","0.6","","0.8","0.4221620221","0.07098242635","","","","","",""
"261","","bandit","328","884940","0.0-289.0-0.0","15163609","wem/bandit_either","A351P2O6QGTCS","either","8","","","","","","","75","K","2","","0","1","0","","0.3998447204","","250","","0.2921609534","main_expt","0.4","0.4361301801","0.2","","0.3998447204","0.6","0.08291081884","0.8","","","","","","","",""
"338","","bandit","329","886802","0.0-290.0-0.0","15163609","wem/bandit_either","A351P2O6QGTCS","either","8","","","","","","","75","K","2","","1","0","0","0.4053116556","","","251","0.3026336231","","main_expt","0.4","","0.2","0.4203652199","","0.6","","0.8","0.4053116556","0.07668358207","","","","","",""
"308","","bandit","330","888635","0.0-291.0-0.0","15163609","wem/bandit_either","A351P2O6QGTCS","either","8","","","","","","","75","K","2","","0","0","1","","0.3780439072","","252","","0.3303824841","main_expt","0.4","0.4465363659","0.2","","0.3780439072","0.6","0.05892609675","0.8","","","","","","","",""
"41","","bandit","331","890198","0.0-292.0-0.0","15163609","wem/bandit_either","A351P2O6QGTCS","either","8","","","","","","","76","L","3","","0","0","1","0.05309255245","","","253","0.3024212104","","main_expt","0.4","","0.2","0.4480562975","","0.6","","0.8","0.4356020742","0.05309255245","","","","","",""
"283","","bandit","332","892008","0.0-293.0-0.0","15163609","wem/bandit_either","A351P2O6QGTCS","either","8","","","","","","","76","L","3","","0","0","1","0.03865169821","","","254","0.3110648486","","main_expt","0.4","","0.2","0.4421075204","","0.6","","0.8","0.4576925499","0.03865169821","","","","","",""
"157","","bandit","333","893689","0.0-294.0-0.0","15163609","wem/bandit_either","A351P2O6QGTCS","either","8","","","","","","","75","K","2","","0","0","1","0.4745940057","","","255","0.2494326665","","main_expt","0.4","","0.2","0.4233433244","","0.6","","0.8","0.4745940057","0.04471370441","","","","","",""
"461","","bandit","334","895685","0.0-295.0-0.0","15163609","wem/bandit_either","A351P2O6QGTCS","either","8","","","","","","","75","K","2","","0","0","1","0.4660064849","","","256","0.1905423543","","main_expt","0.4","","0.2","0.4319893648","","0.6","","0.8","0.4660064849","0.0734058717","","","","","",""
