"rt","responses","trial_type","trial_index","time_elapsed","internal_node_id","subjID","study","MID","cond","drift","key_press","expt_phase","target","like","value","connected","gems","bombs","no_reward","GemPrChosen","BombPrChosen","GainOverPainPr_0","GainOverPainPr_1","GainOverPainPr_2","GainOverPainPr_3","LosePr_0","LosePr_1","LosePr_2","LosePr_3","WinPr_0","WinPr_1","WinPr_2","WinPr_3","Q0","Q1","Q2","gender","age","ethnicity","respCharCode","respKey","respChoiceNum","respChoice","practice","trial_counter","trial_label"
"9672","{""Q0"":""A2WX9BYW5TI8OA""}","survey-text","0","9684","0.0-0.0","15328969","wem/bandit_either","A2WX9BYW5TI8OA","either","5","","","","","","","","","","","","","","","","","","","","","","","","","","","","","","","","","","","",""
"94773","","text","1","105462","0.0-1.0","15328969","wem/bandit_either","A2WX9BYW5TI8OA","either","5","32","","","","","","","","","","","","","","","","","","","","","","","","","","","","","","","","","","",""
"9893","","text","2","115358","0.0-2.0","15328969","wem/bandit_either","A2WX9BYW5TI8OA","either","5","32","","","","","","","","","","","","","","","","","","","","","","","","","","","","","","","","","","",""
"31399","","text","3","146758","0.0-3.0","15328969","wem/bandit_either","A2WX9BYW5TI8OA","either","5","32","","","","","","","","","","","","","","","","","","","","","","","","","","","","","","","","","","",""
"11423","","text","4","158183","0.0-4.0","15328969","wem/bandit_either","A2WX9BYW5TI8OA","either","5","32","","","","","","","","","","","","","","","","","","","","","","","","","","","","","","","","","","",""
"53761","","text","5","211946","0.0-5.0","15328969","wem/bandit_either","A2WX9BYW5TI8OA","either","5","32","","","","","","","","","","","","","","","","","","","","","","","","","","","","","","","","","","",""
"7923","","text","6","219871","0.0-6.0","15328969","wem/bandit_either","A2WX9BYW5TI8OA","either","5","32","","","","","","","","","","","","","","","","","","","","","","","","","","","","","","","","","","",""
"4745","","text","7","224619","0.0-7.0","15328969","wem/bandit_either","A2WX9BYW5TI8OA","either","5","32","","","","","","","","","","","","","","","","","","","","","","","","","","","","","","","","","","",""
"18933","","identification","8","243582","0.0-8.0-0.0","15328969","wem/bandit_either","A2WX9BYW5TI8OA","either","5","","identification_pre","the village of Zur","","","","","","","","","","","","","","","","","","","","","","","","","","","","","","","","",""
"9916","","identification","9","254510","0.0-8.0-1.0","15328969","wem/bandit_either","A2WX9BYW5TI8OA","either","5","","identification_pre","the village of Nyx","","","","","","","","","","","","","","","","","","","","","","","","","","","","","","","","",""
"8119","","text","10","263631","0.0-9.0","15328969","wem/bandit_either","A2WX9BYW5TI8OA","either","5","32","","","","","","","","","","","","","","","","","","","","","","","","","","","","","","","","","","",""
"2342","","text","11","265975","0.0-10.0","15328969","wem/bandit_either","A2WX9BYW5TI8OA","either","5","32","","","","","","","","","","","","","","","","","","","","","","","","","","","","","","","","","","",""
"2456","","text","12","268435","0.0-11.0","15328969","wem/bandit_either","A2WX9BYW5TI8OA","either","5","32","","","","","","","","","","","","","","","","","","","","","","","","","","","","","","","","","","",""
"5411","","text","13","273849","0.0-12.0","15328969","wem/bandit_either","A2WX9BYW5TI8OA","either","5","32","","","","","","","","","","","","","","","","","","","","","","","","","","","","","","","","","","",""
"4999","","bandit","14","280359","0.0-13.0-0.0","15328969","wem/bandit_either","A2WX9BYW5TI8OA","either","5","","","","","","","0","0","1","0","0","","","","","0","","","","0","","","","","","","","","","74","J","0","img/none_selected_demo.jpg","true","0",""
"2317","","bandit","15","284184","0.0-14.0-0.0","15328969","wem/bandit_either","A2WX9BYW5TI8OA","either","5","","","","","","","0","0","1","0","0","","","","","0","","","","0","","","","","","","","","","75","K","0","img/none_selected_demo.jpg","true","0",""
"9023","","text","16","293208","0.0-15.0","15328969","wem/bandit_either","A2WX9BYW5TI8OA","either","5","32","","","","","","","","","","","","","","","","","","","","","","","","","","","","","","","","","","",""
"28766","","text","17","321975","0.0-16.0","15328969","wem/bandit_either","A2WX9BYW5TI8OA","either","5","32","","","","","","","","","","","","","","","","","","","","","","","","","","","","","","","","","","",""
"6967","","text","18","328946","0.0-17.0","15328969","wem/bandit_either","A2WX9BYW5TI8OA","either","5","32","","","","","","","","","","","","","","","","","","","","","","","","","","","","","","","","","","",""
"6358","","text","19","335307","0.0-18.0","15328969","wem/bandit_either","A2WX9BYW5TI8OA","either","5","32","","","","","","","","","","","","","","","","","","","","","","","","","","","","","","","","","","",""
"1976","","bandit","20","338791","0.0-19.0-0.0","15328969","wem/bandit_either","A2WX9BYW5TI8OA","either","5","","","","","","","1","0","0","0.8","","0.5","0.5","","","","","","","0.8","0.2","","","","","","","","","74","J","0","img/none_selected_demo.jpg","true","0","80_20_practice"
"1329","","bandit","21","341631","0.0-19.0-1.0","15328969","wem/bandit_either","A2WX9BYW5TI8OA","either","5","","","","","","","1","0","0","0.8","","0.5","0.5","","","","","","","0.8","0.2","","","","","","","","","74","J","0","img/none_selected_demo.jpg","true","0","80_20_practice"
"611","","bandit","22","343750","0.0-19.0-2.0","15328969","wem/bandit_either","A2WX9BYW5TI8OA","either","5","","","","","","","0","1","0","","0.8","0.5","0.5","","","0.8","0.2","","","","","","","","","","","","","74","J","0","img/none_selected_demo.jpg","true","0","80_20_practice"
"781","","bandit","23","346036","0.0-19.0-3.0","15328969","wem/bandit_either","A2WX9BYW5TI8OA","either","5","","","","","","","1","0","0","0.8","","0.5","0.5","","","","","","","0.8","0.2","","","","","","","","","74","J","0","img/none_selected_demo.jpg","true","0","80_20_practice"
"490","","bandit","24","348031","0.0-19.0-4.0","15328969","wem/bandit_either","A2WX9BYW5TI8OA","either","5","","","","","","","1","0","0","0.8","","0.5","0.5","","","","","","","0.8","0.2","","","","","","","","","74","J","0","img/none_selected_demo.jpg","true","0","80_20_practice"
"561","","bandit","25","350101","0.0-19.0-5.0","15328969","wem/bandit_either","A2WX9BYW5TI8OA","either","5","","","","","","","1","0","0","0.8","","0.5","0.5","","","","","","","0.8","0.2","","","","","","","","","74","J","0","img/none_selected_demo.jpg","true","0","80_20_practice"
"640","","bandit","26","352246","0.0-19.0-6.0","15328969","wem/bandit_either","A2WX9BYW5TI8OA","either","5","","","","","","","0","1","0","","0.8","0.5","0.5","","","0.8","0.2","","","","","","","","","","","","","74","J","0","img/none_selected_demo.jpg","true","0","80_20_practice"
"1506","","bandit","27","355262","0.0-19.0-7.0","15328969","wem/bandit_either","A2WX9BYW5TI8OA","either","5","","","","","","","0","0","1","","0.2","0.5","0.5","","","0.8","0.2","","","","","","","","","","","","","75","K","1","","true","0","80_20_practice"
"2000","","bandit","28","358768","0.0-19.0-8.0","15328969","wem/bandit_either","A2WX9BYW5TI8OA","either","5","","","","","","","0","1","0","","0.8","0.5","0.5","","","0.8","0.2","","","","","","","","","","","","","74","J","0","img/none_selected_demo.jpg","true","0","80_20_practice"
"683","","bandit","29","360956","0.0-19.0-9.0","15328969","wem/bandit_either","A2WX9BYW5TI8OA","either","5","","","","","","","0","1","0","","0.8","0.5","0.5","","","0.8","0.2","","","","","","","","","","","","","74","J","0","img/none_selected_demo.jpg","true","0","80_20_practice"
"336","","bandit","30","362798","0.0-19.0-10.0","15328969","wem/bandit_either","A2WX9BYW5TI8OA","either","5","","","","","","","1","0","0","0.8","","0.5","0.5","","","","","","","0.8","0.2","","","","","","","","","74","J","0","img/none_selected_demo.jpg","true","0","80_20_practice"
"348","","bandit","31","364652","0.0-19.0-11.0","15328969","wem/bandit_either","A2WX9BYW5TI8OA","either","5","","","","","","","1","0","0","0.8","","0.5","0.5","","","","","","","0.8","0.2","","","","","","","","","74","J","0","img/none_selected_demo.jpg","true","0","80_20_practice"
"318","","bandit","32","366478","0.0-19.0-12.0","15328969","wem/bandit_either","A2WX9BYW5TI8OA","either","5","","","","","","","0","0","1","0.8","","0.5","0.5","","","","","","","0.8","0.2","","","","","","","","","74","J","0","img/none_selected_demo.jpg","true","0","80_20_practice"
"327","","bandit","33","368311","0.0-19.0-13.0","15328969","wem/bandit_either","A2WX9BYW5TI8OA","either","5","","","","","","","1","0","0","0.8","","0.5","0.5","","","","","","","0.8","0.2","","","","","","","","","74","J","0","img/none_selected_demo.jpg","true","0","80_20_practice"
"354","","bandit","34","370177","0.0-19.0-14.0","15328969","wem/bandit_either","A2WX9BYW5TI8OA","either","5","","","","","","","0","1","0","","0.8","0.5","0.5","","","0.8","0.2","","","","","","","","","","","","","74","J","0","img/none_selected_demo.jpg","true","0","80_20_practice"
"1017","","bandit","35","372702","0.0-19.0-15.0","15328969","wem/bandit_either","A2WX9BYW5TI8OA","either","5","","","","","","","0","0","1","0.2","","0.5","0.5","","","","","","","0.8","0.2","","","","","","","","","75","K","1","","true","0","80_20_practice"
"340","","bandit","36","374550","0.0-19.0-16.0","15328969","wem/bandit_either","A2WX9BYW5TI8OA","either","5","","","","","","","1","0","0","0.8","","0.5","0.5","","","","","","","0.8","0.2","","","","","","","","","74","J","0","img/none_selected_demo.jpg","true","0","80_20_practice"
"454","","bandit","37","376507","0.0-19.0-17.0","15328969","wem/bandit_either","A2WX9BYW5TI8OA","either","5","","","","","","","1","0","0","0.8","","0.5","0.5","","","","","","","0.8","0.2","","","","","","","","","74","J","0","img/none_selected_demo.jpg","true","0","80_20_practice"
"384","","bandit","38","378398","0.0-19.0-18.0","15328969","wem/bandit_either","A2WX9BYW5TI8OA","either","5","","","","","","","0","1","0","","0.8","0.5","0.5","","","0.8","0.2","","","","","","","","","","","","","74","J","0","img/none_selected_demo.jpg","true","0","80_20_practice"
"332","","bandit","39","380239","0.0-19.0-19.0","15328969","wem/bandit_either","A2WX9BYW5TI8OA","either","5","","","","","","","0","0","1","0.8","","0.5","0.5","","","","","","","0.8","0.2","","","","","","","","","74","J","0","img/none_selected_demo.jpg","true","0","80_20_practice"
"5220","","text","40","385463","0.0-20.0","15328969","wem/bandit_either","A2WX9BYW5TI8OA","either","5","32","","","","","","","","","","","","","","","","","","","","","","","","","","","","","","","","","","",""
"2109","","bandit","41","389077","0.0-21.0-0.0","15328969","wem/bandit_either","A2WX9BYW5TI8OA","either","5","","","","","","","1","0","0","1","0","","","","","0","1","","","1","0","","","","","","","","","74","J","0","img/none_selected_demo.jpg","true","0",""
"13453","","text","42","402534","0.0-22.0","15328969","wem/bandit_either","A2WX9BYW5TI8OA","either","5","32","","","","","","","","","","","","","","","","","","","","","","","","","","","","","","","","","","",""
"6679","","text","43","409217","0.0-23.0","15328969","wem/bandit_either","A2WX9BYW5TI8OA","either","5","32","","","","","","","","","","","","","","","","","","","","","","","","","","","","","","","","","","",""
"2906","","text","44","412127","0.0-24.0","15328969","wem/bandit_either","A2WX9BYW5TI8OA","either","5","32","","","","","","","","","","","","","","","","","","","","","","","","","","","","","","","","","","",""
"3792","","text","45","415922","0.0-25.0","15328969","wem/bandit_either","A2WX9BYW5TI8OA","either","5","32","","","","","","","","","","","","","","","","","","","","","","","","","","","","","","","","","","",""
"7855","","text","46","423784","0.0-26.0","15328969","wem/bandit_either","A2WX9BYW5TI8OA","either","5","32","","","","","","","","","","","","","","","","","","","","","","","","","","","","","","","","","","",""
"2807","","text","47","426593","0.0-27.0","15328969","wem/bandit_either","A2WX9BYW5TI8OA","either","5","32","","","","","","","","","","","","","","","","","","","","","","","","","","","","","","","","","","",""
"3745","","text","48","430343","0.0-28.0","15328969","wem/bandit_either","A2WX9BYW5TI8OA","either","5","32","","","","","","","","","","","","","","","","","","","","","","","","","","","","","","","","","","",""
"3777","","text","49","434122","0.0-29.0","15328969","wem/bandit_either","A2WX9BYW5TI8OA","either","5","32","","","","","","","","","","","","","","","","","","","","","","","","","","","","","","","","","","",""
"4882","","text","50","439008","0.0-30.0","15328969","wem/bandit_either","A2WX9BYW5TI8OA","either","5","32","","","","","","","","","","","","","","","","","","","","","","","","","","","","","","","","","","",""
"1501","","text","51","440511","0.0-31.0","15328969","wem/bandit_either","A2WX9BYW5TI8OA","either","5","32","","","","","","","","","","","","","","","","","","","","","","","","","","","","","","","","","","",""
"11367","","text","52","451879","0.0-32.0","15328969","wem/bandit_either","A2WX9BYW5TI8OA","either","5","32","","","","","","","","","","","","","","","","","","","","","","","","","","","","","","","","","","",""
"995","","bandit","53","454384","0.0-33.0-0.0","15328969","wem/bandit_either","A2WX9BYW5TI8OA","either","5","","","","","","","0","1","0","","0.8","0.5","0.5","0.5","0.5","0.8","0.2","0.6","0.2","","","","","","","","","","","72","H","0","img/none_selected.jpg","true","0","full_practice"
"711","","bandit","54","456607","0.0-33.0-1.0","15328969","wem/bandit_either","A2WX9BYW5TI8OA","either","5","","","","","","","1","0","0","0.8","","0.5","0.5","0.5","0.5","","","","","0.8","0.2","0.6","0.2","","","","","","","72","H","0","img/none_selected.jpg","true","0","full_practice"
"525","","bandit","55","458638","0.0-33.0-2.0","15328969","wem/bandit_either","A2WX9BYW5TI8OA","either","5","","","","","","","0","1","0","","0.8","0.5","0.5","0.5","0.5","0.8","0.2","0.6","0.2","","","","","","","","","","","72","H","0","img/none_selected.jpg","true","0","full_practice"
"721","","bandit","56","460868","0.0-33.0-3.0","15328969","wem/bandit_either","A2WX9BYW5TI8OA","either","5","","","","","","","0","1","0","","0.8","0.5","0.5","0.5","0.5","0.8","0.2","0.6","0.2","","","","","","","","","","","72","H","0","img/none_selected.jpg","true","0","full_practice"
"799","","bandit","57","463175","0.0-33.0-4.0","15328969","wem/bandit_either","A2WX9BYW5TI8OA","either","5","","","","","","","0","0","1","0.6","","0.5","0.5","0.5","0.5","","","","","0.8","0.2","0.6","0.2","","","","","","","75","K","2","","true","0","full_practice"
"1400","","bandit","58","466086","0.0-33.0-5.0","15328969","wem/bandit_either","A2WX9BYW5TI8OA","either","5","","","","","","","0","0","1","0.2","","0.5","0.5","0.5","0.5","","","","","0.8","0.2","0.6","0.2","","","","","","","76","L","3","","true","0","full_practice"
"1355","","bandit","59","468950","0.0-33.0-6.0","15328969","wem/bandit_either","A2WX9BYW5TI8OA","either","5","","","","","","","0","0","1","0.2","","0.5","0.5","0.5","0.5","","","","","0.8","0.2","0.6","0.2","","","","","","","74","J","1","","true","0","full_practice"
"590","","bandit","60","471049","0.0-33.0-7.0","15328969","wem/bandit_either","A2WX9BYW5TI8OA","either","5","","","","","","","1","0","0","0.8","","0.5","0.5","0.5","0.5","","","","","0.8","0.2","0.6","0.2","","","","","","","72","H","0","img/none_selected.jpg","true","0","full_practice"
"363","","bandit","61","472918","0.0-33.0-8.0","15328969","wem/bandit_either","A2WX9BYW5TI8OA","either","5","","","","","","","1","0","0","0.8","","0.5","0.5","0.5","0.5","","","","","0.8","0.2","0.6","0.2","","","","","","","72","H","0","img/none_selected.jpg","true","0","full_practice"
"373","","bandit","62","474800","0.0-33.0-9.0","15328969","wem/bandit_either","A2WX9BYW5TI8OA","either","5","","","","","","","1","0","0","0.8","","0.5","0.5","0.5","0.5","","","","","0.8","0.2","0.6","0.2","","","","","","","72","H","0","img/none_selected.jpg","true","0","full_practice"
"398","","bandit","63","476710","0.0-33.0-10.0","15328969","wem/bandit_either","A2WX9BYW5TI8OA","either","5","","","","","","","0","0","1","","0.8","0.5","0.5","0.5","0.5","0.8","0.2","0.6","0.2","","","","","","","","","","","72","H","0","img/none_selected.jpg","true","0","full_practice"
"1011","","bandit","64","479229","0.0-33.0-11.0","15328969","wem/bandit_either","A2WX9BYW5TI8OA","either","5","","","","","","","0","0","1","0.2","","0.5","0.5","0.5","0.5","","","","","0.8","0.2","0.6","0.2","","","","","","","74","J","1","","true","0","full_practice"
"1095","","bandit","65","481831","0.0-33.0-12.0","15328969","wem/bandit_either","A2WX9BYW5TI8OA","either","5","","","","","","","0","0","1","0.6","","0.5","0.5","0.5","0.5","","","","","0.8","0.2","0.6","0.2","","","","","","","75","K","2","","true","0","full_practice"
"441","","bandit","66","483783","0.0-33.0-13.0","15328969","wem/bandit_either","A2WX9BYW5TI8OA","either","5","","","","","","","0","0","1","0.2","","0.5","0.5","0.5","0.5","","","","","0.8","0.2","0.6","0.2","","","","","","","76","L","3","","true","0","full_practice"
"715","","bandit","67","486010","0.0-33.0-14.0","15328969","wem/bandit_either","A2WX9BYW5TI8OA","either","5","","","","","","","0","0","1","","0.2","0.5","0.5","0.5","0.5","0.8","0.2","0.6","0.2","","","","","","","","","","","76","L","3","","true","0","full_practice"
"884","","bandit","68","488409","0.0-33.0-15.0","15328969","wem/bandit_either","A2WX9BYW5TI8OA","either","5","","","","","","","1","0","0","0.8","","0.5","0.5","0.5","0.5","","","","","0.8","0.2","0.6","0.2","","","","","","","72","H","0","img/none_selected.jpg","true","0","full_practice"
"463","","bandit","69","490381","0.0-33.0-16.0","15328969","wem/bandit_either","A2WX9BYW5TI8OA","either","5","","","","","","","0","1","0","","0.8","0.5","0.5","0.5","0.5","0.8","0.2","0.6","0.2","","","","","","","","","","","72","H","0","img/none_selected.jpg","true","0","full_practice"
"375","","bandit","70","492259","0.0-33.0-17.0","15328969","wem/bandit_either","A2WX9BYW5TI8OA","either","5","","","","","","","0","1","0","","0.8","0.5","0.5","0.5","0.5","0.8","0.2","0.6","0.2","","","","","","","","","","","72","H","0","img/none_selected.jpg","true","0","full_practice"
"329","","bandit","71","494094","0.0-33.0-18.0","15328969","wem/bandit_either","A2WX9BYW5TI8OA","either","5","","","","","","","1","0","0","0.8","","0.5","0.5","0.5","0.5","","","","","0.8","0.2","0.6","0.2","","","","","","","72","H","0","img/none_selected.jpg","true","0","full_practice"
"328","","bandit","72","495934","0.0-33.0-19.0","15328969","wem/bandit_either","A2WX9BYW5TI8OA","either","5","","","","","","","1","0","0","0.8","","0.5","0.5","0.5","0.5","","","","","0.8","0.2","0.6","0.2","","","","","","","72","H","0","img/none_selected.jpg","true","0","full_practice"
"3819","","text","73","499770","0.0-34.0","15328969","wem/bandit_either","A2WX9BYW5TI8OA","either","5","32","","","","","","","","","","","","","","","","","","","","","","","","","","","","","","","","","","",""
"13954","","text","74","514728","0.0-35.0","15328969","wem/bandit_either","A2WX9BYW5TI8OA","either","5","32","","","","","","","","","","","","","","","","","","","","","","","","","","","","","","","","","","",""
"11116","","text","75","525850","0.0-36.0","15328969","wem/bandit_either","A2WX9BYW5TI8OA","either","5","32","","","","","","","","","","","","","","","","","","","","","","","","","","","","","","","","","","",""
"3352","","text","76","529208","0.0-37.0","15328969","wem/bandit_either","A2WX9BYW5TI8OA","either","5","32","","","","","","","","","","","","","","","","","","","","","","","","","","","","","","","","","","",""
"4610","","text","77","533825","0.0-38.0","15328969","wem/bandit_either","A2WX9BYW5TI8OA","either","5","32","","","","","","","","","","","","","","","","","","","","","","","","","","","","","","","","","","",""
"7347","","text","78","541178","0.0-39.0","15328969","wem/bandit_either","A2WX9BYW5TI8OA","either","5","32","","","","","","","","","","","","","","","","","","","","","","","","","","","","","","","","","","",""
"2939","","bandit","79","545630","0.0-40.0-0.0","15328969","wem/bandit_either","A2WX9BYW5TI8OA","either","5","","","","","","","0","0","1","","0.3897275569","0.6","0.2","0.4","0.8","0.3340388524","0.1165465043","0.3897275569","0.4265570961","","","","","","","","","","","75","K","2","","","1","main_expt"
"774","","bandit","80","547911","0.0-41.0-0.0","15328969","wem/bandit_either","A2WX9BYW5TI8OA","either","5","","","","","","","1","0","0","0.4177099958","","0.6","0.2","0.4","0.8","","","","","0.3223834482","0.08371899021","0.3911966266","0.4177099958","","","","","","","76","L","3","","","2","main_expt"
"751","","bandit","81","550174","0.0-42.0-0.0","15328969","wem/bandit_either","A2WX9BYW5TI8OA","either","5","","","","","","","0","0","1","0.4192185534","","0.6","0.2","0.4","0.8","","","","","0.3585509001","0.04339790364","0.4074861021","0.4192185534","","","","","","","76","L","3","","","3","main_expt"
"633","","bandit","82","552318","0.0-43.0-0.0","15328969","wem/bandit_either","A2WX9BYW5TI8OA","either","5","","","","","","","1","0","0","0.4241610434","","0.6","0.2","0.4","0.8","","","","","0.3416436242","0.04073472785","0.3965638453","0.4241610434","","","","","","","76","L","3","","","4","main_expt"
"961","","bandit","83","554792","0.0-44.0-0.0","15328969","wem/bandit_either","A2WX9BYW5TI8OA","either","5","","","","","","","1","0","0","0.4284837315","","0.6","0.2","0.4","0.8","","","","","0.3444758892","0.04731773769","0.3688269119","0.4284837315","","","","","","","76","L","3","","","5","main_expt"
"556","","bandit","84","556854","0.0-45.0-0.0","15328969","wem/bandit_either","A2WX9BYW5TI8OA","either","5","","","","","","","0","0","1","0.4328708062","","0.6","0.2","0.4","0.8","","","","","0.3574177426","0.05617088868","0.3865867917","0.4328708062","","","","","","","76","L","3","","","6","main_expt"
"529","","bandit","85","558894","0.0-46.0-0.0","15328969","wem/bandit_either","A2WX9BYW5TI8OA","either","5","","","","","","","0","0","1","","0.4176545671","0.6","0.2","0.4","0.8","0.3634052143","0.05606577856","0.4294719924","0.4176545671","","","","","","","","","","","76","L","3","","","7","main_expt"
"1188","","bandit","86","561591","0.0-47.0-0.0","15328969","wem/bandit_either","A2WX9BYW5TI8OA","either","5","","","","","","","0","0","1","0.3675420607","","0.6","0.2","0.4","0.8","","","","","0.3675420607","0.09244853328","0.4210378118","0.4022395488","","","","","","","72","H","0","img/none_selected.jpg","","8","main_expt"
"604","","bandit","87","563712","0.0-48.0-0.0","15328969","wem/bandit_either","A2WX9BYW5TI8OA","either","5","","","","","","","0","0","1","","0.3921196104","0.6","0.2","0.4","0.8","0.3921196104","0.1271341085","0.4502112583","0.3929004949","","","","","","","","","","","72","H","0","img/none_selected.jpg","","9","main_expt"
"561","","bandit","88","565783","0.0-49.0-0.0","15328969","wem/bandit_either","A2WX9BYW5TI8OA","either","5","","","","","","","0","0","1","","0.1370717255","0.6","0.2","0.4","0.8","0.4026182126","0.1370717255","0.4452653155","0.3863711448","","","","","","","","","","","74","J","1","","","10","main_expt"
"737","","bandit","89","568030","0.0-50.0-0.0","15328969","wem/bandit_either","A2WX9BYW5TI8OA","either","5","","","","","","","0","1","0","","0.1275050207","0.6","0.2","0.4","0.8","0.3543069494","0.1275050207","0.4352349267","0.4205849279","","","","","","","","","","","74","J","1","","","11","main_expt"
"583","","bandit","90","570127","0.0-51.0-0.0","15328969","wem/bandit_either","A2WX9BYW5TI8OA","either","5","","","","","","","0","0","1","","0.122317004","0.6","0.2","0.4","0.8","0.3504097904","0.122317004","0.4029030639","0.4525069231","","","","","","","","","","","74","J","1","","","12","main_expt"
"465","","bandit","91","572101","0.0-52.0-0.0","15328969","wem/bandit_either","A2WX9BYW5TI8OA","either","5","","","","","","","0","0","1","","0.1251711411","0.6","0.2","0.4","0.8","0.2787441393","0.1251711411","0.4198147105","0.4485799753","","","","","","","","","","","74","J","1","","","13","main_expt"
"345","","bandit","92","573958","0.0-53.0-0.0","15328969","wem/bandit_either","A2WX9BYW5TI8OA","either","5","","","","","","","0","0","1","0.3761312174","","0.6","0.2","0.4","0.8","","","","","0.2723245106","0.1380641988","0.3761312174","0.4504049656","","","","","","","75","K","2","","","14","main_expt"
"335","","bandit","93","575799","0.0-54.0-0.0","15328969","wem/bandit_either","A2WX9BYW5TI8OA","either","5","","","","","","","0","0","1","","0.4017507227","0.6","0.2","0.4","0.8","0.3687644442","0.2010812313","0.4017507227","0.4281165459","","","","","","","","","","","75","K","2","","","15","main_expt"
"1003","","bandit","94","578310","0.0-55.0-0.0","15328969","wem/bandit_either","A2WX9BYW5TI8OA","either","5","","","","","","","0","0","1","0.4035101098","","0.6","0.2","0.4","0.8","","","","","0.3992289848","0.1747275657","0.3859888637","0.4035101098","","","","","","","76","L","3","","","16","main_expt"
"510","","bandit","95","580335","0.0-56.0-0.0","15328969","wem/bandit_either","A2WX9BYW5TI8OA","either","5","","","","","","","0","0","1","","0.1816524112","0.6","0.2","0.4","0.8","0.4067061876","0.1816524112","0.3706978481","0.4063691663","","","","","","","","","","","74","J","1","","","17","main_expt"
"460","","bandit","96","582301","0.0-57.0-0.0","15328969","wem/bandit_either","A2WX9BYW5TI8OA","either","5","","","","","","","0","1","0","","0.1700798448","0.6","0.2","0.4","0.8","0.3969002131","0.1700798448","0.3323991027","0.4201618032","","","","","","","","","","","74","J","1","","","18","main_expt"
"735","","bandit","97","584542","0.0-58.0-0.0","15328969","wem/bandit_either","A2WX9BYW5TI8OA","either","5","","","","","","","0","0","1","","0.1998500639","0.6","0.2","0.4","0.8","0.3930099592","0.1998500639","0.3301718366","0.3868389751","","","","","","","","","","","74","J","1","","","19","main_expt"
"918","","bandit","98","586965","0.0-59.0-0.0","15328969","wem/bandit_either","A2WX9BYW5TI8OA","either","5","","","","","","","0","1","0","","0.3791602553","0.6","0.2","0.4","0.8","0.3791602553","0.2418808817","0.3714618997","0.3868875991","","","","","","","","","","","72","H","0","img/none_selected.jpg","","20","main_expt"
"900","","bandit","99","589382","0.0-60.0-0.0","15328969","wem/bandit_either","A2WX9BYW5TI8OA","either","5","","","","","","","0","0","1","","0.4127515201","0.6","0.2","0.4","0.8","0.4127515201","0.2293341009","0.3621694591","0.4253770554","","","","","","","","","","","72","H","0","img/none_selected.jpg","","21","main_expt"
"565","","bandit","100","591454","0.0-61.0-0.0","15328969","wem/bandit_either","A2WX9BYW5TI8OA","either","5","","","","","","","0","1","0","","0.4164833055","0.6","0.2","0.4","0.8","0.4164833055","0.2074184163","0.3648829928","0.4285762007","","","","","","","","","","","72","H","0","img/none_selected.jpg","","22","main_expt"
"712","","bandit","101","593678","0.0-62.0-0.0","15328969","wem/bandit_either","A2WX9BYW5TI8OA","either","5","","","","","","","0","0","1","0.4143027846","","0.6","0.2","0.4","0.8","","","","","0.4143027846","0.1832507358","0.2856994719","0.4082522222","","","","","","","72","H","0","img/none_selected.jpg","","23","main_expt"
"980","","bandit","102","596165","0.0-63.0-0.0","15328969","wem/bandit_either","A2WX9BYW5TI8OA","either","5","","","","","","","1","0","0","0.3152516524","","0.6","0.2","0.4","0.8","","","","","0.3649270698","0.1469425149","0.3152516524","0.4027270218","","","","","","","75","K","2","","","24","main_expt"
"723","","bandit","103","598401","0.0-64.0-0.0","15328969","wem/bandit_either","A2WX9BYW5TI8OA","either","5","","","","","","","0","1","0","","0.2778145345","0.6","0.2","0.4","0.8","0.392676409","0.102794739","0.2778145345","0.4100212433","","","","","","","","","","","75","K","2","","","25","main_expt"
"605","","bandit","104","600518","0.0-65.0-0.0","15328969","wem/bandit_either","A2WX9BYW5TI8OA","either","5","","","","","","","0","0","1","","0.3170506137","0.6","0.2","0.4","0.8","0.4031565401","0.1173732637","0.3170506137","0.4190791169","","","","","","","","","","","75","K","2","","","26","main_expt"
"564","","bandit","105","602592","0.0-66.0-0.0","15328969","wem/bandit_either","A2WX9BYW5TI8OA","either","5","","","","","","","1","0","0","0.3223143746","","0.6","0.2","0.4","0.8","","","","","0.4245959001","0.08835016803","0.3223143746","0.4527212376","","","","","","","75","K","2","","","27","main_expt"
"782","","bandit","106","604887","0.0-67.0-0.0","15328969","wem/bandit_either","A2WX9BYW5TI8OA","either","5","","","","","","","0","0","1","0.3234472479","","0.6","0.2","0.4","0.8","","","","","0.4232885055","0.1134440288","0.3234472479","0.4480998813","","","","","","","75","K","2","","","28","main_expt"
"535","","bandit","107","606935","0.0-68.0-0.0","15328969","wem/bandit_either","A2WX9BYW5TI8OA","either","5","","","","","","","0","0","1","0.2881425904","","0.6","0.2","0.4","0.8","","","","","0.4495512981","0.1982905849","0.2881425904","0.4628669208","","","","","","","75","K","2","","","29","main_expt"
"436","","bandit","108","608883","0.0-69.0-0.0","15328969","wem/bandit_either","A2WX9BYW5TI8OA","either","5","","","","","","","0","0","1","","0.2366655967","0.6","0.2","0.4","0.8","0.4485299892","0.2366655967","0.2326555855","0.4565655028","","","","","","","","","","","74","J","1","","","30","main_expt"
"527","","bandit","109","610925","0.0-70.0-0.0","15328969","wem/bandit_either","A2WX9BYW5TI8OA","either","5","","","","","","","0","1","0","","0.1622470467","0.6","0.2","0.4","0.8","0.4599237238","0.1622470467","0.2364604256","0.4686031056","","","","","","","","","","","74","J","1","","","31","main_expt"
"709","","bandit","110","613142","0.0-71.0-0.0","15328969","wem/bandit_either","A2WX9BYW5TI8OA","either","5","","","","","","","0","0","1","0.1771911602","","0.6","0.2","0.4","0.8","","","","","0.4508116693","0.1771911602","0.2451982598","0.4659582456","","","","","","","74","J","1","","","32","main_expt"
"556","","bandit","111","615210","0.0-72.0-0.0","15328969","wem/bandit_either","A2WX9BYW5TI8OA","either","5","","","","","","","0","0","1","","0.1622836308","0.6","0.2","0.4","0.8","0.45101727","0.1622836308","0.2360369815","0.4810757035","","","","","","","","","","","74","J","1","","","33","main_expt"
"1060","","bandit","112","617783","0.0-73.0-0.0","15328969","wem/bandit_either","A2WX9BYW5TI8OA","either","5","","","","","","","0","0","1","","0.4340174653","0.6","0.2","0.4","0.8","0.4340174653","0.1655985557","0.2317763892","0.4842727378","","","","","","","","","","","72","H","0","img/none_selected.jpg","","34","main_expt"
"461","","bandit","113","619752","0.0-74.0-0.0","15328969","wem/bandit_either","A2WX9BYW5TI8OA","either","5","","","","","","","0","0","1","0.4040147441","","0.6","0.2","0.4","0.8","","","","","0.4040147441","0.1492797185","0.2527891731","0.4745470136","","","","","","","72","H","0","img/none_selected.jpg","","35","main_expt"
"820","","bandit","114","622087","0.0-75.0-0.0","15328969","wem/bandit_either","A2WX9BYW5TI8OA","either","5","","","","","","","0","0","1","0.4440965139","","0.6","0.2","0.4","0.8","","","","","0.4268829696","0.1504543003","0.2641283143","0.4440965139","","","","","","","76","L","3","","","36","main_expt"
"414","","bandit","115","624015","0.0-76.0-0.0","15328969","wem/bandit_either","A2WX9BYW5TI8OA","either","5","","","","","","","0","0","1","0.4544425755","","0.6","0.2","0.4","0.8","","","","","0.4562327564","0.1064249526","0.2309310423","0.4544425755","","","","","","","76","L","3","","","37","main_expt"
"1052","","bandit","116","626582","0.0-77.0-0.0","15328969","wem/bandit_either","A2WX9BYW5TI8OA","either","5","","","","","","","0","0","1","0.2093170459","","0.6","0.2","0.4","0.8","","","","","0.4481627861","0.1346530267","0.2093170459","0.4700138218","","","","","","","75","K","2","","","38","main_expt"
"400","","bandit","117","628495","0.0-78.0-0.0","15328969","wem/bandit_either","A2WX9BYW5TI8OA","either","5","","","","","","","0","0","1","0.1398625959","","0.6","0.2","0.4","0.8","","","","","0.4475890948","0.1303494481","0.1398625959","0.466948448","","","","","","","75","K","2","","","39","main_expt"
"715","","bandit","118","630719","0.0-79.0-0.0","15328969","wem/bandit_either","A2WX9BYW5TI8OA","either","5","","","","","","","0","0","1","0.1492074344","","0.6","0.2","0.4","0.8","","","","","0.4501575696","0.1492074344","0.09690087606","0.4679256248","","","","","","","74","J","1","","","40","main_expt"
"398","","bandit","119","632631","0.0-80.0-0.0","15328969","wem/bandit_either","A2WX9BYW5TI8OA","either","5","","","","","","","0","0","1","","0.1370672299","0.6","0.2","0.4","0.8","0.4121884666","0.1370672299","0.1129569356","0.445537573","","","","","","","","","","","74","J","1","","","41","main_expt"
"434","","bandit","120","634572","0.0-81.0-0.0","15328969","wem/bandit_either","A2WX9BYW5TI8OA","either","5","","","","","","","0","0","1","0.08144147181","","0.6","0.2","0.4","0.8","","","","","0.4379939247","0.08144147181","0.1227033228","0.4521531226","","","","","","","74","J","1","","","42","main_expt"
"694","","bandit","121","636773","0.0-82.0-0.0","15328969","wem/bandit_either","A2WX9BYW5TI8OA","either","5","","","","","","","1","0","0","0.4695072217","","0.6","0.2","0.4","0.8","","","","","0.4271747655","0.06793865388","0.08393287497","0.4695072217","","","","","","","76","L","3","","","43","main_expt"
"727","","bandit","122","639015","0.0-83.0-0.0","15328969","wem/bandit_either","A2WX9BYW5TI8OA","either","5","","","","","","","0","0","1","0.4807409838","","0.6","0.2","0.4","0.8","","","","","0.4480494518","0.05295344446","0.06260074275","0.4807409838","","","","","","","76","L","3","","","44","main_expt"
"411","","bandit","123","640934","0.0-84.0-0.0","15328969","wem/bandit_either","A2WX9BYW5TI8OA","either","5","","","","","","","1","0","0","0.4507048108","","0.6","0.2","0.4","0.8","","","","","0.4269729589","0.02744239742","0.08062123592","0.4507048108","","","","","","","76","L","3","","","45","main_expt"
"748","","bandit","124","643192","0.0-85.0-0.0","15328969","wem/bandit_either","A2WX9BYW5TI8OA","either","5","","","","","","","0","1","0","","0.4382321206","0.6","0.2","0.4","0.8","0.4475746277","0.02347437243","0.1110847749","0.4382321206","","","","","","","","","","","76","L","3","","","46","main_expt"
"715","","bandit","125","645414","0.0-86.0-0.0","15328969","wem/bandit_either","A2WX9BYW5TI8OA","either","5","","","","","","","0","0","1","0.4393937913","","0.6","0.2","0.4","0.8","","","","","0.4295618238","0.02418160198","0.05346849493","0.4393937913","","","","","","","76","L","3","","","47","main_expt"
"539","","bandit","126","647462","0.0-87.0-0.0","15328969","wem/bandit_either","A2WX9BYW5TI8OA","either","5","","","","","","","1","0","0","0.440318131","","0.6","0.2","0.4","0.8","","","","","0.4431907244","0.01182676654","0.04499733497","0.440318131","","","","","","","76","L","3","","","48","main_expt"
"739","","bandit","127","649708","0.0-88.0-0.0","15328969","wem/bandit_either","A2WX9BYW5TI8OA","either","5","","","","","","","0","1","0","","0.4362102412","0.6","0.2","0.4","0.8","0.4187732916","0.0186287842","0.07378534534","0.4362102412","","","","","","","","","","","76","L","3","","","49","main_expt"
"744","","bandit","128","651960","0.0-89.0-0.0","15328969","wem/bandit_either","A2WX9BYW5TI8OA","either","5","","","","","","","1","0","0","0.44488671","","0.6","0.2","0.4","0.8","","","","","0.356579213","0.02550629551","0.06168845619","0.44488671","","","","","","","76","L","3","","","50","main_expt"
"575","","bandit","129","654052","0.0-90.0-0.0","15328969","wem/bandit_either","A2WX9BYW5TI8OA","either","5","","","","","","","1","0","0","0.4633405548","","0.6","0.2","0.4","0.8","","","","","0.2629404955","0.04366809707","0.1062028567","0.4633405548","","","","","","","76","L","3","","","51","main_expt"
"645","","bandit","130","656207","0.0-91.0-0.0","15328969","wem/bandit_either","A2WX9BYW5TI8OA","either","5","","","","","","","0","1","0","","0.4528043762","0.6","0.2","0.4","0.8","0.2919747068","0.04357168116","0.1379608546","0.4528043762","","","","","","","","","","","76","L","3","","","52","main_expt"
"765","","bandit","131","658487","0.0-92.0-0.0","15328969","wem/bandit_either","A2WX9BYW5TI8OA","either","5","","","","","","","1","0","0","0.4390431751","","0.6","0.2","0.4","0.8","","","","","0.3809901122","0.03899227154","0.1356826849","0.4390431751","","","","","","","76","L","3","","","53","main_expt"
"755","","bandit","132","660758","0.0-93.0-0.0","15328969","wem/bandit_either","A2WX9BYW5TI8OA","either","5","","","","","","","1","0","0","0.4549270822","","0.6","0.2","0.4","0.8","","","","","0.3452518694","0.04009146386","0.1038772241","0.4549270822","","","","","","","76","L","3","","","54","main_expt"
"544","","bandit","133","662816","0.0-94.0-0.0","15328969","wem/bandit_either","A2WX9BYW5TI8OA","either","5","","","","","","","0","0","1","0.4710341864","","0.6","0.2","0.4","0.8","","","","","0.3263112327","0.0155768565","0.1689791829","0.4710341864","","","","","","","76","L","3","","","55","main_expt"
"539","","bandit","134","664864","0.0-95.0-0.0","15328969","wem/bandit_either","A2WX9BYW5TI8OA","either","5","","","","","","","0","0","1","","0.4745834276","0.6","0.2","0.4","0.8","0.3308963945","0.02112461672","0.1108888145","0.4745834276","","","","","","","","","","","76","L","3","","","56","main_expt"
"650","","bandit","135","667023","0.0-96.0-0.0","15328969","wem/bandit_either","A2WX9BYW5TI8OA","either","5","","","","","","","0","0","1","","0.0126553198","0.6","0.2","0.4","0.8","0.3150326571","0.0126553198","0.1206542402","0.489318572","","","","","","","","","","","74","J","1","","","57","main_expt"
"450","","bandit","136","668983","0.0-97.0-0.0","15328969","wem/bandit_either","A2WX9BYW5TI8OA","either","5","","","","","","","0","0","1","","0.01131359515","0.6","0.2","0.4","0.8","0.3049116772","0.01131359515","0.09707343937","0.480037986","","","","","","","","","","","74","J","1","","","58","main_expt"
"1040","","bandit","137","671534","0.0-98.0-0.0","15328969","wem/bandit_either","A2WX9BYW5TI8OA","either","5","","","","","","","0","0","1","","0.3050987947","0.6","0.2","0.4","0.8","0.3050987947","0.01030075821","0.1044384952","0.4593461039","","","","","","","","","","","72","H","0","img/none_selected.jpg","","59","main_expt"
"677","","bandit","138","673726","0.0-99.0-0.0","15328969","wem/bandit_either","A2WX9BYW5TI8OA","either","5","","","","","","","0","0","1","","0.3274009355","0.6","0.2","0.4","0.8","0.3274009355","0.005868957973","0.08890369623","0.446051488","","","","","","","","","","","72","H","0","img/none_selected.jpg","","60","main_expt"
"820","","bandit","139","676053","0.0-100.0-0.0","15328969","wem/bandit_either","A2WX9BYW5TI8OA","either","5","","","","","","","0","0","1","","0.3428943983","0.6","0.2","0.4","0.8","0.3428943983","0.004361943215","0.08921221942","0.4391285327","","","","","","","","","","","72","H","0","img/none_selected.jpg","","61","main_expt"
"445","","bandit","140","678013","0.0-101.0-0.0","15328969","wem/bandit_either","A2WX9BYW5TI8OA","either","5","","","","","","","0","0","1","","0.09812025034","0.6","0.2","0.4","0.8","0.3549763931","0.005208412743","0.09812025034","0.4063883723","","","","","","","","","","","75","K","2","","","62","main_expt"
"422","","bandit","141","679950","0.0-102.0-0.0","15328969","wem/bandit_either","A2WX9BYW5TI8OA","either","5","","","","","","","0","0","1","","0.09006279409","0.6","0.2","0.4","0.8","0.3496678451","0.006461011255","0.09006279409","0.4330387396","","","","","","","","","","","75","K","2","","","63","main_expt"
"468","","bandit","142","681935","0.0-103.0-0.0","15328969","wem/bandit_either","A2WX9BYW5TI8OA","either","5","","","","","","","0","0","1","","0.01267926231","0.6","0.2","0.4","0.8","0.3188537263","0.01267926231","0.1118976224","0.4207902426","","","","","","","","","","","74","J","1","","","64","main_expt"
"429","","bandit","143","683883","0.0-104.0-0.0","15328969","wem/bandit_either","A2WX9BYW5TI8OA","either","5","","","","","","","0","0","1","","0.009732787917","0.6","0.2","0.4","0.8","0.3191795336","0.009732787917","0.1053817613","0.3719582347","","","","","","","","","","","74","J","1","","","65","main_expt"
"366","","bandit","144","685759","0.0-105.0-0.0","15328969","wem/bandit_either","A2WX9BYW5TI8OA","either","5","","","","","","","0","1","0","","0.3748569955","0.6","0.2","0.4","0.8","0.268616347","0.01092542651","0.1307356695","0.3748569955","","","","","","","","","","","76","L","3","","","66","main_expt"
"413","","bandit","145","687686","0.0-106.0-0.0","15328969","wem/bandit_either","A2WX9BYW5TI8OA","either","5","","","","","","","0","0","1","0.335252031","","0.6","0.2","0.4","0.8","","","","","0.259194563","0.02125534741","0.1418436428","0.335252031","","","","","","","76","L","3","","","67","main_expt"
"417","","bandit","146","689614","0.0-107.0-0.0","15328969","wem/bandit_either","A2WX9BYW5TI8OA","either","5","","","","","","","1","0","0","0.3199157278","","0.6","0.2","0.4","0.8","","","","","0.2281204868","0.02360283027","0.1459089566","0.3199157278","","","","","","","76","L","3","","","68","main_expt"
"643","","bandit","147","691767","0.0-108.0-0.0","15328969","wem/bandit_either","A2WX9BYW5TI8OA","either","5","","","","","","","0","0","1","","0.3068525281","0.6","0.2","0.4","0.8","0.2195844169","0.02539305756","0.1809721424","0.3068525281","","","","","","","","","","","76","L","3","","","69","main_expt"
"385","","bandit","148","693662","0.0-109.0-0.0","15328969","wem/bandit_either","A2WX9BYW5TI8OA","either","5","","","","","","","1","0","0","0.3181076016","","0.6","0.2","0.4","0.8","","","","","0.1883338509","0.05014388586","0.1784068974","0.3181076016","","","","","","","76","L","3","","","70","main_expt"
"438","","bandit","149","695616","0.0-110.0-0.0","15328969","wem/bandit_either","A2WX9BYW5TI8OA","either","5","","","","","","","0","0","1","0.2926426422","","0.6","0.2","0.4","0.8","","","","","0.1639708178","0.04209054697","0.1973023396","0.2926426422","","","","","","","76","L","3","","","71","main_expt"
"482","","bandit","150","697613","0.0-111.0-0.0","15328969","wem/bandit_either","A2WX9BYW5TI8OA","either","5","","","","","","","0","0","1","","0.2380263643","0.6","0.2","0.4","0.8","0.1312842785","0.05611199342","0.2436342847","0.2380263643","","","","","","","","","","","76","L","3","","","72","main_expt"
"883","","bandit","151","700005","0.0-112.0-0.0","15328969","wem/bandit_either","A2WX9BYW5TI8OA","either","5","","","","","","","0","0","1","","0.1992173182","0.6","0.2","0.4","0.8","0.1805041857","0.05293238473","0.1992173182","0.2407197948","","","","","","","","","","","75","K","2","","","73","main_expt"
"340","","bandit","152","701856","0.0-113.0-0.0","15328969","wem/bandit_either","A2WX9BYW5TI8OA","either","5","","","","","","","0","0","1","0.2347098304","","0.6","0.2","0.4","0.8","","","","","0.1739557812","0.0318456884","0.2347098304","0.2317468449","","","","","","","75","K","2","","","74","main_expt"
"427","","bandit","153","703799","0.0-114.0-0.0","15328969","wem/bandit_either","A2WX9BYW5TI8OA","either","5","","","","","","","0","0","1","","0.03873230677","0.6","0.2","0.4","0.8","0.2434916027","0.03873230677","0.2641442137","0.2545997551","","","","","","","","","","","74","J","1","","","75","main_expt"
"636","","bandit","154","705943","0.0-115.0-0.0","15328969","wem/bandit_either","A2WX9BYW5TI8OA","either","5","","","","","","","0","0","1","0.03304947682","","0.6","0.2","0.4","0.8","","","","","0.2438468568","0.03304947682","0.3192644053","0.2890845388","","","","","","","74","J","1","","","76","main_expt"
"1340","","bandit","155","708795","0.0-116.0-0.0","15328969","wem/bandit_either","A2WX9BYW5TI8OA","either","5","","","","","","","0","0","1","0.2425324642","","0.6","0.2","0.4","0.8","","","","","0.2425324642","0.02607887458","0.3351132613","0.2386362654","","","","","","","72","H","0","img/none_selected.jpg","","77","main_expt"
"493","","bandit","156","710798","0.0-117.0-0.0","15328969","wem/bandit_either","A2WX9BYW5TI8OA","either","5","","","","","","","0","0","1","0.205588479","","0.6","0.2","0.4","0.8","","","","","0.205588479","0.02492981692","0.3086784207","0.2673679704","","","","","","","72","H","0","img/none_selected.jpg","","78","main_expt"
"493","","bandit","157","712805","0.0-118.0-0.0","15328969","wem/bandit_either","A2WX9BYW5TI8OA","either","5","","","","","","","0","0","1","0.2813811921","","0.6","0.2","0.4","0.8","","","","","0.213062191","0.01824110002","0.3076482073","0.2813811921","","","","","","","76","L","3","","","79","main_expt"
"348","","bandit","158","714662","0.0-119.0-0.0","15328969","wem/bandit_either","A2WX9BYW5TI8OA","either","5","","","","","","","0","0","1","0.2419447949","","0.6","0.2","0.4","0.8","","","","","0.1852926048","0.0202176162","0.3605025214","0.2419447949","","","","","","","76","L","3","","","80","main_expt"
"373","","bandit","159","716548","0.0-120.0-0.0","15328969","wem/bandit_either","A2WX9BYW5TI8OA","either","5","","","","","","","0","0","1","0.323481111","","0.6","0.2","0.4","0.8","","","","","0.2332942271","0.0252752587","0.3286166321","0.323481111","","","","","","","76","L","3","","","81","main_expt"
"438","","bandit","160","718502","0.0-121.0-0.0","15328969","wem/bandit_either","A2WX9BYW5TI8OA","either","5","","","","","","","0","0","1","0.2087797338","","0.6","0.2","0.4","0.8","","","","","0.2087797338","0.05668457717","0.3459677762","0.3097244961","","","","","","","72","H","0","img/none_selected.jpg","","82","main_expt"
"436","","bandit","161","720447","0.0-122.0-0.0","15328969","wem/bandit_either","A2WX9BYW5TI8OA","either","5","","","","","","","1","0","0","0.2049979043","","0.6","0.2","0.4","0.8","","","","","0.2049979043","0.07760530004","0.3092751195","0.2787498647","","","","","","","72","H","0","img/none_selected.jpg","","83","main_expt"
"691","","bandit","162","722655","0.0-123.0-0.0","15328969","wem/bandit_either","A2WX9BYW5TI8OA","either","5","","","","","","","0","0","1","0.2151780091","","0.6","0.2","0.4","0.8","","","","","0.2151780091","0.03696005566","0.3044630387","0.2589524449","","","","","","","72","H","0","img/none_selected.jpg","","84","main_expt"
"426","","bandit","163","724591","0.0-124.0-0.0","15328969","wem/bandit_either","A2WX9BYW5TI8OA","either","5","","","","","","","0","0","1","0.1497615914","","0.6","0.2","0.4","0.8","","","","","0.1497615914","0.04177257934","0.2812480587","0.2769318636","","","","","","","72","H","0","img/none_selected.jpg","","85","main_expt"
"675","","bandit","164","726786","0.0-125.0-0.0","15328969","wem/bandit_either","A2WX9BYW5TI8OA","either","5","","","","","","","0","0","1","","0.1223687677","0.6","0.2","0.4","0.8","0.1223687677","0.0385770192","0.2506532223","0.2849222391","","","","","","","","","","","72","H","0","img/none_selected.jpg","","86","main_expt"
"1232","","bandit","165","729535","0.0-126.0-0.0","15328969","wem/bandit_either","A2WX9BYW5TI8OA","either","5","","","","","","","0","0","1","0.03720252147","","0.6","0.2","0.4","0.8","","","","","0.1472857413","0.03720252147","0.2269900387","0.3131087309","","","","","","","74","J","1","","","87","main_expt"
"435","","bandit","166","731489","0.0-127.0-0.0","15328969","wem/bandit_either","A2WX9BYW5TI8OA","either","5","","","","","","","0","0","1","","0.06746059371","0.6","0.2","0.4","0.8","0.1252586248","0.06746059371","0.1504729919","0.3038587512","","","","","","","","","","","74","J","1","","","88","main_expt"
"583","","bandit","167","733592","0.0-128.0-0.0","15328969","wem/bandit_either","A2WX9BYW5TI8OA","either","5","","","","","","","0","0","1","0.04069757945","","0.6","0.2","0.4","0.8","","","","","0.1194927994","0.04069757945","0.1382070302","0.3308022157","","","","","","","74","J","1","","","89","main_expt"
"464","","bandit","168","735568","0.0-129.0-0.0","15328969","wem/bandit_either","A2WX9BYW5TI8OA","either","5","","","","","","","0","0","1","","0.1364765349","0.6","0.2","0.4","0.8","0.1589750007","0.07325379503","0.1364765349","0.3574922351","","","","","","","","","","","75","K","2","","","90","main_expt"
"428","","bandit","169","737514","0.0-130.0-0.0","15328969","wem/bandit_either","A2WX9BYW5TI8OA","either","5","","","","","","","0","0","1","0.09318196272","","0.6","0.2","0.4","0.8","","","","","0.1859960426","0.06877471811","0.09318196272","0.3729517688","","","","","","","75","K","2","","","91","main_expt"
"468","","bandit","170","739496","0.0-131.0-0.0","15328969","wem/bandit_either","A2WX9BYW5TI8OA","either","5","","","","","","","0","0","1","0.06946097624","","0.6","0.2","0.4","0.8","","","","","0.192419488","0.04115987362","0.06946097624","0.398352994","","","","","","","75","K","2","","","92","main_expt"
"360","","bandit","171","741374","0.0-132.0-0.0","15328969","wem/bandit_either","A2WX9BYW5TI8OA","either","5","","","","","","","0","0","1","0.4135860398","","0.6","0.2","0.4","0.8","","","","","0.1716033463","0.07078892783","0.08102832817","0.4135860398","","","","","","","76","L","3","","","93","main_expt"
"338","","bandit","172","743222","0.0-133.0-0.0","15328969","wem/bandit_either","A2WX9BYW5TI8OA","either","5","","","","","","","0","0","1","0.3786880174","","0.6","0.2","0.4","0.8","","","","","0.1935897604","0.05572868433","0.1271360848","0.3786880174","","","","","","","76","L","3","","","94","main_expt"
"352","","bandit","173","745086","0.0-134.0-0.0","15328969","wem/bandit_either","A2WX9BYW5TI8OA","either","5","","","","","","","0","0","1","0.3823424718","","0.6","0.2","0.4","0.8","","","","","0.2193228015","0.05056929995","0.1097592989","0.3823424718","","","","","","","76","L","3","","","95","main_expt"
"219","","bandit","174","746824","0.0-135.0-0.0","15328969","wem/bandit_either","A2WX9BYW5TI8OA","either","5","","","","","","","0","0","1","","0.3262643469","0.6","0.2","0.4","0.8","0.3262643469","0.04159874267","0.1085490834","0.3642725552","","","","","","","","","","","72","H","0","img/none_selected.jpg","","96","main_expt"
"395","","bandit","175","748737","0.0-136.0-0.0","15328969","wem/bandit_either","A2WX9BYW5TI8OA","either","5","","","","","","","0","0","1","0.3207405496","","0.6","0.2","0.4","0.8","","","","","0.3207405496","0.03654451862","0.1049812554","0.3197717944","","","","","","","72","H","0","img/none_selected.jpg","","97","main_expt"
"439","","bandit","176","750687","0.0-137.0-0.0","15328969","wem/bandit_either","A2WX9BYW5TI8OA","either","5","","","","","","","0","0","1","0.3712856991","","0.6","0.2","0.4","0.8","","","","","0.3712856991","0.04190300095","0.08177978443","0.2514424369","","","","","","","72","H","0","img/none_selected.jpg","","98","main_expt"
"611","","bandit","177","752815","0.0-138.0-0.0","15328969","wem/bandit_either","A2WX9BYW5TI8OA","either","5","","","","","","","0","0","1","","0.07574087804","0.6","0.2","0.4","0.8","0.3740145378","0.08742990617","0.07574087804","0.2926772137","","","","","","","","","","","75","K","2","","","99","main_expt"
"366","","bandit","178","754701","0.0-139.0-0.0","15328969","wem/bandit_either","A2WX9BYW5TI8OA","either","5","","","","","","","0","0","1","0.07829319678","","0.6","0.2","0.4","0.8","","","","","0.3776295542","0.08966523481","0.07829319678","0.234485335","","","","","","","75","K","2","","","100","main_expt"
"555","","bandit","179","756767","0.0-140.0-0.0","15328969","wem/bandit_either","A2WX9BYW5TI8OA","either","5","","","","","","","0","0","1","","0.07849065771","0.6","0.2","0.4","0.8","0.3592666398","0.07849065771","0.07919243683","0.250352175","","","","","","","","","","","74","J","1","","","101","main_expt"
"438","","bandit","180","758717","0.0-141.0-0.0","15328969","wem/bandit_either","A2WX9BYW5TI8OA","either","5","","","","","","","0","0","1","","0.1054267613","0.6","0.2","0.4","0.8","0.3412191773","0.1054267613","0.1052753188","0.2139972863","","","","","","","","","","","74","J","1","","","102","main_expt"
"365","","bandit","181","760591","0.0-142.0-0.0","15328969","wem/bandit_either","A2WX9BYW5TI8OA","either","5","","","","","","","0","0","1","","0.20092706","0.6","0.2","0.4","0.8","0.3133100433","0.1120981937","0.1248526142","0.20092706","","","","","","","","","","","76","L","3","","","103","main_expt"
"373","","bandit","182","762486","0.0-143.0-0.0","15328969","wem/bandit_either","A2WX9BYW5TI8OA","either","5","","","","","","","0","0","1","","0.2305366804","0.6","0.2","0.4","0.8","0.3219148419","0.1034740879","0.142969925","0.2305366804","","","","","","","","","","","76","L","3","","","104","main_expt"
"435","","bandit","183","764428","0.0-144.0-0.0","15328969","wem/bandit_either","A2WX9BYW5TI8OA","either","5","","","","","","","0","0","1","0.2102135581","","0.6","0.2","0.4","0.8","","","","","0.3300892518","0.07597240327","0.13947254","0.2102135581","","","","","","","76","L","3","","","105","main_expt"
"513","","bandit","184","766456","0.0-145.0-0.0","15328969","wem/bandit_either","A2WX9BYW5TI8OA","either","5","","","","","","","1","0","0","0.2219457329","","0.6","0.2","0.4","0.8","","","","","0.3401839058","0.1124257427","0.1329526997","0.2219457329","","","","","","","76","L","3","","","106","main_expt"
"377","","bandit","185","768351","0.0-146.0-0.0","15328969","wem/bandit_either","A2WX9BYW5TI8OA","either","5","","","","","","","0","1","0","","0.3048423019","0.6","0.2","0.4","0.8","0.3784706915","0.1133168519","0.1727290233","0.3048423019","","","","","","","","","","","76","L","3","","","107","main_expt"
"369","","bandit","186","770231","0.0-147.0-0.0","15328969","wem/bandit_either","A2WX9BYW5TI8OA","either","5","","","","","","","0","0","1","","0.258150515","0.6","0.2","0.4","0.8","0.3945753887","0.1752395656","0.1864487031","0.258150515","","","","","","","","","","","76","L","3","","","108","main_expt"
"364","","bandit","187","772112","0.0-148.0-0.0","15328969","wem/bandit_either","A2WX9BYW5TI8OA","either","5","","","","","","","0","0","1","0.1859129148","","0.6","0.2","0.4","0.8","","","","","0.356827327","0.1862973424","0.2463216238","0.1859129148","","","","","","","76","L","3","","","109","main_expt"
"352","","bandit","188","773973","0.0-149.0-0.0","15328969","wem/bandit_either","A2WX9BYW5TI8OA","either","5","","","","","","","0","0","1","","0.2431522628","0.6","0.2","0.4","0.8","0.2344179837","0.2015845776","0.2431522628","0.1371624404","","","","","","","","","","","75","K","2","","","110","main_expt"
"318","","bandit","189","775815","0.0-150.0-0.0","15328969","wem/bandit_either","A2WX9BYW5TI8OA","either","5","","","","","","","0","0","1","0.1757476643","","0.6","0.2","0.4","0.8","","","","","0.2644823096","0.2003651753","0.1757476643","0.1258232978","","","","","","","75","K","2","","","111","main_expt"
"362","","bandit","190","777686","0.0-151.0-0.0","15328969","wem/bandit_either","A2WX9BYW5TI8OA","either","5","","","","","","","0","0","1","","0.2451518953","0.6","0.2","0.4","0.8","0.28311182","0.21392293","0.2451518953","0.1529967373","","","","","","","","","","","75","K","2","","","112","main_expt"
"315","","bandit","191","779509","0.0-152.0-0.0","15328969","wem/bandit_either","A2WX9BYW5TI8OA","either","5","","","","","","","0","0","1","","0.2407836715","0.6","0.2","0.4","0.8","0.2413269532","0.1606798039","0.2407836715","0.148248117","","","","","","","","","","","75","K","2","","","113","main_expt"
"1520","","bandit","192","782544","0.0-153.0-0.0","15328969","wem/bandit_either","A2WX9BYW5TI8OA","either","5","","","","","","","0","0","1","","0.2095980235","0.6","0.2","0.4","0.8","0.3100969134","0.2095980235","0.3099317417","0.1562208239","","","","","","","","","","","74","J","1","","","114","main_expt"
"443","","bandit","193","784511","0.0-154.0-0.0","15328969","wem/bandit_either","A2WX9BYW5TI8OA","either","5","","","","","","","0","0","1","","0.2550279667","0.6","0.2","0.4","0.8","0.329842252","0.2550279667","0.3180754701","0.2138032898","","","","","","","","","","","74","J","1","","","115","main_expt"
"385","","bandit","194","786412","0.0-155.0-0.0","15328969","wem/bandit_either","A2WX9BYW5TI8OA","either","5","","","","","","","0","0","1","","0.2471764387","0.6","0.2","0.4","0.8","0.3223706096","0.2471764387","0.2919742107","0.2331260325","","","","","","","","","","","74","J","1","","","116","main_expt"
"283","","bandit","195","788215","0.0-156.0-0.0","15328969","wem/bandit_either","A2WX9BYW5TI8OA","either","5","","","","","","","0","1","0","","0.2730878341","0.6","0.2","0.4","0.8","0.3098408215","0.2730878341","0.2799774295","0.1826309729","","","","","","","","","","","74","J","1","","","117","main_expt"
"346","","bandit","196","790070","0.0-157.0-0.0","15328969","wem/bandit_either","A2WX9BYW5TI8OA","either","5","","","","","","","1","0","0","0.2071462199","","0.6","0.2","0.4","0.8","","","","","0.2974554567","0.2071462199","0.2646714695","0.1511269107","","","","","","","74","J","1","","","118","main_expt"
"329","","bandit","197","791918","0.0-158.0-0.0","15328969","wem/bandit_either","A2WX9BYW5TI8OA","either","5","","","","","","","0","0","1","","0.2275232499","0.6","0.2","0.4","0.8","0.3598468986","0.2275232499","0.3179839519","0.1559979654","","","","","","","","","","","74","J","1","","","119","main_expt"
"369","","bandit","198","793799","0.0-159.0-0.0","15328969","wem/bandit_either","A2WX9BYW5TI8OA","either","5","","","","","","","0","0","1","0.2767559596","","0.6","0.2","0.4","0.8","","","","","0.2984373086","0.2767559596","0.3302262658","0.1463004055","","","","","","","74","J","1","","","120","main_expt"
"504","","bandit","199","795825","0.0-160.0-0.0","15328969","wem/bandit_either","A2WX9BYW5TI8OA","either","5","","","","","","","0","1","0","","0.2973090059","0.6","0.2","0.4","0.8","0.2973090059","0.3448590315","0.3500549905","0.1418195479","","","","","","","","","","","72","H","0","img/none_selected.jpg","","121","main_expt"
"707","","bandit","200","798048","0.0-161.0-0.0","15328969","wem/bandit_either","A2WX9BYW5TI8OA","either","5","","","","","","","0","0","1","0.3382791822","","0.6","0.2","0.4","0.8","","","","","0.3382791822","0.3593301016","0.2686616284","0.1270782113","","","","","","","72","H","0","img/none_selected.jpg","","122","main_expt"
"476","","bandit","201","800040","0.0-162.0-0.0","15328969","wem/bandit_either","A2WX9BYW5TI8OA","either","5","","","","","","","0","0","1","","0.3154347028","0.6","0.2","0.4","0.8","0.3154347028","0.3680529171","0.2277230314","0.1207154071","","","","","","","","","","","72","H","0","img/none_selected.jpg","","123","main_expt"
"412","","bandit","202","801974","0.0-163.0-0.0","15328969","wem/bandit_either","A2WX9BYW5TI8OA","either","5","","","","","","","0","0","1","","0.2966737815","0.6","0.2","0.4","0.8","0.2966737815","0.3476523483","0.3287090939","0.1229329119","","","","","","","","","","","72","H","0","img/none_selected.jpg","","124","main_expt"
"463","","bandit","203","803954","0.0-164.0-0.0","15328969","wem/bandit_either","A2WX9BYW5TI8OA","either","5","","","","","","","0","0","1","0.09241122996","","0.6","0.2","0.4","0.8","","","","","0.3094831126","0.3564603465","0.3687339586","0.09241122996","","","","","","","76","L","3","","","125","main_expt"
"266","","bandit","204","805744","0.0-165.0-0.0","15328969","wem/bandit_either","A2WX9BYW5TI8OA","either","5","","","","","","","0","0","1","0.08418962236","","0.6","0.2","0.4","0.8","","","","","0.2488993205","0.3550684458","0.3836195774","0.08418962236","","","","","","","76","L","3","","","126","main_expt"
"438","","bandit","205","807703","0.0-166.0-0.0","15328969","wem/bandit_either","A2WX9BYW5TI8OA","either","5","","","","","","","0","0","1","0.154715772","","0.6","0.2","0.4","0.8","","","","","0.1953487027","0.3235559827","0.3617365958","0.154715772","","","","","","","76","L","3","","","127","main_expt"
"527","","bandit","206","809752","0.0-167.0-0.0","15328969","wem/bandit_either","A2WX9BYW5TI8OA","either","5","","","","","","","0","0","1","0.1556709078","","0.6","0.2","0.4","0.8","","","","","0.2171889907","0.312087491","0.3235283493","0.1556709078","","","","","","","76","L","3","","","128","main_expt"
"581","","bandit","207","811856","0.0-168.0-0.0","15328969","wem/bandit_either","A2WX9BYW5TI8OA","either","5","","","","","","","0","0","1","0.3453830546","","0.6","0.2","0.4","0.8","","","","","0.2467699801","0.2843272188","0.3453830546","0.1214200615","","","","","","","75","K","2","","","129","main_expt"
"251","","bandit","208","813631","0.0-169.0-0.0","15328969","wem/bandit_either","A2WX9BYW5TI8OA","either","5","","","","","","","0","0","1","","0.3242747857","0.6","0.2","0.4","0.8","0.2814443482","0.2128416856","0.3242747857","0.1377283829","","","","","","","","","","","75","K","2","","","130","main_expt"
"328","","bandit","209","815482","0.0-170.0-0.0","15328969","wem/bandit_either","A2WX9BYW5TI8OA","either","5","","","","","","","0","1","0","","0.3417201858","0.6","0.2","0.4","0.8","0.2834176508","0.2403879813","0.3417201858","0.1397421628","","","","","","","","","","","75","K","2","","","131","main_expt"
"389","","bandit","210","817391","0.0-171.0-0.0","15328969","wem/bandit_either","A2WX9BYW5TI8OA","either","5","","","","","","","0","1","0","","0.3498614837","0.6","0.2","0.4","0.8","0.2429908031","0.2811421594","0.3498614837","0.1061875113","","","","","","","","","","","75","K","2","","","132","main_expt"
"783","","bandit","211","819687","0.0-172.0-0.0","15328969","wem/bandit_either","A2WX9BYW5TI8OA","either","5","","","","","","","0","1","0","","0.3134828643","0.6","0.2","0.4","0.8","0.3053559495","0.3002858371","0.3134828643","0.07774811701","","","","","","","","","","","75","K","2","","","133","main_expt"
"391","","bandit","212","821600","0.0-173.0-0.0","15328969","wem/bandit_either","A2WX9BYW5TI8OA","either","5","","","","","","","0","0","1","0.3554593188","","0.6","0.2","0.4","0.8","","","","","0.2693478067","0.277406375","0.3554593188","0.08211281178","","","","","","","75","K","2","","","134","main_expt"
"272","","bandit","213","823382","0.0-174.0-0.0","15328969","wem/bandit_either","A2WX9BYW5TI8OA","either","5","","","","","","","1","0","0","0.3150900126","","0.6","0.2","0.4","0.8","","","","","0.3369166079","0.2897147582","0.3150900126","0.1123817552","","","","","","","75","K","2","","","135","main_expt"
"350","","bandit","214","825254","0.0-175.0-0.0","15328969","wem/bandit_either","A2WX9BYW5TI8OA","either","5","","","","","","","0","0","1","0.3199395785","","0.6","0.2","0.4","0.8","","","","","0.268603144","0.3590576628","0.3199395785","0.1478339482","","","","","","","75","K","2","","","136","main_expt"
"346","","bandit","215","827112","0.0-176.0-0.0","15328969","wem/bandit_either","A2WX9BYW5TI8OA","either","5","","","","","","","0","0","1","","0.33362357","0.6","0.2","0.4","0.8","0.2373427956","0.3822427384","0.33362357","0.1374936615","","","","","","","","","","","75","K","2","","","137","main_expt"
"295","","bandit","216","828917","0.0-177.0-0.0","15328969","wem/bandit_either","A2WX9BYW5TI8OA","either","5","","","","","","","0","1","0","","0.3611324022","0.6","0.2","0.4","0.8","0.2206869265","0.3410071165","0.3611324022","0.159761955","","","","","","","","","","","75","K","2","","","138","main_expt"
"342","","bandit","217","830776","0.0-178.0-0.0","15328969","wem/bandit_either","A2WX9BYW5TI8OA","either","5","","","","","","","0","1","0","","0.3504145086","0.6","0.2","0.4","0.8","0.2177966349","0.3738014659","0.3504145086","0.1363721132","","","","","","","","","","","75","K","2","","","139","main_expt"
"350","","bandit","218","832636","0.0-179.0-0.0","15328969","wem/bandit_either","A2WX9BYW5TI8OA","either","5","","","","","","","0","0","1","","0.309774603","0.6","0.2","0.4","0.8","0.2387685432","0.422575493","0.309774603","0.1031445192","","","","","","","","","","","75","K","2","","","140","main_expt"
"226","","bandit","219","834374","0.0-180.0-0.0","15328969","wem/bandit_either","A2WX9BYW5TI8OA","either","5","","","","","","","0","0","1","0.3506531288","","0.6","0.2","0.4","0.8","","","","","0.2575087366","0.4439129864","0.3506531288","0.09805286369","","","","","","","75","K","2","","","141","main_expt"
"519","","bandit","220","836416","0.0-181.0-0.0","15328969","wem/bandit_either","A2WX9BYW5TI8OA","either","5","","","","","","","0","0","1","0.4323802182","","0.6","0.2","0.4","0.8","","","","","0.2392038972","0.4323802182","0.2965027242","0.1149002948","","","","","","","74","J","1","","","142","main_expt"
"328","","bandit","221","838264","0.0-182.0-0.0","15328969","wem/bandit_either","A2WX9BYW5TI8OA","either","5","","","","","","","0","1","0","","0.4358412593","0.6","0.2","0.4","0.8","0.2216470548","0.4358412593","0.2087517366","0.1209542099","","","","","","","","","","","74","J","1","","","143","main_expt"
"685","","bandit","222","840472","0.0-183.0-0.0","15328969","wem/bandit_either","A2WX9BYW5TI8OA","either","5","","","","","","","0","0","1","","0.4407373256","0.6","0.2","0.4","0.8","0.2224896139","0.4407373256","0.2313605626","0.1202521083","","","","","","","","","","","74","J","1","","","144","main_expt"
"196","","bandit","223","842190","0.0-184.0-0.0","15328969","wem/bandit_either","A2WX9BYW5TI8OA","either","5","","","","","","","0","0","1","","0.4661091035","0.6","0.2","0.4","0.8","0.1925605464","0.4661091035","0.1785565547","0.1619743669","","","","","","","","","","","74","J","1","","","145","main_expt"
"344","","bandit","224","844057","0.0-185.0-0.0","15328969","wem/bandit_either","A2WX9BYW5TI8OA","either","5","","","","","","","0","0","1","","0.4637097668","0.6","0.2","0.4","0.8","0.2069800611","0.4637097668","0.1770660648","0.1664631043","","","","","","","","","","","74","J","1","","","146","main_expt"
"324","","bandit","225","845901","0.0-186.0-0.0","15328969","wem/bandit_either","A2WX9BYW5TI8OA","either","5","","","","","","","0","0","1","","0.4700491642","0.6","0.2","0.4","0.8","0.2489662189","0.4700491642","0.1063371611","0.1669241763","","","","","","","","","","","74","J","1","","","147","main_expt"
"1065","","bandit","226","848479","0.0-187.0-0.0","15328969","wem/bandit_either","A2WX9BYW5TI8OA","either","5","","","","","","","0","0","1","0.1946464158","","0.6","0.2","0.4","0.8","","","","","0.1946464158","0.4648109734","0.1216370817","0.1581456949","","","","","","","72","H","0","img/none_selected.jpg","","148","main_expt"
"465","","bandit","227","850455","0.0-188.0-0.0","15328969","wem/bandit_either","A2WX9BYW5TI8OA","either","5","","","","","","","0","1","0","","0.1826562491","0.6","0.2","0.4","0.8","0.1826562491","0.4635511513","0.1024256959","0.1698392466","","","","","","","","","","","72","H","0","img/none_selected.jpg","","149","main_expt"
"439","","bandit","228","852407","0.0-189.0-0.0","15328969","wem/bandit_either","A2WX9BYW5TI8OA","either","5","","","","","","","0","1","0","","0.1750473563","0.6","0.2","0.4","0.8","0.1750473563","0.4445017148","0.1371094633","0.2140114634","","","","","","","","","","","72","H","0","img/none_selected.jpg","","150","main_expt"
"390","","bandit","229","854311","0.0-190.0-0.0","15328969","wem/bandit_either","A2WX9BYW5TI8OA","either","5","","","","","","","0","0","1","","0.1109536645","0.6","0.2","0.4","0.8","0.1109536645","0.4434799742","0.1702433702","0.2392960001","","","","","","","","","","","72","H","0","img/none_selected.jpg","","151","main_expt"
"793","","bandit","230","856612","0.0-191.0-0.0","15328969","wem/bandit_either","A2WX9BYW5TI8OA","either","5","","","","","","","0","0","1","0.2095863317","","0.6","0.2","0.4","0.8","","","","","0.1143086707","0.4451665291","0.1860489046","0.2095863317","","","","","","","76","L","3","","","152","main_expt"
"366","","bandit","231","858491","0.0-192.0-0.0","15328969","wem/bandit_either","A2WX9BYW5TI8OA","either","5","","","","","","","1","0","0","0.2543258611","","0.6","0.2","0.4","0.8","","","","","0.1236290712","0.4401532833","0.2117094388","0.2543258611","","","","","","","76","L","3","","","153","main_expt"
"2668","","bandit","232","862669","0.0-193.0-0.0","15328969","wem/bandit_either","A2WX9BYW5TI8OA","either","5","","","","","","","0","0","1","","0.2602259906","0.6","0.2","0.4","0.8","0.1600695342","0.4516855879","0.2072389033","0.2602259906","","","","","","","","","","","76","L","3","","","154","main_expt"
"850","","bandit","233","865028","0.0-194.0-0.0","15328969","wem/bandit_either","A2WX9BYW5TI8OA","either","5","","","","","","","0","0","1","","0.2750581274","0.6","0.2","0.4","0.8","0.1770288166","0.4480264808","0.1986333914","0.2750581274","","","","","","","","","","","76","L","3","","","155","main_expt"
"580","","bandit","234","867117","0.0-195.0-0.0","15328969","wem/bandit_either","A2WX9BYW5TI8OA","either","5","","","","","","","0","0","1","","0.1761817894","0.6","0.2","0.4","0.8","0.1761817894","0.4260414265","0.2054640346","0.2438045727","","","","","","","","","","","72","H","0","img/none_selected.jpg","","156","main_expt"
"280","","bandit","235","868923","0.0-196.0-0.0","15328969","wem/bandit_either","A2WX9BYW5TI8OA","either","5","","","","","","","0","0","1","","0.1998830888","0.6","0.2","0.4","0.8","0.1998830888","0.4365201507","0.1810715383","0.2857025143","","","","","","","","","","","72","H","0","img/none_selected.jpg","","157","main_expt"
"393","","bandit","236","870840","0.0-197.0-0.0","15328969","wem/bandit_either","A2WX9BYW5TI8OA","either","5","","","","","","","0","0","1","","0.4076244479","0.6","0.2","0.4","0.8","0.2150354531","0.4076244479","0.2118906364","0.2887719476","","","","","","","","","","","74","J","1","","","158","main_expt"
"317","","bandit","237","872680","0.0-198.0-0.0","15328969","wem/bandit_either","A2WX9BYW5TI8OA","either","5","","","","","","","0","1","0","","0.403953851","0.6","0.2","0.4","0.8","0.2221069796","0.403953851","0.2293976715","0.2859462397","","","","","","","","","","","74","J","1","","","159","main_expt"
"401","","bandit","238","874591","0.0-199.0-0.0","15328969","wem/bandit_either","A2WX9BYW5TI8OA","either","5","","","","","","","0","1","0","","0.4282135537","0.6","0.2","0.4","0.8","0.2627335039","0.4282135537","0.2186051381","0.207432816","","","","","","","","","","","74","J","1","","","160","main_expt"
"432","","bandit","239","876533","0.0-200.0-0.0","15328969","wem/bandit_either","A2WX9BYW5TI8OA","either","5","","","","","","","0","0","1","","0.4479073124","0.6","0.2","0.4","0.8","0.2922457848","0.4479073124","0.2175927206","0.1611694724","","","","","","","","","","","74","J","1","","","161","main_expt"
"341","","bandit","240","878389","0.0-201.0-0.0","15328969","wem/bandit_either","A2WX9BYW5TI8OA","either","5","","","","","","","0","1","0","","0.4456201243","0.6","0.2","0.4","0.8","0.3040212123","0.4456201243","0.2370404117","0.14378348","","","","","","","","","","","74","J","1","","","162","main_expt"
"629","","bandit","241","880528","0.0-202.0-0.0","15328969","wem/bandit_either","A2WX9BYW5TI8OA","either","5","","","","","","","0","1","0","","0.4384930657","0.6","0.2","0.4","0.8","0.2933359027","0.4384930657","0.2778780432","0.1707099899","","","","","","","","","","","74","J","1","","","163","main_expt"
"447","","bandit","242","882486","0.0-203.0-0.0","15328969","wem/bandit_either","A2WX9BYW5TI8OA","either","5","","","","","","","1","0","0","0.4231568034","","0.6","0.2","0.4","0.8","","","","","0.2388203062","0.4231568034","0.2643388611","0.1933693166","","","","","","","74","J","1","","","164","main_expt"
"383","","bandit","243","884391","0.0-204.0-0.0","15328969","wem/bandit_either","A2WX9BYW5TI8OA","either","5","","","","","","","0","0","1","0.4412535734","","0.6","0.2","0.4","0.8","","","","","0.2646204916","0.4412535734","0.1967204453","0.2406324952","","","","","","","74","J","1","","","165","main_expt"
"375","","bandit","244","886277","0.0-205.0-0.0","15328969","wem/bandit_either","A2WX9BYW5TI8OA","either","5","","","","","","","0","1","0","","0.438364003","0.6","0.2","0.4","0.8","0.2591758032","0.438364003","0.1567937345","0.2650462377","","","","","","","","","","","74","J","1","","","166","main_expt"
"390","","bandit","245","888183","0.0-206.0-0.0","15328969","wem/bandit_either","A2WX9BYW5TI8OA","either","5","","","","","","","1","0","0","0.4290991351","","0.6","0.2","0.4","0.8","","","","","0.1955934818","0.4290991351","0.1201482918","0.245875583","","","","","","","74","J","1","","","167","main_expt"
"391","","bandit","246","890097","0.0-207.0-0.0","15328969","wem/bandit_either","A2WX9BYW5TI8OA","either","5","","","","","","","0","1","0","","0.4510860662","0.6","0.2","0.4","0.8","0.2090603634","0.4510860662","0.0936051119","0.257303599","","","","","","","","","","","74","J","1","","","168","main_expt"
"440","","bandit","247","892047","0.0-208.0-0.0","15328969","wem/bandit_either","A2WX9BYW5TI8OA","either","5","","","","","","","0","0","1","0.4491424364","","0.6","0.2","0.4","0.8","","","","","0.2678479696","0.4491424364","0.08775096918","0.2993732043","","","","","","","74","J","1","","","169","main_expt"
"457","","bandit","248","894015","0.0-209.0-0.0","15328969","wem/bandit_either","A2WX9BYW5TI8OA","either","5","","","","","","","0","1","0","","0.4332244901","0.6","0.2","0.4","0.8","0.2532125956","0.4332244901","0.06743429675","0.3388977639","","","","","","","","","","","74","J","1","","","170","main_expt"
"397","","bandit","249","895932","0.0-210.0-0.0","15328969","wem/bandit_either","A2WX9BYW5TI8OA","either","5","","","","","","","0","1","0","","0.4405036994","0.6","0.2","0.4","0.8","0.2568627054","0.4405036994","0.05979118822","0.2947926635","","","","","","","","","","","74","J","1","","","171","main_expt"
"397","","bandit","250","897837","0.0-211.0-0.0","15328969","wem/bandit_either","A2WX9BYW5TI8OA","either","5","","","","","","","0","0","1","","0.4358521759","0.6","0.2","0.4","0.8","0.2451563353","0.4358521759","0.03200499914","0.2892529657","","","","","","","","","","","74","J","1","","","172","main_expt"
"346","","bandit","251","899710","0.0-212.0-0.0","15328969","wem/bandit_either","A2WX9BYW5TI8OA","either","5","","","","","","","0","0","1","","0.4471617722","0.6","0.2","0.4","0.8","0.3003395367","0.4471617722","0.04613358223","0.2571917514","","","","","","","","","","","74","J","1","","","173","main_expt"
"371","","bandit","252","901590","0.0-213.0-0.0","15328969","wem/bandit_either","A2WX9BYW5TI8OA","either","5","","","","","","","0","1","0","","0.4560251174","0.6","0.2","0.4","0.8","0.2545998681","0.4560251174","0.05969677181","0.244173221","","","","","","","","","","","74","J","1","","","174","main_expt"
"362","","bandit","253","903471","0.0-214.0-0.0","15328969","wem/bandit_either","A2WX9BYW5TI8OA","either","5","","","","","","","0","0","1","0.4379349024","","0.6","0.2","0.4","0.8","","","","","0.3383135611","0.4379349024","0.05930066603","0.2038098688","","","","","","","74","J","1","","","175","main_expt"
"351","","bandit","254","905342","0.0-215.0-0.0","15328969","wem/bandit_either","A2WX9BYW5TI8OA","either","5","","","","","","","0","0","1","","0.4328841116","0.6","0.2","0.4","0.8","0.3880627729","0.4328841116","0.08110879181","0.2053823003","","","","","","","","","","","74","J","1","","","176","main_expt"
"322","","bandit","255","907175","0.0-216.0-0.0","15328969","wem/bandit_either","A2WX9BYW5TI8OA","either","5","","","","","","","0","1","0","","0.3965365967","0.6","0.2","0.4","0.8","0.3920994557","0.3965365967","0.07611568943","0.2193083282","","","","","","","","","","","74","J","1","","","177","main_expt"
"322","","bandit","256","909007","0.0-217.0-0.0","15328969","wem/bandit_either","A2WX9BYW5TI8OA","either","5","","","","","","","0","1","0","","0.3899234309","0.6","0.2","0.4","0.8","0.3882277994","0.3899234309","0.1220467165","0.1904263594","","","","","","","","","","","74","J","1","","","178","main_expt"
"661","","bandit","257","911191","0.0-218.0-0.0","15328969","wem/bandit_either","A2WX9BYW5TI8OA","either","5","","","","","","","0","0","1","","0.4238443777","0.6","0.2","0.4","0.8","0.3939691408","0.4238443777","0.1698853315","0.2212788648","","","","","","","","","","","74","J","1","","","179","main_expt"
"152","","bandit","258","912853","0.0-219.0-0.0","15328969","wem/bandit_either","A2WX9BYW5TI8OA","either","5","","","","","","","0","1","0","","0.4487400994","0.6","0.2","0.4","0.8","0.4074656662","0.4487400994","0.1374762061","0.2640717145","","","","","","","","","","","74","J","1","","","180","main_expt"
"368","","bandit","259","914738","0.0-220.0-0.0","15328969","wem/bandit_either","A2WX9BYW5TI8OA","either","5","","","","","","","0","0","1","","0.4314573438","0.6","0.2","0.4","0.8","0.3724421945","0.4314573438","0.09961924189","0.2426483564","","","","","","","","","","","74","J","1","","","181","main_expt"
"258","","bandit","260","916519","0.0-221.0-0.0","15328969","wem/bandit_either","A2WX9BYW5TI8OA","either","5","","","","","","","0","0","1","0.2001563476","","0.6","0.2","0.4","0.8","","","","","0.2998177931","0.4458059303","0.1391043194","0.2001563476","","","","","","","76","L","3","","","182","main_expt"
"332","","bandit","261","918375","0.0-222.0-0.0","15328969","wem/bandit_either","A2WX9BYW5TI8OA","either","5","","","","","","","0","1","0","","0.2167094124","0.6","0.2","0.4","0.8","0.3629728763","0.4485460149","0.1336424596","0.2167094124","","","","","","","","","","","76","L","3","","","183","main_expt"
"414","","bandit","262","920309","0.0-223.0-0.0","15328969","wem/bandit_either","A2WX9BYW5TI8OA","either","5","","","","","","","0","0","1","","0.2402813617","0.6","0.2","0.4","0.8","0.3763603645","0.4078350507","0.115911235","0.2402813617","","","","","","","","","","","76","L","3","","","184","main_expt"
"176","","bandit","263","921997","0.0-224.0-0.0","15328969","wem/bandit_either","A2WX9BYW5TI8OA","either","5","","","","","","","1","0","0","0.2745112141","","0.6","0.2","0.4","0.8","","","","","0.3472982705","0.3805788675","0.1394203739","0.2745112141","","","","","","","76","L","3","","","185","main_expt"
"315","","bandit","264","923823","0.0-225.0-0.0","15328969","wem/bandit_either","A2WX9BYW5TI8OA","either","5","","","","","","","0","0","1","0.2774566956","","0.6","0.2","0.4","0.8","","","","","0.3095995051","0.4236809331","0.1557479742","0.2774566956","","","","","","","76","L","3","","","186","main_expt"
"93","","bandit","265","925449","0.0-226.0-0.0","15328969","wem/bandit_either","A2WX9BYW5TI8OA","either","5","","","","","","","0","0","1","0.2876011691","","0.6","0.2","0.4","0.8","","","","","0.2567332284","0.4058627081","0.1823611596","0.2876011691","","","","","","","76","L","3","","","187","main_expt"
"2044","","bandit","266","929008","0.0-227.0-0.0","15328969","wem/bandit_either","A2WX9BYW5TI8OA","either","5","","","","","","","1","0","0","0.2947112378","","0.6","0.2","0.4","0.8","","","","","0.2555256861","0.3913346521","0.1854179297","0.2947112378","","","","","","","76","L","3","","","188","main_expt"
"627","","bandit","267","931160","0.0-228.0-0.0","15328969","wem/bandit_either","A2WX9BYW5TI8OA","either","5","","","","","","","0","0","1","","0.2581494","0.6","0.2","0.4","0.8","0.2009875262","0.3760164219","0.1875645599","0.2581494","","","","","","","","","","","76","L","3","","","189","main_expt"
"412","","bandit","268","933095","0.0-229.0-0.0","15328969","wem/bandit_either","A2WX9BYW5TI8OA","either","5","","","","","","","0","0","1","0.1756323468","","0.6","0.2","0.4","0.8","","","","","0.2055488595","0.3327352817","0.2018323604","0.1756323468","","","","","","","76","L","3","","","190","main_expt"
"364","","bandit","269","934983","0.0-230.0-0.0","15328969","wem/bandit_either","A2WX9BYW5TI8OA","either","5","","","","","","","0","0","1","","0.221094727","0.6","0.2","0.4","0.8","0.1506387864","0.3015177445","0.221094727","0.2521570866","","","","","","","","","","","75","K","2","","","191","main_expt"
"336","","bandit","270","936843","0.0-231.0-0.0","15328969","wem/bandit_either","A2WX9BYW5TI8OA","either","5","","","","","","","0","0","1","","0.2320570195","0.6","0.2","0.4","0.8","0.2027442266","0.2773298268","0.2320570195","0.2964739449","","","","","","","","","","","75","K","2","","","192","main_expt"
"347","","bandit","271","938712","0.0-232.0-0.0","15328969","wem/bandit_either","A2WX9BYW5TI8OA","either","5","","","","","","","0","0","1","0.2948950962","","0.6","0.2","0.4","0.8","","","","","0.1969137872","0.2836613797","0.2948950962","0.2612966838","","","","","","","75","K","2","","","193","main_expt"
"380","","bandit","272","940616","0.0-233.0-0.0","15328969","wem/bandit_either","A2WX9BYW5TI8OA","either","5","","","","","","","0","0","1","","0.2799350415","0.6","0.2","0.4","0.8","0.2114994946","0.2799350415","0.2602906927","0.3292914436","","","","","","","","","","","74","J","1","","","194","main_expt"
"439","","bandit","273","942583","0.0-234.0-0.0","15328969","wem/bandit_either","A2WX9BYW5TI8OA","either","5","","","","","","","0","0","1","","0.2068597772","0.6","0.2","0.4","0.8","0.2467939011","0.2068597772","0.1771499101","0.4070308407","","","","","","","","","","","74","J","1","","","195","main_expt"
"462","","bandit","274","944560","0.0-235.0-0.0","15328969","wem/bandit_either","A2WX9BYW5TI8OA","either","5","","","","","","","0","0","1","0.2731811988","","0.6","0.2","0.4","0.8","","","","","0.2731811988","0.2679469531","0.1746274925","0.3494820729","","","","","","","72","H","0","img/none_selected.jpg","","196","main_expt"
"443","","bandit","275","946528","0.0-236.0-0.0","15328969","wem/bandit_either","A2WX9BYW5TI8OA","either","5","","","","","","","1","0","0","0.2512114903","","0.6","0.2","0.4","0.8","","","","","0.2512114903","0.2448078588","0.193224684","0.3571939809","","","","","","","72","H","0","img/none_selected.jpg","","197","main_expt"
"540","","bandit","276","948585","0.0-237.0-0.0","15328969","wem/bandit_either","A2WX9BYW5TI8OA","either","5","","","","","","","0","0","1","0.190651112","","0.6","0.2","0.4","0.8","","","","","0.190651112","0.2433987968","0.1771509929","0.382430028","","","","","","","72","H","0","img/none_selected.jpg","","198","main_expt"
"415","","bandit","277","950518","0.0-238.0-0.0","15328969","wem/bandit_either","A2WX9BYW5TI8OA","either","5","","","","","","","0","0","1","0.1701189695","","0.6","0.2","0.4","0.8","","","","","0.1701189695","0.2653624242","0.2466668772","0.3353474301","","","","","","","72","H","0","img/none_selected.jpg","","199","main_expt"
"376","","bandit","278","952408","0.0-239.0-0.0","15328969","wem/bandit_either","A2WX9BYW5TI8OA","either","5","","","","","","","0","0","1","","0.1656975488","0.6","0.2","0.4","0.8","0.1656975488","0.2551376492","0.2477816141","0.3321976498","","","","","","","","","","","72","H","0","img/none_selected.jpg","","200","main_expt"
"366","","bandit","279","954285","0.0-240.0-0.0","15328969","wem/bandit_either","A2WX9BYW5TI8OA","either","5","","","","","","","0","0","1","","0.3218117355","0.6","0.2","0.4","0.8","0.1647298582","0.2660639347","0.2744817861","0.3218117355","","","","","","","","","","","76","L","3","","","201","main_expt"
"373","","bandit","280","956176","0.0-241.0-0.0","15328969","wem/bandit_either","A2WX9BYW5TI8OA","either","5","","","","","","","1","0","0","0.2949214693","","0.6","0.2","0.4","0.8","","","","","0.1242041815","0.2220900594","0.3043062986","0.2949214693","","","","","","","76","L","3","","","202","main_expt"
"458","","bandit","281","958158","0.0-242.0-0.0","15328969","wem/bandit_either","A2WX9BYW5TI8OA","either","5","","","","","","","0","0","1","0.300077299","","0.6","0.2","0.4","0.8","","","","","0.1684487429","0.1543353204","0.272185569","0.300077299","","","","","","","76","L","3","","","203","main_expt"
"362","","bandit","282","960034","0.0-243.0-0.0","15328969","wem/bandit_either","A2WX9BYW5TI8OA","either","5","","","","","","","0","0","1","","0.2866085977","0.6","0.2","0.4","0.8","0.1666409686","0.1605482003","0.2610767704","0.2866085977","","","","","","","","","","","76","L","3","","","204","main_expt"
"336","","bandit","283","961896","0.0-244.0-0.0","15328969","wem/bandit_either","A2WX9BYW5TI8OA","either","5","","","","","","","0","0","1","","0.1406914754","0.6","0.2","0.4","0.8","0.2197286508","0.1406914754","0.2832615928","0.2695546272","","","","","","","","","","","74","J","1","","","205","main_expt"
"380","","bandit","284","963798","0.0-245.0-0.0","15328969","wem/bandit_either","A2WX9BYW5TI8OA","either","5","","","","","","","0","0","1","","0.1138947463","0.6","0.2","0.4","0.8","0.2754509052","0.1138947463","0.300913322","0.2622178416","","","","","","","","","","","74","J","1","","","206","main_expt"
"330","","bandit","285","965655","0.0-246.0-0.0","15328969","wem/bandit_either","A2WX9BYW5TI8OA","either","5","","","","","","","0","0","1","","0.1096702189","0.6","0.2","0.4","0.8","0.2664869377","0.1096702189","0.3260258847","0.2498186578","","","","","","","","","","","74","J","1","","","207","main_expt"
"111","","bandit","286","967279","0.0-247.0-0.0","15328969","wem/bandit_either","A2WX9BYW5TI8OA","either","5","","","","","","","0","0","1","","0.3173829003","0.6","0.2","0.4","0.8","0.2686565688","0.09922356593","0.3173829003","0.2335358635","","","","","","","","","","","75","K","2","","","208","main_expt"
"287","","bandit","287","969078","0.0-248.0-0.0","15328969","wem/bandit_either","A2WX9BYW5TI8OA","either","5","","","","","","","0","0","1","0.3153846937","","0.6","0.2","0.4","0.8","","","","","0.2380255957","0.101567507","0.3153846937","0.2638942681","","","","","","","75","K","2","","","209","main_expt"
"428","","bandit","288","971019","0.0-249.0-0.0","15328969","wem/bandit_either","A2WX9BYW5TI8OA","either","5","","","","","","","0","1","0","","0.3010876552","0.6","0.2","0.4","0.8","0.2507768727","0.08675379402","0.3010876552","0.2526926237","","","","","","","","","","","75","K","2","","","210","main_expt"
"390","","bandit","289","972935","0.0-250.0-0.0","15328969","wem/bandit_either","A2WX9BYW5TI8OA","either","5","","","","","","","0","1","0","","0.2864900033","0.6","0.2","0.4","0.8","0.2685142319","0.07512021269","0.2864900033","0.2740367769","","","","","","","","","","","75","K","2","","","211","main_expt"
"383","","bandit","290","974830","0.0-251.0-0.0","15328969","wem/bandit_either","A2WX9BYW5TI8OA","either","5","","","","","","","0","0","1","","0.3163372434","0.6","0.2","0.4","0.8","0.260511483","0.08144254236","0.3163372434","0.2440836191","","","","","","","","","","","75","K","2","","","212","main_expt"
"292","","bandit","291","976647","0.0-252.0-0.0","15328969","wem/bandit_either","A2WX9BYW5TI8OA","either","5","","","","","","","0","0","1","0.2701305136","","0.6","0.2","0.4","0.8","","","","","0.2579605047","0.06585574052","0.2701305136","0.2341903104","","","","","","","75","K","2","","","213","main_expt"
"376","","bandit","292","978535","0.0-253.0-0.0","15328969","wem/bandit_either","A2WX9BYW5TI8OA","either","5","","","","","","","0","0","1","0.2097526345","","0.6","0.2","0.4","0.8","","","","","0.2470456849","0.08686614453","0.302599165","0.2097526345","","","","","","","76","L","3","","","214","main_expt"
"314","","bandit","293","980376","0.0-254.0-0.0","15328969","wem/bandit_either","A2WX9BYW5TI8OA","either","5","","","","","","","0","0","1","0.1796882487","","0.6","0.2","0.4","0.8","","","","","0.3285383036","0.1068548489","0.2968005471","0.1796882487","","","","","","","76","L","3","","","215","main_expt"
"343","","bandit","294","982230","0.0-255.0-0.0","15328969","wem/bandit_either","A2WX9BYW5TI8OA","either","5","","","","","","","0","0","1","","0.2237900511","0.6","0.2","0.4","0.8","0.3780044773","0.1211736082","0.2835536598","0.2237900511","","","","","","","","","","","76","L","3","","","216","main_expt"
"431","","bandit","295","984175","0.0-256.0-0.0","15328969","wem/bandit_either","A2WX9BYW5TI8OA","either","5","","","","","","","0","1","0","","0.3939228946","0.6","0.2","0.4","0.8","0.3939228946","0.09343701815","0.2520762718","0.2265358539","","","","","","","","","","","72","H","0","img/none_selected.jpg","","217","main_expt"
"607","","bandit","296","986295","0.0-257.0-0.0","15328969","wem/bandit_either","A2WX9BYW5TI8OA","either","5","","","","","","","0","0","1","0.3198270803","","0.6","0.2","0.4","0.8","","","","","0.3198270803","0.1001055386","0.2562699476","0.2364013437","","","","","","","72","H","0","img/none_selected.jpg","","218","main_expt"
"631","","bandit","297","988437","0.0-258.0-0.0","15328969","wem/bandit_either","A2WX9BYW5TI8OA","either","5","","","","","","","0","1","0","","0.3502502288","0.6","0.2","0.4","0.8","0.3502502288","0.09524874014","0.3002431464","0.2810560361","","","","","","","","","","","72","H","0","img/none_selected.jpg","","219","main_expt"
"357","","bandit","298","990319","0.0-259.0-0.0","15328969","wem/bandit_either","A2WX9BYW5TI8OA","either","5","","","","","","","1","0","0","0.3402456168","","0.6","0.2","0.4","0.8","","","","","0.3402456168","0.1304899995","0.3365413303","0.3027429446","","","","","","","72","H","0","img/none_selected.jpg","","220","main_expt"
"572","","bandit","299","992420","0.0-260.0-0.0","15328969","wem/bandit_either","A2WX9BYW5TI8OA","either","5","","","","","","","0","0","1","0.3770059732","","0.6","0.2","0.4","0.8","","","","","0.3770059732","0.1272814923","0.2946103072","0.3132134988","","","","","","","72","H","0","img/none_selected.jpg","","221","main_expt"
"335","","bandit","300","994274","0.0-261.0-0.0","15328969","wem/bandit_either","A2WX9BYW5TI8OA","either","5","","","","","","","0","0","1","","0.3864421123","0.6","0.2","0.4","0.8","0.3864421123","0.1654407056","0.3267284332","0.2424821827","","","","","","","","","","","72","H","0","img/none_selected.jpg","","222","main_expt"
"337","","bandit","301","996129","0.0-262.0-0.0","15328969","wem/bandit_either","A2WX9BYW5TI8OA","either","5","","","","","","","1","0","0","0.4205211408","","0.6","0.2","0.4","0.8","","","","","0.4205211408","0.1788325852","0.3175152631","0.2595367495","","","","","","","72","H","0","img/none_selected.jpg","","223","main_expt"
"425","","bandit","302","998072","0.0-263.0-0.0","15328969","wem/bandit_either","A2WX9BYW5TI8OA","either","5","","","","","","","0","0","1","0.4131889957","","0.6","0.2","0.4","0.8","","","","","0.4131889957","0.1736623033","0.3192400935","0.328819141","","","","","","","72","H","0","img/none_selected.jpg","","224","main_expt"
"250","","bandit","303","999840","0.0-264.0-0.0","15328969","wem/bandit_either","A2WX9BYW5TI8OA","either","5","","","","","","","0","0","1","0.4001513574","","0.6","0.2","0.4","0.8","","","","","0.4001513574","0.1721911447","0.3096750449","0.356121412","","","","","","","72","H","0","img/none_selected.jpg","","225","main_expt"
"185","","bandit","304","1001550","0.0-265.0-0.0","15328969","wem/bandit_either","A2WX9BYW5TI8OA","either","5","","","","","","","0","0","1","","0.3963688582","0.6","0.2","0.4","0.8","0.3963688582","0.2133818582","0.3142833063","0.3394019192","","","","","","","","","","","72","H","0","img/none_selected.jpg","","226","main_expt"
"367","","bandit","305","1003431","0.0-266.0-0.0","15328969","wem/bandit_either","A2WX9BYW5TI8OA","either","5","","","","","","","0","0","1","0.3979714495","","0.6","0.2","0.4","0.8","","","","","0.3979714495","0.2620007467","0.3096885674","0.2860553004","","","","","","","72","H","0","img/none_selected.jpg","","227","main_expt"
"553","","bandit","306","1005511","0.0-267.0-0.0","15328969","wem/bandit_either","A2WX9BYW5TI8OA","either","5","","","","","","","0","0","1","","0.2961930455","0.6","0.2","0.4","0.8","0.3811043637","0.2961930455","0.3048295172","0.2967856672","","","","","","","","","","","74","J","1","","","228","main_expt"
"337","","bandit","307","1007375","0.0-268.0-0.0","15328969","wem/bandit_either","A2WX9BYW5TI8OA","either","5","","","","","","","1","0","0","0.3081123415","","0.6","0.2","0.4","0.8","","","","","0.3488149186","0.3081123415","0.2553920021","0.2857745529","","","","","","","74","J","1","","","229","main_expt"
"330","","bandit","308","1009223","0.0-269.0-0.0","15328969","wem/bandit_either","A2WX9BYW5TI8OA","either","5","","","","","","","0","0","1","","0.3027177586","0.6","0.2","0.4","0.8","0.2883621188","0.3027177586","0.2783794412","0.2589404948","","","","","","","","","","","74","J","1","","","230","main_expt"
"1048","","bandit","309","1011798","0.0-270.0-0.0","15328969","wem/bandit_either","A2WX9BYW5TI8OA","either","5","","","","","","","1","0","0","0.2495346478","","0.6","0.2","0.4","0.8","","","","","0.2444465504","0.2495346478","0.2735536708","0.2628441024","","","","","","","74","J","1","","","231","main_expt"
"746","","bandit","310","1014057","0.0-271.0-0.0","15328969","wem/bandit_either","A2WX9BYW5TI8OA","either","5","","","","","","","0","0","1","0.2185872191","","0.6","0.2","0.4","0.8","","","","","0.2996930955","0.2185872191","0.2262440502","0.276537748","","","","","","","74","J","1","","","232","main_expt"
"348","","bandit","311","1015936","0.0-272.0-0.0","15328969","wem/bandit_either","A2WX9BYW5TI8OA","either","5","","","","","","","0","1","0","","0.1874863907","0.6","0.2","0.4","0.8","0.3103031796","0.1874863907","0.2171974885","0.2485723575","","","","","","","","","","","74","J","1","","","233","main_expt"
"644","","bandit","312","1018095","0.0-273.0-0.0","15328969","wem/bandit_either","A2WX9BYW5TI8OA","either","5","","","","","","","0","0","1","","0.2165838284","0.6","0.2","0.4","0.8","0.2971988612","0.2165838284","0.2951485073","0.2172766866","","","","","","","","","","","74","J","1","","","234","main_expt"
"340","","bandit","313","1019960","0.0-274.0-0.0","15328969","wem/bandit_either","A2WX9BYW5TI8OA","either","5","","","","","","","0","0","1","","0.1791302586","0.6","0.2","0.4","0.8","0.3266576642","0.1791302586","0.3135740045","0.221542824","","","","","","","","","","","74","J","1","","","235","main_expt"
"332","","bandit","314","1021806","0.0-275.0-0.0","15328969","wem/bandit_either","A2WX9BYW5TI8OA","either","5","","","","","","","0","0","1","","0.2463713802","0.6","0.2","0.4","0.8","0.3596878827","0.2463713802","0.2945285262","0.2200573756","","","","","","","","","","","74","J","1","","","236","main_expt"
"374","","bandit","315","1023696","0.0-276.0-0.0","15328969","wem/bandit_either","A2WX9BYW5TI8OA","either","5","","","","","","","0","0","1","0.2146478317","","0.6","0.2","0.4","0.8","","","","","0.3951370387","0.2204623923","0.2797454337","0.2146478317","","","","","","","76","L","3","","","237","main_expt"
"419","","bandit","316","1025633","0.0-277.0-0.0","15328969","wem/bandit_either","A2WX9BYW5TI8OA","either","5","","","","","","","0","0","1","0.2237656472","","0.6","0.2","0.4","0.8","","","","","0.3863552979","0.2316256556","0.266453507","0.2237656472","","","","","","","76","L","3","","","238","main_expt"
"361","","bandit","317","1027508","0.0-278.0-0.0","15328969","wem/bandit_either","A2WX9BYW5TI8OA","either","5","","","","","","","1","0","0","0.2302611888","","0.6","0.2","0.4","0.8","","","","","0.3962704677","0.2406304147","0.310831157","0.2302611888","","","","","","","76","L","3","","","239","main_expt"
"224","","bandit","318","1029248","0.0-279.0-0.0","15328969","wem/bandit_either","A2WX9BYW5TI8OA","either","5","","","","","","","0","0","1","0.2253069634","","0.6","0.2","0.4","0.8","","","","","0.3926977495","0.2624476398","0.331950591","0.2253069634","","","","","","","76","L","3","","","240","main_expt"
"330","","bandit","319","1031105","0.0-280.0-0.0","15328969","wem/bandit_either","A2WX9BYW5TI8OA","either","5","","","","","","","0","0","1","0.2523404353","","0.6","0.2","0.4","0.8","","","","","0.3381110468","0.2627099727","0.3223776605","0.2523404353","","","","","","","76","L","3","","","241","main_expt"
"373","","bandit","320","1033008","0.0-281.0-0.0","15328969","wem/bandit_either","A2WX9BYW5TI8OA","either","5","","","","","","","1","0","0","0.238450381","","0.6","0.2","0.4","0.8","","","","","0.3213381148","0.2262339403","0.3389272588","0.238450381","","","","","","","76","L","3","","","242","main_expt"
"317","","bandit","321","1034856","0.0-282.0-0.0","15328969","wem/bandit_either","A2WX9BYW5TI8OA","either","5","","","","","","","0","0","1","0.2476478509","","0.6","0.2","0.4","0.8","","","","","0.3395415742","0.2511573395","0.4023830898","0.2476478509","","","","","","","76","L","3","","","243","main_expt"
"487","","bandit","322","1036857","0.0-283.0-0.0","15328969","wem/bandit_either","A2WX9BYW5TI8OA","either","5","","","","","","","0","0","1","","0.2603762171","0.6","0.2","0.4","0.8","0.3077285799","0.3112309098","0.4072225753","0.2603762171","","","","","","","","","","","76","L","3","","","244","main_expt"
"383","","bandit","323","1038767","0.0-284.0-0.0","15328969","wem/bandit_either","A2WX9BYW5TI8OA","either","5","","","","","","","0","1","0","","0.4047901721","0.6","0.2","0.4","0.8","0.269997398","0.3169667097","0.4047901721","0.2778117757","","","","","","","","","","","75","K","2","","","245","main_expt"
"439","","bandit","324","1040734","0.0-285.0-0.0","15328969","wem/bandit_either","A2WX9BYW5TI8OA","either","5","","","","","","","0","0","1","0.4245844383","","0.6","0.2","0.4","0.8","","","","","0.2896792764","0.3774934029","0.4245844383","0.2571702875","","","","","","","75","K","2","","","246","main_expt"
"374","","bandit","325","1042621","0.0-286.0-0.0","15328969","wem/bandit_either","A2WX9BYW5TI8OA","either","5","","","","","","","0","1","0","","0.4425022826","0.6","0.2","0.4","0.8","0.3079745892","0.3592590195","0.4425022826","0.2790325972","","","","","","","","","","","75","K","2","","","247","main_expt"
"354","","bandit","326","1044503","0.0-287.0-0.0","15328969","wem/bandit_either","A2WX9BYW5TI8OA","either","5","","","","","","","0","1","0","","0.4454461089","0.6","0.2","0.4","0.8","0.2306801962","0.3659800935","0.4454461089","0.2665328125","","","","","","","","","","","75","K","2","","","248","main_expt"
"906","","bandit","327","1046928","0.0-288.0-0.0","15328969","wem/bandit_either","A2WX9BYW5TI8OA","either","5","","","","","","","0","1","0","","0.4565985803","0.6","0.2","0.4","0.8","0.2363838343","0.3940863056","0.4565985803","0.2666328085","","","","","","","","","","","75","K","2","","","249","main_expt"
"601","","bandit","328","1049066","0.0-289.0-0.0","15328969","wem/bandit_either","A2WX9BYW5TI8OA","either","5","","","","","","","0","1","0","","0.4666950096","0.6","0.2","0.4","0.8","0.2865845142","0.3652193683","0.4666950096","0.2637425143","","","","","","","","","","","75","K","2","","","250","main_expt"
"292","","bandit","329","1050886","0.0-290.0-0.0","15328969","wem/bandit_either","A2WX9BYW5TI8OA","either","5","","","","","","","0","0","1","","0.4491167865","0.6","0.2","0.4","0.8","0.3527425442","0.3118516898","0.4491167865","0.3041279159","","","","","","","","","","","75","K","2","","","251","main_expt"
"932","","bandit","330","1053335","0.0-291.0-0.0","15328969","wem/bandit_either","A2WX9BYW5TI8OA","either","5","","","","","","","0","0","1","0.3291033061","","0.6","0.2","0.4","0.8","","","","","0.3236638898","0.3291033061","0.4512042396","0.3054217384","","","","","","","74","J","1","","","252","main_expt"
"313","","bandit","331","1055168","0.0-292.0-0.0","15328969","wem/bandit_either","A2WX9BYW5TI8OA","either","5","","","","","","","0","1","0","","0.4572977034","0.6","0.2","0.4","0.8","0.2905162115","0.35413613","0.4572977034","0.3241125582","","","","","","","","","","","75","K","2","","","253","main_expt"
