"rt","responses","trial_type","trial_index","time_elapsed","internal_node_id","subjID","study","MID","cond","drift","key_press","expt_phase","target","like","value","connected","gems","bombs","no_reward","GemPrChosen","BombPrChosen","GainOverPainPr_0","GainOverPainPr_1","GainOverPainPr_2","GainOverPainPr_3","LosePr_0","LosePr_1","LosePr_2","LosePr_3","WinPr_0","WinPr_1","WinPr_2","WinPr_3","Q0","Q1","Q2","gender","age","ethnicity","respCharCode","respKey","respChoiceNum","respChoice","practice","trial_counter","trial_label"
"7157","{""Q0"":""AVXEDARJC5HLU""}","survey-text","0","7165","0.0-0.0","16350575","wem/bandit_either","AVXEDARJC5HLU","either","8","","","","","","","","","","","","","","","","","","","","","","","","","","","","","","","","","","","",""
"49793","","text","1","57961","0.0-1.0","16350575","wem/bandit_either","AVXEDARJC5HLU","either","8","32","","","","","","","","","","","","","","","","","","","","","","","","","","","","","","","","","","",""
"37556","","text","2","95519","0.0-2.0","16350575","wem/bandit_either","AVXEDARJC5HLU","either","8","32","","","","","","","","","","","","","","","","","","","","","","","","","","","","","","","","","","",""
"23924","","text","3","119444","0.0-3.0","16350575","wem/bandit_either","AVXEDARJC5HLU","either","8","32","","","","","","","","","","","","","","","","","","","","","","","","","","","","","","","","","","",""
"15609","","text","4","135054","0.0-4.0","16350575","wem/bandit_either","AVXEDARJC5HLU","either","8","32","","","","","","","","","","","","","","","","","","","","","","","","","","","","","","","","","","",""
"28741","","text","5","163796","0.0-5.0","16350575","wem/bandit_either","AVXEDARJC5HLU","either","8","32","","","","","","","","","","","","","","","","","","","","","","","","","","","","","","","","","","",""
"8431","","text","6","172230","0.0-6.0","16350575","wem/bandit_either","AVXEDARJC5HLU","either","8","32","","","","","","","","","","","","","","","","","","","","","","","","","","","","","","","","","","",""
"20157","","text","7","192389","0.0-7.0","16350575","wem/bandit_either","AVXEDARJC5HLU","either","8","32","","","","","","","","","","","","","","","","","","","","","","","","","","","","","","","","","","",""
"10526","","identification","8","202926","0.0-8.0-0.0","16350575","wem/bandit_either","AVXEDARJC5HLU","either","8","","identification_pre","the village of Zur","","","","","","","","","","","","","","","","","","","","","","","","","","","","","","","","",""
"9898","","identification","9","213839","0.0-8.0-1.0","16350575","wem/bandit_either","AVXEDARJC5HLU","either","8","","identification_pre","the village of Nyx","","","","","","","","","","","","","","","","","","","","","","","","","","","","","","","","",""
"11859","","text","10","226703","0.0-9.0","16350575","wem/bandit_either","AVXEDARJC5HLU","either","8","32","","","","","","","","","","","","","","","","","","","","","","","","","","","","","","","","","","",""
"3676","","text","11","230380","0.0-10.0","16350575","wem/bandit_either","AVXEDARJC5HLU","either","8","32","","","","","","","","","","","","","","","","","","","","","","","","","","","","","","","","","","",""
"2317","","text","12","232699","0.0-11.0","16350575","wem/bandit_either","AVXEDARJC5HLU","either","8","32","","","","","","","","","","","","","","","","","","","","","","","","","","","","","","","","","","",""
"3990","","text","13","236691","0.0-12.0","16350575","wem/bandit_either","AVXEDARJC5HLU","either","8","32","","","","","","","","","","","","","","","","","","","","","","","","","","","","","","","","","","",""
"3322","","bandit","14","241523","0.0-13.0-0.0","16350575","wem/bandit_either","AVXEDARJC5HLU","either","8","","","","","","","0","0","1","0","0","","","","","0","","","","0","","","","","","","","","","74","J","0","img/none_selected_demo.jpg","true","0",""
"1584","","bandit","15","244618","0.0-14.0-0.0","16350575","wem/bandit_either","AVXEDARJC5HLU","either","8","","","","","","","0","0","1","0","0","","","","","0","","","","0","","","","","","","","","","75","K","0","img/none_selected_demo.jpg","true","0",""
"10094","","text","16","254713","0.0-15.0","16350575","wem/bandit_either","AVXEDARJC5HLU","either","8","32","","","","","","","","","","","","","","","","","","","","","","","","","","","","","","","","","","",""
"9412","","text","17","264128","0.0-16.0","16350575","wem/bandit_either","AVXEDARJC5HLU","either","8","32","","","","","","","","","","","","","","","","","","","","","","","","","","","","","","","","","","",""
"13981","","text","18","278112","0.0-17.0","16350575","wem/bandit_either","AVXEDARJC5HLU","either","8","32","","","","","","","","","","","","","","","","","","","","","","","","","","","","","","","","","","",""
"5345","","text","19","283460","0.0-18.0","16350575","wem/bandit_either","AVXEDARJC5HLU","either","8","32","","","","","","","","","","","","","","","","","","","","","","","","","","","","","","","","","","",""
"2874","","bandit","20","287845","0.0-19.0-0.0","16350575","wem/bandit_either","AVXEDARJC5HLU","either","8","","","","","","","1","0","0","0.8","","0.5","0.5","","","","","","","0.8","0.2","","","","","","","","","74","J","0","img/none_selected_demo.jpg","true","0","80_20_practice"
"1144","","bandit","21","290500","0.0-19.0-1.0","16350575","wem/bandit_either","AVXEDARJC5HLU","either","8","","","","","","","0","1","0","","0.8","0.5","0.5","","","0.8","0.2","","","","","","","","","","","","","74","J","0","img/none_selected_demo.jpg","true","0","80_20_practice"
"418","","bandit","22","292428","0.0-19.0-2.0","16350575","wem/bandit_either","AVXEDARJC5HLU","either","8","","","","","","","1","0","0","0.8","","0.5","0.5","","","","","","","0.8","0.2","","","","","","","","","74","J","0","img/none_selected_demo.jpg","true","0","80_20_practice"
"271","","bandit","23","294211","0.0-19.0-3.0","16350575","wem/bandit_either","AVXEDARJC5HLU","either","8","","","","","","","1","0","0","0.8","","0.5","0.5","","","","","","","0.8","0.2","","","","","","","","","74","J","0","img/none_selected_demo.jpg","true","0","80_20_practice"
"257","","bandit","24","295980","0.0-19.0-4.0","16350575","wem/bandit_either","AVXEDARJC5HLU","either","8","","","","","","","1","0","0","0.8","","0.5","0.5","","","","","","","0.8","0.2","","","","","","","","","74","J","0","img/none_selected_demo.jpg","true","0","80_20_practice"
"196","","bandit","25","297687","0.0-19.0-5.0","16350575","wem/bandit_either","AVXEDARJC5HLU","either","8","","","","","","","0","1","0","","0.8","0.5","0.5","","","0.8","0.2","","","","","","","","","","","","","74","J","0","img/none_selected_demo.jpg","true","0","80_20_practice"
"235","","bandit","26","299432","0.0-19.0-6.0","16350575","wem/bandit_either","AVXEDARJC5HLU","either","8","","","","","","","0","1","0","","0.8","0.5","0.5","","","0.8","0.2","","","","","","","","","","","","","74","J","0","img/none_selected_demo.jpg","true","0","80_20_practice"
"320","","bandit","27","301260","0.0-19.0-7.0","16350575","wem/bandit_either","AVXEDARJC5HLU","either","8","","","","","","","0","0","1","","0.8","0.5","0.5","","","0.8","0.2","","","","","","","","","","","","","74","J","0","img/none_selected_demo.jpg","true","0","80_20_practice"
"283","","bandit","28","303053","0.0-19.0-8.0","16350575","wem/bandit_either","AVXEDARJC5HLU","either","8","","","","","","","1","0","0","0.8","","0.5","0.5","","","","","","","0.8","0.2","","","","","","","","","74","J","0","img/none_selected_demo.jpg","true","0","80_20_practice"
"265","","bandit","29","304826","0.0-19.0-9.0","16350575","wem/bandit_either","AVXEDARJC5HLU","either","8","","","","","","","0","0","1","0.8","","0.5","0.5","","","","","","","0.8","0.2","","","","","","","","","74","J","0","img/none_selected_demo.jpg","true","0","80_20_practice"
"264","","bandit","30","306597","0.0-19.0-10.0","16350575","wem/bandit_either","AVXEDARJC5HLU","either","8","","","","","","","1","0","0","0.8","","0.5","0.5","","","","","","","0.8","0.2","","","","","","","","","74","J","0","img/none_selected_demo.jpg","true","0","80_20_practice"
"940","","bandit","31","309043","0.0-19.0-11.0","16350575","wem/bandit_either","AVXEDARJC5HLU","either","8","","","","","","","0","0","1","","0.8","0.5","0.5","","","0.8","0.2","","","","","","","","","","","","","74","J","0","img/none_selected_demo.jpg","true","0","80_20_practice"
"355","","bandit","32","310908","0.0-19.0-12.0","16350575","wem/bandit_either","AVXEDARJC5HLU","either","8","","","","","","","1","0","0","0.8","","0.5","0.5","","","","","","","0.8","0.2","","","","","","","","","74","J","0","img/none_selected_demo.jpg","true","0","80_20_practice"
"337","","bandit","33","312753","0.0-19.0-13.0","16350575","wem/bandit_either","AVXEDARJC5HLU","either","8","","","","","","","1","0","0","0.8","","0.5","0.5","","","","","","","0.8","0.2","","","","","","","","","74","J","0","img/none_selected_demo.jpg","true","0","80_20_practice"
"319","","bandit","34","314582","0.0-19.0-14.0","16350575","wem/bandit_either","AVXEDARJC5HLU","either","8","","","","","","","1","0","0","0.8","","0.5","0.5","","","","","","","0.8","0.2","","","","","","","","","74","J","0","img/none_selected_demo.jpg","true","0","80_20_practice"
"277","","bandit","35","316369","0.0-19.0-15.0","16350575","wem/bandit_either","AVXEDARJC5HLU","either","8","","","","","","","0","1","0","","0.8","0.5","0.5","","","0.8","0.2","","","","","","","","","","","","","74","J","0","img/none_selected_demo.jpg","true","0","80_20_practice"
"514","","bandit","36","318393","0.0-19.0-16.0","16350575","wem/bandit_either","AVXEDARJC5HLU","either","8","","","","","","","0","0","1","0.8","","0.5","0.5","","","","","","","0.8","0.2","","","","","","","","","74","J","0","img/none_selected_demo.jpg","true","0","80_20_practice"
"2336","","bandit","37","322237","0.0-19.0-17.0","16350575","wem/bandit_either","AVXEDARJC5HLU","either","8","","","","","","","0","0","1","","0.2","0.5","0.5","","","0.8","0.2","","","","","","","","","","","","","75","K","1","","true","0","80_20_practice"
"676","","bandit","38","324420","0.0-19.0-18.0","16350575","wem/bandit_either","AVXEDARJC5HLU","either","8","","","","","","","0","0","1","","0.2","0.5","0.5","","","0.8","0.2","","","","","","","","","","","","","75","K","1","","true","0","80_20_practice"
"85","","bandit","39","326016","0.0-19.0-19.0","16350575","wem/bandit_either","AVXEDARJC5HLU","either","8","","","","","","","0","1","0","","0.8","0.5","0.5","","","0.8","0.2","","","","","","","","","","","","","74","J","0","img/none_selected_demo.jpg","true","0","80_20_practice"
"4689","","text","40","330709","0.0-20.0","16350575","wem/bandit_either","AVXEDARJC5HLU","either","8","32","","","","","","","","","","","","","","","","","","","","","","","","","","","","","","","","","","",""
"951","","bandit","41","333172","0.0-21.0-0.0","16350575","wem/bandit_either","AVXEDARJC5HLU","either","8","","","","","","","1","0","0","1","0","","","","","0","1","","","1","0","","","","","","","","","74","J","0","img/none_selected_demo.jpg","true","0",""
"11731","","text","42","344907","0.0-22.0","16350575","wem/bandit_either","AVXEDARJC5HLU","either","8","32","","","","","","","","","","","","","","","","","","","","","","","","","","","","","","","","","","",""
"3581","","text","43","348491","0.0-23.0","16350575","wem/bandit_either","AVXEDARJC5HLU","either","8","32","","","","","","","","","","","","","","","","","","","","","","","","","","","","","","","","","","",""
"3121","","text","44","351617","0.0-24.0","16350575","wem/bandit_either","AVXEDARJC5HLU","either","8","32","","","","","","","","","","","","","","","","","","","","","","","","","","","","","","","","","","",""
"19169","","text","45","370788","0.0-25.0","16350575","wem/bandit_either","AVXEDARJC5HLU","either","8","32","","","","","","","","","","","","","","","","","","","","","","","","","","","","","","","","","","",""
"10697","","text","46","381486","0.0-26.0","16350575","wem/bandit_either","AVXEDARJC5HLU","either","8","32","","","","","","","","","","","","","","","","","","","","","","","","","","","","","","","","","","",""
"3176","","text","47","384664","0.0-27.0","16350575","wem/bandit_either","AVXEDARJC5HLU","either","8","32","","","","","","","","","","","","","","","","","","","","","","","","","","","","","","","","","","",""
"5466","","text","48","390132","0.0-28.0","16350575","wem/bandit_either","AVXEDARJC5HLU","either","8","32","","","","","","","","","","","","","","","","","","","","","","","","","","","","","","","","","","",""
"4179","","text","49","394315","0.0-29.0","16350575","wem/bandit_either","AVXEDARJC5HLU","either","8","32","","","","","","","","","","","","","","","","","","","","","","","","","","","","","","","","","","",""
"4447","","text","50","398765","0.0-30.0","16350575","wem/bandit_either","AVXEDARJC5HLU","either","8","32","","","","","","","","","","","","","","","","","","","","","","","","","","","","","","","","","","",""
"2378","","text","51","401147","0.0-31.0","16350575","wem/bandit_either","AVXEDARJC5HLU","either","8","32","","","","","","","","","","","","","","","","","","","","","","","","","","","","","","","","","","",""
"2313","","text","52","403464","0.0-32.0","16350575","wem/bandit_either","AVXEDARJC5HLU","either","8","32","","","","","","","","","","","","","","","","","","","","","","","","","","","","","","","","","","",""
"1361","","bandit","53","406334","0.0-33.0-0.0","16350575","wem/bandit_either","AVXEDARJC5HLU","either","8","","","","","","","1","0","0","0.8","","0.5","0.5","0.5","0.5","","","","","0.8","0.2","0.6","0.2","","","","","","","72","H","0","img/none_selected.jpg","true","0","full_practice"
"839","","bandit","54","408683","0.0-33.0-1.0","16350575","wem/bandit_either","AVXEDARJC5HLU","either","8","","","","","","","0","1","0","","0.8","0.5","0.5","0.5","0.5","0.8","0.2","0.6","0.2","","","","","","","","","","","72","H","0","img/none_selected.jpg","true","0","full_practice"
"275","","bandit","55","410469","0.0-33.0-2.0","16350575","wem/bandit_either","AVXEDARJC5HLU","either","8","","","","","","","1","0","0","0.8","","0.5","0.5","0.5","0.5","","","","","0.8","0.2","0.6","0.2","","","","","","","72","H","0","img/none_selected.jpg","true","0","full_practice"
"236","","bandit","56","412214","0.0-33.0-3.0","16350575","wem/bandit_either","AVXEDARJC5HLU","either","8","","","","","","","0","1","0","","0.8","0.5","0.5","0.5","0.5","0.8","0.2","0.6","0.2","","","","","","","","","","","72","H","0","img/none_selected.jpg","true","0","full_practice"
"207","","bandit","57","413928","0.0-33.0-4.0","16350575","wem/bandit_either","AVXEDARJC5HLU","either","8","","","","","","","0","1","0","","0.8","0.5","0.5","0.5","0.5","0.8","0.2","0.6","0.2","","","","","","","","","","","72","H","0","img/none_selected.jpg","true","0","full_practice"
"1006","","bandit","58","416443","0.0-33.0-5.0","16350575","wem/bandit_either","AVXEDARJC5HLU","either","8","","","","","","","0","1","0","","0.8","0.5","0.5","0.5","0.5","0.8","0.2","0.6","0.2","","","","","","","","","","","72","H","0","img/none_selected.jpg","true","0","full_practice"
"289","","bandit","59","418241","0.0-33.0-6.0","16350575","wem/bandit_either","AVXEDARJC5HLU","either","8","","","","","","","0","1","0","","0.8","0.5","0.5","0.5","0.5","0.8","0.2","0.6","0.2","","","","","","","","","","","72","H","0","img/none_selected.jpg","true","0","full_practice"
"265","","bandit","60","420012","0.0-33.0-7.0","16350575","wem/bandit_either","AVXEDARJC5HLU","either","8","","","","","","","0","1","0","","0.8","0.5","0.5","0.5","0.5","0.8","0.2","0.6","0.2","","","","","","","","","","","72","H","0","img/none_selected.jpg","true","0","full_practice"
"248","","bandit","61","421767","0.0-33.0-8.0","16350575","wem/bandit_either","AVXEDARJC5HLU","either","8","","","","","","","0","1","0","","0.8","0.5","0.5","0.5","0.5","0.8","0.2","0.6","0.2","","","","","","","","","","","72","H","0","img/none_selected.jpg","true","0","full_practice"
"406","","bandit","62","423683","0.0-33.0-9.0","16350575","wem/bandit_either","AVXEDARJC5HLU","either","8","","","","","","","1","0","0","0.8","","0.5","0.5","0.5","0.5","","","","","0.8","0.2","0.6","0.2","","","","","","","72","H","0","img/none_selected.jpg","true","0","full_practice"
"331","","bandit","63","425526","0.0-33.0-10.0","16350575","wem/bandit_either","AVXEDARJC5HLU","either","8","","","","","","","1","0","0","0.8","","0.5","0.5","0.5","0.5","","","","","0.8","0.2","0.6","0.2","","","","","","","72","H","0","img/none_selected.jpg","true","0","full_practice"
"360","","bandit","64","427396","0.0-33.0-11.0","16350575","wem/bandit_either","AVXEDARJC5HLU","either","8","","","","","","","1","0","0","0.8","","0.5","0.5","0.5","0.5","","","","","0.8","0.2","0.6","0.2","","","","","","","72","H","0","img/none_selected.jpg","true","0","full_practice"
"414","","bandit","65","429320","0.0-33.0-12.0","16350575","wem/bandit_either","AVXEDARJC5HLU","either","8","","","","","","","0","0","1","0.8","","0.5","0.5","0.5","0.5","","","","","0.8","0.2","0.6","0.2","","","","","","","72","H","0","img/none_selected.jpg","true","0","full_practice"
"280","","bandit","66","431107","0.0-33.0-13.0","16350575","wem/bandit_either","AVXEDARJC5HLU","either","8","","","","","","","0","1","0","","0.8","0.5","0.5","0.5","0.5","0.8","0.2","0.6","0.2","","","","","","","","","","","72","H","0","img/none_selected.jpg","true","0","full_practice"
"314","","bandit","67","432930","0.0-33.0-14.0","16350575","wem/bandit_either","AVXEDARJC5HLU","either","8","","","","","","","0","0","1","","0.8","0.5","0.5","0.5","0.5","0.8","0.2","0.6","0.2","","","","","","","","","","","72","H","0","img/none_selected.jpg","true","0","full_practice"
"506","","bandit","68","434943","0.0-33.0-15.0","16350575","wem/bandit_either","AVXEDARJC5HLU","either","8","","","","","","","0","0","1","0.8","","0.5","0.5","0.5","0.5","","","","","0.8","0.2","0.6","0.2","","","","","","","72","H","0","img/none_selected.jpg","true","0","full_practice"
"202","","bandit","69","436655","0.0-33.0-16.0","16350575","wem/bandit_either","AVXEDARJC5HLU","either","8","","","","","","","0","0","1","","0.2","0.5","0.5","0.5","0.5","0.8","0.2","0.6","0.2","","","","","","","","","","","74","J","1","","true","0","full_practice"
"227","","bandit","70","438388","0.0-33.0-17.0","16350575","wem/bandit_either","AVXEDARJC5HLU","either","8","","","","","","","0","1","0","","0.6","0.5","0.5","0.5","0.5","0.8","0.2","0.6","0.2","","","","","","","","","","","75","K","2","","true","0","full_practice"
"426","","bandit","71","440324","0.0-33.0-18.0","16350575","wem/bandit_either","AVXEDARJC5HLU","either","8","","","","","","","1","0","0","0.6","","0.5","0.5","0.5","0.5","","","","","0.8","0.2","0.6","0.2","","","","","","","75","K","2","","true","0","full_practice"
"863","","bandit","72","442695","0.0-33.0-19.0","16350575","wem/bandit_either","AVXEDARJC5HLU","either","8","","","","","","","0","0","1","","0.6","0.5","0.5","0.5","0.5","0.8","0.2","0.6","0.2","","","","","","","","","","","75","K","2","","true","0","full_practice"
"5019","","text","73","447721","0.0-34.0","16350575","wem/bandit_either","AVXEDARJC5HLU","either","8","32","","","","","","","","","","","","","","","","","","","","","","","","","","","","","","","","","","",""
"9759","","text","74","458483","0.0-35.0","16350575","wem/bandit_either","AVXEDARJC5HLU","either","8","32","","","","","","","","","","","","","","","","","","","","","","","","","","","","","","","","","","",""
"11820","","text","75","470305","0.0-36.0","16350575","wem/bandit_either","AVXEDARJC5HLU","either","8","32","","","","","","","","","","","","","","","","","","","","","","","","","","","","","","","","","","",""
"4169","","text","76","474477","0.0-37.0","16350575","wem/bandit_either","AVXEDARJC5HLU","either","8","32","","","","","","","","","","","","","","","","","","","","","","","","","","","","","","","","","","",""
"10326","","text","77","484807","0.0-38.0","16350575","wem/bandit_either","AVXEDARJC5HLU","either","8","32","","","","","","","","","","","","","","","","","","","","","","","","","","","","","","","","","","",""
"4667","","text","78","489478","0.0-39.0","16350575","wem/bandit_either","AVXEDARJC5HLU","either","8","32","","","","","","","","","","","","","","","","","","","","","","","","","","","","","","","","","","",""
"3749","","bandit","79","494740","0.0-40.0-0.0","16350575","wem/bandit_either","AVXEDARJC5HLU","either","8","","","","","","","0","1","0","","0.2928194041","0.2","0.6","0.8","0.4","0.2928194041","0.1351790469","0.3540548627","0.2637293772","","","","","","","","","","","72","H","0","img/none_selected.jpg","","1","main_expt"
"1089","","bandit","80","497346","0.0-41.0-0.0","16350575","wem/bandit_either","AVXEDARJC5HLU","either","8","","","","","","","0","1","0","","0.3040419902","0.2","0.6","0.8","0.4","0.3040419902","0.125602744","0.3812516843","0.2760013096","","","","","","","","","","","72","H","0","img/none_selected.jpg","","2","main_expt"
"407","","bandit","81","499261","0.0-42.0-0.0","16350575","wem/bandit_either","AVXEDARJC5HLU","either","8","","","","","","","0","0","1","","0.2875251023","0.2","0.6","0.8","0.4","0.2875251023","0.09574082279","0.3901316494","0.3240499928","","","","","","","","","","","72","H","0","img/none_selected.jpg","","3","main_expt"
"288","","bandit","82","501061","0.0-43.0-0.0","16350575","wem/bandit_either","AVXEDARJC5HLU","either","8","","","","","","","0","0","1","","0.2965567903","0.2","0.6","0.8","0.4","0.2965567903","0.0913382225","0.3945399471","0.3510822359","","","","","","","","","","","72","H","0","img/none_selected.jpg","","4","main_expt"
"653","","bandit","83","503226","0.0-44.0-0.0","16350575","wem/bandit_either","AVXEDARJC5HLU","either","8","","","","","","","0","0","1","","0.2681113314","0.2","0.6","0.8","0.4","0.2681113314","0.106177601","0.3997977613","0.3522827721","","","","","","","","","","","72","H","0","img/none_selected.jpg","","5","main_expt"
"909","","bandit","84","505644","0.0-45.0-0.0","16350575","wem/bandit_either","AVXEDARJC5HLU","either","8","","","","","","","0","1","0","","0.08998955495","0.2","0.6","0.8","0.4","0.2330443498","0.08998955495","0.390783501","0.382674005","","","","","","","","","","","74","J","1","","","6","main_expt"
"166","","bandit","85","507320","0.0-46.0-0.0","16350575","wem/bandit_either","AVXEDARJC5HLU","either","8","","","","","","","0","0","1","","0.1077526668","0.2","0.6","0.8","0.4","0.1630509172","0.1077526668","0.3305693427","0.3998463606","","","","","","","","","","","74","J","1","","","7","main_expt"
"391","","bandit","86","509222","0.0-47.0-0.0","16350575","wem/bandit_either","AVXEDARJC5HLU","either","8","","","","","","","0","0","1","0.1243697388","","0.2","0.6","0.8","0.4","","","","","0.2002468685","0.1243697388","0.3056545716","0.3832029687","","","","","","","74","J","1","","","8","main_expt"
"610","","bandit","87","511343","0.0-48.0-0.0","16350575","wem/bandit_either","AVXEDARJC5HLU","either","8","","","","","","","0","0","1","","0.3278889804","0.2","0.6","0.8","0.4","0.1835034381","0.1698108096","0.3278889804","0.3796681134","","","","","","","","","","","75","K","2","","","9","main_expt"
"562","","bandit","88","513412","0.0-49.0-0.0","16350575","wem/bandit_either","AVXEDARJC5HLU","either","8","","","","","","","1","0","0","0.3614311416","","0.2","0.6","0.8","0.4","","","","","0.1939723001","0.221757114","0.3137855556","0.3614311416","","","","","","","76","L","3","","","10","main_expt"
"767","","bandit","89","515690","0.0-50.0-0.0","16350575","wem/bandit_either","AVXEDARJC5HLU","either","8","","","","","","","0","0","1","","0.3938737051","0.2","0.6","0.8","0.4","0.1949806013","0.1961062924","0.3253079181","0.3938737051","","","","","","","","","","","76","L","3","","","11","main_expt"
"665","","bandit","90","517867","0.0-51.0-0.0","16350575","wem/bandit_either","AVXEDARJC5HLU","either","8","","","","","","","1","0","0","0.3810544723","","0.2","0.6","0.8","0.4","","","","","0.2587943474","0.1907056259","0.3298150516","0.3810544723","","","","","","","76","L","3","","","12","main_expt"
"665","","bandit","91","520039","0.0-52.0-0.0","16350575","wem/bandit_either","AVXEDARJC5HLU","either","8","","","","","","","0","1","0","","0.3707046684","0.2","0.6","0.8","0.4","0.3085985727","0.2162865666","0.3673307406","0.3707046684","","","","","","","","","","","76","L","3","","","13","main_expt"
"517","","bandit","92","522066","0.0-53.0-0.0","16350575","wem/bandit_either","AVXEDARJC5HLU","either","8","","","","","","","1","0","0","0.3486531997","","0.2","0.6","0.8","0.4","","","","","0.2464992766","0.2399362825","0.3679224674","0.3486531997","","","","","","","76","L","3","","","14","main_expt"
"604","","bandit","93","524185","0.0-54.0-0.0","16350575","wem/bandit_either","AVXEDARJC5HLU","either","8","","","","","","","1","0","0","0.3263578384","","0.2","0.6","0.8","0.4","","","","","0.2474611475","0.1986859052","0.3062507314","0.3263578384","","","","","","","76","L","3","","","15","main_expt"
"1029","","bandit","94","526725","0.0-55.0-0.0","16350575","wem/bandit_either","AVXEDARJC5HLU","either","8","","","","","","","0","0","1","0.3514189979","","0.2","0.6","0.8","0.4","","","","","0.2835538477","0.1865641621","0.2892976033","0.3514189979","","","","","","","76","L","3","","","16","main_expt"
"803","","bandit","95","529040","0.0-56.0-0.0","16350575","wem/bandit_either","AVXEDARJC5HLU","either","8","","","","","","","0","0","1","0.3532592314","","0.2","0.6","0.8","0.4","","","","","0.3256112075","0.2035525071","0.2861796528","0.3532592314","","","","","","","76","L","3","","","17","main_expt"
"499","","bandit","96","531049","0.0-57.0-0.0","16350575","wem/bandit_either","AVXEDARJC5HLU","either","8","","","","","","","0","1","0","","0.3858608091","0.2","0.6","0.8","0.4","0.3802227677","0.2039336531","0.2958570682","0.3858608091","","","","","","","","","","","76","L","3","","","18","main_expt"
"750","","bandit","97","533304","0.0-58.0-0.0","16350575","wem/bandit_either","AVXEDARJC5HLU","either","8","","","","","","","0","0","1","0.3837638756","","0.2","0.6","0.8","0.4","","","","","0.360566968","0.1598579642","0.3353028819","0.3837638756","","","","","","","76","L","3","","","19","main_expt"
"258","","bandit","98","535072","0.0-59.0-0.0","16350575","wem/bandit_either","AVXEDARJC5HLU","either","8","","","","","","","1","0","0","0.3139704528","","0.2","0.6","0.8","0.4","","","","","0.3696799013","0.1437622327","0.3139704528","0.2872100501","","","","","","","75","K","2","","","20","main_expt"
"351","","bandit","99","536929","0.0-60.0-0.0","16350575","wem/bandit_either","AVXEDARJC5HLU","either","8","","","","","","","0","0","1","0.2524707143","","0.2","0.6","0.8","0.4","","","","","0.4006907501","0.07974703335","0.2524707143","0.2975414498","","","","","","","75","K","2","","","21","main_expt"
"682","","bandit","100","539121","0.0-61.0-0.0","16350575","wem/bandit_either","AVXEDARJC5HLU","either","8","","","","","","","0","0","1","0.248326021","","0.2","0.6","0.8","0.4","","","","","0.4081217326","0.1361132429","0.248326021","0.2741965999","","","","","","","75","K","2","","","22","main_expt"
"819","","bandit","101","541446","0.0-62.0-0.0","16350575","wem/bandit_either","AVXEDARJC5HLU","either","8","","","","","","","0","0","1","","0.1705973249","0.2","0.6","0.8","0.4","0.3740207531","0.1705973249","0.2937153481","0.2379064449","","","","","","","","","","","74","J","1","","","23","main_expt"
"318","","bandit","102","543274","0.0-63.0-0.0","16350575","wem/bandit_either","AVXEDARJC5HLU","either","8","","","","","","","1","0","0","0.3913756451","","0.2","0.6","0.8","0.4","","","","","0.3913756451","0.1392759225","0.2625315469","0.2078598572","","","","","","","72","H","0","img/none_selected.jpg","","24","main_expt"
"681","","bandit","103","545462","0.0-64.0-0.0","16350575","wem/bandit_either","AVXEDARJC5HLU","either","8","","","","","","","0","0","1","","0.4100905738","0.2","0.6","0.8","0.4","0.4100905738","0.1800538527","0.2405651368","0.2764850733","","","","","","","","","","","72","H","0","img/none_selected.jpg","","25","main_expt"
"941","","bandit","104","547910","0.0-65.0-0.0","16350575","wem/bandit_either","AVXEDARJC5HLU","either","8","","","","","","","0","0","1","0.3600668969","","0.2","0.6","0.8","0.4","","","","","0.3600668969","0.2146400533","0.2503350336","0.3080191348","","","","","","","72","H","0","img/none_selected.jpg","","26","main_expt"
"322","","bandit","105","549743","0.0-66.0-0.0","16350575","wem/bandit_either","AVXEDARJC5HLU","either","8","","","","","","","1","0","0","0.3606197488","","0.2","0.6","0.8","0.4","","","","","0.3703096079","0.1948367851","0.354091838","0.3606197488","","","","","","","76","L","3","","","27","main_expt"
"839","","bandit","106","552093","0.0-67.0-0.0","16350575","wem/bandit_either","AVXEDARJC5HLU","either","8","","","","","","","1","0","0","0.3696097963","","0.2","0.6","0.8","0.4","","","","","0.3527269899","0.2282666016","0.3419366675","0.3696097963","","","","","","","76","L","3","","","28","main_expt"
"729","","bandit","107","554329","0.0-68.0-0.0","16350575","wem/bandit_either","AVXEDARJC5HLU","either","8","","","","","","","0","0","1","","0.3434444954","0.2","0.6","0.8","0.4","0.2854860911","0.1842618798","0.361896517","0.3434444954","","","","","","","","","","","76","L","3","","","29","main_expt"
"382","","bandit","108","556219","0.0-69.0-0.0","16350575","wem/bandit_either","AVXEDARJC5HLU","either","8","","","","","","","0","0","1","","0.2971434158","0.2","0.6","0.8","0.4","0.2971434158","0.1930267653","0.3701160785","0.3528183973","","","","","","","","","","","72","H","0","img/none_selected.jpg","","30","main_expt"
"285","","bandit","109","558017","0.0-70.0-0.0","16350575","wem/bandit_either","AVXEDARJC5HLU","either","8","","","","","","","0","0","1","","0.3436926249","0.2","0.6","0.8","0.4","0.3192935598","0.2279264959","0.3602312343","0.3436926249","","","","","","","","","","","76","L","3","","","31","main_expt"
"442","","bandit","110","559970","0.0-71.0-0.0","16350575","wem/bandit_either","AVXEDARJC5HLU","either","8","","","","","","","0","0","1","0.3550043818","","0.2","0.6","0.8","0.4","","","","","0.2910845839","0.1922668126","0.3550043818","0.3392376576","","","","","","","75","K","2","","","32","main_expt"
"321","","bandit","111","561801","0.0-72.0-0.0","16350575","wem/bandit_either","AVXEDARJC5HLU","either","8","","","","","","","0","0","1","","0.1503247695","0.2","0.6","0.8","0.4","0.2956883229","0.1503247695","0.3927862597","0.2524106513","","","","","","","","","","","74","J","1","","","33","main_expt"
"8221","","bandit","112","571535","0.0-73.0-0.0","16350575","wem/bandit_either","AVXEDARJC5HLU","either","8","","","","","","","1","0","0","0.2378308988","","0.2","0.6","0.8","0.4","","","","","0.2918182698","0.1875072744","0.4185963197","0.2378308988","","","","","","","76","L","3","","","34","main_expt"
"1995","","bandit","113","575040","0.0-74.0-0.0","16350575","wem/bandit_either","AVXEDARJC5HLU","either","8","","","","","","","1","0","0","0.2683654211","","0.2","0.6","0.8","0.4","","","","","0.3063909307","0.2135507624","0.441983755","0.2683654211","","","","","","","76","L","3","","","35","main_expt"
"722","","bandit","114","577271","0.0-75.0-0.0","16350575","wem/bandit_either","AVXEDARJC5HLU","either","8","","","","","","","0","0","1","0.2645223933","","0.2","0.6","0.8","0.4","","","","","0.2820805085","0.2042402853","0.4352827683","0.2645223933","","","","","","","76","L","3","","","36","main_expt"
"562","","bandit","115","579344","0.0-76.0-0.0","16350575","wem/bandit_either","AVXEDARJC5HLU","either","8","","","","","","","0","0","1","","0.2360561858","0.2","0.6","0.8","0.4","0.2610370824","0.2024605481","0.450520142","0.2360561858","","","","","","","","","","","76","L","3","","","37","main_expt"
"458","","bandit","116","581313","0.0-77.0-0.0","16350575","wem/bandit_either","AVXEDARJC5HLU","either","8","","","","","","","0","0","1","","0.2001865083","0.2","0.6","0.8","0.4","0.1896233007","0.1677713785","0.4681224698","0.2001865083","","","","","","","","","","","76","L","3","","","38","main_expt"
"800","","bandit","117","583619","0.0-78.0-0.0","16350575","wem/bandit_either","AVXEDARJC5HLU","either","8","","","","","","","0","1","0","","0.168851025","0.2","0.6","0.8","0.4","0.168851025","0.221779122","0.4711022053","0.1687915361","","","","","","","","","","","72","H","0","img/none_selected.jpg","","39","main_expt"
"715","","bandit","118","585842","0.0-79.0-0.0","16350575","wem/bandit_either","AVXEDARJC5HLU","either","8","","","","","","","0","0","1","0.1615787635","","0.2","0.6","0.8","0.4","","","","","0.1615787635","0.2722397218","0.4559447699","0.1503151413","","","","","","","72","H","0","img/none_selected.jpg","","40","main_expt"
"530","","bandit","119","587886","0.0-80.0-0.0","16350575","wem/bandit_either","AVXEDARJC5HLU","either","8","","","","","","","0","0","1","0.1472326003","","0.2","0.6","0.8","0.4","","","","","0.1472326003","0.3298230943","0.4412687596","0.08168262283","","","","","","","72","H","0","img/none_selected.jpg","","41","main_expt"
"184","","bandit","120","589579","0.0-81.0-0.0","16350575","wem/bandit_either","AVXEDARJC5HLU","either","8","","","","","","","0","0","1","","0.3104885444","0.2","0.6","0.8","0.4","0.1533480506","0.3104885444","0.4457751761","0.07668629145","","","","","","","","","","","74","J","1","","","42","main_expt"
"267","","bandit","121","591361","0.0-82.0-0.0","16350575","wem/bandit_either","AVXEDARJC5HLU","either","8","","","","","","","0","1","0","","0.3005355489","0.2","0.6","0.8","0.4","0.1414351437","0.3005355489","0.4298378352","0.07394587158","","","","","","","","","","","74","J","1","","","43","main_expt"
"678","","bandit","122","593552","0.0-83.0-0.0","16350575","wem/bandit_either","AVXEDARJC5HLU","either","8","","","","","","","0","0","1","","0.2456242138","0.2","0.6","0.8","0.4","0.1067646429","0.2456242138","0.4416915379","0.1192337685","","","","","","","","","","","74","J","1","","","44","main_expt"
"406","","bandit","123","595470","0.0-84.0-0.0","16350575","wem/bandit_either","AVXEDARJC5HLU","either","8","","","","","","","0","0","1","","0.2839901561","0.2","0.6","0.8","0.4","0.1250796286","0.2839901561","0.3915522423","0.1285724119","","","","","","","","","","","74","J","1","","","45","main_expt"
"47","","bandit","124","597032","0.0-85.0-0.0","16350575","wem/bandit_either","AVXEDARJC5HLU","either","8","","","","","","","1","0","0","0.4318427431","","0.2","0.6","0.8","0.4","","","","","0.1927264636","0.2353621531","0.4318427431","0.1112684106","","","","","","","75","K","2","","","46","main_expt"
"279","","bandit","125","598830","0.0-86.0-0.0","16350575","wem/bandit_either","AVXEDARJC5HLU","either","8","","","","","","","1","0","0","0.4395998441","","0.2","0.6","0.8","0.4","","","","","0.1804488412","0.2405257196","0.4395998441","0.1207340475","","","","","","","75","K","2","","","47","main_expt"
"485","","bandit","126","600827","0.0-87.0-0.0","16350575","wem/bandit_either","AVXEDARJC5HLU","either","8","","","","","","","0","0","1","0.4630443269","","0.2","0.6","0.8","0.4","","","","","0.168268176","0.2629408555","0.4630443269","0.1182533935","","","","","","","75","K","2","","","48","main_expt"
"294","","bandit","127","602629","0.0-88.0-0.0","16350575","wem/bandit_either","AVXEDARJC5HLU","either","8","","","","","","","0","0","1","0.4794982466","","0.2","0.6","0.8","0.4","","","","","0.1466838001","0.2902453213","0.4794982466","0.1460801474","","","","","","","75","K","2","","","49","main_expt"
"205","","bandit","128","604342","0.0-89.0-0.0","16350575","wem/bandit_either","AVXEDARJC5HLU","either","8","","","","","","","0","0","1","","0.1765155983","0.2","0.6","0.8","0.4","0.1336340117","0.3033715012","0.4562783041","0.1765155983","","","","","","","","","","","76","L","3","","","50","main_expt"
"267","","bandit","129","606122","0.0-90.0-0.0","16350575","wem/bandit_either","AVXEDARJC5HLU","either","8","","","","","","","1","0","0","0.4515646323","","0.2","0.6","0.8","0.4","","","","","0.1067821754","0.3536831403","0.4515646323","0.1614266163","","","","","","","75","K","2","","","51","main_expt"
"234","","bandit","130","607869","0.0-91.0-0.0","16350575","wem/bandit_either","AVXEDARJC5HLU","either","8","","","","","","","0","0","1","0.4344137529","","0.2","0.6","0.8","0.4","","","","","0.07294577227","0.3058792917","0.4344137529","0.1938643747","","","","","","","75","K","2","","","52","main_expt"
"404","","bandit","131","609785","0.0-92.0-0.0","16350575","wem/bandit_either","AVXEDARJC5HLU","either","8","","","","","","","0","0","1","0.4421766306","","0.2","0.6","0.8","0.4","","","","","0.07676454597","0.3466820038","0.4421766306","0.1721886996","","","","","","","75","K","2","","","53","main_expt"
"434","","bandit","132","611734","0.0-93.0-0.0","16350575","wem/bandit_either","AVXEDARJC5HLU","either","8","","","","","","","0","1","0","","0.4591875032","0.2","0.6","0.8","0.4","0.07707135067","0.3159173384","0.4591875032","0.1542880765","","","","","","","","","","","75","K","2","","","54","main_expt"
"549","","bandit","133","613796","0.0-94.0-0.0","16350575","wem/bandit_either","AVXEDARJC5HLU","either","8","","","","","","","0","0","1","0.4455250987","","0.2","0.6","0.8","0.4","","","","","0.08227932488","0.3205246683","0.4455250987","0.2155598061","","","","","","","75","K","2","","","55","main_expt"
"267","","bandit","134","615575","0.0-95.0-0.0","16350575","wem/bandit_either","AVXEDARJC5HLU","either","8","","","","","","","1","0","0","0.4200701886","","0.2","0.6","0.8","0.4","","","","","0.09013031375","0.3067659888","0.4200701886","0.199350645","","","","","","","75","K","2","","","56","main_expt"
"559","","bandit","135","617650","0.0-96.0-0.0","16350575","wem/bandit_either","AVXEDARJC5HLU","either","8","","","","","","","0","0","1","0.3635567377","","0.2","0.6","0.8","0.4","","","","","0.106866739","0.3786279545","0.3635567377","0.1991981904","","","","","","","75","K","2","","","57","main_expt"
"461","","bandit","136","619619","0.0-97.0-0.0","16350575","wem/bandit_either","AVXEDARJC5HLU","either","8","","","","","","","1","0","0","0.3647217687","","0.2","0.6","0.8","0.4","","","","","0.0915584437","0.3796022377","0.3647217687","0.1307276253","","","","","","","75","K","2","","","58","main_expt"
"656","","bandit","137","621782","0.0-98.0-0.0","16350575","wem/bandit_either","AVXEDARJC5HLU","either","8","","","","","","","0","1","0","","0.3975499765","0.2","0.6","0.8","0.4","0.1036540812","0.3570845549","0.3975499765","0.1540949786","","","","","","","","","","","75","K","2","","","59","main_expt"
"468","","bandit","138","623762","0.0-99.0-0.0","16350575","wem/bandit_either","AVXEDARJC5HLU","either","8","","","","","","","0","0","1","0.376383165","","0.2","0.6","0.8","0.4","","","","","0.07948280662","0.398525789","0.376383165","0.1187181044","","","","","","","75","K","2","","","60","main_expt"
"360","","bandit","139","625636","0.0-100.0-0.0","16350575","wem/bandit_either","AVXEDARJC5HLU","either","8","","","","","","","0","0","1","","0.3384437455","0.2","0.6","0.8","0.4","0.0685056185","0.380986593","0.3384437455","0.1734870435","","","","","","","","","","","75","K","2","","","61","main_expt"
"631","","bandit","140","627776","0.0-101.0-0.0","16350575","wem/bandit_either","AVXEDARJC5HLU","either","8","","","","","","","0","0","1","0.3086389155","","0.2","0.6","0.8","0.4","","","","","0.04196312691","0.3928002855","0.3086389155","0.2056999461","","","","","","","75","K","2","","","62","main_expt"
"202","","bandit","141","629493","0.0-102.0-0.0","16350575","wem/bandit_either","AVXEDARJC5HLU","either","8","","","","","","","0","1","0","","0.2421495796","0.2","0.6","0.8","0.4","0.06524357318","0.4097838671","0.3098998428","0.2421495796","","","","","","","","","","","76","L","3","","","63","main_expt"
"410","","bandit","142","631415","0.0-103.0-0.0","16350575","wem/bandit_either","AVXEDARJC5HLU","either","8","","","","","","","0","0","1","0.2678986655","","0.2","0.6","0.8","0.4","","","","","0.04599317762","0.3942475769","0.2859800092","0.2678986655","","","","","","","76","L","3","","","64","main_expt"
"382","","bandit","143","633311","0.0-104.0-0.0","16350575","wem/bandit_either","AVXEDARJC5HLU","either","8","","","","","","","0","1","0","","0.2780805564","0.2","0.6","0.8","0.4","0.04738713632","0.3756823908","0.2780623804","0.2780805564","","","","","","","","","","","76","L","3","","","65","main_expt"
"299","","bandit","144","635122","0.0-105.0-0.0","16350575","wem/bandit_either","AVXEDARJC5HLU","either","8","","","","","","","0","0","1","0.2923516192","","0.2","0.6","0.8","0.4","","","","","0.02873144913","0.3780323226","0.2740889186","0.2923516192","","","","","","","76","L","3","","","66","main_expt"
"290","","bandit","145","636920","0.0-106.0-0.0","16350575","wem/bandit_either","AVXEDARJC5HLU","either","8","","","","","","","0","0","1","0.3481747094","","0.2","0.6","0.8","0.4","","","","","0.0355516853","0.382091886","0.3122756929","0.3481747094","","","","","","","76","L","3","","","67","main_expt"
"314","","bandit","146","638753","0.0-107.0-0.0","16350575","wem/bandit_either","AVXEDARJC5HLU","either","8","","","","","","","0","1","0","","0.3540590834","0.2","0.6","0.8","0.4","0.04483006882","0.4080562953","0.3004294993","0.3540590834","","","","","","","","","","","76","L","3","","","68","main_expt"
"476","","bandit","147","640743","0.0-108.0-0.0","16350575","wem/bandit_either","AVXEDARJC5HLU","either","8","","","","","","","1","0","0","0.3348318208","","0.2","0.6","0.8","0.4","","","","","0.04300650393","0.419826639","0.3312842332","0.3348318208","","","","","","","76","L","3","","","69","main_expt"
"252","","bandit","148","642508","0.0-109.0-0.0","16350575","wem/bandit_either","AVXEDARJC5HLU","either","8","","","","","","","0","0","1","","0.3844983113","0.2","0.6","0.8","0.4","0.03960880855","0.3889643965","0.2362018798","0.3844983113","","","","","","","","","","","76","L","3","","","70","main_expt"
"501","","bandit","149","644524","0.0-110.0-0.0","16350575","wem/bandit_either","AVXEDARJC5HLU","either","8","","","","","","","0","0","1","","0.3753843975","0.2","0.6","0.8","0.4","0.02401392238","0.3492343966","0.1838323472","0.3753843975","","","","","","","","","","","76","L","3","","","71","main_expt"
"316","","bandit","150","646354","0.0-111.0-0.0","16350575","wem/bandit_either","AVXEDARJC5HLU","either","8","","","","","","","0","0","1","0.008756159955","","0.2","0.6","0.8","0.4","","","","","0.008756159955","0.3502155883","0.1749810972","0.3861429343","","","","","","","72","H","0","img/none_selected.jpg","","72","main_expt"
"747","","bandit","151","648615","0.0-112.0-0.0","16350575","wem/bandit_either","AVXEDARJC5HLU","either","8","","","","","","","0","0","1","","0.006257651783","0.2","0.6","0.8","0.4","0.006257651783","0.3568691787","0.1664097112","0.3978436086","","","","","","","","","","","72","H","0","img/none_selected.jpg","","73","main_expt"
"490","","bandit","152","650615","0.0-113.0-0.0","16350575","wem/bandit_either","AVXEDARJC5HLU","either","8","","","","","","","0","0","1","","0.004732084297","0.2","0.6","0.8","0.4","0.004732084297","0.3303653739","0.2001176207","0.3847979518","","","","","","","","","","","72","H","0","img/none_selected.jpg","","74","main_expt"
"343","","bandit","153","652464","0.0-114.0-0.0","16350575","wem/bandit_either","AVXEDARJC5HLU","either","8","","","","","","","0","0","1","","0.3353283381","0.2","0.6","0.8","0.4","0.006967558871","0.3353283381","0.1848717924","0.3974319157","","","","","","","","","","","74","J","1","","","75","main_expt"
"768","","bandit","154","654746","0.0-115.0-0.0","16350575","wem/bandit_either","AVXEDARJC5HLU","either","8","","","","","","","0","0","1","0.3009524994","","0.2","0.6","0.8","0.4","","","","","0.004525860487","0.3009524994","0.1510178238","0.3987985884","","","","","","","74","J","1","","","76","main_expt"
"593","","bandit","155","656854","0.0-116.0-0.0","16350575","wem/bandit_either","AVXEDARJC5HLU","either","8","","","","","","","0","1","0","","0.3316028908","0.2","0.6","0.8","0.4","0.007245535115","0.3316028908","0.2089633591","0.4127312768","","","","","","","","","","","74","J","1","","","77","main_expt"
"597","","bandit","156","658973","0.0-117.0-0.0","16350575","wem/bandit_either","AVXEDARJC5HLU","either","8","","","","","","","0","0","1","0.3571024926","","0.2","0.6","0.8","0.4","","","","","0.00483057751","0.3571024926","0.2285147345","0.4257675477","","","","","","","74","J","1","","","78","main_expt"
"1018","","bandit","157","661505","0.0-118.0-0.0","16350575","wem/bandit_either","AVXEDARJC5HLU","either","8","","","","","","","0","0","1","","0.3542776451","0.2","0.6","0.8","0.4","0.005956317848","0.3542776451","0.2246975601","0.4331167668","","","","","","","","","","","74","J","1","","","79","main_expt"
"202","","bandit","158","663221","0.0-119.0-0.0","16350575","wem/bandit_either","AVXEDARJC5HLU","either","8","","","","","","","0","0","1","0.1878766281","","0.2","0.6","0.8","0.4","","","","","0.0076590047","0.3201174307","0.1878766281","0.4294395537","","","","","","","75","K","2","","","80","main_expt"
"1501","","bandit","159","666236","0.0-120.0-0.0","16350575","wem/bandit_either","AVXEDARJC5HLU","either","8","","","","","","","1","0","0","0.4234249918","","0.2","0.6","0.8","0.4","","","","","0.009115568074","0.3503003334","0.2436254364","0.4234249918","","","","","","","76","L","3","","","81","main_expt"
"836","","bandit","160","668588","0.0-121.0-0.0","16350575","wem/bandit_either","AVXEDARJC5HLU","either","8","","","","","","","0","0","1","","0.3956977209","0.2","0.6","0.8","0.4","0.01382977225","0.3509066846","0.2627531714","0.3956977209","","","","","","","","","","","76","L","3","","","82","main_expt"
"331","","bandit","161","670429","0.0-122.0-0.0","16350575","wem/bandit_either","AVXEDARJC5HLU","either","8","","","","","","","1","0","0","0.4248650233","","0.2","0.6","0.8","0.4","","","","","0.01500629599","0.3951868033","0.2672212524","0.4248650233","","","","","","","76","L","3","","","83","main_expt"
"850","","bandit","162","672789","0.0-123.0-0.0","16350575","wem/bandit_either","AVXEDARJC5HLU","either","8","","","","","","","0","0","1","0.4196907627","","0.2","0.6","0.8","0.4","","","","","0.02310127573","0.4131477378","0.2817484998","0.4196907627","","","","","","","76","L","3","","","84","main_expt"
"4873","","bandit","163","679174","0.0-124.0-0.0","16350575","wem/bandit_either","AVXEDARJC5HLU","either","8","","","","","","","0","1","0","","0.435633498","0.2","0.6","0.8","0.4","0.02639065846","0.3889697292","0.3074775227","0.435633498","","","","","","","","","","","76","L","3","","","85","main_expt"
"2105","","bandit","164","682790","0.0-125.0-0.0","16350575","wem/bandit_either","AVXEDARJC5HLU","either","8","","","","","","","1","0","0","0.4322222521","","0.2","0.6","0.8","0.4","","","","","0.01746441632","0.3885636443","0.2717847629","0.4322222521","","","","","","","76","L","3","","","86","main_expt"
"1827","","bandit","165","686129","0.0-126.0-0.0","16350575","wem/bandit_either","AVXEDARJC5HLU","either","8","","","","","","","1","0","0","0.4476119451","","0.2","0.6","0.8","0.4","","","","","0.01256144444","0.4028282504","0.2183858348","0.4476119451","","","","","","","76","L","3","","","87","main_expt"
"528","","bandit","166","688167","0.0-127.0-0.0","16350575","wem/bandit_either","AVXEDARJC5HLU","either","8","","","","","","","1","0","0","0.4073123198","","0.2","0.6","0.8","0.4","","","","","0.01178158386","0.4306890759","0.2054961256","0.4073123198","","","","","","","76","L","3","","","88","main_expt"
"1067","","bandit","167","690748","0.0-128.0-0.0","16350575","wem/bandit_either","AVXEDARJC5HLU","either","8","","","","","","","1","0","0","0.3862301724","","0.2","0.6","0.8","0.4","","","","","0.008722555822","0.4103738654","0.1452714398","0.3862301724","","","","","","","76","L","3","","","89","main_expt"
"556","","bandit","168","692821","0.0-129.0-0.0","16350575","wem/bandit_either","AVXEDARJC5HLU","either","8","","","","","","","1","0","0","0.3596745144","","0.2","0.6","0.8","0.4","","","","","0.008232471735","0.3980827974","0.1077779513","0.3596745144","","","","","","","76","L","3","","","90","main_expt"
"1329","","bandit","169","695665","0.0-130.0-0.0","16350575","wem/bandit_either","AVXEDARJC5HLU","either","8","","","","","","","0","0","1","0.3082854458","","0.2","0.6","0.8","0.4","","","","","0.01249180717","0.4040531024","0.1308407065","0.3082854458","","","","","","","76","L","3","","","91","main_expt"
"3691","","bandit","170","700862","0.0-131.0-0.0","16350575","wem/bandit_either","AVXEDARJC5HLU","either","8","","","","","","","0","0","1","","0.312225492","0.2","0.6","0.8","0.4","0.01470986316","0.3462944796","0.1652322036","0.312225492","","","","","","","","","","","76","L","3","","","92","main_expt"
"1891","","bandit","171","704268","0.0-132.0-0.0","16350575","wem/bandit_either","AVXEDARJC5HLU","either","8","","","","","","","0","0","1","","0.3671658277","0.2","0.6","0.8","0.4","0.02655281846","0.3411451966","0.1344678182","0.3671658277","","","","","","","","","","","76","L","3","","","93","main_expt"
"327","","bandit","172","706102","0.0-133.0-0.0","16350575","wem/bandit_either","AVXEDARJC5HLU","either","8","","","","","","","0","0","1","0.3401731108","","0.2","0.6","0.8","0.4","","","","","0.02575246025","0.3384154489","0.1301314301","0.3401731108","","","","","","","76","L","3","","","94","main_expt"
"339","","bandit","173","707949","0.0-134.0-0.0","16350575","wem/bandit_either","AVXEDARJC5HLU","either","8","","","","","","","0","0","1","0.3413923724","","0.2","0.6","0.8","0.4","","","","","0.02262355665","0.3126988266","0.1746055711","0.3413923724","","","","","","","76","L","3","","","95","main_expt"
"631","","bandit","174","710089","0.0-135.0-0.0","16350575","wem/bandit_either","AVXEDARJC5HLU","either","8","","","","","","","0","0","1","","0.02047181149","0.2","0.6","0.8","0.4","0.02047181149","0.3800019137","0.1994244555","0.3570420485","","","","","","","","","","","72","H","0","img/none_selected.jpg","","96","main_expt"
"606","","bandit","175","712204","0.0-136.0-0.0","16350575","wem/bandit_either","AVXEDARJC5HLU","either","8","","","","","","","0","0","1","","0.0207754381","0.2","0.6","0.8","0.4","0.0207754381","0.3328121005","0.1834602947","0.3435474977","","","","","","","","","","","72","H","0","img/none_selected.jpg","","97","main_expt"
"313","","bandit","176","714032","0.0-137.0-0.0","16350575","wem/bandit_either","AVXEDARJC5HLU","either","8","","","","","","","0","0","1","0.332228596","","0.2","0.6","0.8","0.4","","","","","0.02955834597","0.332228596","0.1719221531","0.3614714926","","","","","","","74","J","1","","","98","main_expt"
"309","","bandit","177","715850","0.0-138.0-0.0","16350575","wem/bandit_either","AVXEDARJC5HLU","either","8","","","","","","","0","0","1","0.1183399241","","0.2","0.6","0.8","0.4","","","","","0.0383131093","0.2843854285","0.1183399241","0.3176405447","","","","","","","75","K","2","","","99","main_expt"
"716","","bandit","178","718079","0.0-139.0-0.0","16350575","wem/bandit_either","AVXEDARJC5HLU","either","8","","","","","","","0","0","1","0.1558635017","","0.2","0.6","0.8","0.4","","","","","0.03580757471","0.309751149","0.1558635017","0.3586553183","","","","","","","75","K","2","","","100","main_expt"
"333","","bandit","179","719927","0.0-140.0-0.0","16350575","wem/bandit_either","AVXEDARJC5HLU","either","8","","","","","","","1","0","0","0.2951503345","","0.2","0.6","0.8","0.4","","","","","0.04899620691","0.2993195944","0.1389665978","0.2951503345","","","","","","","76","L","3","","","101","main_expt"
"476","","bandit","180","721920","0.0-141.0-0.0","16350575","wem/bandit_either","AVXEDARJC5HLU","either","8","","","","","","","0","1","0","","0.2998391809","0.2","0.6","0.8","0.4","0.08055650644","0.3551890872","0.1377203561","0.2998391809","","","","","","","","","","","76","L","3","","","102","main_expt"
"5742","","bandit","181","729174","0.0-142.0-0.0","16350575","wem/bandit_either","AVXEDARJC5HLU","either","8","","","","","","","0","1","0","","0.2791823827","0.2","0.6","0.8","0.4","0.1040447627","0.3148404956","0.1285548106","0.2791823827","","","","","","","","","","","76","L","3","","","103","main_expt"
"1943","","bandit","182","732632","0.0-143.0-0.0","16350575","wem/bandit_either","AVXEDARJC5HLU","either","8","","","","","","","0","1","0","","0.3382769334","0.2","0.6","0.8","0.4","0.1143547335","0.3286912191","0.1555523735","0.3382769334","","","","","","","","","","","76","L","3","","","104","main_expt"
"1091","","bandit","183","735237","0.0-144.0-0.0","16350575","wem/bandit_either","AVXEDARJC5HLU","either","8","","","","","","","0","0","1","","0.3339697125","0.2","0.6","0.8","0.4","0.1487676438","0.298340497","0.1775592141","0.3339697125","","","","","","","","","","","76","L","3","","","105","main_expt"
"9","","bandit","184","736754","0.0-145.0-0.0","16350575","wem/bandit_either","AVXEDARJC5HLU","either","8","","","","","","","1","0","0","0.3124129253","","0.2","0.6","0.8","0.4","","","","","0.152088545","0.3504464386","0.2263451353","0.3124129253","","","","","","","76","L","3","","","106","main_expt"
"303","","bandit","185","738573","0.0-146.0-0.0","16350575","wem/bandit_either","AVXEDARJC5HLU","either","8","","","","","","","0","0","1","","0.3400683723","0.2","0.6","0.8","0.4","0.2406734145","0.3510410077","0.1679769802","0.3400683723","","","","","","","","","","","76","L","3","","","107","main_expt"
"285","","bandit","186","740373","0.0-147.0-0.0","16350575","wem/bandit_either","AVXEDARJC5HLU","either","8","","","","","","","0","1","0","","0.3557340834","0.2","0.6","0.8","0.4","0.3048040024","0.3282766846","0.1999870147","0.3557340834","","","","","","","","","","","76","L","3","","","108","main_expt"
"689","","bandit","187","742576","0.0-148.0-0.0","16350575","wem/bandit_either","AVXEDARJC5HLU","either","8","","","","","","","0","0","1","","0.3846418901","0.2","0.6","0.8","0.4","0.3418503096","0.3561186451","0.208992856","0.3846418901","","","","","","","","","","","76","L","3","","","109","main_expt"
"520","","bandit","188","744604","0.0-149.0-0.0","16350575","wem/bandit_either","AVXEDARJC5HLU","either","8","","","","","","","1","0","0","0.4057962062","","0.2","0.6","0.8","0.4","","","","","0.3198501315","0.3576445865","0.1716040471","0.4057962062","","","","","","","76","L","3","","","110","main_expt"
"454","","bandit","189","746572","0.0-150.0-0.0","16350575","wem/bandit_either","AVXEDARJC5HLU","either","8","","","","","","","0","0","1","0.3692451483","","0.2","0.6","0.8","0.4","","","","","0.3681534847","0.3377543854","0.08984071331","0.3692451483","","","","","","","76","L","3","","","111","main_expt"
"653","","bandit","190","748739","0.0-151.0-0.0","16350575","wem/bandit_either","AVXEDARJC5HLU","either","8","","","","","","","0","1","0","","0.3577317973","0.2","0.6","0.8","0.4","0.3757830796","0.286234052","0.1243463141","0.3577317973","","","","","","","","","","","76","L","3","","","112","main_expt"
"952","","bandit","191","751198","0.0-152.0-0.0","16350575","wem/bandit_either","AVXEDARJC5HLU","either","8","","","","","","","0","1","0","","0.3328808086","0.2","0.6","0.8","0.4","0.3838999828","0.1932674395","0.1433440675","0.3328808086","","","","","","","","","","","76","L","3","","","113","main_expt"
"654","","bandit","192","753365","0.0-153.0-0.0","16350575","wem/bandit_either","AVXEDARJC5HLU","either","8","","","","","","","1","0","0","0.3416979579","","0.2","0.6","0.8","0.4","","","","","0.4157938717","0.2403040534","0.1510662198","0.3416979579","","","","","","","76","L","3","","","114","main_expt"
"488","","bandit","193","755368","0.0-154.0-0.0","16350575","wem/bandit_either","AVXEDARJC5HLU","either","8","","","","","","","0","0","1","0.3377137281","","0.2","0.6","0.8","0.4","","","","","0.4055870595","0.254937398","0.09845245139","0.3377137281","","","","","","","76","L","3","","","115","main_expt"
"464","","bandit","194","757340","0.0-155.0-0.0","16350575","wem/bandit_either","AVXEDARJC5HLU","either","8","","","","","","","0","1","0","","0.3039448029","0.2","0.6","0.8","0.4","0.4161015278","0.2605063941","0.107393795","0.3039448029","","","","","","","","","","","76","L","3","","","116","main_expt"
"536","","bandit","195","759391","0.0-156.0-0.0","16350575","wem/bandit_either","AVXEDARJC5HLU","either","8","","","","","","","0","0","1","","0.2974336912","0.2","0.6","0.8","0.4","0.414877819","0.2161328783","0.07879800556","0.2974336912","","","","","","","","","","","76","L","3","","","117","main_expt"
"612","","bandit","196","761519","0.0-157.0-0.0","16350575","wem/bandit_either","AVXEDARJC5HLU","either","8","","","","","","","0","0","1","","0.2651867246","0.2","0.6","0.8","0.4","0.3968259953","0.1931197841","0.08383735875","0.2651867246","","","","","","","","","","","76","L","3","","","118","main_expt"
"537","","bandit","197","763574","0.0-158.0-0.0","16350575","wem/bandit_either","AVXEDARJC5HLU","either","8","","","","","","","0","0","1","0.3131666206","","0.2","0.6","0.8","0.4","","","","","0.4198241006","0.1638183597","0.1392474383","0.3131666206","","","","","","","76","L","3","","","119","main_expt"
"574","","bandit","198","765656","0.0-159.0-0.0","16350575","wem/bandit_either","AVXEDARJC5HLU","either","8","","","","","","","0","1","0","","0.358829095","0.2","0.6","0.8","0.4","0.4286088018","0.1893282748","0.1649404926","0.358829095","","","","","","","","","","","76","L","3","","","120","main_expt"
"467","","bandit","199","767634","0.0-160.0-0.0","16350575","wem/bandit_either","AVXEDARJC5HLU","either","8","","","","","","","0","0","1","","0.3189860171","0.2","0.6","0.8","0.4","0.4253829576","0.2290368179","0.1764152442","0.3189860171","","","","","","","","","","","76","L","3","","","121","main_expt"
"227","","bandit","200","769377","0.0-161.0-0.0","16350575","wem/bandit_either","AVXEDARJC5HLU","either","8","","","","","","","0","0","1","","0.3011672979","0.2","0.6","0.8","0.4","0.4235175979","0.2445441383","0.2092397698","0.3011672979","","","","","","","","","","","76","L","3","","","122","main_expt"
"301","","bandit","201","771191","0.0-162.0-0.0","16350575","wem/bandit_either","AVXEDARJC5HLU","either","8","","","","","","","0","1","0","","0.3037948063","0.2","0.6","0.8","0.4","0.4182090072","0.2091075756","0.1884058447","0.3037948063","","","","","","","","","","","76","L","3","","","123","main_expt"
"350","","bandit","202","773056","0.0-163.0-0.0","16350575","wem/bandit_either","AVXEDARJC5HLU","either","8","","","","","","","0","0","1","0.2446200253","","0.2","0.6","0.8","0.4","","","","","0.4356016004","0.2216111921","0.1876417206","0.2446200253","","","","","","","76","L","3","","","124","main_expt"
"365","","bandit","203","774932","0.0-164.0-0.0","16350575","wem/bandit_either","AVXEDARJC5HLU","either","8","","","","","","","0","1","0","","0.2464628806","0.2","0.6","0.8","0.4","0.403953628","0.1622020501","0.1890564589","0.2464628806","","","","","","","","","","","76","L","3","","","125","main_expt"
"629","","bandit","204","777081","0.0-165.0-0.0","16350575","wem/bandit_either","AVXEDARJC5HLU","either","8","","","","","","","0","0","1","0.281169445","","0.2","0.6","0.8","0.4","","","","","0.4020675328","0.173533554","0.1659850756","0.281169445","","","","","","","76","L","3","","","126","main_expt"
"206","","bandit","205","778799","0.0-166.0-0.0","16350575","wem/bandit_either","AVXEDARJC5HLU","either","8","","","","","","","0","0","1","","0.290080064","0.2","0.6","0.8","0.4","0.338443572","0.189829559","0.2006343121","0.290080064","","","","","","","","","","","76","L","3","","","127","main_expt"
"615","","bandit","206","780931","0.0-167.0-0.0","16350575","wem/bandit_either","AVXEDARJC5HLU","either","8","","","","","","","0","0","1","0.3280989756","","0.2","0.6","0.8","0.4","","","","","0.323123489","0.1764696366","0.2637444583","0.3280989756","","","","","","","76","L","3","","","128","main_expt"
"316","","bandit","207","782763","0.0-168.0-0.0","16350575","wem/bandit_either","AVXEDARJC5HLU","either","8","","","","","","","0","1","0","","0.3615310162","0.2","0.6","0.8","0.4","0.3615310162","0.172709194","0.2783394686","0.3052704822","","","","","","","","","","","72","H","0","img/none_selected.jpg","","129","main_expt"
"471","","bandit","208","784748","0.0-169.0-0.0","16350575","wem/bandit_either","AVXEDARJC5HLU","either","8","","","","","","","0","1","0","","0.3667448715","0.2","0.6","0.8","0.4","0.3667448715","0.1407460215","0.2674474002","0.314718742","","","","","","","","","","","72","H","0","img/none_selected.jpg","","130","main_expt"
"468","","bandit","209","786726","0.0-170.0-0.0","16350575","wem/bandit_either","AVXEDARJC5HLU","either","8","","","","","","","1","0","0","0.341745941","","0.2","0.6","0.8","0.4","","","","","0.341745941","0.143826562","0.2122920843","0.2492347367","","","","","","","72","H","0","img/none_selected.jpg","","131","main_expt"
"447","","bandit","210","788681","0.0-171.0-0.0","16350575","wem/bandit_either","AVXEDARJC5HLU","either","8","","","","","","","0","0","1","","0.2615325727","0.2","0.6","0.8","0.4","0.2615325727","0.1862992663","0.1969346152","0.2495736985","","","","","","","","","","","72","H","0","img/none_selected.jpg","","132","main_expt"
"895","","bandit","211","791086","0.0-172.0-0.0","16350575","wem/bandit_either","AVXEDARJC5HLU","either","8","","","","","","","0","0","1","","0.27905624","0.2","0.6","0.8","0.4","0.27905624","0.185648564","0.1390835973","0.2487120015","","","","","","","","","","","72","H","0","img/none_selected.jpg","","133","main_expt"
"983","","bandit","212","793580","0.0-173.0-0.0","16350575","wem/bandit_either","AVXEDARJC5HLU","either","8","","","","","","","0","0","1","","0.2751163123","0.2","0.6","0.8","0.4","0.2751163123","0.2002276213","0.1437640715","0.3239420422","","","","","","","","","","","72","H","0","img/none_selected.jpg","","134","main_expt"
"426","","bandit","213","795527","0.0-174.0-0.0","16350575","wem/bandit_either","AVXEDARJC5HLU","either","8","","","","","","","0","0","1","","0.2474552851","0.2","0.6","0.8","0.4","0.2586507773","0.2474552851","0.1175999949","0.3903525049","","","","","","","","","","","74","J","1","","","135","main_expt"
"366","","bandit","214","797407","0.0-175.0-0.0","16350575","wem/bandit_either","AVXEDARJC5HLU","either","8","","","","","","","0","0","1","","0.1108499649","0.2","0.6","0.8","0.4","0.2385277364","0.2454982057","0.1108499649","0.3703049055","","","","","","","","","","","75","K","2","","","136","main_expt"
"431","","bandit","215","799347","0.0-176.0-0.0","16350575","wem/bandit_either","AVXEDARJC5HLU","either","8","","","","","","","0","0","1","0.3657944308","","0.2","0.6","0.8","0.4","","","","","0.1935782534","0.2708690816","0.1208727618","0.3657944308","","","","","","","76","L","3","","","137","main_expt"
"542","","bandit","216","801405","0.0-177.0-0.0","16350575","wem/bandit_either","AVXEDARJC5HLU","either","8","","","","","","","0","0","1","","0.14087624","0.2","0.6","0.8","0.4","0.14087624","0.2219039101","0.1098805161","0.3452946514","","","","","","","","","","","72","H","0","img/none_selected.jpg","","138","main_expt"
"1037","","bandit","217","803956","0.0-178.0-0.0","16350575","wem/bandit_either","AVXEDARJC5HLU","either","8","","","","","","","0","0","1","0.2485571535","","0.2","0.6","0.8","0.4","","","","","0.1340930794","0.2485571535","0.1359731218","0.3225052804","","","","","","","74","J","1","","","139","main_expt"
"685","","bandit","218","806151","0.0-179.0-0.0","16350575","wem/bandit_either","AVXEDARJC5HLU","either","8","","","","","","","0","0","1","","0.2605640439","0.2","0.6","0.8","0.4","0.1170750994","0.2605640439","0.1419248406","0.2997250911","","","","","","","","","","","74","J","1","","","140","main_expt"
"507","","bandit","219","808177","0.0-180.0-0.0","16350575","wem/bandit_either","AVXEDARJC5HLU","either","8","","","","","","","0","0","1","0.1269577117","","0.2","0.6","0.8","0.4","","","","","0.1316830279","0.2260680923","0.1269577117","0.311933389","","","","","","","75","K","2","","","141","main_expt"
"851","","bandit","220","810543","0.0-181.0-0.0","16350575","wem/bandit_either","AVXEDARJC5HLU","either","8","","","","","","","0","0","1","0.1073819056","","0.2","0.6","0.8","0.4","","","","","0.09490366034","0.2354846983","0.1073819056","0.3442568425","","","","","","","75","K","2","","","142","main_expt"
"667","","bandit","221","812727","0.0-182.0-0.0","16350575","wem/bandit_either","AVXEDARJC5HLU","either","8","","","","","","","0","0","1","0.3117203045","","0.2","0.6","0.8","0.4","","","","","0.1246024154","0.2089358464","0.1152767294","0.3117203045","","","","","","","76","L","3","","","143","main_expt"
"387","","bandit","222","814629","0.0-183.0-0.0","16350575","wem/bandit_either","AVXEDARJC5HLU","either","8","","","","","","","0","0","1","","0.3080771123","0.2","0.6","0.8","0.4","0.1179874238","0.1844607625","0.1317444946","0.3080771123","","","","","","","","","","","76","L","3","","","144","main_expt"
"203","","bandit","223","816343","0.0-184.0-0.0","16350575","wem/bandit_either","AVXEDARJC5HLU","either","8","","","","","","","0","0","1","","0.1211842963","0.2","0.6","0.8","0.4","0.1211842963","0.1940384654","0.1058600218","0.3146876691","","","","","","","","","","","72","H","0","img/none_selected.jpg","","145","main_expt"
"6404","","bandit","224","824264","0.0-185.0-0.0","16350575","wem/bandit_either","AVXEDARJC5HLU","either","8","","","","","","","0","0","1","","0.06212451067","0.2","0.6","0.8","0.4","0.06212451067","0.2532022814","0.1862633901","0.3526806189","","","","","","","","","","","72","H","0","img/none_selected.jpg","","146","main_expt"
"314","","bandit","225","826091","0.0-186.0-0.0","16350575","wem/bandit_either","AVXEDARJC5HLU","either","8","","","","","","","0","0","1","","0.272856749","0.2","0.6","0.8","0.4","0.05826033827","0.272856749","0.1944793183","0.3859334927","","","","","","","","","","","74","J","1","","","147","main_expt"
"340","","bandit","226","827942","0.0-187.0-0.0","16350575","wem/bandit_either","AVXEDARJC5HLU","either","8","","","","","","","0","0","1","0.1572605535","","0.2","0.6","0.8","0.4","","","","","0.04847575149","0.2441255329","0.1572605535","0.4089873985","","","","","","","75","K","2","","","148","main_expt"
"717","","bandit","227","830170","0.0-188.0-0.0","16350575","wem/bandit_either","AVXEDARJC5HLU","either","8","","","","","","","1","0","0","0.3317076441","","0.2","0.6","0.8","0.4","","","","","0.07397138717","0.2304797635","0.1632070519","0.3317076441","","","","","","","76","L","3","","","149","main_expt"
"1132","","bandit","228","832818","0.0-189.0-0.0","16350575","wem/bandit_either","AVXEDARJC5HLU","either","8","","","","","","","0","0","1","","0.2514439341","0.2","0.6","0.8","0.4","0.1178437277","0.2645424191","0.2162169298","0.2514439341","","","","","","","","","","","76","L","3","","","150","main_expt"
"885","","bandit","229","835218","0.0-190.0-0.0","16350575","wem/bandit_either","AVXEDARJC5HLU","either","8","","","","","","","0","0","1","","0.2209696772","0.2","0.6","0.8","0.4","0.1116740648","0.2919476008","0.2806681102","0.2209696772","","","","","","","","","","","76","L","3","","","151","main_expt"
"360","","bandit","230","837093","0.0-191.0-0.0","16350575","wem/bandit_either","AVXEDARJC5HLU","either","8","","","","","","","0","0","1","","0.2004300668","0.2","0.6","0.8","0.4","0.09681320826","0.3004198658","0.25223767","0.2004300668","","","","","","","","","","","76","L","3","","","152","main_expt"
"1110","","bandit","231","839719","0.0-192.0-0.0","16350575","wem/bandit_either","AVXEDARJC5HLU","either","8","","","","","","","0","0","1","","0.1162344283","0.2","0.6","0.8","0.4","0.1162344283","0.2910243242","0.2259503681","0.1803159607","","","","","","","","","","","72","H","0","img/none_selected.jpg","","153","main_expt"
"510","","bandit","232","841746","0.0-193.0-0.0","16350575","wem/bandit_either","AVXEDARJC5HLU","either","8","","","","","","","0","0","1","0.2858680692","","0.2","0.6","0.8","0.4","","","","","0.1441765144","0.2858680692","0.2520515582","0.1793353988","","","","","","","74","J","1","","","154","main_expt"
"148","","bandit","233","843411","0.0-194.0-0.0","16350575","wem/bandit_either","AVXEDARJC5HLU","either","8","","","","","","","0","0","1","0.246895917","","0.2","0.6","0.8","0.4","","","","","0.1506434262","0.276906037","0.246895917","0.175125938","","","","","","","75","K","2","","","155","main_expt"
"257","","bandit","234","845184","0.0-195.0-0.0","16350575","wem/bandit_either","AVXEDARJC5HLU","either","8","","","","","","","0","0","1","0.3087514371","","0.2","0.6","0.8","0.4","","","","","0.1691825384","0.3087514371","0.2067462234","0.19004546","","","","","","","74","J","1","","","156","main_expt"
"73","","bandit","235","846774","0.0-196.0-0.0","16350575","wem/bandit_either","AVXEDARJC5HLU","either","8","","","","","","","0","0","1","0.1736677602","","0.2","0.6","0.8","0.4","","","","","0.1465267651","0.3400763937","0.1736677602","0.1538528063","","","","","","","75","K","2","","","157","main_expt"
"273","","bandit","236","848561","0.0-197.0-0.0","16350575","wem/bandit_either","AVXEDARJC5HLU","either","8","","","","","","","0","0","1","","0.1517260174","0.2","0.6","0.8","0.4","0.1517260174","0.3388441277","0.2437422656","0.1624419901","","","","","","","","","","","72","H","0","img/none_selected.jpg","","158","main_expt"
"984","","bandit","237","851059","0.0-198.0-0.0","16350575","wem/bandit_either","AVXEDARJC5HLU","either","8","","","","","","","0","0","1","","0.143579764","0.2","0.6","0.8","0.4","0.143579764","0.3496437485","0.2627628197","0.1749682205","","","","","","","","","","","72","H","0","img/none_selected.jpg","","159","main_expt"
"4855","","bandit","238","857427","0.0-199.0-0.0","16350575","wem/bandit_either","AVXEDARJC5HLU","either","8","","","","","","","0","0","1","0.2227833177","","0.2","0.6","0.8","0.4","","","","","0.1701049762","0.3347491532","0.2532756584","0.2227833177","","","","","","","76","L","3","","","160","main_expt"
"348","","bandit","239","859290","0.0-200.0-0.0","16350575","wem/bandit_either","AVXEDARJC5HLU","either","8","","","","","","","0","0","1","","0.1616195486","0.2","0.6","0.8","0.4","0.1596038406","0.3036625801","0.2846030245","0.1616195486","","","","","","","","","","","76","L","3","","","161","main_expt"
"389","","bandit","240","861190","0.0-201.0-0.0","16350575","wem/bandit_either","AVXEDARJC5HLU","either","8","","","","","","","0","0","1","0.1440802068","","0.2","0.6","0.8","0.4","","","","","0.1186271452","0.2735804545","0.2480450928","0.1440802068","","","","","","","76","L","3","","","162","main_expt"
"299","","bandit","241","863005","0.0-202.0-0.0","16350575","wem/bandit_either","AVXEDARJC5HLU","either","8","","","","","","","0","0","1","","0.1349250059","0.2","0.6","0.8","0.4","0.1460830151","0.2219233964","0.3217860246","0.1349250059","","","","","","","","","","","76","L","3","","","163","main_expt"
"220","","bandit","242","864735","0.0-203.0-0.0","16350575","wem/bandit_either","AVXEDARJC5HLU","either","8","","","","","","","0","0","1","","0.1924179555","0.2","0.6","0.8","0.4","0.1924179555","0.2489701673","0.3528623486","0.1482528248","","","","","","","","","","","72","H","0","img/none_selected.jpg","","164","main_expt"
"806","","bandit","243","867054","0.0-204.0-0.0","16350575","wem/bandit_either","AVXEDARJC5HLU","either","8","","","","","","","0","0","1","","0.1909643941","0.2","0.6","0.8","0.4","0.1909643941","0.2424219606","0.3113737792","0.1444116863","","","","","","","","","","","72","H","0","img/none_selected.jpg","","165","main_expt"
"852","","bandit","244","869412","0.0-205.0-0.0","16350575","wem/bandit_either","AVXEDARJC5HLU","either","8","","","","","","","0","0","1","0.1917506842","","0.2","0.6","0.8","0.4","","","","","0.1917506842","0.1899742571","0.2820045276","0.1621449425","","","","","","","72","H","0","img/none_selected.jpg","","166","main_expt"
"381","","bandit","245","871302","0.0-206.0-0.0","16350575","wem/bandit_either","AVXEDARJC5HLU","either","8","","","","","","","0","0","1","","0.2238056512","0.2","0.6","0.8","0.4","0.2238056512","0.2298880826","0.2539690707","0.1695256229","","","","","","","","","","","72","H","0","img/none_selected.jpg","","167","main_expt"
"31","","bandit","246","872849","0.0-207.0-0.0","16350575","wem/bandit_either","AVXEDARJC5HLU","either","8","","","","","","","0","0","1","0.241220494","","0.2","0.6","0.8","0.4","","","","","0.2132240521","0.241220494","0.2177565821","0.1712445676","","","","","","","74","J","1","","","168","main_expt"
"1068","","bandit","247","875436","0.0-208.0-0.0","16350575","wem/bandit_either","AVXEDARJC5HLU","either","8","","","","","","","0","1","0","","0.2113351254","0.2","0.6","0.8","0.4","0.1363713625","0.2113351254","0.183214586","0.191079104","","","","","","","","","","","74","J","1","","","169","main_expt"
"774","","bandit","248","877726","0.0-209.0-0.0","16350575","wem/bandit_either","AVXEDARJC5HLU","either","8","","","","","","","1","0","0","0.2224744884","","0.2","0.6","0.8","0.4","","","","","0.2007690262","0.2224744884","0.1757282231","0.2227666825","","","","","","","74","J","1","","","170","main_expt"
"661","","bandit","249","879904","0.0-210.0-0.0","16350575","wem/bandit_either","AVXEDARJC5HLU","either","8","","","","","","","0","0","1","","0.262177911","0.2","0.6","0.8","0.4","0.1238998316","0.262177911","0.1679331046","0.2719914804","","","","","","","","","","","74","J","1","","","171","main_expt"
"588","","bandit","250","882007","0.0-211.0-0.0","16350575","wem/bandit_either","AVXEDARJC5HLU","either","8","","","","","","","0","0","1","","0.2822992514","0.2","0.6","0.8","0.4","0.09746419185","0.2822992514","0.14560319","0.2330128459","","","","","","","","","","","74","J","1","","","172","main_expt"
"772","","bandit","251","884292","0.0-212.0-0.0","16350575","wem/bandit_either","AVXEDARJC5HLU","either","8","","","","","","","1","0","0","0.2545762091","","0.2","0.6","0.8","0.4","","","","","0.1018164217","0.2545762091","0.1341549344","0.2840251313","","","","","","","74","J","1","","","173","main_expt"
"543","","bandit","252","886352","0.0-213.0-0.0","16350575","wem/bandit_either","AVXEDARJC5HLU","either","8","","","","","","","0","0","1","","0.2838184637","0.2","0.6","0.8","0.4","0.1401689619","0.2838184637","0.1471305278","0.2739042306","","","","","","","","","","","74","J","1","","","174","main_expt"
"523","","bandit","253","888395","0.0-214.0-0.0","16350575","wem/bandit_either","AVXEDARJC5HLU","either","8","","","","","","","0","0","1","","0.3002790513","0.2","0.6","0.8","0.4","0.1697524679","0.3002790513","0.173963405","0.3444735506","","","","","","","","","","","74","J","1","","","175","main_expt"
"618","","bandit","254","890531","0.0-215.0-0.0","16350575","wem/bandit_either","AVXEDARJC5HLU","either","8","","","","","","","0","0","1","0.1821857965","","0.2","0.6","0.8","0.4","","","","","0.1896898672","0.3771690292","0.1821857965","0.3223017316","","","","","","","75","K","2","","","176","main_expt"
"121","","bandit","255","892169","0.0-216.0-0.0","16350575","wem/bandit_either","AVXEDARJC5HLU","either","8","","","","","","","0","0","1","0.1444884472","","0.2","0.6","0.8","0.4","","","","","0.2441254625","0.4047809956","0.1444884472","0.2964924158","","","","","","","75","K","2","","","177","main_expt"
"130","","bandit","256","893814","0.0-217.0-0.0","16350575","wem/bandit_either","AVXEDARJC5HLU","either","8","","","","","","","1","0","0","0.1207783293","","0.2","0.6","0.8","0.4","","","","","0.2427722412","0.4344960837","0.1207783293","0.2780576925","","","","","","","75","K","2","","","178","main_expt"
"230","","bandit","257","895561","0.0-218.0-0.0","16350575","wem/bandit_either","AVXEDARJC5HLU","either","8","","","","","","","0","0","1","0.111585665","","0.2","0.6","0.8","0.4","","","","","0.2284650367","0.4287912686","0.111585665","0.2859751729","","","","","","","75","K","2","","","179","main_expt"
"429","","bandit","258","897508","0.0-219.0-0.0","16350575","wem/bandit_either","AVXEDARJC5HLU","either","8","","","","","","","0","0","1","0.06891525065","","0.2","0.6","0.8","0.4","","","","","0.2694081366","0.4294180747","0.06891525065","0.283533164","","","","","","","75","K","2","","","180","main_expt"
"774","","bandit","259","899791","0.0-220.0-0.0","16350575","wem/bandit_either","AVXEDARJC5HLU","either","8","","","","","","","0","0","1","0.07407739619","","0.2","0.6","0.8","0.4","","","","","0.2471628034","0.3887332701","0.07407739619","0.2430023428","","","","","","","75","K","2","","","181","main_expt"
"695","","bandit","260","902003","0.0-221.0-0.0","16350575","wem/bandit_either","AVXEDARJC5HLU","either","8","","","","","","","0","0","1","0.07501704201","","0.2","0.6","0.8","0.4","","","","","0.275372354","0.3910635387","0.07501704201","0.223254837","","","","","","","75","K","2","","","182","main_expt"
"606","","bandit","261","904123","0.0-222.0-0.0","16350575","wem/bandit_either","AVXEDARJC5HLU","either","8","","","","","","","0","0","1","","0.2274286797","0.2","0.6","0.8","0.4","0.2378950907","0.3957792538","0.09354103142","0.2274286797","","","","","","","","","","","76","L","3","","","183","main_expt"
"558","","bandit","262","906190","0.0-223.0-0.0","16350575","wem/bandit_either","AVXEDARJC5HLU","either","8","","","","","","","0","0","1","","0.2485964068","0.2","0.6","0.8","0.4","0.2611999536","0.3777829694","0.06673830493","0.2485964068","","","","","","","","","","","76","L","3","","","184","main_expt"
"379","","bandit","263","908088","0.0-224.0-0.0","16350575","wem/bandit_either","AVXEDARJC5HLU","either","8","","","","","","","0","0","1","","0.2080173303","0.2","0.6","0.8","0.4","0.2799245071","0.4130939835","0.08617836821","0.2080173303","","","","","","","","","","","76","L","3","","","185","main_expt"
"388","","bandit","264","909991","0.0-225.0-0.0","16350575","wem/bandit_either","AVXEDARJC5HLU","either","8","","","","","","","0","0","1","","0.2275386122","0.2","0.6","0.8","0.4","0.2275386122","0.376930599","0.05054014018","0.2538883687","","","","","","","","","","","72","H","0","img/none_selected.jpg","","186","main_expt"
"329","","bandit","265","911828","0.0-226.0-0.0","16350575","wem/bandit_either","AVXEDARJC5HLU","either","8","","","","","","","0","1","0","","0.2558518805","0.2","0.6","0.8","0.4","0.2558518805","0.3934592684","0.1101456656","0.2267652077","","","","","","","","","","","72","H","0","img/none_selected.jpg","","187","main_expt"
"267","","bandit","266","913607","0.0-227.0-0.0","16350575","wem/bandit_either","AVXEDARJC5HLU","either","8","","","","","","","0","1","0","","0.2757393749","0.2","0.6","0.8","0.4","0.2757393749","0.4086060551","0.1076418148","0.2583789709","","","","","","","","","","","72","H","0","img/none_selected.jpg","","188","main_expt"
"419","","bandit","267","915537","0.0-228.0-0.0","16350575","wem/bandit_either","AVXEDARJC5HLU","either","8","","","","","","","0","0","1","","0.3326758055","0.2","0.6","0.8","0.4","0.3326758055","0.447145564","0.1230456027","0.2329768584","","","","","","","","","","","72","H","0","img/none_selected.jpg","","189","main_expt"
"690","","bandit","268","917743","0.0-229.0-0.0","16350575","wem/bandit_either","AVXEDARJC5HLU","either","8","","","","","","","1","0","0","0.332927569","","0.2","0.6","0.8","0.4","","","","","0.332927569","0.386091063","0.1872873117","0.2002510669","","","","","","","72","H","0","img/none_selected.jpg","","190","main_expt"
"847","","bandit","269","920109","0.0-230.0-0.0","16350575","wem/bandit_either","AVXEDARJC5HLU","either","8","","","","","","","0","0","1","","0.3859199101","0.2","0.6","0.8","0.4","0.3859199101","0.4221145333","0.1413073252","0.2182600554","","","","","","","","","","","72","H","0","img/none_selected.jpg","","191","main_expt"
"351","","bandit","270","921975","0.0-231.0-0.0","16350575","wem/bandit_either","AVXEDARJC5HLU","either","8","","","","","","","0","0","1","","0.392668484","0.2","0.6","0.8","0.4","0.392668484","0.3913199708","0.1868627967","0.2681613901","","","","","","","","","","","72","H","0","img/none_selected.jpg","","192","main_expt"
"571","","bandit","271","924063","0.0-232.0-0.0","16350575","wem/bandit_either","AVXEDARJC5HLU","either","8","","","","","","","0","1","0","","0.3789843676","0.2","0.6","0.8","0.4","0.3789843676","0.4013624592","0.2312719224","0.3035027483","","","","","","","","","","","72","H","0","img/none_selected.jpg","","193","main_expt"
"512","","bandit","272","926089","0.0-233.0-0.0","16350575","wem/bandit_either","AVXEDARJC5HLU","either","8","","","","","","","0","0","1","","0.3689216281","0.2","0.6","0.8","0.4","0.3689216281","0.3668237699","0.2585201677","0.275531754","","","","","","","","","","","72","H","0","img/none_selected.jpg","","194","main_expt"
"580","","bandit","273","928178","0.0-234.0-0.0","16350575","wem/bandit_either","AVXEDARJC5HLU","either","8","","","","","","","0","0","1","","0.4136905162","0.2","0.6","0.8","0.4","0.4136905162","0.3856266791","0.2786104129","0.2716401532","","","","","","","","","","","72","H","0","img/none_selected.jpg","","195","main_expt"
"615","","bandit","274","930308","0.0-235.0-0.0","16350575","wem/bandit_either","AVXEDARJC5HLU","either","8","","","","","","","0","0","1","","0.4258575101","0.2","0.6","0.8","0.4","0.4258575101","0.3702439493","0.2407834285","0.2814611543","","","","","","","","","","","72","H","0","img/none_selected.jpg","","196","main_expt"
"181","","bandit","275","932008","0.0-236.0-0.0","16350575","wem/bandit_either","AVXEDARJC5HLU","either","8","","","","","","","0","0","1","0.3665926528","","0.2","0.6","0.8","0.4","","","","","0.3976178043","0.3665926528","0.2550568011","0.2588010394","","","","","","","74","J","1","","","197","main_expt"
"208","","bandit","276","933728","0.0-237.0-0.0","16350575","wem/bandit_either","AVXEDARJC5HLU","either","8","","","","","","","1","0","0","0.3094863904","","0.2","0.6","0.8","0.4","","","","","0.3802378075","0.3432124584","0.3094863904","0.3094610495","","","","","","","75","K","2","","","198","main_expt"
"487","","bandit","277","935734","0.0-238.0-0.0","16350575","wem/bandit_either","AVXEDARJC5HLU","either","8","","","","","","","0","0","1","0.3012985694","","0.2","0.6","0.8","0.4","","","","","0.3926800246","0.4096574544","0.3012985694","0.3139278769","","","","","","","75","K","2","","","199","main_expt"
"1519","","bandit","278","938770","0.0-239.0-0.0","16350575","wem/bandit_either","AVXEDARJC5HLU","either","8","","","","","","","0","0","1","","0.3149132519","0.2","0.6","0.8","0.4","0.3814844917","0.3799023259","0.3149132519","0.3459706187","","","","","","","","","","","75","K","2","","","200","main_expt"
"596","","bandit","279","940884","0.0-240.0-0.0","16350575","wem/bandit_either","AVXEDARJC5HLU","either","8","","","","","","","0","0","1","","0.3513783521","0.2","0.6","0.8","0.4","0.3831630738","0.3513783521","0.3236307962","0.3038365479","","","","","","","","","","","74","J","1","","","201","main_expt"
"1019","","bandit","280","943413","0.0-241.0-0.0","16350575","wem/bandit_either","AVXEDARJC5HLU","either","8","","","","","","","0","0","1","0.3163717903","","0.2","0.6","0.8","0.4","","","","","0.3957430938","0.3439351057","0.3163717903","0.2964599608","","","","","","","75","K","2","","","202","main_expt"
"1008","","bandit","281","945931","0.0-242.0-0.0","16350575","wem/bandit_either","AVXEDARJC5HLU","either","8","","","","","","","1","0","0","0.3165936227","","0.2","0.6","0.8","0.4","","","","","0.4175506619","0.2615327891","0.3165936227","0.280336616","","","","","","","75","K","2","","","203","main_expt"
"540","","bandit","282","947986","0.0-243.0-0.0","16350575","wem/bandit_either","AVXEDARJC5HLU","either","8","","","","","","","0","0","1","0.3166231072","","0.2","0.6","0.8","0.4","","","","","0.4356800279","0.2211517471","0.3166231072","0.262900641","","","","","","","75","K","2","","","204","main_expt"
"1062","","bandit","283","950569","0.0-244.0-0.0","16350575","wem/bandit_either","AVXEDARJC5HLU","either","8","","","","","","","0","0","1","","0.2983153058","0.2","0.6","0.8","0.4","0.4342993254","0.1955747294","0.2983153058","0.3403150927","","","","","","","","","","","75","K","2","","","205","main_expt"
"414","","bandit","284","952502","0.0-245.0-0.0","16350575","wem/bandit_either","AVXEDARJC5HLU","either","8","","","","","","","0","0","1","0.255573156","","0.2","0.6","0.8","0.4","","","","","0.4515967499","0.3137251184","0.255573156","0.3407188883","","","","","","","75","K","2","","","206","main_expt"
"447","","bandit","285","954466","0.0-246.0-0.0","16350575","wem/bandit_either","AVXEDARJC5HLU","either","8","","","","","","","0","0","1","0.2955601217","","0.2","0.6","0.8","0.4","","","","","0.4559700358","0.2982459604","0.2816724171","0.2955601217","","","","","","","76","L","3","","","207","main_expt"
"286","","bandit","286","956269","0.0-247.0-0.0","16350575","wem/bandit_either","AVXEDARJC5HLU","either","8","","","","","","","0","1","0","","0.2832193826","0.2","0.6","0.8","0.4","0.4711787588","0.2359404152","0.2462622089","0.2832193826","","","","","","","","","","","76","L","3","","","208","main_expt"
"843","","bandit","287","958629","0.0-248.0-0.0","16350575","wem/bandit_either","AVXEDARJC5HLU","either","8","","","","","","","0","0","1","","0.25637755","0.2","0.6","0.8","0.4","0.4859779177","0.2396635106","0.2608633631","0.25637755","","","","","","","","","","","76","L","3","","","209","main_expt"
"990","","bandit","288","961129","0.0-249.0-0.0","16350575","wem/bandit_either","AVXEDARJC5HLU","either","8","","","","","","","0","0","1","0.2500912527","","0.2","0.6","0.8","0.4","","","","","0.4798195452","0.2320506775","0.2649708152","0.2500912527","","","","","","","76","L","3","","","210","main_expt"
"931","","bandit","289","963570","0.0-250.0-0.0","16350575","wem/bandit_either","AVXEDARJC5HLU","either","8","","","","","","","0","1","0","","0.4754072522","0.2","0.6","0.8","0.4","0.4754072522","0.1894847828","0.2658594566","0.2481129288","","","","","","","","","","","72","H","0","img/none_selected.jpg","","211","main_expt"
"340","","bandit","290","965433","0.0-251.0-0.0","16350575","wem/bandit_either","AVXEDARJC5HLU","either","8","","","","","","","0","0","1","","0.4780703898","0.2","0.6","0.8","0.4","0.4780703898","0.2330804604","0.2648449814","0.3192168596","","","","","","","","","","","72","H","0","img/none_selected.jpg","","212","main_expt"
"408","","bandit","291","967355","0.0-252.0-0.0","16350575","wem/bandit_either","AVXEDARJC5HLU","either","8","","","","","","","0","0","1","0.4883488692","","0.2","0.6","0.8","0.4","","","","","0.4883488692","0.2484053244","0.286492297","0.2361953268","","","","","","","72","H","0","img/none_selected.jpg","","213","main_expt"
"451","","bandit","292","969322","0.0-253.0-0.0","16350575","wem/bandit_either","AVXEDARJC5HLU","either","8","","","","","","","0","0","1","","0.4872562331","0.2","0.6","0.8","0.4","0.4872562331","0.2182548364","0.2540339129","0.2308921763","","","","","","","","","","","72","H","0","img/none_selected.jpg","","214","main_expt"
"525","","bandit","293","971365","0.0-254.0-0.0","16350575","wem/bandit_either","AVXEDARJC5HLU","either","8","","","","","","","1","0","0","0.4749609167","","0.2","0.6","0.8","0.4","","","","","0.4749609167","0.1824073789","0.254651127","0.2161033537","","","","","","","72","H","0","img/none_selected.jpg","","215","main_expt"
"543","","bandit","294","973427","0.0-255.0-0.0","16350575","wem/bandit_either","AVXEDARJC5HLU","either","8","","","","","","","0","1","0","","0.4798413464","0.2","0.6","0.8","0.4","0.4798413464","0.1923730387","0.3140517816","0.1896756427","","","","","","","","","","","72","H","0","img/none_selected.jpg","","216","main_expt"
"1049","","bandit","295","975993","0.0-256.0-0.0","16350575","wem/bandit_either","AVXEDARJC5HLU","either","8","","","","","","","0","1","0","","0.4865144435","0.2","0.6","0.8","0.4","0.4865144435","0.2266612446","0.3338676317","0.1724286307","","","","","","","","","","","72","H","0","img/none_selected.jpg","","217","main_expt"
"768","","bandit","296","978278","0.0-257.0-0.0","16350575","wem/bandit_either","AVXEDARJC5HLU","either","8","","","","","","","0","0","1","","0.4789145001","0.2","0.6","0.8","0.4","0.4789145001","0.1702705737","0.3397001125","0.161168334","","","","","","","","","","","72","H","0","img/none_selected.jpg","","218","main_expt"
"15","","bandit","297","979801","0.0-258.0-0.0","16350575","wem/bandit_either","AVXEDARJC5HLU","either","8","","","","","","","0","0","1","0.4834748692","","0.2","0.6","0.8","0.4","","","","","0.4834748692","0.1159766116","0.2982528089","0.2021763003","","","","","","","72","H","0","img/none_selected.jpg","","219","main_expt"
"980","","bandit","298","982294","0.0-259.0-0.0","16350575","wem/bandit_either","AVXEDARJC5HLU","either","8","","","","","","","0","0","1","","0.4722371777","0.2","0.6","0.8","0.4","0.4722371777","0.09529473055","0.2770934022","0.2142164272","","","","","","","","","","","72","H","0","img/none_selected.jpg","","220","main_expt"
"964","","bandit","299","984778","0.0-260.0-0.0","16350575","wem/bandit_either","AVXEDARJC5HLU","either","8","","","","","","","0","0","1","","0.4654689219","0.2","0.6","0.8","0.4","0.4654689219","0.09060922323","0.2696770889","0.189068297","","","","","","","","","","","72","H","0","img/none_selected.jpg","","221","main_expt"
"199","","bandit","300","986495","0.0-261.0-0.0","16350575","wem/bandit_either","AVXEDARJC5HLU","either","8","","","","","","","0","0","1","","0.1250772464","0.2","0.6","0.8","0.4","0.4533789701","0.1250772464","0.3103502417","0.2120997892","","","","","","","","","","","74","J","1","","","222","main_expt"
"1262","","bandit","301","989267","0.0-262.0-0.0","16350575","wem/bandit_either","AVXEDARJC5HLU","either","8","","","","","","","0","0","1","","0.1177235221","0.2","0.6","0.8","0.4","0.4473019993","0.1177235221","0.3477728299","0.1937664477","","","","","","","","","","","74","J","1","","","223","main_expt"
"346","","bandit","302","991128","0.0-263.0-0.0","16350575","wem/bandit_either","AVXEDARJC5HLU","either","8","","","","","","","0","0","1","0.1589673504","","0.2","0.6","0.8","0.4","","","","","0.4651086175","0.1589673504","0.3230244909","0.2195846313","","","","","","","74","J","1","","","224","main_expt"
"1222","","bandit","303","993861","0.0-264.0-0.0","16350575","wem/bandit_either","AVXEDARJC5HLU","either","8","","","","","","","1","0","0","0.3641913847","","0.2","0.6","0.8","0.4","","","","","0.4704934375","0.1582937281","0.3641913847","0.1973587738","","","","","","","75","K","2","","","225","main_expt"
"518","","bandit","304","995897","0.0-265.0-0.0","16350575","wem/bandit_either","AVXEDARJC5HLU","either","8","","","","","","","0","0","1","0.3211822138","","0.2","0.6","0.8","0.4","","","","","0.4545632724","0.1585786296","0.3211822138","0.2029059012","","","","","","","75","K","2","","","226","main_expt"
"390","","bandit","305","997805","0.0-266.0-0.0","16350575","wem/bandit_either","AVXEDARJC5HLU","either","8","","","","","","","0","1","0","","0.3318596792","0.2","0.6","0.8","0.4","0.4313330006","0.1614007709","0.3318596792","0.1677618241","","","","","","","","","","","75","K","2","","","227","main_expt"
"424","","bandit","306","999742","0.0-267.0-0.0","16350575","wem/bandit_either","AVXEDARJC5HLU","either","8","","","","","","","0","0","1","0.3715738924","","0.2","0.6","0.8","0.4","","","","","0.4253897179","0.1160982884","0.3715738924","0.2079318551","","","","","","","75","K","2","","","228","main_expt"
"881","","bandit","307","1002135","0.0-268.0-0.0","16350575","wem/bandit_either","AVXEDARJC5HLU","either","8","","","","","","","0","0","1","0.3571583743","","0.2","0.6","0.8","0.4","","","","","0.4416009531","0.1327168588","0.3571583743","0.1860779256","","","","","","","75","K","2","","","229","main_expt"
"482","","bandit","308","1004124","0.0-269.0-0.0","16350575","wem/bandit_either","AVXEDARJC5HLU","either","8","","","","","","","0","1","0","","0.3455313741","0.2","0.6","0.8","0.4","0.4612445757","0.1751239199","0.3455313741","0.1294985144","","","","","","","","","","","75","K","2","","","230","main_expt"
"1461","","bandit","309","1007097","0.0-270.0-0.0","16350575","wem/bandit_either","AVXEDARJC5HLU","either","8","","","","","","","1","0","0","0.3114256563","","0.2","0.6","0.8","0.4","","","","","0.4455927364","0.2080149414","0.3114256563","0.1424139305","","","","","","","75","K","2","","","231","main_expt"
"1059","","bandit","310","1009675","0.0-271.0-0.0","16350575","wem/bandit_either","AVXEDARJC5HLU","either","8","","","","","","","0","0","1","0.3127001645","","0.2","0.6","0.8","0.4","","","","","0.4449483857","0.2305008548","0.3127001645","0.1777617008","","","","","","","75","K","2","","","232","main_expt"
"382","","bandit","311","1011571","0.0-272.0-0.0","16350575","wem/bandit_either","AVXEDARJC5HLU","either","8","","","","","","","0","0","1","","0.2953609795","0.2","0.6","0.8","0.4","0.4570404202","0.2331895239","0.2953609795","0.1408291819","","","","","","","","","","","75","K","2","","","233","main_expt"
"175","","bandit","312","1013272","0.0-273.0-0.0","16350575","wem/bandit_either","AVXEDARJC5HLU","either","8","","","","","","","0","1","0","","0.09563300426","0.2","0.6","0.8","0.4","0.4785018613","0.2007149185","0.2743769666","0.09563300426","","","","","","","","","","","76","L","3","","","234","main_expt"
"1167","","bandit","313","1015961","0.0-274.0-0.0","16350575","wem/bandit_either","AVXEDARJC5HLU","either","8","","","","","","","0","0","1","","0.06508254785","0.2","0.6","0.8","0.4","0.4708517218","0.1428876463","0.2842570603","0.06508254785","","","","","","","","","","","76","L","3","","","235","main_expt"
"1480","","bandit","314","1018955","0.0-275.0-0.0","16350575","wem/bandit_either","AVXEDARJC5HLU","either","8","","","","","","","1","0","0","0.05272484418","","0.2","0.6","0.8","0.4","","","","","0.4721911582","0.1327756685","0.3536106974","0.05272484418","","","","","","","76","L","3","","","236","main_expt"
"2090","","bandit","315","1022565","0.0-276.0-0.0","16350575","wem/bandit_either","AVXEDARJC5HLU","either","8","","","","","","","0","0","1","","0.05000735717","0.2","0.6","0.8","0.4","0.4567984566","0.1969646424","0.3777879982","0.05000735717","","","","","","","","","","","76","L","3","","","237","main_expt"
"231","","bandit","316","1024319","0.0-277.0-0.0","16350575","wem/bandit_either","AVXEDARJC5HLU","either","8","","","","","","","0","0","1","","0.03409798278","0.2","0.6","0.8","0.4","0.4601910044","0.2040955009","0.3819628943","0.03409798278","","","","","","","","","","","76","L","3","","","238","main_expt"
"268","","bandit","317","1026098","0.0-278.0-0.0","16350575","wem/bandit_either","AVXEDARJC5HLU","either","8","","","","","","","0","0","1","0.03555143528","","0.2","0.6","0.8","0.4","","","","","0.4663275819","0.1885012088","0.3590612953","0.03555143528","","","","","","","76","L","3","","","239","main_expt"
"1978","","bandit","318","1029598","0.0-279.0-0.0","16350575","wem/bandit_either","AVXEDARJC5HLU","either","8","","","","","","","0","0","1","","0.4781926851","0.2","0.6","0.8","0.4","0.4781926851","0.1779850251","0.3943681209","0.06633834621","","","","","","","","","","","72","H","0","img/none_selected.jpg","","240","main_expt"
"593","","bandit","319","1031712","0.0-280.0-0.0","16350575","wem/bandit_either","AVXEDARJC5HLU","either","8","","","","","","","0","0","1","0.2132761508","","0.2","0.6","0.8","0.4","","","","","0.4813407325","0.2132761508","0.4178476804","0.0332650027","","","","","","","74","J","1","","","241","main_expt"
"253","","bandit","320","1033485","0.0-281.0-0.0","16350575","wem/bandit_either","AVXEDARJC5HLU","either","8","","","","","","","0","0","1","","0.4758201438","0.2","0.6","0.8","0.4","0.4758201438","0.2181708985","0.4083523659","0.03674005559","","","","","","","","","","","72","H","0","img/none_selected.jpg","","242","main_expt"
"324","","bandit","321","1035329","0.0-282.0-0.0","16350575","wem/bandit_either","AVXEDARJC5HLU","either","8","","","","","","","1","0","0","0.4107673147","","0.2","0.6","0.8","0.4","","","","","0.4739127226","0.1880751836","0.4107673147","0.02732183546","","","","","","","75","K","2","","","243","main_expt"
"268","","bandit","322","1037114","0.0-283.0-0.0","16350575","wem/bandit_either","AVXEDARJC5HLU","either","8","","","","","","","0","0","1","0.3914084711","","0.2","0.6","0.8","0.4","","","","","0.4467527753","0.2693527465","0.3914084711","0.02742276317","","","","","","","75","K","2","","","244","main_expt"
"345","","bandit","323","1038971","0.0-284.0-0.0","16350575","wem/bandit_either","AVXEDARJC5HLU","either","8","","","","","","","0","0","1","","0.4117032301","0.2","0.6","0.8","0.4","0.4492118003","0.2474629182","0.4117032301","0.03322496416","","","","","","","","","","","75","K","2","","","245","main_expt"
"70","","bandit","324","1040559","0.0-285.0-0.0","16350575","wem/bandit_either","AVXEDARJC5HLU","either","8","","","","","","","0","0","1","0.4225436654","","0.2","0.6","0.8","0.4","","","","","0.4702058379","0.3019125269","0.4225436654","0.0538648904","","","","","","","75","K","2","","","246","main_expt"
"1222","","bandit","325","1043292","0.0-286.0-0.0","16350575","wem/bandit_either","AVXEDARJC5HLU","either","8","","","","","","","1","0","0","0.4327875568","","0.2","0.6","0.8","0.4","","","","","0.4717010128","0.3013832462","0.4327875568","0.05538537946","","","","","","","75","K","2","","","247","main_expt"
"1156","","bandit","326","1045966","0.0-287.0-0.0","16350575","wem/bandit_either","AVXEDARJC5HLU","either","8","","","","","","","0","0","1","","0.4478523955","0.2","0.6","0.8","0.4","0.4750055548","0.2917300956","0.4478523955","0.07377210468","","","","","","","","","","","75","K","2","","","248","main_expt"
"1270","","bandit","327","1048747","0.0-288.0-0.0","16350575","wem/bandit_either","AVXEDARJC5HLU","either","8","","","","","","","1","0","0","0.4221620221","","0.2","0.6","0.8","0.4","","","","","0.4608113614","0.2976682537","0.4221620221","0.07098242635","","","","","","","75","K","2","","","249","main_expt"
"1709","","bandit","328","1051975","0.0-289.0-0.0","16350575","wem/bandit_either","AVXEDARJC5HLU","either","8","","","","","","","1","0","0","0.3998447204","","0.2","0.6","0.8","0.4","","","","","0.4361301801","0.2921609534","0.3998447204","0.08291081884","","","","","","","75","K","2","","","250","main_expt"
"532","","bandit","329","1054021","0.0-290.0-0.0","16350575","wem/bandit_either","AVXEDARJC5HLU","either","8","","","","","","","0","0","1","0.4053116556","","0.2","0.6","0.8","0.4","","","","","0.4203652199","0.3026336231","0.4053116556","0.07668358207","","","","","","","75","K","2","","","251","main_expt"
"733","","bandit","330","1056274","0.0-291.0-0.0","16350575","wem/bandit_either","AVXEDARJC5HLU","either","8","","","","","","","0","0","1","","0.3780439072","0.2","0.6","0.8","0.4","0.4465363659","0.3303824841","0.3780439072","0.05892609675","","","","","","","","","","","75","K","2","","","252","main_expt"
"276","","bandit","331","1058068","0.0-292.0-0.0","16350575","wem/bandit_either","AVXEDARJC5HLU","either","8","","","","","","","1","0","0","0.4356020742","","0.2","0.6","0.8","0.4","","","","","0.4480562975","0.3024212104","0.4356020742","0.05309255245","","","","","","","75","K","2","","","253","main_expt"
"364","","bandit","332","1059946","0.0-293.0-0.0","16350575","wem/bandit_either","AVXEDARJC5HLU","either","8","","","","","","","0","0","1","0.4576925499","","0.2","0.6","0.8","0.4","","","","","0.4421075204","0.3110648486","0.4576925499","0.03865169821","","","","","","","75","K","2","","","254","main_expt"
