"rt","responses","trial_type","trial_index","time_elapsed","internal_node_id","subjID","study","MID","cond","drift","key_press","expt_phase","target","like","value","connected","respCharCode","respKey","respChoiceNum","respChoice","gems","bombs","no_reward","GemPrChosen","BombPrChosen","practice","trial_counter","WinPr_0","LosePr_0","trial_label","GainOverPainPr_0","WinPr_1","GainOverPainPr_1","LosePr_1","LosePr_2","GainOverPainPr_2","LosePr_3","GainOverPainPr_3","WinPr_2","WinPr_3","Q0","Q1","Q2","gender","age","ethnicity"
"11245","{""Q0"":""A3KA08ZKNCAAXO""}","survey-text","0","11253","0.0-0.0","21187470","wem/bandit_either","A3KA08ZKNCAAXO","either","5","","","","","","","","","","","","","","","","","","","","","","","","","","","","","","","","","","","",""
"316398","","text","1","328669","0.0-1.0","21187470","wem/bandit_either","A3KA08ZKNCAAXO","either","5","32","","","","","","","","","","","","","","","","","","","","","","","","","","","","","","","","","","",""
"7335","","text","2","336007","0.0-2.0","21187470","wem/bandit_either","A3KA08ZKNCAAXO","either","5","32","","","","","","","","","","","","","","","","","","","","","","","","","","","","","","","","","","",""
"295852","","text","3","631864","0.0-3.0","21187470","wem/bandit_either","A3KA08ZKNCAAXO","either","5","32","","","","","","","","","","","","","","","","","","","","","","","","","","","","","","","","","","",""
"17649","","text","4","649517","0.0-4.0","21187470","wem/bandit_either","A3KA08ZKNCAAXO","either","5","32","","","","","","","","","","","","","","","","","","","","","","","","","","","","","","","","","","",""
"67960","","text","5","717478","0.0-5.0","21187470","wem/bandit_either","A3KA08ZKNCAAXO","either","5","32","","","","","","","","","","","","","","","","","","","","","","","","","","","","","","","","","","",""
"7568","","text","6","725048","0.0-6.0","21187470","wem/bandit_either","A3KA08ZKNCAAXO","either","5","32","","","","","","","","","","","","","","","","","","","","","","","","","","","","","","","","","","",""
"5115","","text","7","730165","0.0-7.0","21187470","wem/bandit_either","A3KA08ZKNCAAXO","either","5","32","","","","","","","","","","","","","","","","","","","","","","","","","","","","","","","","","","",""
"9140","","identification","8","739324","0.0-8.0-0.0","21187470","wem/bandit_either","A3KA08ZKNCAAXO","either","5","","identification_pre","the village of Zur","3","3","3","","","","","","","","","","","","","","","","","","","","","","","","","","","","","",""
"5488","","identification","9","745831","0.0-8.0-1.0","21187470","wem/bandit_either","A3KA08ZKNCAAXO","either","5","","identification_pre","the village of Nyx","4","4","4","","","","","","","","","","","","","","","","","","","","","","","","","","","","","",""
"8686","","text","10","755533","0.0-9.0","21187470","wem/bandit_either","A3KA08ZKNCAAXO","either","5","32","","","","","","","","","","","","","","","","","","","","","","","","","","","","","","","","","","",""
"3370","","text","11","758905","0.0-10.0","21187470","wem/bandit_either","A3KA08ZKNCAAXO","either","5","32","","","","","","","","","","","","","","","","","","","","","","","","","","","","","","","","","","",""
"3129","","text","12","762038","0.0-11.0","21187470","wem/bandit_either","A3KA08ZKNCAAXO","either","5","32","","","","","","","","","","","","","","","","","","","","","","","","","","","","","","","","","","",""
"4862","","text","13","766904","0.0-12.0","21187470","wem/bandit_either","A3KA08ZKNCAAXO","either","5","32","","","","","","","","","","","","","","","","","","","","","","","","","","","","","","","","","","",""
"3149","","bandit","14","771575","0.0-13.0-0.0","21187470","wem/bandit_either","A3KA08ZKNCAAXO","either","5","","","","","","","74","J","0","img/none_selected_demo.jpg","0","0","1","0","0","true","0","0","0","","","","","","","","","","","","","","","","",""
"1865","","bandit","15","774962","0.0-14.0-0.0","21187470","wem/bandit_either","A3KA08ZKNCAAXO","either","5","","","","","","","75","K","0","img/none_selected_demo.jpg","0","0","1","0","0","true","0","0","0","","","","","","","","","","","","","","","","",""
"10195","","text","16","785159","0.0-15.0","21187470","wem/bandit_either","A3KA08ZKNCAAXO","either","5","32","","","","","","","","","","","","","","","","","","","","","","","","","","","","","","","","","","",""
"26423","","text","17","811585","0.0-16.0","21187470","wem/bandit_either","A3KA08ZKNCAAXO","either","5","32","","","","","","","","","","","","","","","","","","","","","","","","","","","","","","","","","","",""
"11180","","text","18","822769","0.0-17.0","21187470","wem/bandit_either","A3KA08ZKNCAAXO","either","5","32","","","","","","","","","","","","","","","","","","","","","","","","","","","","","","","","","","",""
"6940","","text","19","829712","0.0-18.0","21187470","wem/bandit_either","A3KA08ZKNCAAXO","either","5","32","","","","","","","","","","","","","","","","","","","","","","","","","","","","","","","","","","",""
"1633","","bandit","20","832871","0.0-19.0-0.0","21187470","wem/bandit_either","A3KA08ZKNCAAXO","either","5","","","","","","","75","K","1","","0","0","1","0.2","","true","0","0.8","","80_20_practice","0.5","0.2","0.5","","","","","","","","","","","","",""
"1393","","bandit","21","835774","0.0-19.0-1.0","21187470","wem/bandit_either","A3KA08ZKNCAAXO","either","5","","","","","","","74","J","0","img/none_selected_demo.jpg","0","0","1","0.8","","true","0","0.8","","80_20_practice","0.5","0.2","0.5","","","","","","","","","","","","",""
"501","","bandit","22","837785","0.0-19.0-2.0","21187470","wem/bandit_either","A3KA08ZKNCAAXO","either","5","","","","","","","74","J","0","img/none_selected_demo.jpg","0","1","0","","0.8","true","0","","0.8","80_20_practice","0.5","","0.5","0.2","","","","","","","","","","","",""
"1352","","bandit","23","840659","0.0-19.0-3.0","21187470","wem/bandit_either","A3KA08ZKNCAAXO","either","5","","","","","","","74","J","0","img/none_selected_demo.jpg","0","1","0","","0.8","true","0","","0.8","80_20_practice","0.5","","0.5","0.2","","","","","","","","","","","",""
"1179","","bandit","24","843358","0.0-19.0-4.0","21187470","wem/bandit_either","A3KA08ZKNCAAXO","either","5","","","","","","","74","J","0","img/none_selected_demo.jpg","1","0","0","0.8","","true","0","0.8","","80_20_practice","0.5","0.2","0.5","","","","","","","","","","","","",""
"440","","bandit","25","845323","0.0-19.0-5.0","21187470","wem/bandit_either","A3KA08ZKNCAAXO","either","5","","","","","","","74","J","0","img/none_selected_demo.jpg","1","0","0","0.8","","true","0","0.8","","80_20_practice","0.5","0.2","0.5","","","","","","","","","","","","",""
"633","","bandit","26","847473","0.0-19.0-6.0","21187470","wem/bandit_either","A3KA08ZKNCAAXO","either","5","","","","","","","74","J","0","img/none_selected_demo.jpg","1","0","0","0.8","","true","0","0.8","","80_20_practice","0.5","0.2","0.5","","","","","","","","","","","","",""
"344","","bandit","27","849344","0.0-19.0-7.0","21187470","wem/bandit_either","A3KA08ZKNCAAXO","either","5","","","","","","","74","J","0","img/none_selected_demo.jpg","0","0","1","","0.8","true","0","","0.8","80_20_practice","0.5","","0.5","0.2","","","","","","","","","","","",""
"373","","bandit","28","851237","0.0-19.0-8.0","21187470","wem/bandit_either","A3KA08ZKNCAAXO","either","5","","","","","","","74","J","0","img/none_selected_demo.jpg","0","1","0","","0.8","true","0","","0.8","80_20_practice","0.5","","0.5","0.2","","","","","","","","","","","",""
"471","","bandit","29","853236","0.0-19.0-9.0","21187470","wem/bandit_either","A3KA08ZKNCAAXO","either","5","","","","","","","74","J","0","img/none_selected_demo.jpg","0","0","1","","0.8","true","0","","0.8","80_20_practice","0.5","","0.5","0.2","","","","","","","","","","","",""
"351","","bandit","30","855115","0.0-19.0-10.0","21187470","wem/bandit_either","A3KA08ZKNCAAXO","either","5","","","","","","","74","J","0","img/none_selected_demo.jpg","0","1","0","","0.8","true","0","","0.8","80_20_practice","0.5","","0.5","0.2","","","","","","","","","","","",""
"598","","bandit","31","857234","0.0-19.0-11.0","21187470","wem/bandit_either","A3KA08ZKNCAAXO","either","5","","","","","","","74","J","0","img/none_selected_demo.jpg","1","0","0","0.8","","true","0","0.8","","80_20_practice","0.5","0.2","0.5","","","","","","","","","","","","",""
"845","","bandit","32","859603","0.0-19.0-12.0","21187470","wem/bandit_either","A3KA08ZKNCAAXO","either","5","","","","","","","74","J","0","img/none_selected_demo.jpg","0","0","1","","0.8","true","0","","0.8","80_20_practice","0.5","","0.5","0.2","","","","","","","","","","","",""
"265","","bandit","33","861394","0.0-19.0-13.0","21187470","wem/bandit_either","A3KA08ZKNCAAXO","either","5","","","","","","","74","J","0","img/none_selected_demo.jpg","1","0","0","0.8","","true","0","0.8","","80_20_practice","0.5","0.2","0.5","","","","","","","","","","","","",""
"675","","bandit","34","863601","0.0-19.0-14.0","21187470","wem/bandit_either","A3KA08ZKNCAAXO","either","5","","","","","","","74","J","0","img/none_selected_demo.jpg","1","0","0","0.8","","true","0","0.8","","80_20_practice","0.5","0.2","0.5","","","","","","","","","","","","",""
"304","","bandit","35","865423","0.0-19.0-15.0","21187470","wem/bandit_either","A3KA08ZKNCAAXO","either","5","","","","","","","74","J","0","img/none_selected_demo.jpg","0","1","0","","0.8","true","0","","0.8","80_20_practice","0.5","","0.5","0.2","","","","","","","","","","","",""
"406","","bandit","36","867359","0.0-19.0-16.0","21187470","wem/bandit_either","A3KA08ZKNCAAXO","either","5","","","","","","","74","J","0","img/none_selected_demo.jpg","0","1","0","","0.8","true","0","","0.8","80_20_practice","0.5","","0.5","0.2","","","","","","","","","","","",""
"534","","bandit","37","869414","0.0-19.0-17.0","21187470","wem/bandit_either","A3KA08ZKNCAAXO","either","5","","","","","","","74","J","0","img/none_selected_demo.jpg","0","1","0","","0.8","true","0","","0.8","80_20_practice","0.5","","0.5","0.2","","","","","","","","","","","",""
"1638","","bandit","38","872580","0.0-19.0-18.0","21187470","wem/bandit_either","A3KA08ZKNCAAXO","either","5","","","","","","","74","J","0","img/none_selected_demo.jpg","0","1","0","","0.8","true","0","","0.8","80_20_practice","0.5","","0.5","0.2","","","","","","","","","","","",""
"765","","bandit","39","874868","0.0-19.0-19.0","21187470","wem/bandit_either","A3KA08ZKNCAAXO","either","5","","","","","","","74","J","0","img/none_selected_demo.jpg","1","0","0","0.8","","true","0","0.8","","80_20_practice","0.5","0.2","0.5","","","","","","","","","","","","",""
"8201","","text","40","883072","0.0-20.0","21187470","wem/bandit_either","A3KA08ZKNCAAXO","either","5","32","","","","","","","","","","","","","","","","","","","","","","","","","","","","","","","","","","",""
"1781","","bandit","41","886373","0.0-21.0-0.0","21187470","wem/bandit_either","A3KA08ZKNCAAXO","either","5","","","","","","","75","K","1","","0","1","0","0","1","true","0","1","0","","","0","","1","","","","","","","","","","","",""
"5373","","text","42","891756","0.0-22.0","21187470","wem/bandit_either","A3KA08ZKNCAAXO","either","5","32","","","","","","","","","","","","","","","","","","","","","","","","","","","","","","","","","","",""
"19060","","text","43","910821","0.0-23.0","21187470","wem/bandit_either","A3KA08ZKNCAAXO","either","5","32","","","","","","","","","","","","","","","","","","","","","","","","","","","","","","","","","","",""
"60027","","text","44","970852","0.0-24.0","21187470","wem/bandit_either","A3KA08ZKNCAAXO","either","5","32","","","","","","","","","","","","","","","","","","","","","","","","","","","","","","","","","","",""
"44457","","text","45","1015315","0.0-25.0","21187470","wem/bandit_either","A3KA08ZKNCAAXO","either","5","32","","","","","","","","","","","","","","","","","","","","","","","","","","","","","","","","","","",""
"9947","","text","46","1025269","0.0-26.0","21187470","wem/bandit_either","A3KA08ZKNCAAXO","either","5","32","","","","","","","","","","","","","","","","","","","","","","","","","","","","","","","","","","",""
"33379","","text","47","1058652","0.0-27.0","21187470","wem/bandit_either","A3KA08ZKNCAAXO","either","5","32","","","","","","","","","","","","","","","","","","","","","","","","","","","","","","","","","","",""
"5107","","text","48","1063763","0.0-28.0","21187470","wem/bandit_either","A3KA08ZKNCAAXO","either","5","32","","","","","","","","","","","","","","","","","","","","","","","","","","","","","","","","","","",""
"4037","","text","49","1067803","0.0-29.0","21187470","wem/bandit_either","A3KA08ZKNCAAXO","either","5","32","","","","","","","","","","","","","","","","","","","","","","","","","","","","","","","","","","",""
"6639","","text","50","1074447","0.0-30.0","21187470","wem/bandit_either","A3KA08ZKNCAAXO","either","5","32","","","","","","","","","","","","","","","","","","","","","","","","","","","","","","","","","","",""
"1962","","text","51","1076415","0.0-31.0","21187470","wem/bandit_either","A3KA08ZKNCAAXO","either","5","32","","","","","","","","","","","","","","","","","","","","","","","","","","","","","","","","","","",""
"4822","","text","52","1081242","0.0-32.0","21187470","wem/bandit_either","A3KA08ZKNCAAXO","either","5","32","","","","","","","","","","","","","","","","","","","","","","","","","","","","","","","","","","",""
"1412","","bandit","53","1084189","0.0-33.0-0.0","21187470","wem/bandit_either","A3KA08ZKNCAAXO","either","5","","","","","","","72","H","0","img/none_selected.jpg","0","0","1","","0.8","true","0","","0.8","full_practice","0.5","","0.5","0.2","0.6","0.5","0.2","0.5","","","","","","","",""
"939","","bandit","54","1086655","0.0-33.0-1.0","21187470","wem/bandit_either","A3KA08ZKNCAAXO","either","5","","","","","","","72","H","0","img/none_selected.jpg","0","1","0","","0.8","true","0","","0.8","full_practice","0.5","","0.5","0.2","0.6","0.5","0.2","0.5","","","","","","","",""
"657","","bandit","55","1088842","0.0-33.0-2.0","21187470","wem/bandit_either","A3KA08ZKNCAAXO","either","5","","","","","","","72","H","0","img/none_selected.jpg","1","0","0","0.8","","true","0","0.8","","full_practice","0.5","0.2","0.5","","","0.5","","0.5","0.6","0.2","","","","","",""
"475","","bandit","56","1090854","0.0-33.0-3.0","21187470","wem/bandit_either","A3KA08ZKNCAAXO","either","5","","","","","","","72","H","0","img/none_selected.jpg","0","1","0","","0.8","true","0","","0.8","full_practice","0.5","","0.5","0.2","0.6","0.5","0.2","0.5","","","","","","","",""
"399","","bandit","57","1092791","0.0-33.0-4.0","21187470","wem/bandit_either","A3KA08ZKNCAAXO","either","5","","","","","","","72","H","0","img/none_selected.jpg","1","0","0","0.8","","true","0","0.8","","full_practice","0.5","0.2","0.5","","","0.5","","0.5","0.6","0.2","","","","","",""
"312","","bandit","58","1094628","0.0-33.0-5.0","21187470","wem/bandit_either","A3KA08ZKNCAAXO","either","5","","","","","","","72","H","0","img/none_selected.jpg","0","1","0","","0.8","true","0","","0.8","full_practice","0.5","","0.5","0.2","0.6","0.5","0.2","0.5","","","","","","","",""
"292","","bandit","59","1096444","0.0-33.0-6.0","21187470","wem/bandit_either","A3KA08ZKNCAAXO","either","5","","","","","","","72","H","0","img/none_selected.jpg","0","1","0","","0.8","true","0","","0.8","full_practice","0.5","","0.5","0.2","0.6","0.5","0.2","0.5","","","","","","","",""
"282","","bandit","60","1098262","0.0-33.0-7.0","21187470","wem/bandit_either","A3KA08ZKNCAAXO","either","5","","","","","","","72","H","0","img/none_selected.jpg","0","1","0","","0.8","true","0","","0.8","full_practice","0.5","","0.5","0.2","0.6","0.5","0.2","0.5","","","","","","","",""
"352","","bandit","61","1100132","0.0-33.0-8.0","21187470","wem/bandit_either","A3KA08ZKNCAAXO","either","5","","","","","","","72","H","0","img/none_selected.jpg","1","0","0","0.8","","true","0","0.8","","full_practice","0.5","0.2","0.5","","","0.5","","0.5","0.6","0.2","","","","","",""
"259","","bandit","62","1101911","0.0-33.0-9.0","21187470","wem/bandit_either","A3KA08ZKNCAAXO","either","5","","","","","","","72","H","0","img/none_selected.jpg","0","1","0","","0.8","true","0","","0.8","full_practice","0.5","","0.5","0.2","0.6","0.5","0.2","0.5","","","","","","","",""
"427","","bandit","63","1103874","0.0-33.0-10.0","21187470","wem/bandit_either","A3KA08ZKNCAAXO","either","5","","","","","","","72","H","0","img/none_selected.jpg","0","1","0","","0.8","true","0","","0.8","full_practice","0.5","","0.5","0.2","0.6","0.5","0.2","0.5","","","","","","","",""
"323","","bandit","64","1105717","0.0-33.0-11.0","21187470","wem/bandit_either","A3KA08ZKNCAAXO","either","5","","","","","","","72","H","0","img/none_selected.jpg","1","0","0","0.8","","true","0","0.8","","full_practice","0.5","0.2","0.5","","","0.5","","0.5","0.6","0.2","","","","","",""
"202","","bandit","65","1107448","0.0-33.0-12.0","21187470","wem/bandit_either","A3KA08ZKNCAAXO","either","5","","","","","","","72","H","0","img/none_selected.jpg","0","1","0","","0.8","true","0","","0.8","full_practice","0.5","","0.5","0.2","0.6","0.5","0.2","0.5","","","","","","","",""
"266","","bandit","66","1109245","0.0-33.0-13.0","21187470","wem/bandit_either","A3KA08ZKNCAAXO","either","5","","","","","","","72","H","0","img/none_selected.jpg","0","1","0","","0.8","true","0","","0.8","full_practice","0.5","","0.5","0.2","0.6","0.5","0.2","0.5","","","","","","","",""
"279","","bandit","67","1111035","0.0-33.0-14.0","21187470","wem/bandit_either","A3KA08ZKNCAAXO","either","5","","","","","","","72","H","0","img/none_selected.jpg","0","1","0","","0.8","true","0","","0.8","full_practice","0.5","","0.5","0.2","0.6","0.5","0.2","0.5","","","","","","","",""
"324","","bandit","68","1112888","0.0-33.0-15.0","21187470","wem/bandit_either","A3KA08ZKNCAAXO","either","5","","","","","","","72","H","0","img/none_selected.jpg","1","0","0","0.8","","true","0","0.8","","full_practice","0.5","0.2","0.5","","","0.5","","0.5","0.6","0.2","","","","","",""
"306","","bandit","69","1114710","0.0-33.0-16.0","21187470","wem/bandit_either","A3KA08ZKNCAAXO","either","5","","","","","","","72","H","0","img/none_selected.jpg","0","1","0","","0.8","true","0","","0.8","full_practice","0.5","","0.5","0.2","0.6","0.5","0.2","0.5","","","","","","","",""
"510","","bandit","70","1116744","0.0-33.0-17.0","21187470","wem/bandit_either","A3KA08ZKNCAAXO","either","5","","","","","","","72","H","0","img/none_selected.jpg","0","0","1","","0.8","true","0","","0.8","full_practice","0.5","","0.5","0.2","0.6","0.5","0.2","0.5","","","","","","","",""
"654","","bandit","71","1118933","0.0-33.0-18.0","21187470","wem/bandit_either","A3KA08ZKNCAAXO","either","5","","","","","","","74","J","1","","1","0","0","0.2","","true","0","0.8","","full_practice","0.5","0.2","0.5","","","0.5","","0.5","0.6","0.2","","","","","",""
"344","","bandit","72","1120806","0.0-33.0-19.0","21187470","wem/bandit_either","A3KA08ZKNCAAXO","either","5","","","","","","","74","J","1","","0","0","1","0.2","","true","0","0.8","","full_practice","0.5","0.2","0.5","","","0.5","","0.5","0.6","0.2","","","","","",""
"4298","","text","73","1125116","0.0-34.0","21187470","wem/bandit_either","A3KA08ZKNCAAXO","either","5","32","","","","","","","","","","","","","","","","","","","","","","","","","","","","","","","","","","",""
"17310","","text","74","1143443","0.0-35.0","21187470","wem/bandit_either","A3KA08ZKNCAAXO","either","5","32","","","","","","","","","","","","","","","","","","","","","","","","","","","","","","","","","","",""
"30616","","text","75","1174062","0.0-36.0","21187470","wem/bandit_either","A3KA08ZKNCAAXO","either","5","32","","","","","","","","","","","","","","","","","","","","","","","","","","","","","","","","","","",""
"7879","","text","76","1181945","0.0-37.0","21187470","wem/bandit_either","A3KA08ZKNCAAXO","either","5","32","","","","","","","","","","","","","","","","","","","","","","","","","","","","","","","","","","",""
"11765","","text","77","1193716","0.0-38.0","21187470","wem/bandit_either","A3KA08ZKNCAAXO","either","5","32","","","","","","","","","","","","","","","","","","","","","","","","","","","","","","","","","","",""
"6218","","text","78","1199941","0.0-39.0","21187470","wem/bandit_either","A3KA08ZKNCAAXO","either","5","32","","","","","","","","","","","","","","","","","","","","","","","","","","","","","","","","","","",""
"1791","","bandit","79","1203263","0.0-40.0-0.0","21187470","wem/bandit_either","A3KA08ZKNCAAXO","either","5","","","","","","","74","J","1","","0","0","1","0.3340388524","","","1","0.1165465043","","main_expt","0.4","0.3340388524","0.2","","","0.8","","0.6","0.3897275569","0.4265570961","","","","","",""
"1008","","bandit","80","1205799","0.0-41.0-0.0","21187470","wem/bandit_either","A3KA08ZKNCAAXO","either","5","","","","","","","72","H","0","img/none_selected.jpg","0","0","1","","0.08371899021","","2","","0.08371899021","main_expt","0.4","","0.2","0.3223834482","0.3911966266","0.8","0.4177099958","0.6","","","","","","","",""
"837","","bandit","81","1208156","0.0-42.0-0.0","21187470","wem/bandit_either","A3KA08ZKNCAAXO","either","5","","","","","","","75","K","2","","0","0","1","0.4074861021","","","3","0.04339790364","","main_expt","0.4","0.3585509001","0.2","","","0.8","","0.6","0.4074861021","0.4192185534","","","","","",""
"514","","bandit","82","1210187","0.0-43.0-0.0","21187470","wem/bandit_either","A3KA08ZKNCAAXO","either","5","","","","","","","76","L","3","","1","0","0","0.4241610434","","","4","0.04073472785","","main_expt","0.4","0.3416436242","0.2","","","0.8","","0.6","0.3965638453","0.4241610434","","","","","",""
"545","","bandit","83","1212262","0.0-44.0-0.0","21187470","wem/bandit_either","A3KA08ZKNCAAXO","either","5","","","","","","","76","L","3","","1","0","0","0.4284837315","","","5","0.04731773769","","main_expt","0.4","0.3444758892","0.2","","","0.8","","0.6","0.3688269119","0.4284837315","","","","","",""
"336","","bandit","84","1214130","0.0-45.0-0.0","21187470","wem/bandit_either","A3KA08ZKNCAAXO","either","5","","","","","","","76","L","3","","0","1","0","","0.4328708062","","6","","0.05617088868","main_expt","0.4","","0.2","0.3574177426","0.3865867917","0.8","0.4328708062","0.6","","","","","","","",""
"505","","bandit","85","1216164","0.0-46.0-0.0","21187470","wem/bandit_either","A3KA08ZKNCAAXO","either","5","","","","","","","76","L","3","","0","0","1","0.4176545671","","","7","0.05606577856","","main_expt","0.4","0.3634052143","0.2","","","0.8","","0.6","0.4294719924","0.4176545671","","","","","",""
"564","","bandit","86","1218258","0.0-47.0-0.0","21187470","wem/bandit_either","A3KA08ZKNCAAXO","either","5","","","","","","","74","J","1","","0","0","1","","0.3675420607","","8","","0.09244853328","main_expt","0.4","","0.2","0.3675420607","0.4210378118","0.8","0.4022395488","0.6","","","","","","","",""
"476","","bandit","87","1220267","0.0-48.0-0.0","21187470","wem/bandit_either","A3KA08ZKNCAAXO","either","5","","","","","","","75","K","2","","0","0","1","0.4502112583","","","9","0.1271341085","","main_expt","0.4","0.3921196104","0.2","","","0.8","","0.6","0.4502112583","0.3929004949","","","","","",""
"256","","bandit","88","1222036","0.0-49.0-0.0","21187470","wem/bandit_either","A3KA08ZKNCAAXO","either","5","","","","","","","72","H","0","img/none_selected.jpg","0","0","1","0.1370717255","","","10","0.1370717255","","main_expt","0.4","0.4026182126","0.2","","","0.8","","0.6","0.4452653155","0.3863711448","","","","","",""
"339","","bandit","89","1223906","0.0-50.0-0.0","21187470","wem/bandit_either","A3KA08ZKNCAAXO","either","5","","","","","","","76","L","3","","1","0","0","0.4205849279","","","11","0.1275050207","","main_expt","0.4","0.3543069494","0.2","","","0.8","","0.6","0.4352349267","0.4205849279","","","","","",""
"317","","bandit","90","1225760","0.0-51.0-0.0","21187470","wem/bandit_either","A3KA08ZKNCAAXO","either","5","","","","","","","76","L","3","","0","1","0","","0.4525069231","","12","","0.122317004","main_expt","0.4","","0.2","0.3504097904","0.4029030639","0.8","0.4525069231","0.6","","","","","","","",""
"309","","bandit","91","1227596","0.0-52.0-0.0","21187470","wem/bandit_either","A3KA08ZKNCAAXO","either","5","","","","","","","76","L","3","","1","0","0","0.4485799753","","","13","0.1251711411","","main_expt","0.4","0.2787441393","0.2","","","0.8","","0.6","0.4198147105","0.4485799753","","","","","",""
"268","","bandit","92","1229384","0.0-53.0-0.0","21187470","wem/bandit_either","A3KA08ZKNCAAXO","either","5","","","","","","","76","L","3","","0","0","1","0.4504049656","","","14","0.1380641988","","main_expt","0.4","0.2723245106","0.2","","","0.8","","0.6","0.3761312174","0.4504049656","","","","","",""
"347","","bandit","93","1231257","0.0-54.0-0.0","21187470","wem/bandit_either","A3KA08ZKNCAAXO","either","5","","","","","","","75","K","2","","0","0","1","0.4017507227","","","15","0.2010812313","","main_expt","0.4","0.3687644442","0.2","","","0.8","","0.6","0.4017507227","0.4281165459","","","","","",""
"995","","bandit","94","1233777","0.0-55.0-0.0","21187470","wem/bandit_either","A3KA08ZKNCAAXO","either","5","","","","","","","74","J","1","","0","1","0","","0.3992289848","","16","","0.1747275657","main_expt","0.4","","0.2","0.3992289848","0.3859888637","0.8","0.4035101098","0.6","","","","","","","",""
"229","","bandit","95","1235543","0.0-56.0-0.0","21187470","wem/bandit_either","A3KA08ZKNCAAXO","either","5","","","","","","","74","J","1","","0","1","0","","0.4067061876","","17","","0.1816524112","main_expt","0.4","","0.2","0.4067061876","0.3706978481","0.8","0.4063691663","0.6","","","","","","","",""
"488","","bandit","96","1237557","0.0-57.0-0.0","21187470","wem/bandit_either","A3KA08ZKNCAAXO","either","5","","","","","","","74","J","1","","0","0","1","","0.3969002131","","18","","0.1700798448","main_expt","0.4","","0.2","0.3969002131","0.3323991027","0.8","0.4201618032","0.6","","","","","","","",""
"399","","bandit","97","1239481","0.0-58.0-0.0","21187470","wem/bandit_either","A3KA08ZKNCAAXO","either","5","","","","","","","72","H","0","img/none_selected.jpg","0","0","1","","0.1998500639","","19","","0.1998500639","main_expt","0.4","","0.2","0.3930099592","0.3301718366","0.8","0.3868389751","0.6","","","","","","","",""
"721","","bandit","98","1241733","0.0-59.0-0.0","21187470","wem/bandit_either","A3KA08ZKNCAAXO","either","5","","","","","","","76","L","3","","0","0","1","0.3868875991","","","20","0.2418808817","","main_expt","0.4","0.3791602553","0.2","","","0.8","","0.6","0.3714618997","0.3868875991","","","","","",""
"1341","","bandit","99","1244609","0.0-60.0-0.0","21187470","wem/bandit_either","A3KA08ZKNCAAXO","either","5","","","","","","","75","K","2","","1","0","0","0.3621694591","","","21","0.2293341009","","main_expt","0.4","0.4127515201","0.2","","","0.8","","0.6","0.3621694591","0.4253770554","","","","","",""
"1708","","bandit","100","1247844","0.0-61.0-0.0","21187470","wem/bandit_either","A3KA08ZKNCAAXO","either","5","","","","","","","74","J","1","","0","0","1","","0.4164833055","","22","","0.2074184163","main_expt","0.4","","0.2","0.4164833055","0.3648829928","0.8","0.4285762007","0.6","","","","","","","",""
"332","","bandit","101","1249707","0.0-62.0-0.0","21187470","wem/bandit_either","A3KA08ZKNCAAXO","either","5","","","","","","","72","H","0","img/none_selected.jpg","0","0","1","","0.1832507358","","23","","0.1832507358","main_expt","0.4","","0.2","0.4143027846","0.2856994719","0.8","0.4082522222","0.6","","","","","","","",""
"49","","bandit","102","1251279","0.0-63.0-0.0","21187470","wem/bandit_either","A3KA08ZKNCAAXO","either","5","","","","","","","76","L","3","","0","0","1","0.4027270218","","","24","0.1469425149","","main_expt","0.4","0.3649270698","0.2","","","0.8","","0.6","0.3152516524","0.4027270218","","","","","",""
"526","","bandit","103","1253325","0.0-64.0-0.0","21187470","wem/bandit_either","A3KA08ZKNCAAXO","either","5","","","","","","","75","K","2","","0","0","1","0.2778145345","","","25","0.102794739","","main_expt","0.4","0.392676409","0.2","","","0.8","","0.6","0.2778145345","0.4100212433","","","","","",""
"490","","bandit","104","1255336","0.0-65.0-0.0","21187470","wem/bandit_either","A3KA08ZKNCAAXO","either","5","","","","","","","74","J","1","","0","1","0","","0.4031565401","","26","","0.1173732637","main_expt","0.4","","0.2","0.4031565401","0.3170506137","0.8","0.4190791169","0.6","","","","","","","",""
"622","","bandit","105","1257490","0.0-66.0-0.0","21187470","wem/bandit_either","A3KA08ZKNCAAXO","either","5","","","","","","","74","J","1","","0","0","1","","0.4245959001","","27","","0.08835016803","main_expt","0.4","","0.2","0.4245959001","0.3223143746","0.8","0.4527212376","0.6","","","","","","","",""
"837","","bandit","106","1259866","0.0-67.0-0.0","21187470","wem/bandit_either","A3KA08ZKNCAAXO","either","5","","","","","","","72","H","0","img/none_selected.jpg","0","0","1","","0.1134440288","","28","","0.1134440288","main_expt","0.4","","0.2","0.4232885055","0.3234472479","0.8","0.4480998813","0.6","","","","","","","",""
"279","","bandit","107","1261677","0.0-68.0-0.0","21187470","wem/bandit_either","A3KA08ZKNCAAXO","either","5","","","","","","","75","K","2","","1","0","0","0.2881425904","","","29","0.1982905849","","main_expt","0.4","0.4495512981","0.2","","","0.8","","0.6","0.2881425904","0.4628669208","","","","","",""
"375","","bandit","108","1263571","0.0-69.0-0.0","21187470","wem/bandit_either","A3KA08ZKNCAAXO","either","5","","","","","","","75","K","2","","0","0","1","0.2326555855","","","30","0.2366655967","","main_expt","0.4","0.4485299892","0.2","","","0.8","","0.6","0.2326555855","0.4565655028","","","","","",""
"516","","bandit","109","1265608","0.0-70.0-0.0","21187470","wem/bandit_either","A3KA08ZKNCAAXO","either","5","","","","","","","76","L","3","","0","0","1","0.4686031056","","","31","0.1622470467","","main_expt","0.4","0.4599237238","0.2","","","0.8","","0.6","0.2364604256","0.4686031056","","","","","",""
"223","","bandit","110","1267361","0.0-71.0-0.0","21187470","wem/bandit_either","A3KA08ZKNCAAXO","either","5","","","","","","","74","J","1","","0","0","1","","0.4508116693","","32","","0.1771911602","main_expt","0.4","","0.2","0.4508116693","0.2451982598","0.8","0.4659582456","0.6","","","","","","","",""
"573","","bandit","111","1269468","0.0-72.0-0.0","21187470","wem/bandit_either","A3KA08ZKNCAAXO","either","5","","","","","","","72","H","0","img/none_selected.jpg","0","0","1","","0.1622836308","","33","","0.1622836308","main_expt","0.4","","0.2","0.45101727","0.2360369815","0.8","0.4810757035","0.6","","","","","","","",""
"361","","bandit","112","1271357","0.0-73.0-0.0","21187470","wem/bandit_either","A3KA08ZKNCAAXO","either","5","","","","","","","74","J","1","","0","1","0","","0.4340174653","","34","","0.1655985557","main_expt","0.4","","0.2","0.4340174653","0.2317763892","0.8","0.4842727378","0.6","","","","","","","",""
"240","","bandit","113","1273122","0.0-74.0-0.0","21187470","wem/bandit_either","A3KA08ZKNCAAXO","either","5","","","","","","","74","J","1","","0","1","0","","0.4040147441","","35","","0.1492797185","main_expt","0.4","","0.2","0.4040147441","0.2527891731","0.8","0.4745470136","0.6","","","","","","","",""
"281","","bandit","114","1274921","0.0-75.0-0.0","21187470","wem/bandit_either","A3KA08ZKNCAAXO","either","5","","","","","","","74","J","1","","0","0","1","0.4268829696","","","36","0.1504543003","","main_expt","0.4","0.4268829696","0.2","","","0.8","","0.6","0.2641283143","0.4440965139","","","","","",""
"248","","bandit","115","1276704","0.0-76.0-0.0","21187470","wem/bandit_either","A3KA08ZKNCAAXO","either","5","","","","","","","74","J","1","","0","0","1","","0.4562327564","","37","","0.1064249526","main_expt","0.4","","0.2","0.4562327564","0.2309310423","0.8","0.4544425755","0.6","","","","","","","",""
"280","","bandit","116","1278518","0.0-77.0-0.0","21187470","wem/bandit_either","A3KA08ZKNCAAXO","either","5","","","","","","","75","K","2","","1","0","0","0.2093170459","","","38","0.1346530267","","main_expt","0.4","0.4481627861","0.2","","","0.8","","0.6","0.2093170459","0.4700138218","","","","","",""
"311","","bandit","117","1280338","0.0-78.0-0.0","21187470","wem/bandit_either","A3KA08ZKNCAAXO","either","5","","","","","","","75","K","2","","0","0","1","0.1398625959","","","39","0.1303494481","","main_expt","0.4","0.4475890948","0.2","","","0.8","","0.6","0.1398625959","0.466948448","","","","","",""
"335","","bandit","118","1282199","0.0-79.0-0.0","21187470","wem/bandit_either","A3KA08ZKNCAAXO","either","5","","","","","","","76","L","3","","1","0","0","0.4679256248","","","40","0.1492074344","","main_expt","0.4","0.4501575696","0.2","","","0.8","","0.6","0.09690087606","0.4679256248","","","","","",""
"300","","bandit","119","1284018","0.0-80.0-0.0","21187470","wem/bandit_either","A3KA08ZKNCAAXO","either","5","","","","","","","76","L","3","","0","0","1","","0.445537573","","41","","0.1370672299","main_expt","0.4","","0.2","0.4121884666","0.1129569356","0.8","0.445537573","0.6","","","","","","","",""
"741","","bandit","120","1286304","0.0-81.0-0.0","21187470","wem/bandit_either","A3KA08ZKNCAAXO","either","5","","","","","","","76","L","3","","0","0","1","","0.4521531226","","42","","0.08144147181","main_expt","0.4","","0.2","0.4379939247","0.1227033228","0.8","0.4521531226","0.6","","","","","","","",""
"478","","bandit","121","1288323","0.0-82.0-0.0","21187470","wem/bandit_either","A3KA08ZKNCAAXO","either","5","","","","","","","76","L","3","","0","0","1","0.4695072217","","","43","0.06793865388","","main_expt","0.4","0.4271747655","0.2","","","0.8","","0.6","0.08393287497","0.4695072217","","","","","",""
"245","","bandit","122","1290089","0.0-83.0-0.0","21187470","wem/bandit_either","A3KA08ZKNCAAXO","either","5","","","","","","","74","J","1","","0","0","1","","0.4480494518","","44","","0.05295344446","main_expt","0.4","","0.2","0.4480494518","0.06260074275","0.8","0.4807409838","0.6","","","","","","","",""
"310","","bandit","123","1291940","0.0-84.0-0.0","21187470","wem/bandit_either","A3KA08ZKNCAAXO","either","5","","","","","","","72","H","0","img/none_selected.jpg","0","0","1","","0.02744239742","","45","","0.02744239742","main_expt","0.4","","0.2","0.4269729589","0.08062123592","0.8","0.4507048108","0.6","","","","","","","",""
"259","","bandit","124","1293727","0.0-85.0-0.0","21187470","wem/bandit_either","A3KA08ZKNCAAXO","either","5","","","","","","","75","K","2","","0","0","1","0.1110847749","","","46","0.02347437243","","main_expt","0.4","0.4475746277","0.2","","","0.8","","0.6","0.1110847749","0.4382321206","","","","","",""
"593","","bandit","125","1295850","0.0-86.0-0.0","21187470","wem/bandit_either","A3KA08ZKNCAAXO","either","5","","","","","","","75","K","2","","0","0","1","","0.05346849493","","47","","0.02418160198","main_expt","0.4","","0.2","0.4295618238","0.05346849493","0.8","0.4393937913","0.6","","","","","","","",""
"244","","bandit","126","1297623","0.0-87.0-0.0","21187470","wem/bandit_either","A3KA08ZKNCAAXO","either","5","","","","","","","75","K","2","","0","0","1","0.04499733497","","","48","0.01182676654","","main_expt","0.4","0.4431907244","0.2","","","0.8","","0.6","0.04499733497","0.440318131","","","","","",""
"300","","bandit","127","1299440","0.0-88.0-0.0","21187470","wem/bandit_either","A3KA08ZKNCAAXO","either","5","","","","","","","74","J","1","","0","0","1","","0.4187732916","","49","","0.0186287842","main_expt","0.4","","0.2","0.4187732916","0.07378534534","0.8","0.4362102412","0.6","","","","","","","",""
"230","","bandit","128","1301213","0.0-89.0-0.0","21187470","wem/bandit_either","A3KA08ZKNCAAXO","either","5","","","","","","","74","J","1","","0","1","0","","0.356579213","","50","","0.02550629551","main_expt","0.4","","0.2","0.356579213","0.06168845619","0.8","0.44488671","0.6","","","","","","","",""
"243","","bandit","129","1302989","0.0-90.0-0.0","21187470","wem/bandit_either","A3KA08ZKNCAAXO","either","5","","","","","","","74","J","1","","0","0","1","","0.2629404955","","51","","0.04366809707","main_expt","0.4","","0.2","0.2629404955","0.1062028567","0.8","0.4633405548","0.6","","","","","","","",""
"266","","bandit","130","1304780","0.0-91.0-0.0","21187470","wem/bandit_either","A3KA08ZKNCAAXO","either","5","","","","","","","74","J","1","","0","1","0","","0.2919747068","","52","","0.04357168116","main_expt","0.4","","0.2","0.2919747068","0.1379608546","0.8","0.4528043762","0.6","","","","","","","",""
"339","","bandit","131","1306654","0.0-92.0-0.0","21187470","wem/bandit_either","A3KA08ZKNCAAXO","either","5","","","","","","","74","J","1","","0","0","1","","0.3809901122","","53","","0.03899227154","main_expt","0.4","","0.2","0.3809901122","0.1356826849","0.8","0.4390431751","0.6","","","","","","","",""
"238","","bandit","132","1308407","0.0-93.0-0.0","21187470","wem/bandit_either","A3KA08ZKNCAAXO","either","5","","","","","","","74","J","1","","0","1","0","","0.3452518694","","54","","0.04009146386","main_expt","0.4","","0.2","0.3452518694","0.1038772241","0.8","0.4549270822","0.6","","","","","","","",""
"390","","bandit","133","1310335","0.0-94.0-0.0","21187470","wem/bandit_either","A3KA08ZKNCAAXO","either","5","","","","","","","74","J","1","","0","0","1","","0.3263112327","","55","","0.0155768565","main_expt","0.4","","0.2","0.3263112327","0.1689791829","0.8","0.4710341864","0.6","","","","","","","",""
"317","","bandit","134","1312189","0.0-95.0-0.0","21187470","wem/bandit_either","A3KA08ZKNCAAXO","either","5","","","","","","","74","J","1","","0","0","1","","0.3308963945","","56","","0.02112461672","main_expt","0.4","","0.2","0.3308963945","0.1108888145","0.8","0.4745834276","0.6","","","","","","","",""
"681","","bandit","135","1314390","0.0-96.0-0.0","21187470","wem/bandit_either","A3KA08ZKNCAAXO","either","5","","","","","","","72","H","0","img/none_selected.jpg","0","0","1","0.0126553198","","","57","0.0126553198","","main_expt","0.4","0.3150326571","0.2","","","0.8","","0.6","0.1206542402","0.489318572","","","","","",""
"235","","bandit","136","1316153","0.0-97.0-0.0","21187470","wem/bandit_either","A3KA08ZKNCAAXO","either","5","","","","","","","72","H","0","img/none_selected.jpg","0","0","1","","0.01131359515","","58","","0.01131359515","main_expt","0.4","","0.2","0.3049116772","0.09707343937","0.8","0.480037986","0.6","","","","","","","",""
"338","","bandit","137","1318002","0.0-98.0-0.0","21187470","wem/bandit_either","A3KA08ZKNCAAXO","either","5","","","","","","","75","K","2","","0","0","1","0.1044384952","","","59","0.01030075821","","main_expt","0.4","0.3050987947","0.2","","","0.8","","0.6","0.1044384952","0.4593461039","","","","","",""
"323","","bandit","138","1319850","0.0-99.0-0.0","21187470","wem/bandit_either","A3KA08ZKNCAAXO","either","5","","","","","","","76","L","3","","0","0","1","","0.446051488","","60","","0.005868957973","main_expt","0.4","","0.2","0.3274009355","0.08890369623","0.8","0.446051488","0.6","","","","","","","",""
"282","","bandit","139","1321659","0.0-100.0-0.0","21187470","wem/bandit_either","A3KA08ZKNCAAXO","either","5","","","","","","","74","J","1","","0","0","1","","0.3428943983","","61","","0.004361943215","main_expt","0.4","","0.2","0.3428943983","0.08921221942","0.8","0.4391285327","0.6","","","","","","","",""
"278","","bandit","140","1323458","0.0-101.0-0.0","21187470","wem/bandit_either","A3KA08ZKNCAAXO","either","5","","","","","","","75","K","2","","0","0","1","","0.09812025034","","62","","0.005208412743","main_expt","0.4","","0.2","0.3549763931","0.09812025034","0.8","0.4063883723","0.6","","","","","","","",""
"159","","bandit","141","1325148","0.0-102.0-0.0","21187470","wem/bandit_either","A3KA08ZKNCAAXO","either","5","","","","","","","75","K","2","","0","0","1","0.09006279409","","","63","0.006461011255","","main_expt","0.4","0.3496678451","0.2","","","0.8","","0.6","0.09006279409","0.4330387396","","","","","",""
"203","","bandit","142","1326891","0.0-103.0-0.0","21187470","wem/bandit_either","A3KA08ZKNCAAXO","either","5","","","","","","","75","K","2","","0","0","1","0.1118976224","","","64","0.01267926231","","main_expt","0.4","0.3188537263","0.2","","","0.8","","0.6","0.1118976224","0.4207902426","","","","","",""
"218","","bandit","143","1328638","0.0-104.0-0.0","21187470","wem/bandit_either","A3KA08ZKNCAAXO","either","5","","","","","","","75","K","2","","0","0","1","0.1053817613","","","65","0.009732787917","","main_expt","0.4","0.3191795336","0.2","","","0.8","","0.6","0.1053817613","0.3719582347","","","","","",""
"263","","bandit","144","1330424","0.0-105.0-0.0","21187470","wem/bandit_either","A3KA08ZKNCAAXO","either","5","","","","","","","76","L","3","","0","1","0","","0.3748569955","","66","","0.01092542651","main_expt","0.4","","0.2","0.268616347","0.1307356695","0.8","0.3748569955","0.6","","","","","","","",""
"353","","bandit","145","1332306","0.0-106.0-0.0","21187470","wem/bandit_either","A3KA08ZKNCAAXO","either","5","","","","","","","76","L","3","","0","0","1","","0.335252031","","67","","0.02125534741","main_expt","0.4","","0.2","0.259194563","0.1418436428","0.8","0.335252031","0.6","","","","","","","",""
"295","","bandit","146","1334126","0.0-107.0-0.0","21187470","wem/bandit_either","A3KA08ZKNCAAXO","either","5","","","","","","","72","H","0","img/none_selected.jpg","0","0","1","","0.02360283027","","68","","0.02360283027","main_expt","0.4","","0.2","0.2281204868","0.1459089566","0.8","0.3199157278","0.6","","","","","","","",""
"303","","bandit","147","1335937","0.0-108.0-0.0","21187470","wem/bandit_either","A3KA08ZKNCAAXO","either","5","","","","","","","72","H","0","img/none_selected.jpg","0","0","1","","0.02539305756","","69","","0.02539305756","main_expt","0.4","","0.2","0.2195844169","0.1809721424","0.8","0.3068525281","0.6","","","","","","","",""
"290","","bandit","148","1337756","0.0-109.0-0.0","21187470","wem/bandit_either","A3KA08ZKNCAAXO","either","5","","","","","","","74","J","1","","0","0","1","","0.1883338509","","70","","0.05014388586","main_expt","0.4","","0.2","0.1883338509","0.1784068974","0.8","0.3181076016","0.6","","","","","","","",""
"118","","bandit","149","1339409","0.0-110.0-0.0","21187470","wem/bandit_either","A3KA08ZKNCAAXO","either","5","","","","","","","74","J","1","","0","0","1","","0.1639708178","","71","","0.04209054697","main_expt","0.4","","0.2","0.1639708178","0.1973023396","0.8","0.2926426422","0.6","","","","","","","",""
"483","","bandit","150","1341421","0.0-111.0-0.0","21187470","wem/bandit_either","A3KA08ZKNCAAXO","either","5","","","","","","","74","J","1","","0","0","1","","0.1312842785","","72","","0.05611199342","main_expt","0.4","","0.2","0.1312842785","0.2436342847","0.8","0.2380263643","0.6","","","","","","","",""
"290","","bandit","151","1343235","0.0-112.0-0.0","21187470","wem/bandit_either","A3KA08ZKNCAAXO","either","5","","","","","","","75","K","2","","0","0","1","0.1992173182","","","73","0.05293238473","","main_expt","0.4","0.1805041857","0.2","","","0.8","","0.6","0.1992173182","0.2407197948","","","","","",""
"280","","bandit","152","1345029","0.0-113.0-0.0","21187470","wem/bandit_either","A3KA08ZKNCAAXO","either","5","","","","","","","76","L","3","","0","0","1","0.2317468449","","","74","0.0318456884","","main_expt","0.4","0.1739557812","0.2","","","0.8","","0.6","0.2347098304","0.2317468449","","","","","",""
"402","","bandit","153","1346960","0.0-114.0-0.0","21187470","wem/bandit_either","A3KA08ZKNCAAXO","either","5","","","","","","","72","H","0","img/none_selected.jpg","0","0","1","0.03873230677","","","75","0.03873230677","","main_expt","0.4","0.2434916027","0.2","","","0.8","","0.6","0.2641442137","0.2545997551","","","","","",""
"476","","bandit","154","1348968","0.0-115.0-0.0","21187470","wem/bandit_either","A3KA08ZKNCAAXO","either","5","","","","","","","72","H","0","img/none_selected.jpg","0","0","1","0.03304947682","","","76","0.03304947682","","main_expt","0.4","0.2438468568","0.2","","","0.8","","0.6","0.3192644053","0.2890845388","","","","","",""
"12209","","bandit","155","1362711","0.0-116.0-0.0","21187470","wem/bandit_either","A3KA08ZKNCAAXO","either","5","","","","","","","72","H","0","img/none_selected.jpg","0","0","1","","0.02607887458","","77","","0.02607887458","main_expt","0.4","","0.2","0.2425324642","0.3351132613","0.8","0.2386362654","0.6","","","","","","","",""
"226","","bandit","156","1364462","0.0-117.0-0.0","21187470","wem/bandit_either","A3KA08ZKNCAAXO","either","5","","","","","","","74","J","1","","0","0","1","","0.205588479","","78","","0.02492981692","main_expt","0.4","","0.2","0.205588479","0.3086784207","0.8","0.2673679704","0.6","","","","","","","",""
"65","","bandit","157","1366044","0.0-118.0-0.0","21187470","wem/bandit_either","A3KA08ZKNCAAXO","either","5","","","","","","","74","J","1","","0","0","1","","0.213062191","","79","","0.01824110002","main_expt","0.4","","0.2","0.213062191","0.3076482073","0.8","0.2813811921","0.6","","","","","","","",""
"1008","","bandit","158","1368567","0.0-119.0-0.0","21187470","wem/bandit_either","A3KA08ZKNCAAXO","either","5","","","","","","","75","K","2","","0","0","1","0.3605025214","","","80","0.0202176162","","main_expt","0.4","0.1852926048","0.2","","","0.8","","0.6","0.3605025214","0.2419447949","","","","","",""
"814","","bandit","159","1370909","0.0-120.0-0.0","21187470","wem/bandit_either","A3KA08ZKNCAAXO","either","5","","","","","","","76","L","3","","0","0","1","0.323481111","","","81","0.0252752587","","main_expt","0.4","0.2332942271","0.2","","","0.8","","0.6","0.3286166321","0.323481111","","","","","",""
"2413","","bandit","160","1374858","0.0-121.0-0.0","21187470","wem/bandit_either","A3KA08ZKNCAAXO","either","5","","","","","","","72","H","0","img/none_selected.jpg","0","0","1","","0.05668457717","","82","","0.05668457717","main_expt","0.4","","0.2","0.2087797338","0.3459677762","0.8","0.3097244961","0.6","","","","","","","",""
"57","","bandit","161","1376439","0.0-122.0-0.0","21187470","wem/bandit_either","A3KA08ZKNCAAXO","either","5","","","","","","","72","H","0","img/none_selected.jpg","0","0","1","","0.07760530004","","83","","0.07760530004","main_expt","0.4","","0.2","0.2049979043","0.3092751195","0.8","0.2787498647","0.6","","","","","","","",""
"373","","bandit","162","1378348","0.0-123.0-0.0","21187470","wem/bandit_either","A3KA08ZKNCAAXO","either","5","","","","","","","72","H","0","img/none_selected.jpg","0","0","1","0.03696005566","","","84","0.03696005566","","main_expt","0.4","0.2151780091","0.2","","","0.8","","0.6","0.3044630387","0.2589524449","","","","","",""
"319","","bandit","163","1380198","0.0-124.0-0.0","21187470","wem/bandit_either","A3KA08ZKNCAAXO","either","5","","","","","","","74","J","1","","0","0","1","","0.1497615914","","85","","0.04177257934","main_expt","0.4","","0.2","0.1497615914","0.2812480587","0.8","0.2769318636","0.6","","","","","","","",""
"547","","bandit","164","1382283","0.0-125.0-0.0","21187470","wem/bandit_either","A3KA08ZKNCAAXO","either","5","","","","","","","74","J","1","","0","1","0","","0.1223687677","","86","","0.0385770192","main_expt","0.4","","0.2","0.1223687677","0.2506532223","0.8","0.2849222391","0.6","","","","","","","",""
"916","","bandit","165","1384727","0.0-126.0-0.0","21187470","wem/bandit_either","A3KA08ZKNCAAXO","either","5","","","","","","","74","J","1","","0","0","1","","0.1472857413","","87","","0.03720252147","main_expt","0.4","","0.2","0.1472857413","0.2269900387","0.8","0.3131087309","0.6","","","","","","","",""
"489","","bandit","166","1386740","0.0-127.0-0.0","21187470","wem/bandit_either","A3KA08ZKNCAAXO","either","5","","","","","","","74","J","1","","0","0","1","","0.1252586248","","88","","0.06746059371","main_expt","0.4","","0.2","0.1252586248","0.1504729919","0.8","0.3038587512","0.6","","","","","","","",""
"415","","bandit","167","1388698","0.0-128.0-0.0","21187470","wem/bandit_either","A3KA08ZKNCAAXO","either","5","","","","","","","74","J","1","","0","0","1","0.1194927994","","","89","0.04069757945","","main_expt","0.4","0.1194927994","0.2","","","0.8","","0.6","0.1382070302","0.3308022157","","","","","",""
"894","","bandit","168","1391110","0.0-129.0-0.0","21187470","wem/bandit_either","A3KA08ZKNCAAXO","either","5","","","","","","","74","J","1","","0","0","1","","0.1589750007","","90","","0.07325379503","main_expt","0.4","","0.2","0.1589750007","0.1364765349","0.8","0.3574922351","0.6","","","","","","","",""
"1892","","bandit","169","1394513","0.0-130.0-0.0","21187470","wem/bandit_either","A3KA08ZKNCAAXO","either","5","","","","","","","74","J","1","","0","0","1","","0.1859960426","","91","","0.06877471811","main_expt","0.4","","0.2","0.1859960426","0.09318196272","0.8","0.3729517688","0.6","","","","","","","",""
"393","","bandit","170","1396446","0.0-131.0-0.0","21187470","wem/bandit_either","A3KA08ZKNCAAXO","either","5","","","","","","","75","K","2","","0","0","1","0.06946097624","","","92","0.04115987362","","main_expt","0.4","0.192419488","0.2","","","0.8","","0.6","0.06946097624","0.398352994","","","","","",""
"382","","bandit","171","1398356","0.0-132.0-0.0","21187470","wem/bandit_either","A3KA08ZKNCAAXO","either","5","","","","","","","76","L","3","","1","0","0","0.4135860398","","","93","0.07078892783","","main_expt","0.4","0.1716033463","0.2","","","0.8","","0.6","0.08102832817","0.4135860398","","","","","",""
"168","","bandit","172","1400038","0.0-133.0-0.0","21187470","wem/bandit_either","A3KA08ZKNCAAXO","either","5","","","","","","","76","L","3","","0","0","1","0.3786880174","","","94","0.05572868433","","main_expt","0.4","0.1935897604","0.2","","","0.8","","0.6","0.1271360848","0.3786880174","","","","","",""
"521","","bandit","173","1402085","0.0-134.0-0.0","21187470","wem/bandit_either","A3KA08ZKNCAAXO","either","5","","","","","","","72","H","0","img/none_selected.jpg","0","0","1","","0.05056929995","","95","","0.05056929995","main_expt","0.4","","0.2","0.2193228015","0.1097592989","0.8","0.3823424718","0.6","","","","","","","",""
"1346","","bandit","174","1404944","0.0-135.0-0.0","21187470","wem/bandit_either","A3KA08ZKNCAAXO","either","5","","","","","","","74","J","1","","0","0","1","","0.3262643469","","96","","0.04159874267","main_expt","0.4","","0.2","0.3262643469","0.1085490834","0.8","0.3642725552","0.6","","","","","","","",""
"2124","","bandit","175","1408580","0.0-136.0-0.0","21187470","wem/bandit_either","A3KA08ZKNCAAXO","either","5","","","","","","","74","J","1","","0","1","0","","0.3207405496","","97","","0.03654451862","main_expt","0.4","","0.2","0.3207405496","0.1049812554","0.8","0.3197717944","0.6","","","","","","","",""
"334","","bandit","176","1410444","0.0-137.0-0.0","21187470","wem/bandit_either","A3KA08ZKNCAAXO","either","5","","","","","","","74","J","1","","0","1","0","","0.3712856991","","98","","0.04190300095","main_expt","0.4","","0.2","0.3712856991","0.08177978443","0.8","0.2514424369","0.6","","","","","","","",""
"687","","bandit","177","1412654","0.0-138.0-0.0","21187470","wem/bandit_either","A3KA08ZKNCAAXO","either","5","","","","","","","74","J","1","","0","1","0","","0.3740145378","","99","","0.08742990617","main_expt","0.4","","0.2","0.3740145378","0.07574087804","0.8","0.2926772137","0.6","","","","","","","",""
"478","","bandit","178","1414640","0.0-139.0-0.0","21187470","wem/bandit_either","A3KA08ZKNCAAXO","either","5","","","","","","","74","J","1","","0","1","0","","0.3776295542","","100","","0.08966523481","main_expt","0.4","","0.2","0.3776295542","0.07829319678","0.8","0.234485335","0.6","","","","","","","",""
"311","","bandit","179","1416472","0.0-140.0-0.0","21187470","wem/bandit_either","A3KA08ZKNCAAXO","either","5","","","","","","","74","J","1","","0","1","0","","0.3592666398","","101","","0.07849065771","main_expt","0.4","","0.2","0.3592666398","0.07919243683","0.8","0.250352175","0.6","","","","","","","",""
"282","","bandit","180","1418275","0.0-141.0-0.0","21187470","wem/bandit_either","A3KA08ZKNCAAXO","either","5","","","","","","","74","J","1","","0","0","1","","0.3412191773","","102","","0.1054267613","main_expt","0.4","","0.2","0.3412191773","0.1052753188","0.8","0.2139972863","0.6","","","","","","","",""
"238","","bandit","181","1420027","0.0-142.0-0.0","21187470","wem/bandit_either","A3KA08ZKNCAAXO","either","5","","","","","","","74","J","1","","0","1","0","","0.3133100433","","103","","0.1120981937","main_expt","0.4","","0.2","0.3133100433","0.1248526142","0.8","0.20092706","0.6","","","","","","","",""
"281","","bandit","182","1421844","0.0-143.0-0.0","21187470","wem/bandit_either","A3KA08ZKNCAAXO","either","5","","","","","","","74","J","1","","0","0","1","","0.3219148419","","104","","0.1034740879","main_expt","0.4","","0.2","0.3219148419","0.142969925","0.8","0.2305366804","0.6","","","","","","","",""
"274","","bandit","183","1423645","0.0-144.0-0.0","21187470","wem/bandit_either","A3KA08ZKNCAAXO","either","5","","","","","","","74","J","1","","0","0","1","","0.3300892518","","105","","0.07597240327","main_expt","0.4","","0.2","0.3300892518","0.13947254","0.8","0.2102135581","0.6","","","","","","","",""
"460","","bandit","184","1425631","0.0-145.0-0.0","21187470","wem/bandit_either","A3KA08ZKNCAAXO","either","5","","","","","","","75","K","2","","0","0","1","0.1329526997","","","106","0.1124257427","","main_expt","0.4","0.3401839058","0.2","","","0.8","","0.6","0.1329526997","0.2219457329","","","","","",""
"267","","bandit","185","1427429","0.0-146.0-0.0","21187470","wem/bandit_either","A3KA08ZKNCAAXO","either","5","","","","","","","75","K","2","","0","0","1","0.1727290233","","","107","0.1133168519","","main_expt","0.4","0.3784706915","0.2","","","0.8","","0.6","0.1727290233","0.3048423019","","","","","",""
"319","","bandit","186","1429279","0.0-147.0-0.0","21187470","wem/bandit_either","A3KA08ZKNCAAXO","either","5","","","","","","","75","K","2","","0","0","1","0.1864487031","","","108","0.1752395656","","main_expt","0.4","0.3945753887","0.2","","","0.8","","0.6","0.1864487031","0.258150515","","","","","",""
"227","","bandit","187","1431020","0.0-148.0-0.0","21187470","wem/bandit_either","A3KA08ZKNCAAXO","either","5","","","","","","","72","H","0","img/none_selected.jpg","0","0","1","0.1862973424","","","109","0.1862973424","","main_expt","0.4","0.356827327","0.2","","","0.8","","0.6","0.2463216238","0.1859129148","","","","","",""
"260","","bandit","188","1432808","0.0-149.0-0.0","21187470","wem/bandit_either","A3KA08ZKNCAAXO","either","5","","","","","","","72","H","0","img/none_selected.jpg","0","0","1","","0.2015845776","","110","","0.2015845776","main_expt","0.4","","0.2","0.2344179837","0.2431522628","0.8","0.1371624404","0.6","","","","","","","",""
"922","","bandit","189","1435260","0.0-150.0-0.0","21187470","wem/bandit_either","A3KA08ZKNCAAXO","either","5","","","","","","","76","L","3","","0","0","1","0.1258232978","","","111","0.2003651753","","main_expt","0.4","0.2644823096","0.2","","","0.8","","0.6","0.1757476643","0.1258232978","","","","","",""
"275","","bandit","190","1437069","0.0-151.0-0.0","21187470","wem/bandit_either","A3KA08ZKNCAAXO","either","5","","","","","","","76","L","3","","0","0","1","0.1529967373","","","112","0.21392293","","main_expt","0.4","0.28311182","0.2","","","0.8","","0.6","0.2451518953","0.1529967373","","","","","",""
"250","","bandit","191","1438843","0.0-152.0-0.0","21187470","wem/bandit_either","A3KA08ZKNCAAXO","either","5","","","","","","","75","K","2","","0","0","1","0.2407836715","","","113","0.1606798039","","main_expt","0.4","0.2413269532","0.2","","","0.8","","0.6","0.2407836715","0.148248117","","","","","",""
"329","","bandit","192","1440699","0.0-153.0-0.0","21187470","wem/bandit_either","A3KA08ZKNCAAXO","either","5","","","","","","","75","K","2","","1","0","0","0.3099317417","","","114","0.2095980235","","main_expt","0.4","0.3100969134","0.2","","","0.8","","0.6","0.3099317417","0.1562208239","","","","","",""
"988","","bandit","193","1443213","0.0-154.0-0.0","21187470","wem/bandit_either","A3KA08ZKNCAAXO","either","5","","","","","","","75","K","2","","0","0","1","0.3180754701","","","115","0.2550279667","","main_expt","0.4","0.329842252","0.2","","","0.8","","0.6","0.3180754701","0.2138032898","","","","","",""
"572","","bandit","194","1445318","0.0-155.0-0.0","21187470","wem/bandit_either","A3KA08ZKNCAAXO","either","5","","","","","","","74","J","1","","1","0","0","0.3223706096","","","116","0.2471764387","","main_expt","0.4","0.3223706096","0.2","","","0.8","","0.6","0.2919742107","0.2331260325","","","","","",""
"278","","bandit","195","1447136","0.0-156.0-0.0","21187470","wem/bandit_either","A3KA08ZKNCAAXO","either","5","","","","","","","74","J","1","","0","0","1","","0.3098408215","","117","","0.2730878341","main_expt","0.4","","0.2","0.3098408215","0.2799774295","0.8","0.1826309729","0.6","","","","","","","",""
"1355","","bandit","196","1450018","0.0-157.0-0.0","21187470","wem/bandit_either","A3KA08ZKNCAAXO","either","5","","","","","","","74","J","1","","0","0","1","","0.2974554567","","118","","0.2071462199","main_expt","0.4","","0.2","0.2974554567","0.2646714695","0.8","0.1511269107","0.6","","","","","","","",""
"356","","bandit","197","1451898","0.0-158.0-0.0","21187470","wem/bandit_either","A3KA08ZKNCAAXO","either","5","","","","","","","74","J","1","","0","0","1","","0.3598468986","","119","","0.2275232499","main_expt","0.4","","0.2","0.3598468986","0.3179839519","0.8","0.1559979654","0.6","","","","","","","",""
"752","","bandit","198","1454183","0.0-159.0-0.0","21187470","wem/bandit_either","A3KA08ZKNCAAXO","either","5","","","","","","","74","J","1","","0","0","1","","0.2984373086","","120","","0.2767559596","main_expt","0.4","","0.2","0.2984373086","0.3302262658","0.8","0.1463004055","0.6","","","","","","","",""
"362","","bandit","199","1456070","0.0-160.0-0.0","21187470","wem/bandit_either","A3KA08ZKNCAAXO","either","5","","","","","","","72","H","0","img/none_selected.jpg","0","0","1","","0.3448590315","","121","","0.3448590315","main_expt","0.4","","0.2","0.2973090059","0.3500549905","0.8","0.1418195479","0.6","","","","","","","",""
"155","","bandit","200","1457742","0.0-161.0-0.0","21187470","wem/bandit_either","A3KA08ZKNCAAXO","either","5","","","","","","","72","H","0","img/none_selected.jpg","0","0","1","0.3593301016","","","122","0.3593301016","","main_expt","0.4","0.3382791822","0.2","","","0.8","","0.6","0.2686616284","0.1270782113","","","","","",""
"1110","","bandit","201","1460392","0.0-162.0-0.0","21187470","wem/bandit_either","A3KA08ZKNCAAXO","either","5","","","","","","","72","H","0","img/none_selected.jpg","1","0","0","0.3680529171","","","123","0.3680529171","","main_expt","0.4","0.3154347028","0.2","","","0.8","","0.6","0.2277230314","0.1207154071","","","","","",""
"581","","bandit","202","1462515","0.0-163.0-0.0","21187470","wem/bandit_either","A3KA08ZKNCAAXO","either","5","","","","","","","72","H","0","img/none_selected.jpg","1","0","0","0.3476523483","","","124","0.3476523483","","main_expt","0.4","0.2966737815","0.2","","","0.8","","0.6","0.3287090939","0.1229329119","","","","","",""
"226","","bandit","203","1464275","0.0-164.0-0.0","21187470","wem/bandit_either","A3KA08ZKNCAAXO","either","5","","","","","","","72","H","0","img/none_selected.jpg","0","0","1","","0.3564603465","","125","","0.3564603465","main_expt","0.4","","0.2","0.3094831126","0.3687339586","0.8","0.09241122996","0.6","","","","","","","",""
"330","","bandit","204","1466129","0.0-165.0-0.0","21187470","wem/bandit_either","A3KA08ZKNCAAXO","either","5","","","","","","","72","H","0","img/none_selected.jpg","0","0","1","","0.3550684458","","126","","0.3550684458","main_expt","0.4","","0.2","0.2488993205","0.3836195774","0.8","0.08418962236","0.6","","","","","","","",""
"1500","","bandit","205","1469151","0.0-166.0-0.0","21187470","wem/bandit_either","A3KA08ZKNCAAXO","either","5","","","","","","","76","L","3","","0","0","1","0.154715772","","","127","0.3235559827","","main_expt","0.4","0.1953487027","0.2","","","0.8","","0.6","0.3617365958","0.154715772","","","","","",""
"208","","bandit","206","1470890","0.0-167.0-0.0","21187470","wem/bandit_either","A3KA08ZKNCAAXO","either","5","","","","","","","75","K","2","","0","0","1","0.3235283493","","","128","0.312087491","","main_expt","0.4","0.2171889907","0.2","","","0.8","","0.6","0.3235283493","0.1556709078","","","","","",""
"266","","bandit","207","1472683","0.0-168.0-0.0","21187470","wem/bandit_either","A3KA08ZKNCAAXO","either","5","","","","","","","75","K","2","","1","0","0","0.3453830546","","","129","0.2843272188","","main_expt","0.4","0.2467699801","0.2","","","0.8","","0.6","0.3453830546","0.1214200615","","","","","",""
"534","","bandit","208","1474748","0.0-169.0-0.0","21187470","wem/bandit_either","A3KA08ZKNCAAXO","either","5","","","","","","","75","K","2","","1","0","0","0.3242747857","","","130","0.2128416856","","main_expt","0.4","0.2814443482","0.2","","","0.8","","0.6","0.3242747857","0.1377283829","","","","","",""
"707","","bandit","209","1476979","0.0-170.0-0.0","21187470","wem/bandit_either","A3KA08ZKNCAAXO","either","5","","","","","","","75","K","2","","0","0","1","0.3417201858","","","131","0.2403879813","","main_expt","0.4","0.2834176508","0.2","","","0.8","","0.6","0.3417201858","0.1397421628","","","","","",""
"228","","bandit","210","1478755","0.0-171.0-0.0","21187470","wem/bandit_either","A3KA08ZKNCAAXO","either","5","","","","","","","74","J","1","","0","0","1","","0.2429908031","","132","","0.2811421594","main_expt","0.4","","0.2","0.2429908031","0.3498614837","0.8","0.1061875113","0.6","","","","","","","",""
"352","","bandit","211","1480644","0.0-172.0-0.0","21187470","wem/bandit_either","A3KA08ZKNCAAXO","either","5","","","","","","","74","J","1","","0","0","1","","0.3053559495","","133","","0.3002858371","main_expt","0.4","","0.2","0.3053559495","0.3134828643","0.8","0.07774811701","0.6","","","","","","","",""
"172","","bandit","212","1482339","0.0-173.0-0.0","21187470","wem/bandit_either","A3KA08ZKNCAAXO","either","5","","","","","","","74","J","1","","0","0","1","","0.2693478067","","134","","0.277406375","main_expt","0.4","","0.2","0.2693478067","0.3554593188","0.8","0.08211281178","0.6","","","","","","","",""
"344","","bandit","213","1484199","0.0-174.0-0.0","21187470","wem/bandit_either","A3KA08ZKNCAAXO","either","5","","","","","","","72","H","0","img/none_selected.jpg","0","0","1","","0.2897147582","","135","","0.2897147582","main_expt","0.4","","0.2","0.3369166079","0.3150900126","0.8","0.1123817552","0.6","","","","","","","",""
"496","","bandit","214","1486237","0.0-175.0-0.0","21187470","wem/bandit_either","A3KA08ZKNCAAXO","either","5","","","","","","","72","H","0","img/none_selected.jpg","0","0","1","0.3590576628","","","136","0.3590576628","","main_expt","0.4","0.268603144","0.2","","","0.8","","0.6","0.3199395785","0.1478339482","","","","","",""
"2585","","bandit","215","1490344","0.0-176.0-0.0","21187470","wem/bandit_either","A3KA08ZKNCAAXO","either","5","","","","","","","75","K","2","","0","0","1","","0.33362357","","137","","0.3822427384","main_expt","0.4","","0.2","0.2373427956","0.33362357","0.8","0.1374936615","0.6","","","","","","","",""
"841","","bandit","216","1492724","0.0-177.0-0.0","21187470","wem/bandit_either","A3KA08ZKNCAAXO","either","5","","","","","","","74","J","1","","0","1","0","","0.2206869265","","138","","0.3410071165","main_expt","0.4","","0.2","0.2206869265","0.3611324022","0.8","0.159761955","0.6","","","","","","","",""
"1341","","bandit","217","1495588","0.0-178.0-0.0","21187470","wem/bandit_either","A3KA08ZKNCAAXO","either","5","","","","","","","74","J","1","","0","1","0","","0.2177966349","","139","","0.3738014659","main_expt","0.4","","0.2","0.2177966349","0.3504145086","0.8","0.1363721132","0.6","","","","","","","",""
"841","","bandit","218","1497969","0.0-179.0-0.0","21187470","wem/bandit_either","A3KA08ZKNCAAXO","either","5","","","","","","","74","J","1","","0","0","1","","0.2387685432","","140","","0.422575493","main_expt","0.4","","0.2","0.2387685432","0.309774603","0.8","0.1031445192","0.6","","","","","","","",""
"1132","","bandit","219","1500631","0.0-180.0-0.0","21187470","wem/bandit_either","A3KA08ZKNCAAXO","either","5","","","","","","","74","J","1","","0","1","0","","0.2575087366","","141","","0.4439129864","main_expt","0.4","","0.2","0.2575087366","0.3506531288","0.8","0.09805286369","0.6","","","","","","","",""
"715","","bandit","220","1502888","0.0-181.0-0.0","21187470","wem/bandit_either","A3KA08ZKNCAAXO","either","5","","","","","","","74","J","1","","0","0","1","0.2392038972","","","142","0.4323802182","","main_expt","0.4","0.2392038972","0.2","","","0.8","","0.6","0.2965027242","0.1149002948","","","","","",""
"415","","bandit","221","1504836","0.0-182.0-0.0","21187470","wem/bandit_either","A3KA08ZKNCAAXO","either","5","","","","","","","74","J","1","","0","0","1","","0.2216470548","","143","","0.4358412593","main_expt","0.4","","0.2","0.2216470548","0.2087517366","0.8","0.1209542099","0.6","","","","","","","",""
"1064","","bandit","222","1507424","0.0-183.0-0.0","21187470","wem/bandit_either","A3KA08ZKNCAAXO","either","5","","","","","","","76","L","3","","0","0","1","0.1202521083","","","144","0.4407373256","","main_expt","0.4","0.2224896139","0.2","","","0.8","","0.6","0.2313605626","0.1202521083","","","","","",""
"671","","bandit","223","1509640","0.0-184.0-0.0","21187470","wem/bandit_either","A3KA08ZKNCAAXO","either","5","","","","","","","75","K","2","","0","0","1","0.1785565547","","","145","0.4661091035","","main_expt","0.4","0.1925605464","0.2","","","0.8","","0.6","0.1785565547","0.1619743669","","","","","",""
"484","","bandit","224","1511663","0.0-185.0-0.0","21187470","wem/bandit_either","A3KA08ZKNCAAXO","either","5","","","","","","","74","J","1","","0","0","1","","0.2069800611","","146","","0.4637097668","main_expt","0.4","","0.2","0.2069800611","0.1770660648","0.8","0.1664631043","0.6","","","","","","","",""
"490","","bandit","225","1513678","0.0-186.0-0.0","21187470","wem/bandit_either","A3KA08ZKNCAAXO","either","5","","","","","","","74","J","1","","1","0","0","0.2489662189","","","147","0.4700491642","","main_expt","0.4","0.2489662189","0.2","","","0.8","","0.6","0.1063371611","0.1669241763","","","","","",""
"361","","bandit","226","1515580","0.0-187.0-0.0","21187470","wem/bandit_either","A3KA08ZKNCAAXO","either","5","","","","","","","74","J","1","","0","0","1","","0.1946464158","","148","","0.4648109734","main_expt","0.4","","0.2","0.1946464158","0.1216370817","0.8","0.1581456949","0.6","","","","","","","",""
"686","","bandit","227","1517792","0.0-188.0-0.0","21187470","wem/bandit_either","A3KA08ZKNCAAXO","either","5","","","","","","","72","H","0","img/none_selected.jpg","0","1","0","","0.4635511513","","149","","0.4635511513","main_expt","0.4","","0.2","0.1826562491","0.1024256959","0.8","0.1698392466","0.6","","","","","","","",""
"450","","bandit","228","1519770","0.0-189.0-0.0","21187470","wem/bandit_either","A3KA08ZKNCAAXO","either","5","","","","","","","72","H","0","img/none_selected.jpg","0","0","1","0.4445017148","","","150","0.4445017148","","main_expt","0.4","0.1750473563","0.2","","","0.8","","0.6","0.1371094633","0.2140114634","","","","","",""
"997","","bandit","229","1522304","0.0-190.0-0.0","21187470","wem/bandit_either","A3KA08ZKNCAAXO","either","5","","","","","","","72","H","0","img/none_selected.jpg","0","1","0","","0.4434799742","","151","","0.4434799742","main_expt","0.4","","0.2","0.1109536645","0.1702433702","0.8","0.2392960001","0.6","","","","","","","",""
"656","","bandit","230","1524505","0.0-191.0-0.0","21187470","wem/bandit_either","A3KA08ZKNCAAXO","either","5","","","","","","","72","H","0","img/none_selected.jpg","1","0","0","0.4451665291","","","152","0.4451665291","","main_expt","0.4","0.1143086707","0.2","","","0.8","","0.6","0.1860489046","0.2095863317","","","","","",""
"429","","bandit","231","1526468","0.0-192.0-0.0","21187470","wem/bandit_either","A3KA08ZKNCAAXO","either","5","","","","","","","72","H","0","img/none_selected.jpg","1","0","0","0.4401532833","","","153","0.4401532833","","main_expt","0.4","0.1236290712","0.2","","","0.8","","0.6","0.2117094388","0.2543258611","","","","","",""
"611","","bandit","232","1528607","0.0-193.0-0.0","21187470","wem/bandit_either","A3KA08ZKNCAAXO","either","5","","","","","","","72","H","0","img/none_selected.jpg","0","0","1","0.4516855879","","","154","0.4516855879","","main_expt","0.4","0.1600695342","0.2","","","0.8","","0.6","0.2072389033","0.2602259906","","","","","",""
"939","","bandit","233","1531071","0.0-194.0-0.0","21187470","wem/bandit_either","A3KA08ZKNCAAXO","either","5","","","","","","","72","H","0","img/none_selected.jpg","1","0","0","0.4480264808","","","155","0.4480264808","","main_expt","0.4","0.1770288166","0.2","","","0.8","","0.6","0.1986333914","0.2750581274","","","","","",""
"900","","bandit","234","1533494","0.0-195.0-0.0","21187470","wem/bandit_either","A3KA08ZKNCAAXO","either","5","","","","","","","72","H","0","img/none_selected.jpg","0","0","1","","0.4260414265","","156","","0.4260414265","main_expt","0.4","","0.2","0.1761817894","0.2054640346","0.8","0.2438045727","0.6","","","","","","","",""
"636","","bandit","235","1535660","0.0-196.0-0.0","21187470","wem/bandit_either","A3KA08ZKNCAAXO","either","5","","","","","","","72","H","0","img/none_selected.jpg","0","0","1","0.4365201507","","","157","0.4365201507","","main_expt","0.4","0.1998830888","0.2","","","0.8","","0.6","0.1810715383","0.2857025143","","","","","",""
"1215","","bandit","236","1538406","0.0-197.0-0.0","21187470","wem/bandit_either","A3KA08ZKNCAAXO","either","5","","","","","","","72","H","0","img/none_selected.jpg","0","0","1","0.4076244479","","","158","0.4076244479","","main_expt","0.4","0.2150354531","0.2","","","0.8","","0.6","0.2118906364","0.2887719476","","","","","",""
"149","","bandit","237","1540085","0.0-198.0-0.0","21187470","wem/bandit_either","A3KA08ZKNCAAXO","either","5","","","","","","","72","H","0","img/none_selected.jpg","0","0","1","0.403953851","","","159","0.403953851","","main_expt","0.4","0.2221069796","0.2","","","0.8","","0.6","0.2293976715","0.2859462397","","","","","",""
"524","","bandit","238","1542129","0.0-199.0-0.0","21187470","wem/bandit_either","A3KA08ZKNCAAXO","either","5","","","","","","","75","K","2","","0","0","1","0.2186051381","","","160","0.4282135537","","main_expt","0.4","0.2627335039","0.2","","","0.8","","0.6","0.2186051381","0.207432816","","","","","",""
"406","","bandit","239","1544057","0.0-200.0-0.0","21187470","wem/bandit_either","A3KA08ZKNCAAXO","either","5","","","","","","","75","K","2","","0","0","1","","0.2175927206","","161","","0.4479073124","main_expt","0.4","","0.2","0.2922457848","0.2175927206","0.8","0.1611694724","0.6","","","","","","","",""
"283","","bandit","240","1545876","0.0-201.0-0.0","21187470","wem/bandit_either","A3KA08ZKNCAAXO","either","5","","","","","","","76","L","3","","0","0","1","0.14378348","","","162","0.4456201243","","main_expt","0.4","0.3040212123","0.2","","","0.8","","0.6","0.2370404117","0.14378348","","","","","",""
"734","","bandit","241","1548143","0.0-202.0-0.0","21187470","wem/bandit_either","A3KA08ZKNCAAXO","either","5","","","","","","","76","L","3","","0","0","1","0.1707099899","","","163","0.4384930657","","main_expt","0.4","0.2933359027","0.2","","","0.8","","0.6","0.2778780432","0.1707099899","","","","","",""
"358","","bandit","242","1550018","0.0-203.0-0.0","21187470","wem/bandit_either","A3KA08ZKNCAAXO","either","5","","","","","","","74","J","1","","0","1","0","","0.2388203062","","164","","0.4231568034","main_expt","0.4","","0.2","0.2388203062","0.2643388611","0.8","0.1933693166","0.6","","","","","","","",""
"408","","bandit","243","1551957","0.0-204.0-0.0","21187470","wem/bandit_either","A3KA08ZKNCAAXO","either","5","","","","","","","74","J","1","","0","0","1","0.2646204916","","","165","0.4412535734","","main_expt","0.4","0.2646204916","0.2","","","0.8","","0.6","0.1967204453","0.2406324952","","","","","",""
"824","","bandit","244","1554314","0.0-205.0-0.0","21187470","wem/bandit_either","A3KA08ZKNCAAXO","either","5","","","","","","","74","J","1","","1","0","0","0.2591758032","","","166","0.438364003","","main_expt","0.4","0.2591758032","0.2","","","0.8","","0.6","0.1567937345","0.2650462377","","","","","",""
"1003","","bandit","245","1556848","0.0-206.0-0.0","21187470","wem/bandit_either","A3KA08ZKNCAAXO","either","5","","","","","","","74","J","1","","0","0","1","0.1955934818","","","167","0.4290991351","","main_expt","0.4","0.1955934818","0.2","","","0.8","","0.6","0.1201482918","0.245875583","","","","","",""
"784","","bandit","246","1559147","0.0-207.0-0.0","21187470","wem/bandit_either","A3KA08ZKNCAAXO","either","5","","","","","","","74","J","1","","0","0","1","","0.2090603634","","168","","0.4510860662","main_expt","0.4","","0.2","0.2090603634","0.0936051119","0.8","0.257303599","0.6","","","","","","","",""
"238","","bandit","247","1560927","0.0-208.0-0.0","21187470","wem/bandit_either","A3KA08ZKNCAAXO","either","5","","","","","","","74","J","1","","0","1","0","","0.2678479696","","169","","0.4491424364","main_expt","0.4","","0.2","0.2678479696","0.08775096918","0.8","0.2993732043","0.6","","","","","","","",""
"274","","bandit","248","1562741","0.0-209.0-0.0","21187470","wem/bandit_either","A3KA08ZKNCAAXO","either","5","","","","","","","74","J","1","","0","0","1","","0.2532125956","","170","","0.4332244901","main_expt","0.4","","0.2","0.2532125956","0.06743429675","0.8","0.3388977639","0.6","","","","","","","",""
"211","","bandit","249","1564484","0.0-210.0-0.0","21187470","wem/bandit_either","A3KA08ZKNCAAXO","either","5","","","","","","","74","J","1","","0","1","0","","0.2568627054","","171","","0.4405036994","main_expt","0.4","","0.2","0.2568627054","0.05979118822","0.8","0.2947926635","0.6","","","","","","","",""
"759","","bandit","250","1566771","0.0-211.0-0.0","21187470","wem/bandit_either","A3KA08ZKNCAAXO","either","5","","","","","","","74","J","1","","0","1","0","","0.2451563353","","172","","0.4358521759","main_expt","0.4","","0.2","0.2451563353","0.03200499914","0.8","0.2892529657","0.6","","","","","","","",""
"600","","bandit","251","1568907","0.0-212.0-0.0","21187470","wem/bandit_either","A3KA08ZKNCAAXO","either","5","","","","","","","74","J","1","","0","0","1","","0.3003395367","","173","","0.4471617722","main_expt","0.4","","0.2","0.3003395367","0.04613358223","0.8","0.2571917514","0.6","","","","","","","",""
"382","","bandit","252","1570826","0.0-213.0-0.0","21187470","wem/bandit_either","A3KA08ZKNCAAXO","either","5","","","","","","","72","H","0","img/none_selected.jpg","0","1","0","","0.4560251174","","174","","0.4560251174","main_expt","0.4","","0.2","0.2545998681","0.05969677181","0.8","0.244173221","0.6","","","","","","","",""
"908","","bandit","253","1573269","0.0-214.0-0.0","21187470","wem/bandit_either","A3KA08ZKNCAAXO","either","5","","","","","","","72","H","0","img/none_selected.jpg","1","0","0","0.4379349024","","","175","0.4379349024","","main_expt","0.4","0.3383135611","0.2","","","0.8","","0.6","0.05930066603","0.2038098688","","","","","",""
"973","","bandit","254","1575779","0.0-215.0-0.0","21187470","wem/bandit_either","A3KA08ZKNCAAXO","either","5","","","","","","","72","H","0","img/none_selected.jpg","0","0","1","0.4328841116","","","176","0.4328841116","","main_expt","0.4","0.3880627729","0.2","","","0.8","","0.6","0.08110879181","0.2053823003","","","","","",""
"1353","","bandit","255","1578676","0.0-216.0-0.0","21187470","wem/bandit_either","A3KA08ZKNCAAXO","either","5","","","","","","","72","H","0","img/none_selected.jpg","0","1","0","","0.3965365967","","177","","0.3965365967","main_expt","0.4","","0.2","0.3920994557","0.07611568943","0.8","0.2193083282","0.6","","","","","","","",""
"1349","","bandit","256","1581556","0.0-217.0-0.0","21187470","wem/bandit_either","A3KA08ZKNCAAXO","either","5","","","","","","","72","H","0","img/none_selected.jpg","1","0","0","0.3899234309","","","178","0.3899234309","","main_expt","0.4","0.3882277994","0.2","","","0.8","","0.6","0.1220467165","0.1904263594","","","","","",""
"631","","bandit","257","1583710","0.0-218.0-0.0","21187470","wem/bandit_either","A3KA08ZKNCAAXO","either","5","","","","","","","72","H","0","img/none_selected.jpg","0","1","0","","0.4238443777","","179","","0.4238443777","main_expt","0.4","","0.2","0.3939691408","0.1698853315","0.8","0.2212788648","0.6","","","","","","","",""
"533","","bandit","258","1585779","0.0-219.0-0.0","21187470","wem/bandit_either","A3KA08ZKNCAAXO","either","5","","","","","","","72","H","0","img/none_selected.jpg","0","1","0","","0.4487400994","","180","","0.4487400994","main_expt","0.4","","0.2","0.4074656662","0.1374762061","0.8","0.2640717145","0.6","","","","","","","",""
"450","","bandit","259","1587761","0.0-220.0-0.0","21187470","wem/bandit_either","A3KA08ZKNCAAXO","either","5","","","","","","","72","H","0","img/none_selected.jpg","0","0","1","0.4314573438","","","181","0.4314573438","","main_expt","0.4","0.3724421945","0.2","","","0.8","","0.6","0.09961924189","0.2426483564","","","","","",""
"2109","","bandit","260","1591417","0.0-221.0-0.0","21187470","wem/bandit_either","A3KA08ZKNCAAXO","either","5","","","","","","","72","H","0","img/none_selected.jpg","0","1","0","","0.4458059303","","182","","0.4458059303","main_expt","0.4","","0.2","0.2998177931","0.1391043194","0.8","0.2001563476","0.6","","","","","","","",""
"893","","bandit","261","1593852","0.0-222.0-0.0","21187470","wem/bandit_either","A3KA08ZKNCAAXO","either","5","","","","","","","72","H","0","img/none_selected.jpg","0","0","1","0.4485460149","","","183","0.4485460149","","main_expt","0.4","0.3629728763","0.2","","","0.8","","0.6","0.1336424596","0.2167094124","","","","","",""
"862","","bandit","262","1596235","0.0-223.0-0.0","21187470","wem/bandit_either","A3KA08ZKNCAAXO","either","5","","","","","","","74","J","1","","0","0","1","0.3763603645","","","184","0.4078350507","","main_expt","0.4","0.3763603645","0.2","","","0.8","","0.6","0.115911235","0.2402813617","","","","","",""
"1817","","bandit","263","1599580","0.0-224.0-0.0","21187470","wem/bandit_either","A3KA08ZKNCAAXO","either","5","","","","","","","74","J","1","","0","0","1","0.3472982705","","","185","0.3805788675","","main_expt","0.4","0.3472982705","0.2","","","0.8","","0.6","0.1394203739","0.2745112141","","","","","",""
"3487","","bandit","264","1604604","0.0-225.0-0.0","21187470","wem/bandit_either","A3KA08ZKNCAAXO","either","5","","","","","","","74","J","1","","0","1","0","","0.3095995051","","186","","0.4236809331","main_expt","0.4","","0.2","0.3095995051","0.1557479742","0.8","0.2774566956","0.6","","","","","","","",""
"3158","","bandit","265","1609293","0.0-226.0-0.0","21187470","wem/bandit_either","A3KA08ZKNCAAXO","either","5","","","","","","","74","J","1","","1","0","0","0.2567332284","","","187","0.4058627081","","main_expt","0.4","0.2567332284","0.2","","","0.8","","0.6","0.1823611596","0.2876011691","","","","","",""
"455","","bandit","266","1611279","0.0-227.0-0.0","21187470","wem/bandit_either","A3KA08ZKNCAAXO","either","5","","","","","","","74","J","1","","0","0","1","","0.2555256861","","188","","0.3913346521","main_expt","0.4","","0.2","0.2555256861","0.1854179297","0.8","0.2947112378","0.6","","","","","","","",""
"1211","","bandit","267","1614016","0.0-228.0-0.0","21187470","wem/bandit_either","A3KA08ZKNCAAXO","either","5","","","","","","","74","J","1","","0","0","1","","0.2009875262","","189","","0.3760164219","main_expt","0.4","","0.2","0.2009875262","0.1875645599","0.8","0.2581494","0.6","","","","","","","",""
"1426","","bandit","268","1616980","0.0-229.0-0.0","21187470","wem/bandit_either","A3KA08ZKNCAAXO","either","5","","","","","","","75","K","2","","1","0","0","0.2018323604","","","190","0.3327352817","","main_expt","0.4","0.2055488595","0.2","","","0.8","","0.6","0.2018323604","0.1756323468","","","","","",""
"3132","","bandit","269","1621656","0.0-230.0-0.0","21187470","wem/bandit_either","A3KA08ZKNCAAXO","either","5","","","","","","","75","K","2","","1","0","0","0.221094727","","","191","0.3015177445","","main_expt","0.4","0.1506387864","0.2","","","0.8","","0.6","0.221094727","0.2521570866","","","","","",""
"992","","bandit","270","1624164","0.0-231.0-0.0","21187470","wem/bandit_either","A3KA08ZKNCAAXO","either","5","","","","","","","75","K","2","","0","0","1","0.2320570195","","","192","0.2773298268","","main_expt","0.4","0.2027442266","0.2","","","0.8","","0.6","0.2320570195","0.2964739449","","","","","",""
"1231","","bandit","271","1626931","0.0-232.0-0.0","21187470","wem/bandit_either","A3KA08ZKNCAAXO","either","5","","","","","","","75","K","2","","0","0","1","","0.2948950962","","193","","0.2836613797","main_expt","0.4","","0.2","0.1969137872","0.2948950962","0.8","0.2612966838","0.6","","","","","","","",""
"707","","bandit","272","1629175","0.0-233.0-0.0","21187470","wem/bandit_either","A3KA08ZKNCAAXO","either","5","","","","","","","74","J","1","","0","0","1","","0.2114994946","","194","","0.2799350415","main_expt","0.4","","0.2","0.2114994946","0.2602906927","0.8","0.3292914436","0.6","","","","","","","",""
"839","","bandit","273","1631554","0.0-234.0-0.0","21187470","wem/bandit_either","A3KA08ZKNCAAXO","either","5","","","","","","","76","L","3","","0","1","0","","0.4070308407","","195","","0.2068597772","main_expt","0.4","","0.2","0.2467939011","0.1771499101","0.8","0.4070308407","0.6","","","","","","","",""
"307","","bandit","274","1633405","0.0-235.0-0.0","21187470","wem/bandit_either","A3KA08ZKNCAAXO","either","5","","","","","","","76","L","3","","0","0","1","","0.3494820729","","196","","0.2679469531","main_expt","0.4","","0.2","0.2731811988","0.1746274925","0.8","0.3494820729","0.6","","","","","","","",""
"520","","bandit","275","1635467","0.0-236.0-0.0","21187470","wem/bandit_either","A3KA08ZKNCAAXO","either","5","","","","","","","76","L","3","","0","0","1","0.3571939809","","","197","0.2448078588","","main_expt","0.4","0.2512114903","0.2","","","0.8","","0.6","0.193224684","0.3571939809","","","","","",""
"434","","bandit","276","1637436","0.0-237.0-0.0","21187470","wem/bandit_either","A3KA08ZKNCAAXO","either","5","","","","","","","75","K","2","","0","0","1","0.1771509929","","","198","0.2433987968","","main_expt","0.4","0.190651112","0.2","","","0.8","","0.6","0.1771509929","0.382430028","","","","","",""
"488","","bandit","277","1639448","0.0-238.0-0.0","21187470","wem/bandit_either","A3KA08ZKNCAAXO","either","5","","","","","","","74","J","1","","0","0","1","","0.1701189695","","199","","0.2653624242","main_expt","0.4","","0.2","0.1701189695","0.2466668772","0.8","0.3353474301","0.6","","","","","","","",""
"818","","bandit","278","1641797","0.0-239.0-0.0","21187470","wem/bandit_either","A3KA08ZKNCAAXO","either","5","","","","","","","72","H","0","img/none_selected.jpg","0","0","1","0.2551376492","","","200","0.2551376492","","main_expt","0.4","0.1656975488","0.2","","","0.8","","0.6","0.2477816141","0.3321976498","","","","","",""
"326","","bandit","279","1643659","0.0-240.0-0.0","21187470","wem/bandit_either","A3KA08ZKNCAAXO","either","5","","","","","","","74","J","1","","0","0","1","","0.1647298582","","201","","0.2660639347","main_expt","0.4","","0.2","0.1647298582","0.2744817861","0.8","0.3218117355","0.6","","","","","","","",""
"494","","bandit","280","1645689","0.0-241.0-0.0","21187470","wem/bandit_either","A3KA08ZKNCAAXO","either","5","","","","","","","75","K","2","","0","1","0","","0.3043062986","","202","","0.2220900594","main_expt","0.4","","0.2","0.1242041815","0.3043062986","0.8","0.2949214693","0.6","","","","","","","",""
"343","","bandit","281","1647564","0.0-242.0-0.0","21187470","wem/bandit_either","A3KA08ZKNCAAXO","either","5","","","","","","","75","K","2","","0","1","0","","0.272185569","","203","","0.1543353204","main_expt","0.4","","0.2","0.1684487429","0.272185569","0.8","0.300077299","0.6","","","","","","","",""
"551","","bandit","282","1649636","0.0-243.0-0.0","21187470","wem/bandit_either","A3KA08ZKNCAAXO","either","5","","","","","","","75","K","2","","0","0","1","","0.2610767704","","204","","0.1605482003","main_expt","0.4","","0.2","0.1666409686","0.2610767704","0.8","0.2866085977","0.6","","","","","","","",""
"601","","bandit","283","1651779","0.0-244.0-0.0","21187470","wem/bandit_either","A3KA08ZKNCAAXO","either","5","","","","","","","75","K","2","","0","0","1","0.2832615928","","","205","0.1406914754","","main_expt","0.4","0.2197286508","0.2","","","0.8","","0.6","0.2832615928","0.2695546272","","","","","",""
"1064","","bandit","284","1654364","0.0-245.0-0.0","21187470","wem/bandit_either","A3KA08ZKNCAAXO","either","5","","","","","","","74","J","1","","0","0","1","","0.2754509052","","206","","0.1138947463","main_expt","0.4","","0.2","0.2754509052","0.300913322","0.8","0.2622178416","0.6","","","","","","","",""
"777","","bandit","285","1656679","0.0-246.0-0.0","21187470","wem/bandit_either","A3KA08ZKNCAAXO","either","5","","","","","","","72","H","0","img/none_selected.jpg","1","0","0","0.1096702189","","","207","0.1096702189","","main_expt","0.4","0.2664869377","0.2","","","0.8","","0.6","0.3260258847","0.2498186578","","","","","",""
"339","","bandit","286","1658546","0.0-247.0-0.0","21187470","wem/bandit_either","A3KA08ZKNCAAXO","either","5","","","","","","","72","H","0","img/none_selected.jpg","0","0","1","0.09922356593","","","208","0.09922356593","","main_expt","0.4","0.2686565688","0.2","","","0.8","","0.6","0.3173829003","0.2335358635","","","","","",""
"482","","bandit","287","1660559","0.0-248.0-0.0","21187470","wem/bandit_either","A3KA08ZKNCAAXO","either","5","","","","","","","72","H","0","img/none_selected.jpg","0","0","1","","0.101567507","","209","","0.101567507","main_expt","0.4","","0.2","0.2380255957","0.3153846937","0.8","0.2638942681","0.6","","","","","","","",""
"5642","","bandit","288","1667740","0.0-249.0-0.0","21187470","wem/bandit_either","A3KA08ZKNCAAXO","either","5","","","","","","","72","H","0","img/none_selected.jpg","0","0","1","0.08675379402","","","210","0.08675379402","","main_expt","0.4","0.2507768727","0.2","","","0.8","","0.6","0.3010876552","0.2526926237","","","","","",""
"634","","bandit","289","1669901","0.0-250.0-0.0","21187470","wem/bandit_either","A3KA08ZKNCAAXO","either","5","","","","","","","74","J","1","","0","0","1","","0.2685142319","","211","","0.07512021269","main_expt","0.4","","0.2","0.2685142319","0.2864900033","0.8","0.2740367769","0.6","","","","","","","",""
"348","","bandit","290","1671782","0.0-251.0-0.0","21187470","wem/bandit_either","A3KA08ZKNCAAXO","either","5","","","","","","","74","J","1","","0","0","1","","0.260511483","","212","","0.08144254236","main_expt","0.4","","0.2","0.260511483","0.3163372434","0.8","0.2440836191","0.6","","","","","","","",""
"499","","bandit","291","1673826","0.0-252.0-0.0","21187470","wem/bandit_either","A3KA08ZKNCAAXO","either","5","","","","","","","75","K","2","","0","0","1","","0.2701305136","","213","","0.06585574052","main_expt","0.4","","0.2","0.2579605047","0.2701305136","0.8","0.2341903104","0.6","","","","","","","",""
"373","","bandit","292","1675736","0.0-253.0-0.0","21187470","wem/bandit_either","A3KA08ZKNCAAXO","either","5","","","","","","","76","L","3","","0","0","1","0.2097526345","","","214","0.08686614453","","main_expt","0.4","0.2470456849","0.2","","","0.8","","0.6","0.302599165","0.2097526345","","","","","",""
"582","","bandit","293","1677860","0.0-254.0-0.0","21187470","wem/bandit_either","A3KA08ZKNCAAXO","either","5","","","","","","","75","K","2","","0","0","1","0.2968005471","","","215","0.1068548489","","main_expt","0.4","0.3285383036","0.2","","","0.8","","0.6","0.2968005471","0.1796882487","","","","","",""
"1860","","bandit","294","1681262","0.0-255.0-0.0","21187470","wem/bandit_either","A3KA08ZKNCAAXO","either","5","","","","","","","75","K","2","","0","1","0","","0.2835536598","","216","","0.1211736082","main_expt","0.4","","0.2","0.3780044773","0.2835536598","0.8","0.2237900511","0.6","","","","","","","",""
"572","","bandit","295","1683373","0.0-256.0-0.0","21187470","wem/bandit_either","A3KA08ZKNCAAXO","either","5","","","","","","","74","J","1","","0","1","0","","0.3939228946","","217","","0.09343701815","main_expt","0.4","","0.2","0.3939228946","0.2520762718","0.8","0.2265358539","0.6","","","","","","","",""
"995","","bandit","296","1685889","0.0-257.0-0.0","21187470","wem/bandit_either","A3KA08ZKNCAAXO","either","5","","","","","","","74","J","1","","0","0","1","","0.3198270803","","218","","0.1001055386","main_expt","0.4","","0.2","0.3198270803","0.2562699476","0.8","0.2364013437","0.6","","","","","","","",""
"1300","","bandit","297","1688707","0.0-258.0-0.0","21187470","wem/bandit_either","A3KA08ZKNCAAXO","either","5","","","","","","","74","J","1","","0","0","1","","0.3502502288","","219","","0.09524874014","main_expt","0.4","","0.2","0.3502502288","0.3002431464","0.8","0.2810560361","0.6","","","","","","","",""
"398","","bandit","298","1690626","0.0-259.0-0.0","21187470","wem/bandit_either","A3KA08ZKNCAAXO","either","5","","","","","","","72","H","0","img/none_selected.jpg","0","0","1","","0.1304899995","","220","","0.1304899995","main_expt","0.4","","0.2","0.3402456168","0.3365413303","0.8","0.3027429446","0.6","","","","","","","",""
"239","","bandit","299","1692376","0.0-260.0-0.0","21187470","wem/bandit_either","A3KA08ZKNCAAXO","either","5","","","","","","","75","K","2","","0","0","1","0.2946103072","","","221","0.1272814923","","main_expt","0.4","0.3770059732","0.2","","","0.8","","0.6","0.2946103072","0.3132134988","","","","","",""
"289","","bandit","300","1694187","0.0-261.0-0.0","21187470","wem/bandit_either","A3KA08ZKNCAAXO","either","5","","","","","","","76","L","3","","0","0","1","","0.2424821827","","222","","0.1654407056","main_expt","0.4","","0.2","0.3864421123","0.3267284332","0.8","0.2424821827","0.6","","","","","","","",""
"502","","bandit","301","1696210","0.0-262.0-0.0","21187470","wem/bandit_either","A3KA08ZKNCAAXO","either","5","","","","","","","74","J","1","","0","0","1","","0.4205211408","","223","","0.1788325852","main_expt","0.4","","0.2","0.4205211408","0.3175152631","0.8","0.2595367495","0.6","","","","","","","",""
"2924","","bandit","302","1700683","0.0-263.0-0.0","21187470","wem/bandit_either","A3KA08ZKNCAAXO","either","5","","","","","","","72","H","0","img/none_selected.jpg","0","0","1","","0.1736623033","","224","","0.1736623033","main_expt","0.4","","0.2","0.4131889957","0.3192400935","0.8","0.328819141","0.6","","","","","","","",""
"3207","","bandit","303","1705440","0.0-264.0-0.0","21187470","wem/bandit_either","A3KA08ZKNCAAXO","either","5","","","","","","","72","H","0","img/none_selected.jpg","0","0","1","0.1721911447","","","225","0.1721911447","","main_expt","0.4","0.4001513574","0.2","","","0.8","","0.6","0.3096750449","0.356121412","","","","","",""
"233","","bandit","304","1707215","0.0-265.0-0.0","21187470","wem/bandit_either","A3KA08ZKNCAAXO","either","5","","","","","","","74","J","1","","1","0","0","0.3963688582","","","226","0.2133818582","","main_expt","0.4","0.3963688582","0.2","","","0.8","","0.6","0.3142833063","0.3394019192","","","","","",""
"660","","bandit","305","1709414","0.0-266.0-0.0","21187470","wem/bandit_either","A3KA08ZKNCAAXO","either","5","","","","","","","74","J","1","","0","0","1","","0.3979714495","","227","","0.2620007467","main_expt","0.4","","0.2","0.3979714495","0.3096885674","0.8","0.2860553004","0.6","","","","","","","",""
"451","","bandit","306","1711411","0.0-267.0-0.0","21187470","wem/bandit_either","A3KA08ZKNCAAXO","either","5","","","","","","","74","J","1","","0","0","1","","0.3811043637","","228","","0.2961930455","main_expt","0.4","","0.2","0.3811043637","0.3048295172","0.8","0.2967856672","0.6","","","","","","","",""
"261","","bandit","307","1713206","0.0-268.0-0.0","21187470","wem/bandit_either","A3KA08ZKNCAAXO","either","5","","","","","","","74","J","1","","1","0","0","0.3488149186","","","229","0.3081123415","","main_expt","0.4","0.3488149186","0.2","","","0.8","","0.6","0.2553920021","0.2857745529","","","","","",""
"533","","bandit","308","1715290","0.0-269.0-0.0","21187470","wem/bandit_either","A3KA08ZKNCAAXO","either","5","","","","","","","74","J","1","","0","1","0","","0.2883621188","","230","","0.3027177586","main_expt","0.4","","0.2","0.2883621188","0.2783794412","0.8","0.2589404948","0.6","","","","","","","",""
"474","","bandit","309","1717320","0.0-270.0-0.0","21187470","wem/bandit_either","A3KA08ZKNCAAXO","either","5","","","","","","","74","J","1","","0","0","1","","0.2444465504","","231","","0.2495346478","main_expt","0.4","","0.2","0.2444465504","0.2735536708","0.8","0.2628441024","0.6","","","","","","","",""
"308","","bandit","310","1719174","0.0-271.0-0.0","21187470","wem/bandit_either","A3KA08ZKNCAAXO","either","5","","","","","","","74","J","1","","0","0","1","","0.2996930955","","232","","0.2185872191","main_expt","0.4","","0.2","0.2996930955","0.2262440502","0.8","0.276537748","0.6","","","","","","","",""
"1363","","bandit","311","1722084","0.0-272.0-0.0","21187470","wem/bandit_either","A3KA08ZKNCAAXO","either","5","","","","","","","74","J","1","","0","1","0","","0.3103031796","","233","","0.1874863907","main_expt","0.4","","0.2","0.3103031796","0.2171974885","0.8","0.2485723575","0.6","","","","","","","",""
"2741","","bandit","312","1726348","0.0-273.0-0.0","21187470","wem/bandit_either","A3KA08ZKNCAAXO","either","5","","","","","","","74","J","1","","0","0","1","0.2971988612","","","234","0.2165838284","","main_expt","0.4","0.2971988612","0.2","","","0.8","","0.6","0.2951485073","0.2172766866","","","","","",""
"367","","bandit","313","1728254","0.0-274.0-0.0","21187470","wem/bandit_either","A3KA08ZKNCAAXO","either","5","","","","","","","74","J","1","","0","0","1","","0.3266576642","","235","","0.1791302586","main_expt","0.4","","0.2","0.3266576642","0.3135740045","0.8","0.221542824","0.6","","","","","","","",""
"503","","bandit","314","1730296","0.0-275.0-0.0","21187470","wem/bandit_either","A3KA08ZKNCAAXO","either","5","","","","","","","72","H","0","img/none_selected.jpg","1","0","0","0.2463713802","","","236","0.2463713802","","main_expt","0.4","0.3596878827","0.2","","","0.8","","0.6","0.2945285262","0.2200573756","","","","","",""
"445","","bandit","315","1732290","0.0-276.0-0.0","21187470","wem/bandit_either","A3KA08ZKNCAAXO","either","5","","","","","","","72","H","0","img/none_selected.jpg","0","0","1","0.2204623923","","","237","0.2204623923","","main_expt","0.4","0.3951370387","0.2","","","0.8","","0.6","0.2797454337","0.2146478317","","","","","",""
"2321","","bandit","316","1736146","0.0-277.0-0.0","21187470","wem/bandit_either","A3KA08ZKNCAAXO","either","5","","","","","","","72","H","0","img/none_selected.jpg","0","0","1","0.2316256556","","","238","0.2316256556","","main_expt","0.4","0.3863552979","0.2","","","0.8","","0.6","0.266453507","0.2237656472","","","","","",""
"537","","bandit","317","1738222","0.0-278.0-0.0","21187470","wem/bandit_either","A3KA08ZKNCAAXO","either","5","","","","","","","72","H","0","img/none_selected.jpg","0","0","1","","0.2406304147","","239","","0.2406304147","main_expt","0.4","","0.2","0.3962704677","0.310831157","0.8","0.2302611888","0.6","","","","","","","",""
"305","","bandit","318","1740050","0.0-279.0-0.0","21187470","wem/bandit_either","A3KA08ZKNCAAXO","either","5","","","","","","","72","H","0","img/none_selected.jpg","0","1","0","","0.2624476398","","240","","0.2624476398","main_expt","0.4","","0.2","0.3926977495","0.331950591","0.8","0.2253069634","0.6","","","","","","","",""
"388","","bandit","319","1741974","0.0-280.0-0.0","21187470","wem/bandit_either","A3KA08ZKNCAAXO","either","5","","","","","","","72","H","0","img/none_selected.jpg","0","0","1","","0.2627099727","","241","","0.2627099727","main_expt","0.4","","0.2","0.3381110468","0.3223776605","0.8","0.2523404353","0.6","","","","","","","",""
"690","","bandit","320","1744189","0.0-281.0-0.0","21187470","wem/bandit_either","A3KA08ZKNCAAXO","either","5","","","","","","","72","H","0","img/none_selected.jpg","0","0","1","","0.2262339403","","242","","0.2262339403","main_expt","0.4","","0.2","0.3213381148","0.3389272588","0.8","0.238450381","0.6","","","","","","","",""
"288","","bandit","321","1746020","0.0-282.0-0.0","21187470","wem/bandit_either","A3KA08ZKNCAAXO","either","5","","","","","","","72","H","0","img/none_selected.jpg","0","0","1","0.2511573395","","","243","0.2511573395","","main_expt","0.4","0.3395415742","0.2","","","0.8","","0.6","0.4023830898","0.2476478509","","","","","",""
"290","","bandit","322","1747860","0.0-283.0-0.0","21187470","wem/bandit_either","A3KA08ZKNCAAXO","either","5","","","","","","","72","H","0","img/none_selected.jpg","0","1","0","","0.3112309098","","244","","0.3112309098","main_expt","0.4","","0.2","0.3077285799","0.4072225753","0.8","0.2603762171","0.6","","","","","","","",""
"383","","bandit","323","1749791","0.0-284.0-0.0","21187470","wem/bandit_either","A3KA08ZKNCAAXO","either","5","","","","","","","72","H","0","img/none_selected.jpg","0","0","1","","0.3169667097","","245","","0.3169667097","main_expt","0.4","","0.2","0.269997398","0.4047901721","0.8","0.2778117757","0.6","","","","","","","",""
"326","","bandit","324","1751665","0.0-285.0-0.0","21187470","wem/bandit_either","A3KA08ZKNCAAXO","either","5","","","","","","","72","H","0","img/none_selected.jpg","0","0","1","0.3774934029","","","246","0.3774934029","","main_expt","0.4","0.2896792764","0.2","","","0.8","","0.6","0.4245844383","0.2571702875","","","","","",""
"344","","bandit","325","1753537","0.0-286.0-0.0","21187470","wem/bandit_either","A3KA08ZKNCAAXO","either","5","","","","","","","72","H","0","img/none_selected.jpg","0","0","1","","0.3592590195","","247","","0.3592590195","main_expt","0.4","","0.2","0.3079745892","0.4425022826","0.8","0.2790325972","0.6","","","","","","","",""
"378","","bandit","326","1755455","0.0-287.0-0.0","21187470","wem/bandit_either","A3KA08ZKNCAAXO","either","5","","","","","","","72","H","0","img/none_selected.jpg","0","0","1","","0.3659800935","","248","","0.3659800935","main_expt","0.4","","0.2","0.2306801962","0.4454461089","0.8","0.2665328125","0.6","","","","","","","",""
"1869","","bandit","327","1758856","0.0-288.0-0.0","21187470","wem/bandit_either","A3KA08ZKNCAAXO","either","5","","","","","","","72","H","0","img/none_selected.jpg","0","0","1","","0.3940863056","","249","","0.3940863056","main_expt","0.4","","0.2","0.2363838343","0.4565985803","0.8","0.2666328085","0.6","","","","","","","",""
"582","","bandit","328","1760970","0.0-289.0-0.0","21187470","wem/bandit_either","A3KA08ZKNCAAXO","either","5","","","","","","","74","J","1","","0","0","1","","0.2865845142","","250","","0.3652193683","main_expt","0.4","","0.2","0.2865845142","0.4666950096","0.8","0.2637425143","0.6","","","","","","","",""
