"rt","responses","trial_type","trial_index","time_elapsed","internal_node_id","subjID","study","MID","cond","drift","key_press","expt_phase","target","like","value","connected","gems","bombs","no_reward","GemPrChosen","BombPrChosen","GainOverPainPr_0","GainOverPainPr_1","GainOverPainPr_2","GainOverPainPr_3","LosePr_0","LosePr_1","LosePr_2","LosePr_3","WinPr_0","WinPr_1","WinPr_2","WinPr_3","Q0","Q1","Q2","gender","age","ethnicity","respCharCode","respKey","respChoiceNum","respChoice","practice","trial_counter","trial_label"
"7547","{""Q0"":""ADGH21PCBH8R1""}","survey-text","0","7553","0.0-0.0","24102402","wem/bandit_either","ADGH21PCBH8R1","either","7","","","","","","","","","","","","","","","","","","","","","","","","","","","","","","","","","","","",""
"13424","","text","1","21982","0.0-1.0","24102402","wem/bandit_either","ADGH21PCBH8R1","either","7","32","","","","","","","","","","","","","","","","","","","","","","","","","","","","","","","","","","",""
"6318","","text","2","28301","0.0-2.0","24102402","wem/bandit_either","ADGH21PCBH8R1","either","7","32","","","","","","","","","","","","","","","","","","","","","","","","","","","","","","","","","","",""
"18421","","text","3","46724","0.0-3.0","24102402","wem/bandit_either","ADGH21PCBH8R1","either","7","32","","","","","","","","","","","","","","","","","","","","","","","","","","","","","","","","","","",""
"12063","","text","4","58788","0.0-4.0","24102402","wem/bandit_either","ADGH21PCBH8R1","either","7","32","","","","","","","","","","","","","","","","","","","","","","","","","","","","","","","","","","",""
"14462","","text","5","73252","0.0-5.0","24102402","wem/bandit_either","ADGH21PCBH8R1","either","7","32","","","","","","","","","","","","","","","","","","","","","","","","","","","","","","","","","","",""
"8926","","text","6","82180","0.0-6.0","24102402","wem/bandit_either","ADGH21PCBH8R1","either","7","32","","","","","","","","","","","","","","","","","","","","","","","","","","","","","","","","","","",""
"4999","","text","7","87180","0.0-7.0","24102402","wem/bandit_either","ADGH21PCBH8R1","either","7","32","","","","","","","","","","","","","","","","","","","","","","","","","","","","","","","","","","",""
"13233","","identification","8","100439","0.0-8.0-0.0","24102402","wem/bandit_either","ADGH21PCBH8R1","either","7","","identification_pre","the village of Zur","","","","","","","","","","","","","","","","","","","","","","","","","","","","","","","","",""
"7124","","identification","9","108591","0.0-8.0-1.0","24102402","wem/bandit_either","ADGH21PCBH8R1","either","7","","identification_pre","the village of Nyx","","","","","","","","","","","","","","","","","","","","","","","","","","","","","","","","",""
"7648","","text","10","117242","0.0-9.0","24102402","wem/bandit_either","ADGH21PCBH8R1","either","7","32","","","","","","","","","","","","","","","","","","","","","","","","","","","","","","","","","","",""
"2503","","text","11","119748","0.0-10.0","24102402","wem/bandit_either","ADGH21PCBH8R1","either","7","32","","","","","","","","","","","","","","","","","","","","","","","","","","","","","","","","","","",""
"2573","","text","12","122323","0.0-11.0","24102402","wem/bandit_either","ADGH21PCBH8R1","either","7","32","","","","","","","","","","","","","","","","","","","","","","","","","","","","","","","","","","",""
"4918","","text","13","127243","0.0-12.0","24102402","wem/bandit_either","ADGH21PCBH8R1","either","7","32","","","","","","","","","","","","","","","","","","","","","","","","","","","","","","","","","","",""
"1803","","bandit","14","130556","0.0-13.0-0.0","24102402","wem/bandit_either","ADGH21PCBH8R1","either","7","","","","","","","0","0","1","0","0","","","","","0","","","","0","","","","","","","","","","74","J","0","img/none_selected_demo.jpg","true","0",""
"1860","","bandit","15","133923","0.0-14.0-0.0","24102402","wem/bandit_either","ADGH21PCBH8R1","either","7","","","","","","","0","0","1","0","0","","","","","0","","","","0","","","","","","","","","","75","K","0","img/none_selected_demo.jpg","true","0",""
"6374","","text","16","140299","0.0-15.0","24102402","wem/bandit_either","ADGH21PCBH8R1","either","7","32","","","","","","","","","","","","","","","","","","","","","","","","","","","","","","","","","","",""
"11373","","text","17","151675","0.0-16.0","24102402","wem/bandit_either","ADGH21PCBH8R1","either","7","32","","","","","","","","","","","","","","","","","","","","","","","","","","","","","","","","","","",""
"5926","","text","18","157602","0.0-17.0","24102402","wem/bandit_either","ADGH21PCBH8R1","either","7","32","","","","","","","","","","","","","","","","","","","","","","","","","","","","","","","","","","",""
"7920","","text","19","165523","0.0-18.0","24102402","wem/bandit_either","ADGH21PCBH8R1","either","7","32","","","","","","","","","","","","","","","","","","","","","","","","","","","","","","","","","","",""
"813","","bandit","20","167843","0.0-19.0-0.0","24102402","wem/bandit_either","ADGH21PCBH8R1","either","7","","","","","","","0","0","1","","0.8","0.5","0.5","","","0.8","0.2","","","","","","","","","","","","","74","J","0","img/none_selected_demo.jpg","true","0","80_20_practice"
"1357","","bandit","21","170705","0.0-19.0-1.0","24102402","wem/bandit_either","ADGH21PCBH8R1","either","7","","","","","","","0","0","1","","0.2","0.5","0.5","","","0.8","0.2","","","","","","","","","","","","","75","K","1","","true","0","80_20_practice"
"414","","bandit","22","172626","0.0-19.0-2.0","24102402","wem/bandit_either","ADGH21PCBH8R1","either","7","","","","","","","0","0","1","","0.2","0.5","0.5","","","0.8","0.2","","","","","","","","","","","","","75","K","1","","true","0","80_20_practice"
"381","","bandit","23","174513","0.0-19.0-3.0","24102402","wem/bandit_either","ADGH21PCBH8R1","either","7","","","","","","","0","0","1","","0.2","0.5","0.5","","","0.8","0.2","","","","","","","","","","","","","75","K","1","","true","0","80_20_practice"
"311","","bandit","24","176332","0.0-19.0-4.0","24102402","wem/bandit_either","ADGH21PCBH8R1","either","7","","","","","","","0","0","1","0.2","","0.5","0.5","","","","","","","0.8","0.2","","","","","","","","","75","K","1","","true","0","80_20_practice"
"333","","bandit","25","178170","0.0-19.0-5.0","24102402","wem/bandit_either","ADGH21PCBH8R1","either","7","","","","","","","0","1","0","","0.8","0.5","0.5","","","0.8","0.2","","","","","","","","","","","","","74","J","0","img/none_selected_demo.jpg","true","0","80_20_practice"
"462","","bandit","26","180138","0.0-19.0-6.0","24102402","wem/bandit_either","ADGH21PCBH8R1","either","7","","","","","","","0","1","0","","0.8","0.5","0.5","","","0.8","0.2","","","","","","","","","","","","","74","J","0","img/none_selected_demo.jpg","true","0","80_20_practice"
"350","","bandit","27","181994","0.0-19.0-7.0","24102402","wem/bandit_either","ADGH21PCBH8R1","either","7","","","","","","","0","0","1","0.8","","0.5","0.5","","","","","","","0.8","0.2","","","","","","","","","74","J","0","img/none_selected_demo.jpg","true","0","80_20_practice"
"326","","bandit","28","183826","0.0-19.0-8.0","24102402","wem/bandit_either","ADGH21PCBH8R1","either","7","","","","","","","1","0","0","0.8","","0.5","0.5","","","","","","","0.8","0.2","","","","","","","","","74","J","0","img/none_selected_demo.jpg","true","0","80_20_practice"
"279","","bandit","29","185611","0.0-19.0-9.0","24102402","wem/bandit_either","ADGH21PCBH8R1","either","7","","","","","","","1","0","0","0.8","","0.5","0.5","","","","","","","0.8","0.2","","","","","","","","","74","J","0","img/none_selected_demo.jpg","true","0","80_20_practice"
"222","","bandit","30","187339","0.0-19.0-10.0","24102402","wem/bandit_either","ADGH21PCBH8R1","either","7","","","","","","","1","0","0","0.8","","0.5","0.5","","","","","","","0.8","0.2","","","","","","","","","74","J","0","img/none_selected_demo.jpg","true","0","80_20_practice"
"1037","","bandit","31","189883","0.0-19.0-11.0","24102402","wem/bandit_either","ADGH21PCBH8R1","either","7","","","","","","","0","1","0","","0.8","0.5","0.5","","","0.8","0.2","","","","","","","","","","","","","74","J","0","img/none_selected_demo.jpg","true","0","80_20_practice"
"677","","bandit","32","192066","0.0-19.0-12.0","24102402","wem/bandit_either","ADGH21PCBH8R1","either","7","","","","","","","0","0","1","0.8","","0.5","0.5","","","","","","","0.8","0.2","","","","","","","","","74","J","0","img/none_selected_demo.jpg","true","0","80_20_practice"
"1278","","bandit","33","194849","0.0-19.0-13.0","24102402","wem/bandit_either","ADGH21PCBH8R1","either","7","","","","","","","0","0","1","","0.2","0.5","0.5","","","0.8","0.2","","","","","","","","","","","","","75","K","1","","true","0","80_20_practice"
"22","","bandit","34","196379","0.0-19.0-14.0","24102402","wem/bandit_either","ADGH21PCBH8R1","either","7","","","","","","","0","0","1","","0.2","0.5","0.5","","","0.8","0.2","","","","","","","","","","","","","75","K","1","","true","0","80_20_practice"
"349","","bandit","35","198236","0.0-19.0-15.0","24102402","wem/bandit_either","ADGH21PCBH8R1","either","7","","","","","","","0","0","1","0.2","","0.5","0.5","","","","","","","0.8","0.2","","","","","","","","","75","K","1","","true","0","80_20_practice"
"213","","bandit","36","199955","0.0-19.0-16.0","24102402","wem/bandit_either","ADGH21PCBH8R1","either","7","","","","","","","0","0","1","0.2","","0.5","0.5","","","","","","","0.8","0.2","","","","","","","","","75","K","1","","true","0","80_20_practice"
"326","","bandit","37","201786","0.0-19.0-17.0","24102402","wem/bandit_either","ADGH21PCBH8R1","either","7","","","","","","","1","0","0","0.8","","0.5","0.5","","","","","","","0.8","0.2","","","","","","","","","74","J","0","img/none_selected_demo.jpg","true","0","80_20_practice"
"142","","bandit","38","203434","0.0-19.0-18.0","24102402","wem/bandit_either","ADGH21PCBH8R1","either","7","","","","","","","1","0","0","0.8","","0.5","0.5","","","","","","","0.8","0.2","","","","","","","","","74","J","0","img/none_selected_demo.jpg","true","0","80_20_practice"
"872","","bandit","39","205810","0.0-19.0-19.0","24102402","wem/bandit_either","ADGH21PCBH8R1","either","7","","","","","","","0","0","1","0.8","","0.5","0.5","","","","","","","0.8","0.2","","","","","","","","","74","J","0","img/none_selected_demo.jpg","true","0","80_20_practice"
"3735","","text","40","209548","0.0-20.0","24102402","wem/bandit_either","ADGH21PCBH8R1","either","7","32","","","","","","","","","","","","","","","","","","","","","","","","","","","","","","","","","","",""
"1213","","bandit","41","212266","0.0-21.0-0.0","24102402","wem/bandit_either","ADGH21PCBH8R1","either","7","","","","","","","1","0","0","1","0","","","","","0","1","","","1","0","","","","","","","","","74","J","0","img/none_selected_demo.jpg","true","0",""
"5071","","text","42","217340","0.0-22.0","24102402","wem/bandit_either","ADGH21PCBH8R1","either","7","32","","","","","","","","","","","","","","","","","","","","","","","","","","","","","","","","","","",""
"4198","","text","43","221540","0.0-23.0","24102402","wem/bandit_either","ADGH21PCBH8R1","either","7","32","","","","","","","","","","","","","","","","","","","","","","","","","","","","","","","","","","",""
"2597","","text","44","224140","0.0-24.0","24102402","wem/bandit_either","ADGH21PCBH8R1","either","7","32","","","","","","","","","","","","","","","","","","","","","","","","","","","","","","","","","","",""
"2422","","text","45","226564","0.0-25.0","24102402","wem/bandit_either","ADGH21PCBH8R1","either","7","32","","","","","","","","","","","","","","","","","","","","","","","","","","","","","","","","","","",""
"10422","","text","46","236988","0.0-26.0","24102402","wem/bandit_either","ADGH21PCBH8R1","either","7","32","","","","","","","","","","","","","","","","","","","","","","","","","","","","","","","","","","",""
"1878","","text","47","238868","0.0-27.0","24102402","wem/bandit_either","ADGH21PCBH8R1","either","7","32","","","","","","","","","","","","","","","","","","","","","","","","","","","","","","","","","","",""
"3573","","text","48","242444","0.0-28.0","24102402","wem/bandit_either","ADGH21PCBH8R1","either","7","32","","","","","","","","","","","","","","","","","","","","","","","","","","","","","","","","","","",""
"3782","","text","49","246228","0.0-29.0","24102402","wem/bandit_either","ADGH21PCBH8R1","either","7","32","","","","","","","","","","","","","","","","","","","","","","","","","","","","","","","","","","",""
"4110","","text","50","250340","0.0-30.0","24102402","wem/bandit_either","ADGH21PCBH8R1","either","7","32","","","","","","","","","","","","","","","","","","","","","","","","","","","","","","","","","","",""
"1198","","text","51","251540","0.0-31.0","24102402","wem/bandit_either","ADGH21PCBH8R1","either","7","32","","","","","","","","","","","","","","","","","","","","","","","","","","","","","","","","","","",""
"3694","","text","52","255235","0.0-32.0","24102402","wem/bandit_either","ADGH21PCBH8R1","either","7","32","","","","","","","","","","","","","","","","","","","","","","","","","","","","","","","","","","",""
"884","","bandit","53","257627","0.0-33.0-0.0","24102402","wem/bandit_either","ADGH21PCBH8R1","either","7","","","","","","","1","0","0","0.8","","0.5","0.5","0.5","0.5","","","","","0.8","0.2","0.6","0.2","","","","","","","72","H","0","img/none_selected.jpg","true","0","full_practice"
"83","","bandit","54","259218","0.0-33.0-1.0","24102402","wem/bandit_either","ADGH21PCBH8R1","either","7","","","","","","","0","0","1","0.8","","0.5","0.5","0.5","0.5","","","","","0.8","0.2","0.6","0.2","","","","","","","72","H","0","img/none_selected.jpg","true","0","full_practice"
"152","","bandit","55","260874","0.0-33.0-2.0","24102402","wem/bandit_either","ADGH21PCBH8R1","either","7","","","","","","","1","0","0","0.8","","0.5","0.5","0.5","0.5","","","","","0.8","0.2","0.6","0.2","","","","","","","72","H","0","img/none_selected.jpg","true","0","full_practice"
"285","","bandit","56","262666","0.0-33.0-3.0","24102402","wem/bandit_either","ADGH21PCBH8R1","either","7","","","","","","","0","1","0","","0.8","0.5","0.5","0.5","0.5","0.8","0.2","0.6","0.2","","","","","","","","","","","72","H","0","img/none_selected.jpg","true","0","full_practice"
"245","","bandit","57","264419","0.0-33.0-4.0","24102402","wem/bandit_either","ADGH21PCBH8R1","either","7","","","","","","","1","0","0","0.8","","0.5","0.5","0.5","0.5","","","","","0.8","0.2","0.6","0.2","","","","","","","72","H","0","img/none_selected.jpg","true","0","full_practice"
"260","","bandit","58","266187","0.0-33.0-5.0","24102402","wem/bandit_either","ADGH21PCBH8R1","either","7","","","","","","","1","0","0","0.8","","0.5","0.5","0.5","0.5","","","","","0.8","0.2","0.6","0.2","","","","","","","72","H","0","img/none_selected.jpg","true","0","full_practice"
"205","","bandit","59","267900","0.0-33.0-6.0","24102402","wem/bandit_either","ADGH21PCBH8R1","either","7","","","","","","","1","0","0","0.8","","0.5","0.5","0.5","0.5","","","","","0.8","0.2","0.6","0.2","","","","","","","72","H","0","img/none_selected.jpg","true","0","full_practice"
"214","","bandit","60","269618","0.0-33.0-7.0","24102402","wem/bandit_either","ADGH21PCBH8R1","either","7","","","","","","","0","0","1","0.8","","0.5","0.5","0.5","0.5","","","","","0.8","0.2","0.6","0.2","","","","","","","72","H","0","img/none_selected.jpg","true","0","full_practice"
"103","","bandit","61","271226","0.0-33.0-8.0","24102402","wem/bandit_either","ADGH21PCBH8R1","either","7","","","","","","","0","1","0","","0.8","0.5","0.5","0.5","0.5","0.8","0.2","0.6","0.2","","","","","","","","","","","72","H","0","img/none_selected.jpg","true","0","full_practice"
"191","","bandit","62","272922","0.0-33.0-9.0","24102402","wem/bandit_either","ADGH21PCBH8R1","either","7","","","","","","","1","0","0","0.8","","0.5","0.5","0.5","0.5","","","","","0.8","0.2","0.6","0.2","","","","","","","72","H","0","img/none_selected.jpg","true","0","full_practice"
"207","","bandit","63","274635","0.0-33.0-10.0","24102402","wem/bandit_either","ADGH21PCBH8R1","either","7","","","","","","","1","0","0","0.8","","0.5","0.5","0.5","0.5","","","","","0.8","0.2","0.6","0.2","","","","","","","72","H","0","img/none_selected.jpg","true","0","full_practice"
"84","","bandit","64","276226","0.0-33.0-11.0","24102402","wem/bandit_either","ADGH21PCBH8R1","either","7","","","","","","","0","1","0","","0.8","0.5","0.5","0.5","0.5","0.8","0.2","0.6","0.2","","","","","","","","","","","72","H","0","img/none_selected.jpg","true","0","full_practice"
"77","","bandit","65","277811","0.0-33.0-12.0","24102402","wem/bandit_either","ADGH21PCBH8R1","either","7","","","","","","","0","1","0","","0.8","0.5","0.5","0.5","0.5","0.8","0.2","0.6","0.2","","","","","","","","","","","72","H","0","img/none_selected.jpg","true","0","full_practice"
"44","","bandit","66","279363","0.0-33.0-13.0","24102402","wem/bandit_either","ADGH21PCBH8R1","either","7","","","","","","","0","0","1","0.2","","0.5","0.5","0.5","0.5","","","","","0.8","0.2","0.6","0.2","","","","","","","74","J","1","","true","0","full_practice"
"84","","bandit","67","280955","0.0-33.0-14.0","24102402","wem/bandit_either","ADGH21PCBH8R1","either","7","","","","","","","0","0","1","","0.2","0.5","0.5","0.5","0.5","0.8","0.2","0.6","0.2","","","","","","","","","","","74","J","1","","true","0","full_practice"
"117","","bandit","68","282578","0.0-33.0-15.0","24102402","wem/bandit_either","ADGH21PCBH8R1","either","7","","","","","","","1","0","0","0.2","","0.5","0.5","0.5","0.5","","","","","0.8","0.2","0.6","0.2","","","","","","","74","J","1","","true","0","full_practice"
"118","","bandit","69","284203","0.0-33.0-16.0","24102402","wem/bandit_either","ADGH21PCBH8R1","either","7","","","","","","","0","1","0","","0.2","0.5","0.5","0.5","0.5","0.8","0.2","0.6","0.2","","","","","","","","","","","74","J","1","","true","0","full_practice"
"61","","bandit","70","285771","0.0-33.0-17.0","24102402","wem/bandit_either","ADGH21PCBH8R1","either","7","","","","","","","1","0","0","0.2","","0.5","0.5","0.5","0.5","","","","","0.8","0.2","0.6","0.2","","","","","","","74","J","1","","true","0","full_practice"
"156","","bandit","71","287434","0.0-33.0-18.0","24102402","wem/bandit_either","ADGH21PCBH8R1","either","7","","","","","","","1","0","0","0.2","","0.5","0.5","0.5","0.5","","","","","0.8","0.2","0.6","0.2","","","","","","","74","J","1","","true","0","full_practice"
"45","","bandit","72","288986","0.0-33.0-19.0","24102402","wem/bandit_either","ADGH21PCBH8R1","either","7","","","","","","","0","1","0","","0.2","0.5","0.5","0.5","0.5","0.8","0.2","0.6","0.2","","","","","","","","","","","74","J","1","","true","0","full_practice"
"3321","","text","73","292316","0.0-34.0","24102402","wem/bandit_either","ADGH21PCBH8R1","either","7","32","","","","","","","","","","","","","","","","","","","","","","","","","","","","","","","","","","",""
"9444","","text","74","302763","0.0-35.0","24102402","wem/bandit_either","ADGH21PCBH8R1","either","7","32","","","","","","","","","","","","","","","","","","","","","","","","","","","","","","","","","","",""
"9686","","text","75","312451","0.0-36.0","24102402","wem/bandit_either","ADGH21PCBH8R1","either","7","32","","","","","","","","","","","","","","","","","","","","","","","","","","","","","","","","","","",""
"7047","","text","76","319500","0.0-37.0","24102402","wem/bandit_either","ADGH21PCBH8R1","either","7","32","","","","","","","","","","","","","","","","","","","","","","","","","","","","","","","","","","",""
"5407","","text","77","324909","0.0-38.0","24102402","wem/bandit_either","ADGH21PCBH8R1","either","7","32","","","","","","","","","","","","","","","","","","","","","","","","","","","","","","","","","","",""
"7813","","text","78","332724","0.0-39.0","24102402","wem/bandit_either","ADGH21PCBH8R1","either","7","32","","","","","","","","","","","","","","","","","","","","","","","","","","","","","","","","","","",""
"1819","","bandit","79","336052","0.0-40.0-0.0","24102402","wem/bandit_either","ADGH21PCBH8R1","either","7","","","","","","","0","0","1","","0.06530018083","0.8","0.4","0.6","0.2","0.06530018083","0.1952616071","0.01738065524","0.1480066451","","","","","","","","","","","72","H","0","img/none_selected.jpg","","1","main_expt"
"387","","bandit","80","337947","0.0-41.0-0.0","24102402","wem/bandit_either","ADGH21PCBH8R1","either","7","","","","","","","0","1","0","","0.1652234336","0.8","0.4","0.6","0.2","0.1011701763","0.1652234336","0.0196943787","0.1053714073","","","","","","","","","","","74","J","1","","","2","main_expt"
"54","","bandit","81","339506","0.0-42.0-0.0","24102402","wem/bandit_either","ADGH21PCBH8R1","either","7","","","","","","","0","0","1","0.1347382479","","0.8","0.4","0.6","0.2","","","","","0.09486719381","0.1347382479","0.01678573497","0.1460078221","","","","","","","74","J","1","","","3","main_expt"
"237","","bandit","82","341251","0.0-43.0-0.0","24102402","wem/bandit_either","ADGH21PCBH8R1","either","7","","","","","","","0","0","1","0.02981965743","","0.8","0.4","0.6","0.2","","","","","0.06705802814","0.1684625442","0.02981965743","0.1866138214","","","","","","","75","K","2","","","4","main_expt"
"13","","bandit","83","342770","0.0-44.0-0.0","24102402","wem/bandit_either","ADGH21PCBH8R1","either","7","","","","","","","0","0","1","0.02600208211","","0.8","0.4","0.6","0.2","","","","","0.0822298525","0.1792029032","0.02600208211","0.2445348717","","","","","","","75","K","2","","","5","main_expt"
"64","","bandit","84","344339","0.0-45.0-0.0","24102402","wem/bandit_either","ADGH21PCBH8R1","either","7","","","","","","","0","0","1","","0.02332436933","0.8","0.4","0.6","0.2","0.09162209411","0.2153873139","0.02332436933","0.2546962146","","","","","","","","","","","75","K","2","","","6","main_expt"
"395","","bandit","85","346242","0.0-46.0-0.0","24102402","wem/bandit_either","ADGH21PCBH8R1","either","7","","","","","","","0","0","1","0.2344841702","","0.8","0.4","0.6","0.2","","","","","0.1028820098","0.1757762721","0.02864040813","0.2344841702","","","","","","","76","L","3","","","7","main_expt"
"125","","bandit","86","347875","0.0-47.0-0.0","24102402","wem/bandit_either","ADGH21PCBH8R1","either","7","","","","","","","1","0","0","0.2473344203","","0.8","0.4","0.6","0.2","","","","","0.1532270122","0.2241229746","0.02951264166","0.2473344203","","","","","","","76","L","3","","","8","main_expt"
"83","","bandit","87","349467","0.0-48.0-0.0","24102402","wem/bandit_either","ADGH21PCBH8R1","either","7","","","","","","","0","0","1","","0.2642160399","0.8","0.4","0.6","0.2","0.2131450397","0.2199426203","0.02997011939","0.2642160399","","","","","","","","","","","76","L","3","","","9","main_expt"
"51","","bandit","88","351027","0.0-49.0-0.0","24102402","wem/bandit_either","ADGH21PCBH8R1","either","7","","","","","","","0","0","1","","0.2104627424","0.8","0.4","0.6","0.2","0.2985754635","0.1520686932","0.02489651457","0.2104627424","","","","","","","","","","","76","L","3","","","10","main_expt"
"484","","bandit","89","353019","0.0-50.0-0.0","24102402","wem/bandit_either","ADGH21PCBH8R1","either","7","","","","","","","1","0","0","0.2924640086","","0.8","0.4","0.6","0.2","","","","","0.2924640086","0.2013349999","0.01651058827","0.219372878","","","","","","","72","H","0","img/none_selected.jpg","","11","main_expt"
"0","","bandit","90","354524","0.0-51.0-0.0","24102402","wem/bandit_either","ADGH21PCBH8R1","either","7","","","","","","","0","0","1","0.3264291113","","0.8","0.4","0.6","0.2","","","","","0.3264291113","0.2156800105","0.02341729431","0.2105839871","","","","","","","72","H","0","img/none_selected.jpg","","12","main_expt"
"75","","bandit","91","356106","0.0-52.0-0.0","24102402","wem/bandit_either","ADGH21PCBH8R1","either","7","","","","","","","1","0","0","0.3254913314","","0.8","0.4","0.6","0.2","","","","","0.3254913314","0.1833947696","0.0257410372","0.2511698571","","","","","","","72","H","0","img/none_selected.jpg","","13","main_expt"
"133","","bandit","92","357746","0.0-53.0-0.0","24102402","wem/bandit_either","ADGH21PCBH8R1","either","7","","","","","","","0","0","1","","0.3428504842","0.8","0.4","0.6","0.2","0.3428504842","0.243643366","0.02570014082","0.2158977649","","","","","","","","","","","72","H","0","img/none_selected.jpg","","14","main_expt"
"1245","","bandit","93","360498","0.0-54.0-0.0","24102402","wem/bandit_either","ADGH21PCBH8R1","either","7","","","","","","","0","1","0","","0.3244047679","0.8","0.4","0.6","0.2","0.3244047679","0.2265365198","0.04268316416","0.2762480727","","","","","","","","","","","72","H","0","img/none_selected.jpg","","15","main_expt"
"291","","bandit","94","362299","0.0-55.0-0.0","24102402","wem/bandit_either","ADGH21PCBH8R1","either","7","","","","","","","0","0","1","","0.3025313629","0.8","0.4","0.6","0.2","0.3025313629","0.2484951132","0.04667408308","0.3202890724","","","","","","","","","","","72","H","0","img/none_selected.jpg","","16","main_expt"
"372","","bandit","95","364179","0.0-56.0-0.0","24102402","wem/bandit_either","ADGH21PCBH8R1","either","7","","","","","","","0","0","1","","0.3291216938","0.8","0.4","0.6","0.2","0.3291216938","0.2570267238","0.0506688767","0.3680552247","","","","","","","","","","","72","H","0","img/none_selected.jpg","","17","main_expt"
"476","","bandit","96","366162","0.0-57.0-0.0","24102402","wem/bandit_either","ADGH21PCBH8R1","either","7","","","","","","","1","0","0","0.2987881532","","0.8","0.4","0.6","0.2","","","","","0.2987881532","0.287418789","0.02988526167","0.3968593921","","","","","","","72","H","0","img/none_selected.jpg","","18","main_expt"
"230","","bandit","97","367898","0.0-58.0-0.0","24102402","wem/bandit_either","ADGH21PCBH8R1","either","7","","","","","","","0","0","1","0.281207523","","0.8","0.4","0.6","0.2","","","","","0.281207523","0.2338710899","0.03476350355","0.4192996399","","","","","","","72","H","0","img/none_selected.jpg","","19","main_expt"
"1717","","bandit","98","371123","0.0-59.0-0.0","24102402","wem/bandit_either","ADGH21PCBH8R1","either","7","","","","","","","0","0","1","0.291129981","","0.8","0.4","0.6","0.2","","","","","0.291129981","0.2335293464","0.0233687216","0.4362768361","","","","","","","72","H","0","img/none_selected.jpg","","20","main_expt"
"331","","bandit","99","372963","0.0-60.0-0.0","24102402","wem/bandit_either","ADGH21PCBH8R1","either","7","","","","","","","0","0","1","0.2729578326","","0.8","0.4","0.6","0.2","","","","","0.2729578326","0.2434826965","0.01272547494","0.4599691003","","","","","","","72","H","0","img/none_selected.jpg","","21","main_expt"
"947","","bandit","100","375419","0.0-61.0-0.0","24102402","wem/bandit_either","ADGH21PCBH8R1","either","7","","","","","","","0","0","1","0.2805141014","","0.8","0.4","0.6","0.2","","","","","0.2805141014","0.2702300591","0.01739491555","0.44353765","","","","","","","72","H","0","img/none_selected.jpg","","22","main_expt"
"212","","bandit","101","377138","0.0-62.0-0.0","24102402","wem/bandit_either","ADGH21PCBH8R1","either","7","","","","","","","0","1","0","","0.2424740502","0.8","0.4","0.6","0.2","0.3016389313","0.2424740502","0.006692102231","0.4105594395","","","","","","","","","","","74","J","1","","","23","main_expt"
"221","","bandit","102","378867","0.0-63.0-0.0","24102402","wem/bandit_either","ADGH21PCBH8R1","either","7","","","","","","","0","0","1","","0.1754503809","0.8","0.4","0.6","0.2","0.2475621169","0.1754503809","0.01209419849","0.4243351486","","","","","","","","","","","74","J","1","","","24","main_expt"
"101","","bandit","103","380474","0.0-64.0-0.0","24102402","wem/bandit_either","ADGH21PCBH8R1","either","7","","","","","","","0","0","1","","0.2023019753","0.8","0.4","0.6","0.2","0.2607476102","0.2023019753","0.009734580702","0.4172780312","","","","","","","","","","","74","J","1","","","25","main_expt"
"268","","bandit","104","382250","0.0-65.0-0.0","24102402","wem/bandit_either","ADGH21PCBH8R1","either","7","","","","","","","0","0","1","","0.1887270612","0.8","0.4","0.6","0.2","0.292589008","0.1887270612","0.008596148908","0.3981062588","","","","","","","","","","","74","J","1","","","26","main_expt"
"572","","bandit","105","384331","0.0-66.0-0.0","24102402","wem/bandit_either","ADGH21PCBH8R1","either","7","","","","","","","0","0","1","","0.01380650739","0.8","0.4","0.6","0.2","0.2978950393","0.2526986378","0.01380650739","0.3889188119","","","","","","","","","","","75","K","2","","","27","main_expt"
"220","","bandit","106","386058","0.0-67.0-0.0","24102402","wem/bandit_either","ADGH21PCBH8R1","either","7","","","","","","","0","0","1","0.01160852189","","0.8","0.4","0.6","0.2","","","","","0.337392419","0.2536033627","0.01160852189","0.3699095679","","","","","","","75","K","2","","","28","main_expt"
"141","","bandit","107","387708","0.0-68.0-0.0","24102402","wem/bandit_either","ADGH21PCBH8R1","either","7","","","","","","","0","0","1","","0.02858314752","0.8","0.4","0.6","0.2","0.3830759015","0.258258936","0.02858314752","0.4087832773","","","","","","","","","","","75","K","2","","","29","main_expt"
"732","","bandit","108","389947","0.0-69.0-0.0","24102402","wem/bandit_either","ADGH21PCBH8R1","either","7","","","","","","","0","1","0","","0.3778881599","0.8","0.4","0.6","0.2","0.3778881599","0.3152574144","0.0265596094","0.4162513677","","","","","","","","","","","72","H","0","img/none_selected.jpg","","30","main_expt"
"171","","bandit","109","391626","0.0-70.0-0.0","24102402","wem/bandit_either","ADGH21PCBH8R1","either","7","","","","","","","1","0","0","0.3585458117","","0.8","0.4","0.6","0.2","","","","","0.3585458117","0.3508579725","0.02828816112","0.43337534","","","","","","","72","H","0","img/none_selected.jpg","","31","main_expt"
"220","","bandit","110","393355","0.0-71.0-0.0","24102402","wem/bandit_either","ADGH21PCBH8R1","either","7","","","","","","","0","0","1","0.3511664436","","0.8","0.4","0.6","0.2","","","","","0.3511664436","0.3902021543","0.03857304495","0.4399105216","","","","","","","72","H","0","img/none_selected.jpg","","32","main_expt"
"139","","bandit","111","395003","0.0-72.0-0.0","24102402","wem/bandit_either","ADGH21PCBH8R1","either","7","","","","","","","1","0","0","0.3924960189","","0.8","0.4","0.6","0.2","","","","","0.3924960189","0.4112626521","0.02642959278","0.3859623535","","","","","","","72","H","0","img/none_selected.jpg","","33","main_expt"
"131","","bandit","112","396642","0.0-73.0-0.0","24102402","wem/bandit_either","ADGH21PCBH8R1","either","7","","","","","","","0","0","1","","0.3713907517","0.8","0.4","0.6","0.2","0.3713907517","0.3912589523","0.06800028167","0.4231921331","","","","","","","","","","","72","H","0","img/none_selected.jpg","","34","main_expt"
"148","","bandit","113","398299","0.0-74.0-0.0","24102402","wem/bandit_either","ADGH21PCBH8R1","either","7","","","","","","","0","1","0","","0.3929004689","0.8","0.4","0.6","0.2","0.3929004689","0.3663646496","0.05710280771","0.3950458867","","","","","","","","","","","72","H","0","img/none_selected.jpg","","35","main_expt"
"235","","bandit","114","400043","0.0-75.0-0.0","24102402","wem/bandit_either","ADGH21PCBH8R1","either","7","","","","","","","0","0","1","","0.3820467604","0.8","0.4","0.6","0.2","0.3820467604","0.3045225128","0.07756943076","0.4005306787","","","","","","","","","","","72","H","0","img/none_selected.jpg","","36","main_expt"
"235","","bandit","115","401787","0.0-76.0-0.0","24102402","wem/bandit_either","ADGH21PCBH8R1","either","7","","","","","","","1","0","0","0.3948022939","","0.8","0.4","0.6","0.2","","","","","0.3948022939","0.2806474599","0.06074629621","0.3972735937","","","","","","","72","H","0","img/none_selected.jpg","","37","main_expt"
"179","","bandit","116","403475","0.0-77.0-0.0","24102402","wem/bandit_either","ADGH21PCBH8R1","either","7","","","","","","","0","0","1","","0.3769579019","0.8","0.4","0.6","0.2","0.3769579019","0.3558759705","0.07063042774","0.38339591","","","","","","","","","","","72","H","0","img/none_selected.jpg","","38","main_expt"
"436","","bandit","117","405418","0.0-78.0-0.0","24102402","wem/bandit_either","ADGH21PCBH8R1","either","7","","","","","","","0","0","1","0.4030344636","","0.8","0.4","0.6","0.2","","","","","0.4030344636","0.3194138052","0.06209293178","0.3906354184","","","","","","","72","H","0","img/none_selected.jpg","","39","main_expt"
"700","","bandit","118","407626","0.0-79.0-0.0","24102402","wem/bandit_either","ADGH21PCBH8R1","either","7","","","","","","","0","0","1","0.3622335218","","0.8","0.4","0.6","0.2","","","","","0.3622335218","0.3549086085","0.06952578958","0.3623676206","","","","","","","72","H","0","img/none_selected.jpg","","40","main_expt"
"772","","bandit","119","409909","0.0-80.0-0.0","24102402","wem/bandit_either","ADGH21PCBH8R1","either","7","","","","","","","0","0","1","0.3911596719","","0.8","0.4","0.6","0.2","","","","","0.3911596719","0.3452113815","0.1291245709","0.3873704927","","","","","","","72","H","0","img/none_selected.jpg","","41","main_expt"
"528","","bandit","120","411947","0.0-81.0-0.0","24102402","wem/bandit_either","ADGH21PCBH8R1","either","7","","","","","","","0","0","1","0.3921858285","","0.8","0.4","0.6","0.2","","","","","0.3921858285","0.3522960267","0.1174523948","0.359823116","","","","","","","72","H","0","img/none_selected.jpg","","42","main_expt"
"325","","bandit","121","413778","0.0-82.0-0.0","24102402","wem/bandit_either","ADGH21PCBH8R1","either","7","","","","","","","0","0","1","","0.3831213528","0.8","0.4","0.6","0.2","0.3831213528","0.3093122096","0.1201484523","0.3710191411","","","","","","","","","","","72","H","0","img/none_selected.jpg","","43","main_expt"
"308","","bandit","122","415595","0.0-83.0-0.0","24102402","wem/bandit_either","ADGH21PCBH8R1","either","7","","","","","","","0","1","0","","0.3518708159","0.8","0.4","0.6","0.2","0.3518708159","0.3026159556","0.09958360536","0.3874065465","","","","","","","","","","","72","H","0","img/none_selected.jpg","","44","main_expt"
"75","","bandit","123","417179","0.0-84.0-0.0","24102402","wem/bandit_either","ADGH21PCBH8R1","either","7","","","","","","","0","0","1","0.3122870636","","0.8","0.4","0.6","0.2","","","","","0.3122870636","0.3336294247","0.05173655998","0.3851533971","","","","","","","72","H","0","img/none_selected.jpg","","45","main_expt"
"227","","bandit","124","418914","0.0-85.0-0.0","24102402","wem/bandit_either","ADGH21PCBH8R1","either","7","","","","","","","0","0","1","0.2635721956","","0.8","0.4","0.6","0.2","","","","","0.2635721956","0.3400222736","0.05945041096","0.4055883719","","","","","","","72","H","0","img/none_selected.jpg","","46","main_expt"
"267","","bandit","125","420690","0.0-86.0-0.0","24102402","wem/bandit_either","ADGH21PCBH8R1","either","7","","","","","","","1","0","0","0.2856785865","","0.8","0.4","0.6","0.2","","","","","0.2856785865","0.328707825","0.04375763727","0.3671593179","","","","","","","72","H","0","img/none_selected.jpg","","47","main_expt"
"380","","bandit","126","422580","0.0-87.0-0.0","24102402","wem/bandit_either","ADGH21PCBH8R1","either","7","","","","","","","0","0","1","0.2649087478","","0.8","0.4","0.6","0.2","","","","","0.2649087478","0.3307690822","0.0666370861","0.3198203038","","","","","","","72","H","0","img/none_selected.jpg","","48","main_expt"
"522","","bandit","127","424610","0.0-88.0-0.0","24102402","wem/bandit_either","ADGH21PCBH8R1","either","7","","","","","","","0","0","1","","0.2462979357","0.8","0.4","0.6","0.2","0.2462979357","0.3438067684","0.08266213623","0.3111357295","","","","","","","","","","","72","H","0","img/none_selected.jpg","","49","main_expt"
"507","","bandit","128","426627","0.0-89.0-0.0","24102402","wem/bandit_either","ADGH21PCBH8R1","either","7","","","","","","","0","0","1","0.2490076798","","0.8","0.4","0.6","0.2","","","","","0.2490076798","0.4037002216","0.08795051988","0.3196682981","","","","","","","72","H","0","img/none_selected.jpg","","50","main_expt"
"282","","bandit","129","428420","0.0-90.0-0.0","24102402","wem/bandit_either","ADGH21PCBH8R1","either","7","","","","","","","0","0","1","0.305209751","","0.8","0.4","0.6","0.2","","","","","0.305209751","0.3557518394","0.07533366945","0.3088596379","","","","","","","72","H","0","img/none_selected.jpg","","51","main_expt"
"810","","bandit","130","430738","0.0-91.0-0.0","24102402","wem/bandit_either","ADGH21PCBH8R1","either","7","","","","","","","1","0","0","0.3254324358","","0.8","0.4","0.6","0.2","","","","","0.3087204988","0.3254324358","0.06506638851","0.3060924957","","","","","","","74","J","1","","","52","main_expt"
"252","","bandit","131","432499","0.0-92.0-0.0","24102402","wem/bandit_either","ADGH21PCBH8R1","either","7","","","","","","","1","0","0","0.2952150256","","0.8","0.4","0.6","0.2","","","","","0.2984188648","0.2952150256","0.06562792832","0.3229319808","","","","","","","74","J","1","","","53","main_expt"
"154","","bandit","132","434162","0.0-93.0-0.0","24102402","wem/bandit_either","ADGH21PCBH8R1","either","7","","","","","","","0","1","0","","0.300320608","0.8","0.4","0.6","0.2","0.3353917468","0.300320608","0.04630081711","0.3280138586","","","","","","","","","","","74","J","1","","","54","main_expt"
"171","","bandit","133","435843","0.0-94.0-0.0","24102402","wem/bandit_either","ADGH21PCBH8R1","either","7","","","","","","","0","0","1","","0.2985084879","0.8","0.4","0.6","0.2","0.3259144651","0.2985084879","0.03868373719","0.2777260571","","","","","","","","","","","74","J","1","","","55","main_expt"
"42","","bandit","134","437394","0.0-95.0-0.0","24102402","wem/bandit_either","ADGH21PCBH8R1","either","7","","","","","","","0","0","1","","0.2607009345","0.8","0.4","0.6","0.2","0.3259049121","0.2607009345","0.06235362297","0.1791004868","","","","","","","","","","","74","J","1","","","56","main_expt"
"204","","bandit","135","439106","0.0-96.0-0.0","24102402","wem/bandit_either","ADGH21PCBH8R1","either","7","","","","","","","0","1","0","","0.2565854794","0.8","0.4","0.6","0.2","0.3687904078","0.2565854794","0.04639461243","0.2182265394","","","","","","","","","","","74","J","1","","","57","main_expt"
"276","","bandit","136","440891","0.0-97.0-0.0","24102402","wem/bandit_either","ADGH21PCBH8R1","either","7","","","","","","","0","1","0","","0.319121847","0.8","0.4","0.6","0.2","0.3422038875","0.319121847","0.08954448139","0.2970860181","","","","","","","","","","","74","J","1","","","58","main_expt"
"155","","bandit","137","442554","0.0-98.0-0.0","24102402","wem/bandit_either","ADGH21PCBH8R1","either","7","","","","","","","1","0","0","0.3269923399","","0.8","0.4","0.6","0.2","","","","","0.3771421139","0.3269923399","0.07390342289","0.3249685468","","","","","","","74","J","1","","","59","main_expt"
"267","","bandit","138","444330","0.0-99.0-0.0","24102402","wem/bandit_either","ADGH21PCBH8R1","either","7","","","","","","","0","0","1","","0.3150968823","0.8","0.4","0.6","0.2","0.3620124399","0.3150968823","0.05801548519","0.2931470039","","","","","","","","","","","74","J","1","","","60","main_expt"
"158","","bandit","139","445994","0.0-100.0-0.0","24102402","wem/bandit_either","ADGH21PCBH8R1","either","7","","","","","","","0","0","1","","0.324539239","0.8","0.4","0.6","0.2","0.3958116198","0.324539239","0.07333263924","0.2646536279","","","","","","","","","","","74","J","1","","","61","main_expt"
"147","","bandit","140","447650","0.0-101.0-0.0","24102402","wem/bandit_either","ADGH21PCBH8R1","either","7","","","","","","","0","0","1","","0.3066306166","0.8","0.4","0.6","0.2","0.3615218546","0.3066306166","0.07563430262","0.242461968","","","","","","","","","","","74","J","1","","","62","main_expt"
"124","","bandit","141","449283","0.0-102.0-0.0","24102402","wem/bandit_either","ADGH21PCBH8R1","either","7","","","","","","","0","1","0","","0.3068900116","0.8","0.4","0.6","0.2","0.3574266064","0.3068900116","0.06826526778","0.2206683029","","","","","","","","","","","74","J","1","","","63","main_expt"
"194","","bandit","142","450986","0.0-103.0-0.0","24102402","wem/bandit_either","ADGH21PCBH8R1","either","7","","","","","","","0","0","1","","0.2936494982","0.8","0.4","0.6","0.2","0.3541915859","0.2936494982","0.1175271989","0.2288959862","","","","","","","","","","","74","J","1","","","64","main_expt"
"228","","bandit","143","452722","0.0-104.0-0.0","24102402","wem/bandit_either","ADGH21PCBH8R1","either","7","","","","","","","0","0","1","0.1273865191","","0.8","0.4","0.6","0.2","","","","","0.3339820985","0.290236101","0.1273865191","0.2346523549","","","","","","","75","K","2","","","65","main_expt"
"94","","bandit","144","454322","0.0-105.0-0.0","24102402","wem/bandit_either","ADGH21PCBH8R1","either","7","","","","","","","0","0","1","0.09075088943","","0.8","0.4","0.6","0.2","","","","","0.3195467083","0.2512036594","0.09075088943","0.1881688105","","","","","","","75","K","2","","","66","main_expt"
"155","","bandit","145","455985","0.0-106.0-0.0","24102402","wem/bandit_either","ADGH21PCBH8R1","either","7","","","","","","","0","0","1","0.08077075725","","0.8","0.4","0.6","0.2","","","","","0.3477383846","0.263747572","0.08077075725","0.231043846","","","","","","","75","K","2","","","67","main_expt"
"62","","bandit","146","457553","0.0-107.0-0.0","24102402","wem/bandit_either","ADGH21PCBH8R1","either","7","","","","","","","0","1","0","","0.2576664243","0.8","0.4","0.6","0.2","0.3365352069","0.2892519303","0.08810311296","0.2576664243","","","","","","","","","","","76","L","3","","","68","main_expt"
"13","","bandit","147","459074","0.0-108.0-0.0","24102402","wem/bandit_either","ADGH21PCBH8R1","either","7","","","","","","","0","0","1","0.2183283259","","0.8","0.4","0.6","0.2","","","","","0.3148812039","0.2383664846","0.1260156682","0.2183283259","","","","","","","76","L","3","","","69","main_expt"
"191","","bandit","148","460770","0.0-109.0-0.0","24102402","wem/bandit_either","ADGH21PCBH8R1","either","7","","","","","","","0","1","0","","0.2260484764","0.8","0.4","0.6","0.2","0.3154014692","0.2497111545","0.08773951932","0.2260484764","","","","","","","","","","","76","L","3","","","70","main_expt"
"211","","bandit","149","462491","0.0-110.0-0.0","24102402","wem/bandit_either","ADGH21PCBH8R1","either","7","","","","","","","0","0","1","","0.3196469567","0.8","0.4","0.6","0.2","0.219815459","0.2095843002","0.1154304285","0.3196469567","","","","","","","","","","","76","L","3","","","71","main_expt"
"91","","bandit","150","464089","0.0-111.0-0.0","24102402","wem/bandit_either","ADGH21PCBH8R1","either","7","","","","","","","0","0","1","","0.3644141189","0.8","0.4","0.6","0.2","0.2623730272","0.1972488467","0.10097247","0.3644141189","","","","","","","","","","","76","L","3","","","72","main_expt"
"341","","bandit","151","465939","0.0-112.0-0.0","24102402","wem/bandit_either","ADGH21PCBH8R1","either","7","","","","","","","0","1","0","","0.4081842109","0.8","0.4","0.6","0.2","0.2639805735","0.15494396","0.0746930591","0.4081842109","","","","","","","","","","","76","L","3","","","73","main_expt"
"226","","bandit","152","467675","0.0-113.0-0.0","24102402","wem/bandit_either","ADGH21PCBH8R1","either","7","","","","","","","0","1","0","","0.4506698749","0.8","0.4","0.6","0.2","0.2770925356","0.1324790415","0.1124392477","0.4506698749","","","","","","","","","","","76","L","3","","","74","main_expt"
"121","","bandit","153","469306","0.0-114.0-0.0","24102402","wem/bandit_either","ADGH21PCBH8R1","either","7","","","","","","","0","0","1","","0.454520075","0.8","0.4","0.6","0.2","0.2796652475","0.179195356","0.113494578","0.454520075","","","","","","","","","","","76","L","3","","","75","main_expt"
"123","","bandit","154","470938","0.0-115.0-0.0","24102402","wem/bandit_either","ADGH21PCBH8R1","either","7","","","","","","","0","0","1","","0.466199952","0.8","0.4","0.6","0.2","0.3153427244","0.215808919","0.1469344428","0.466199952","","","","","","","","","","","76","L","3","","","76","main_expt"
"203","","bandit","155","472650","0.0-116.0-0.0","24102402","wem/bandit_either","ADGH21PCBH8R1","either","7","","","","","","","0","1","0","","0.4402141775","0.8","0.4","0.6","0.2","0.3676911864","0.2312347408","0.2152215887","0.4402141775","","","","","","","","","","","76","L","3","","","77","main_expt"
"539","","bandit","156","474698","0.0-117.0-0.0","24102402","wem/bandit_either","ADGH21PCBH8R1","either","7","","","","","","","0","0","1","","0.4525957793","0.8","0.4","0.6","0.2","0.3434277392","0.2197025874","0.2055177618","0.4525957793","","","","","","","","","","","76","L","3","","","78","main_expt"
"162","","bandit","157","476371","0.0-118.0-0.0","24102402","wem/bandit_either","ADGH21PCBH8R1","either","7","","","","","","","0","0","1","","0.4630799716","0.8","0.4","0.6","0.2","0.3758616161","0.2227420924","0.222262525","0.4630799716","","","","","","","","","","","76","L","3","","","79","main_expt"
"258","","bandit","158","478138","0.0-119.0-0.0","24102402","wem/bandit_either","ADGH21PCBH8R1","either","7","","","","","","","0","1","0","","0.423693353","0.8","0.4","0.6","0.2","0.3862393514","0.2283057493","0.2700860438","0.423693353","","","","","","","","","","","76","L","3","","","80","main_expt"
"75","","bandit","159","479722","0.0-120.0-0.0","24102402","wem/bandit_either","ADGH21PCBH8R1","either","7","","","","","","","0","1","0","","0.4319112677","0.8","0.4","0.6","0.2","0.3593770893","0.2721525977","0.2642688004","0.4319112677","","","","","","","","","","","76","L","3","","","81","main_expt"
"272","","bandit","160","481505","0.0-121.0-0.0","24102402","wem/bandit_either","ADGH21PCBH8R1","either","7","","","","","","","0","0","1","","0.441827487","0.8","0.4","0.6","0.2","0.4035110645","0.2850237184","0.2824164754","0.441827487","","","","","","","","","","","76","L","3","","","82","main_expt"
"132","","bandit","161","483147","0.0-122.0-0.0","24102402","wem/bandit_either","ADGH21PCBH8R1","either","7","","","","","","","0","1","0","","0.4288861504","0.8","0.4","0.6","0.2","0.3719627038","0.3236436683","0.2819095575","0.4288861504","","","","","","","","","","","76","L","3","","","83","main_expt"
"281","","bandit","162","484939","0.0-123.0-0.0","24102402","wem/bandit_either","ADGH21PCBH8R1","either","7","","","","","","","0","1","0","","0.4350385517","0.8","0.4","0.6","0.2","0.3349288927","0.3339638593","0.2589745902","0.4350385517","","","","","","","","","","","76","L","3","","","84","main_expt"
"265","","bandit","163","486714","0.0-124.0-0.0","24102402","wem/bandit_either","ADGH21PCBH8R1","either","7","","","","","","","1","0","0","0.4255505645","","0.8","0.4","0.6","0.2","","","","","0.3247899262","0.3795022601","0.3626504113","0.4255505645","","","","","","","76","L","3","","","85","main_expt"
"291","","bandit","164","488515","0.0-125.0-0.0","24102402","wem/bandit_either","ADGH21PCBH8R1","either","7","","","","","","","0","0","1","","0.4330938692","0.8","0.4","0.6","0.2","0.3443557019","0.3835523064","0.3598915268","0.4330938692","","","","","","","","","","","76","L","3","","","86","main_expt"
"210","","bandit","165","490235","0.0-126.0-0.0","24102402","wem/bandit_either","ADGH21PCBH8R1","either","7","","","","","","","0","0","1","","0.4548398529","0.8","0.4","0.6","0.2","0.3648776167","0.3772514457","0.3433052933","0.4548398529","","","","","","","","","","","76","L","3","","","87","main_expt"
"305","","bandit","166","492050","0.0-127.0-0.0","24102402","wem/bandit_either","ADGH21PCBH8R1","either","7","","","","","","","0","1","0","","0.4493124031","0.8","0.4","0.6","0.2","0.3609631839","0.3766830519","0.4022938878","0.4493124031","","","","","","","","","","","76","L","3","","","88","main_expt"
"215","","bandit","167","493776","0.0-128.0-0.0","24102402","wem/bandit_either","ADGH21PCBH8R1","either","7","","","","","","","0","0","1","","0.4161110063","0.8","0.4","0.6","0.2","0.3636167192","0.3537755119","0.4141493151","0.4161110063","","","","","","","","","","","76","L","3","","","89","main_expt"
"245","","bandit","168","495530","0.0-129.0-0.0","24102402","wem/bandit_either","ADGH21PCBH8R1","either","7","","","","","","","1","0","0","0.405260856","","0.8","0.4","0.6","0.2","","","","","0.3563441379","0.3014761449","0.4136124289","0.405260856","","","","","","","76","L","3","","","90","main_expt"
"267","","bandit","169","497306","0.0-130.0-0.0","24102402","wem/bandit_either","ADGH21PCBH8R1","either","7","","","","","","","0","0","1","0.3827048226","","0.8","0.4","0.6","0.2","","","","","0.3389138503","0.2694038268","0.4184852842","0.3827048226","","","","","","","76","L","3","","","91","main_expt"
"170","","bandit","170","498986","0.0-131.0-0.0","24102402","wem/bandit_either","ADGH21PCBH8R1","either","7","","","","","","","0","0","1","","0.3552182969","0.8","0.4","0.6","0.2","0.3263360165","0.2651536323","0.4456808576","0.3552182969","","","","","","","","","","","76","L","3","","","92","main_expt"
"186","","bandit","171","500683","0.0-132.0-0.0","24102402","wem/bandit_either","ADGH21PCBH8R1","either","7","","","","","","","0","0","1","","0.3286897504","0.8","0.4","0.6","0.2","0.2844131911","0.1997208586","0.4355219805","0.3286897504","","","","","","","","","","","76","L","3","","","93","main_expt"
"257","","bandit","172","502451","0.0-133.0-0.0","24102402","wem/bandit_either","ADGH21PCBH8R1","either","7","","","","","","","0","0","1","","0.3422490236","0.8","0.4","0.6","0.2","0.2978465223","0.2442555344","0.4609821192","0.3422490236","","","","","","","","","","","76","L","3","","","94","main_expt"
"929","","bandit","173","504891","0.0-134.0-0.0","24102402","wem/bandit_either","ADGH21PCBH8R1","either","7","","","","","","","0","0","1","","0.2638723705","0.8","0.4","0.6","0.2","0.2638723705","0.2638839348","0.4419374505","0.3160161054","","","","","","","","","","","72","H","0","img/none_selected.jpg","","95","main_expt"
"99","","bandit","174","506497","0.0-135.0-0.0","24102402","wem/bandit_either","ADGH21PCBH8R1","either","7","","","","","","","1","0","0","0.2276010735","","0.8","0.4","0.6","0.2","","","","","0.2276010735","0.2265245807","0.39438674","0.2945538732","","","","","","","72","H","0","img/none_selected.jpg","","96","main_expt"
"256","","bandit","175","508260","0.0-136.0-0.0","24102402","wem/bandit_either","ADGH21PCBH8R1","either","7","","","","","","","0","0","1","0.2045446072","","0.8","0.4","0.6","0.2","","","","","0.2045446072","0.1969189177","0.3617668419","0.393563827","","","","","","","72","H","0","img/none_selected.jpg","","97","main_expt"
"264","","bandit","176","510033","0.0-137.0-0.0","24102402","wem/bandit_either","ADGH21PCBH8R1","either","7","","","","","","","0","0","1","0.2436418828","","0.8","0.4","0.6","0.2","","","","","0.2436418828","0.1761144245","0.3737913853","0.4046254927","","","","","","","72","H","0","img/none_selected.jpg","","98","main_expt"
"187","","bandit","177","511731","0.0-138.0-0.0","24102402","wem/bandit_either","ADGH21PCBH8R1","either","7","","","","","","","0","0","1","0.2473144087","","0.8","0.4","0.6","0.2","","","","","0.2473144087","0.1211630765","0.4221129479","0.3659012549","","","","","","","72","H","0","img/none_selected.jpg","","99","main_expt"
"186","","bandit","178","513427","0.0-139.0-0.0","24102402","wem/bandit_either","ADGH21PCBH8R1","either","7","","","","","","","0","0","1","","0.1257326749","0.8","0.4","0.6","0.2","0.2707360286","0.1257326749","0.3857893684","0.400368336","","","","","","","","","","","74","J","1","","","100","main_expt"
"16","","bandit","179","514955","0.0-140.0-0.0","24102402","wem/bandit_either","ADGH21PCBH8R1","either","7","","","","","","","1","0","0","0.09975532208","","0.8","0.4","0.6","0.2","","","","","0.3250409822","0.09975532208","0.3635527264","0.4367931528","","","","","","","74","J","1","","","101","main_expt"
"26","","bandit","180","516490","0.0-141.0-0.0","24102402","wem/bandit_either","ADGH21PCBH8R1","either","7","","","","","","","0","0","1","","0.1127414424","0.8","0.4","0.6","0.2","0.3088580598","0.1127414424","0.3738375489","0.4371155326","","","","","","","","","","","74","J","1","","","102","main_expt"
"114","","bandit","181","518116","0.0-142.0-0.0","24102402","wem/bandit_either","ADGH21PCBH8R1","either","7","","","","","","","0","0","1","","0.1232600734","0.8","0.4","0.6","0.2","0.2901001995","0.1232600734","0.3860163181","0.388648264","","","","","","","","","","","74","J","1","","","103","main_expt"
"80","","bandit","182","519707","0.0-143.0-0.0","24102402","wem/bandit_either","ADGH21PCBH8R1","either","7","","","","","","","0","0","1","0.08156843846","","0.8","0.4","0.6","0.2","","","","","0.309645936","0.08156843846","0.390692362","0.3718469433","","","","","","","74","J","1","","","104","main_expt"
"169","","bandit","183","521386","0.0-144.0-0.0","24102402","wem/bandit_either","ADGH21PCBH8R1","either","7","","","","","","","0","1","0","","0.08245659199","0.8","0.4","0.6","0.2","0.3386062745","0.08245659199","0.4139082553","0.3920304628","","","","","","","","","","","74","J","1","","","105","main_expt"
"138","","bandit","184","523035","0.0-145.0-0.0","24102402","wem/bandit_either","ADGH21PCBH8R1","either","7","","","","","","","0","0","1","0.1276639339","","0.8","0.4","0.6","0.2","","","","","0.3827539061","0.1276639339","0.3295275825","0.3733497125","","","","","","","74","J","1","","","106","main_expt"
"665","","bandit","185","525210","0.0-146.0-0.0","24102402","wem/bandit_either","ADGH21PCBH8R1","either","7","","","","","","","0","0","1","0.1812689745","","0.8","0.4","0.6","0.2","","","","","0.3401355396","0.1812689745","0.3499712774","0.3878439861","","","","","","","74","J","1","","","107","main_expt"
"251","","bandit","186","526970","0.0-147.0-0.0","24102402","wem/bandit_either","ADGH21PCBH8R1","either","7","","","","","","","0","0","1","0.2187982558","","0.8","0.4","0.6","0.2","","","","","0.3258039352","0.2187982558","0.2666891207","0.3529013302","","","","","","","74","J","1","","","108","main_expt"
"261","","bandit","187","528738","0.0-148.0-0.0","24102402","wem/bandit_either","ADGH21PCBH8R1","either","7","","","","","","","0","0","1","0.2201216928","","0.8","0.4","0.6","0.2","","","","","0.374919859","0.2201216928","0.2575067634","0.3457683734","","","","","","","74","J","1","","","109","main_expt"
"457","","bandit","188","530707","0.0-149.0-0.0","24102402","wem/bandit_either","ADGH21PCBH8R1","either","7","","","","","","","0","0","1","0.1789817232","","0.8","0.4","0.6","0.2","","","","","0.3656186065","0.1789817232","0.2664913793","0.3316873257","","","","","","","74","J","1","","","110","main_expt"
"98","","bandit","189","532315","0.0-150.0-0.0","24102402","wem/bandit_either","ADGH21PCBH8R1","either","7","","","","","","","0","1","0","","0.2404947452","0.8","0.4","0.6","0.2","0.3649701027","0.2404947452","0.2233446911","0.3434945318","","","","","","","","","","","74","J","1","","","111","main_expt"
"73","","bandit","190","533899","0.0-151.0-0.0","24102402","wem/bandit_either","ADGH21PCBH8R1","either","7","","","","","","","0","0","1","","0.2959558532","0.8","0.4","0.6","0.2","0.3371716456","0.2959558532","0.2170082082","0.2729480053","","","","","","","","","","","74","J","1","","","112","main_expt"
"328","","bandit","191","535740","0.0-152.0-0.0","24102402","wem/bandit_either","ADGH21PCBH8R1","either","7","","","","","","","0","0","1","","0.2966985553","0.8","0.4","0.6","0.2","0.2587224119","0.2966985553","0.1912277411","0.2579672073","","","","","","","","","","","74","J","1","","","113","main_expt"
"121","","bandit","192","537371","0.0-153.0-0.0","24102402","wem/bandit_either","ADGH21PCBH8R1","either","7","","","","","","","0","0","1","0.2384324947","","0.8","0.4","0.6","0.2","","","","","0.2384324947","0.3289730608","0.1691995451","0.24654084","","","","","","","72","H","0","img/none_selected.jpg","","114","main_expt"
"250","","bandit","193","539132","0.0-154.0-0.0","24102402","wem/bandit_either","ADGH21PCBH8R1","either","7","","","","","","","1","0","0","0.2705755989","","0.8","0.4","0.6","0.2","","","","","0.2705755989","0.2783705844","0.1263730162","0.246649757","","","","","","","72","H","0","img/none_selected.jpg","","115","main_expt"
"375","","bandit","194","541018","0.0-155.0-0.0","24102402","wem/bandit_either","ADGH21PCBH8R1","either","7","","","","","","","0","0","1","0.2666822","","0.8","0.4","0.6","0.2","","","","","0.2666822","0.2990421824","0.1130092975","0.2190482835","","","","","","","72","H","0","img/none_selected.jpg","","116","main_expt"
"225","","bandit","195","542755","0.0-156.0-0.0","24102402","wem/bandit_either","ADGH21PCBH8R1","either","7","","","","","","","0","0","1","0.2664749026","","0.8","0.4","0.6","0.2","","","","","0.2664749026","0.3214730448","0.1317362661","0.1860086181","","","","","","","72","H","0","img/none_selected.jpg","","117","main_expt"
"481","","bandit","196","544747","0.0-157.0-0.0","24102402","wem/bandit_either","ADGH21PCBH8R1","either","7","","","","","","","0","0","1","0.285497096","","0.8","0.4","0.6","0.2","","","","","0.285497096","0.3996160597","0.08460291254","0.1765749983","","","","","","","72","H","0","img/none_selected.jpg","","118","main_expt"
"177","","bandit","197","546434","0.0-158.0-0.0","24102402","wem/bandit_either","ADGH21PCBH8R1","either","7","","","","","","","0","0","1","0.09168363065","","0.8","0.4","0.6","0.2","","","","","0.3004427434","0.4143362638","0.09168363065","0.1840588368","","","","","","","75","K","2","","","119","main_expt"
"250","","bandit","198","548194","0.0-159.0-0.0","24102402","wem/bandit_either","ADGH21PCBH8R1","either","7","","","","","","","1","0","0","0.06729372802","","0.8","0.4","0.6","0.2","","","","","0.2419855731","0.372340151","0.06729372802","0.1988357929","","","","","","","75","K","2","","","120","main_expt"
"41","","bandit","199","549747","0.0-160.0-0.0","24102402","wem/bandit_either","ADGH21PCBH8R1","either","7","","","","","","","0","0","1","0.08346408207","","0.8","0.4","0.6","0.2","","","","","0.3054132847","0.3910424524","0.08346408207","0.2315674","","","","","","","75","K","2","","","121","main_expt"
"297","","bandit","200","551555","0.0-161.0-0.0","24102402","wem/bandit_either","ADGH21PCBH8R1","either","7","","","","","","","0","0","1","0.05632743158","","0.8","0.4","0.6","0.2","","","","","0.2473202095","0.3813410711","0.05632743158","0.2041322171","","","","","","","75","K","2","","","122","main_expt"
"281","","bandit","201","553347","0.0-162.0-0.0","24102402","wem/bandit_either","ADGH21PCBH8R1","either","7","","","","","","","1","0","0","0.05516745574","","0.8","0.4","0.6","0.2","","","","","0.2909195989","0.4247291795","0.05516745574","0.1945268209","","","","","","","75","K","2","","","123","main_expt"
"0","","bandit","202","554859","0.0-163.0-0.0","24102402","wem/bandit_either","ADGH21PCBH8R1","either","7","","","","","","","0","0","1","0.05528311039","","0.8","0.4","0.6","0.2","","","","","0.3493750294","0.4311179713","0.05528311039","0.2206749142","","","","","","","75","K","2","","","124","main_expt"
"673","","bandit","203","557043","0.0-164.0-0.0","24102402","wem/bandit_either","ADGH21PCBH8R1","either","7","","","","","","","0","0","1","0.07149807259","","0.8","0.4","0.6","0.2","","","","","0.3883668019","0.4085782939","0.07149807259","0.212012295","","","","","","","75","K","2","","","125","main_expt"
"489","","bandit","204","559044","0.0-165.0-0.0","24102402","wem/bandit_either","ADGH21PCBH8R1","either","7","","","","","","","1","0","0","0.1137803622","","0.8","0.4","0.6","0.2","","","","","0.3888129637","0.4110861309","0.1137803622","0.1656684785","","","","","","","75","K","2","","","126","main_expt"
"104","","bandit","205","560659","0.0-166.0-0.0","24102402","wem/bandit_either","ADGH21PCBH8R1","either","7","","","","","","","0","0","1","0.1003054442","","0.8","0.4","0.6","0.2","","","","","0.3659195129","0.4214671818","0.1003054442","0.1685301808","","","","","","","75","K","2","","","127","main_expt"
"932","","bandit","206","563099","0.0-167.0-0.0","24102402","wem/bandit_either","ADGH21PCBH8R1","either","7","","","","","","","0","0","1","0.1378169536","","0.8","0.4","0.6","0.2","","","","","0.3689954399","0.36889317","0.1378169536","0.1703551811","","","","","","","75","K","2","","","128","main_expt"
"544","","bandit","207","565154","0.0-168.0-0.0","24102402","wem/bandit_either","ADGH21PCBH8R1","either","7","","","","","","","0","0","1","0.1333081235","","0.8","0.4","0.6","0.2","","","","","0.3600340942","0.3840267129","0.1333081235","0.1624753709","","","","","","","75","K","2","","","129","main_expt"
"194","","bandit","208","566858","0.0-169.0-0.0","24102402","wem/bandit_either","ADGH21PCBH8R1","either","7","","","","","","","0","0","1","0.1682212827","","0.8","0.4","0.6","0.2","","","","","0.3580797835","0.3809677701","0.1682212827","0.2335662737","","","","","","","75","K","2","","","130","main_expt"
"473","","bandit","209","568842","0.0-170.0-0.0","24102402","wem/bandit_either","ADGH21PCBH8R1","either","7","","","","","","","0","1","0","","0.2193829955","0.8","0.4","0.6","0.2","0.3785893338","0.3681933818","0.2193829955","0.240441026","","","","","","","","","","","75","K","2","","","131","main_expt"
"1802","","bandit","210","572154","0.0-171.0-0.0","24102402","wem/bandit_either","ADGH21PCBH8R1","either","7","","","","","","","0","0","1","0.2693349046","","0.8","0.4","0.6","0.2","","","","","0.3764735404","0.3664045944","0.2693349046","0.2266699971","","","","","","","75","K","2","","","132","main_expt"
"1433","","bandit","211","575098","0.0-172.0-0.0","24102402","wem/bandit_either","ADGH21PCBH8R1","either","7","","","","","","","0","0","1","0.2576546077","","0.8","0.4","0.6","0.2","","","","","0.3433534211","0.4046437197","0.2576546077","0.1994193025","","","","","","","75","K","2","","","133","main_expt"
"273","","bandit","212","576882","0.0-173.0-0.0","24102402","wem/bandit_either","ADGH21PCBH8R1","either","7","","","","","","","0","0","1","","0.2412372273","0.8","0.4","0.6","0.2","0.3606247271","0.364490756","0.2412372273","0.1891464922","","","","","","","","","","","75","K","2","","","134","main_expt"
"169","","bandit","213","578564","0.0-174.0-0.0","24102402","wem/bandit_either","ADGH21PCBH8R1","either","7","","","","","","","0","0","1","0.2198641054","","0.8","0.4","0.6","0.2","","","","","0.3268624306","0.311914316","0.2198641054","0.1614798668","","","","","","","75","K","2","","","135","main_expt"
"255","","bandit","214","580330","0.0-175.0-0.0","24102402","wem/bandit_either","ADGH21PCBH8R1","either","7","","","","","","","0","1","0","","0.1880386222","0.8","0.4","0.6","0.2","0.2854606769","0.2653901568","0.2504132697","0.1880386222","","","","","","","","","","","76","L","3","","","136","main_expt"
"265","","bandit","215","582106","0.0-176.0-0.0","24102402","wem/bandit_either","ADGH21PCBH8R1","either","7","","","","","","","0","0","1","","0.1961818793","0.8","0.4","0.6","0.2","0.3311747399","0.2413295316","0.1912230989","0.1961818793","","","","","","","","","","","76","L","3","","","137","main_expt"
"281","","bandit","216","583900","0.0-177.0-0.0","24102402","wem/bandit_either","ADGH21PCBH8R1","either","7","","","","","","","0","0","1","","0.2857678963","0.8","0.4","0.6","0.2","0.2570785188","0.2060295423","0.1576256809","0.2857678963","","","","","","","","","","","76","L","3","","","138","main_expt"
"162","","bandit","217","585570","0.0-178.0-0.0","24102402","wem/bandit_either","ADGH21PCBH8R1","either","7","","","","","","","0","1","0","","0.3449131854","0.8","0.4","0.6","0.2","0.2858060749","0.1809645164","0.1019788138","0.3449131854","","","","","","","","","","","76","L","3","","","139","main_expt"
"249","","bandit","218","587331","0.0-179.0-0.0","24102402","wem/bandit_either","ADGH21PCBH8R1","either","7","","","","","","","0","0","1","","0.2537716732","0.8","0.4","0.6","0.2","0.2975559752","0.1843216893","0.07754087054","0.2537716732","","","","","","","","","","","76","L","3","","","140","main_expt"
"249","","bandit","219","589091","0.0-180.0-0.0","24102402","wem/bandit_either","ADGH21PCBH8R1","either","7","","","","","","","0","0","1","0.2858111263","","0.8","0.4","0.6","0.2","","","","","0.2802168405","0.1651876155","0.09489610577","0.2858111263","","","","","","","76","L","3","","","141","main_expt"
"217","","bandit","220","590819","0.0-181.0-0.0","24102402","wem/bandit_either","ADGH21PCBH8R1","either","7","","","","","","","0","1","0","","0.303049367","0.8","0.4","0.6","0.2","0.2231986748","0.1536427928","0.09601428546","0.303049367","","","","","","","","","","","76","L","3","","","142","main_expt"
"201","","bandit","221","592530","0.0-182.0-0.0","24102402","wem/bandit_either","ADGH21PCBH8R1","either","7","","","","","","","0","0","1","","0.2969419413","0.8","0.4","0.6","0.2","0.2032880393","0.1546140226","0.08301142993","0.2969419413","","","","","","","","","","","76","L","3","","","143","main_expt"
"591","","bandit","222","594634","0.0-183.0-0.0","24102402","wem/bandit_either","ADGH21PCBH8R1","either","7","","","","","","","0","0","1","","0.3128690494","0.8","0.4","0.6","0.2","0.1967741464","0.1746031107","0.09599686985","0.3128690494","","","","","","","","","","","76","L","3","","","144","main_expt"
"409","","bandit","223","596554","0.0-184.0-0.0","24102402","wem/bandit_either","ADGH21PCBH8R1","either","7","","","","","","","0","0","1","","0.2991796355","0.8","0.4","0.6","0.2","0.2283154954","0.2021387556","0.07499383622","0.2991796355","","","","","","","","","","","76","L","3","","","145","main_expt"
"1360","","bandit","224","599426","0.0-185.0-0.0","24102402","wem/bandit_either","ADGH21PCBH8R1","either","7","","","","","","","0","1","0","","0.3163763193","0.8","0.4","0.6","0.2","0.2118700154","0.2504344391","0.09566861","0.3163763193","","","","","","","","","","","76","L","3","","","146","main_expt"
"177","","bandit","225","601115","0.0-186.0-0.0","24102402","wem/bandit_either","ADGH21PCBH8R1","either","7","","","","","","","0","0","1","","0.3198025905","0.8","0.4","0.6","0.2","0.210437557","0.2437718569","0.08578591382","0.3198025905","","","","","","","","","","","76","L","3","","","147","main_expt"
"8","","bandit","226","602634","0.0-187.0-0.0","24102402","wem/bandit_either","ADGH21PCBH8R1","either","7","","","","","","","0","0","1","","0.2588245921","0.8","0.4","0.6","0.2","0.2370661354","0.2446677265","0.1147887709","0.2588245921","","","","","","","","","","","76","L","3","","","148","main_expt"
"250","","bandit","227","604394","0.0-188.0-0.0","24102402","wem/bandit_either","ADGH21PCBH8R1","either","7","","","","","","","0","0","1","","0.248712437","0.8","0.4","0.6","0.2","0.2430363771","0.2911002833","0.1378203382","0.248712437","","","","","","","","","","","76","L","3","","","149","main_expt"
"0","","bandit","228","605906","0.0-189.0-0.0","24102402","wem/bandit_either","ADGH21PCBH8R1","either","7","","","","","","","0","0","1","","0.179144869","0.8","0.4","0.6","0.2","0.2242182381","0.3529655025","0.1414499273","0.179144869","","","","","","","","","","","76","L","3","","","150","main_expt"
"292","","bandit","229","607708","0.0-190.0-0.0","24102402","wem/bandit_either","ADGH21PCBH8R1","either","7","","","","","","","0","0","1","","0.1545669956","0.8","0.4","0.6","0.2","0.1997145133","0.3885741111","0.07852348772","0.1545669956","","","","","","","","","","","76","L","3","","","151","main_expt"
"1320","","bandit","230","610539","0.0-191.0-0.0","24102402","wem/bandit_either","ADGH21PCBH8R1","either","7","","","","","","","0","0","1","0.2195927633","","0.8","0.4","0.6","0.2","","","","","0.2195927633","0.3690499696","0.08485793113","0.1651714415","","","","","","","72","H","0","img/none_selected.jpg","","152","main_expt"
"283","","bandit","231","612330","0.0-192.0-0.0","24102402","wem/bandit_either","ADGH21PCBH8R1","either","7","","","","","","","0","0","1","0.2121816628","","0.8","0.4","0.6","0.2","","","","","0.2121816628","0.3710492515","0.1083789561","0.2396245514","","","","","","","72","H","0","img/none_selected.jpg","","153","main_expt"
"225","","bandit","232","614066","0.0-193.0-0.0","24102402","wem/bandit_either","ADGH21PCBH8R1","either","7","","","","","","","0","0","1","0.1830588608","","0.8","0.4","0.6","0.2","","","","","0.1830588608","0.3483335413","0.109098481","0.2085838567","","","","","","","72","H","0","img/none_selected.jpg","","154","main_expt"
"251","","bandit","233","615826","0.0-194.0-0.0","24102402","wem/bandit_either","ADGH21PCBH8R1","either","7","","","","","","","0","0","1","0.2031423662","","0.8","0.4","0.6","0.2","","","","","0.2031423662","0.3343760247","0.1758262092","0.1864274254","","","","","","","72","H","0","img/none_selected.jpg","","155","main_expt"
"241","","bandit","234","617579","0.0-195.0-0.0","24102402","wem/bandit_either","ADGH21PCBH8R1","either","7","","","","","","","1","0","0","0.3742013553","","0.8","0.4","0.6","0.2","","","","","0.2022731065","0.3742013553","0.2046597001","0.1750870897","","","","","","","74","J","1","","","156","main_expt"
"143","","bandit","235","619235","0.0-196.0-0.0","24102402","wem/bandit_either","ADGH21PCBH8R1","either","7","","","","","","","0","0","1","0.3620366094","","0.8","0.4","0.6","0.2","","","","","0.1826661219","0.3620366094","0.1774751899","0.1321985386","","","","","","","74","J","1","","","157","main_expt"
"152","","bandit","236","620899","0.0-197.0-0.0","24102402","wem/bandit_either","ADGH21PCBH8R1","either","7","","","","","","","0","1","0","","0.3671714071","0.8","0.4","0.6","0.2","0.1658993888","0.3671714071","0.1612033886","0.1341899746","","","","","","","","","","","74","J","1","","","158","main_expt"
"223","","bandit","237","622636","0.0-198.0-0.0","24102402","wem/bandit_either","ADGH21PCBH8R1","either","7","","","","","","","0","1","0","","0.4015988616","0.8","0.4","0.6","0.2","0.1620079643","0.4015988616","0.1586838935","0.1567784951","","","","","","","","","","","74","J","1","","","159","main_expt"
"195","","bandit","238","624339","0.0-199.0-0.0","24102402","wem/bandit_either","ADGH21PCBH8R1","either","7","","","","","","","0","0","1","0.4004877553","","0.8","0.4","0.6","0.2","","","","","0.2453635642","0.4004877553","0.2159944071","0.1615549635","","","","","","","74","J","1","","","160","main_expt"
"222","","bandit","239","626075","0.0-200.0-0.0","24102402","wem/bandit_either","ADGH21PCBH8R1","either","7","","","","","","","0","1","0","","0.4095849454","0.8","0.4","0.6","0.2","0.2456373749","0.4095849454","0.2105769377","0.1854631015","","","","","","","","","","","74","J","1","","","161","main_expt"
"168","","bandit","240","627755","0.0-201.0-0.0","24102402","wem/bandit_either","ADGH21PCBH8R1","either","7","","","","","","","0","0","1","","0.3978002783","0.8","0.4","0.6","0.2","0.2460125232","0.3978002783","0.2006925765","0.21229469","","","","","","","","","","","74","J","1","","","162","main_expt"
"56","","bandit","241","629323","0.0-202.0-0.0","24102402","wem/bandit_either","ADGH21PCBH8R1","either","7","","","","","","","1","0","0","0.4180552148","","0.8","0.4","0.6","0.2","","","","","0.2013568893","0.4180552148","0.2365124807","0.162194177","","","","","","","74","J","1","","","163","main_expt"
"112","","bandit","242","630947","0.0-203.0-0.0","24102402","wem/bandit_either","ADGH21PCBH8R1","either","7","","","","","","","1","0","0","0.4407560021","","0.8","0.4","0.6","0.2","","","","","0.1933595846","0.4407560021","0.2157370886","0.1535707797","","","","","","","74","J","1","","","164","main_expt"
"279","","bandit","243","632739","0.0-204.0-0.0","24102402","wem/bandit_either","ADGH21PCBH8R1","either","7","","","","","","","0","1","0","","0.4582960521","0.8","0.4","0.6","0.2","0.167552211","0.4582960521","0.2166787898","0.2315934193","","","","","","","","","","","74","J","1","","","165","main_expt"
"480","","bandit","244","634730","0.0-205.0-0.0","24102402","wem/bandit_either","ADGH21PCBH8R1","either","7","","","","","","","0","1","0","","0.4337500892","0.8","0.4","0.6","0.2","0.1311237951","0.4337500892","0.1846262972","0.2579087381","","","","","","","","","","","74","J","1","","","166","main_expt"
"311","","bandit","245","636555","0.0-206.0-0.0","24102402","wem/bandit_either","ADGH21PCBH8R1","either","7","","","","","","","0","0","1","","0.4537582576","0.8","0.4","0.6","0.2","0.1714029316","0.4537582576","0.1888750078","0.2496457694","","","","","","","","","","","74","J","1","","","167","main_expt"
"377","","bandit","246","638442","0.0-207.0-0.0","24102402","wem/bandit_either","ADGH21PCBH8R1","either","7","","","","","","","0","0","1","","0.4473485534","0.8","0.4","0.6","0.2","0.1494402723","0.4473485534","0.2315683769","0.234558796","","","","","","","","","","","74","J","1","","","168","main_expt"
"327","","bandit","247","640283","0.0-208.0-0.0","24102402","wem/bandit_either","ADGH21PCBH8R1","either","7","","","","","","","0","0","1","","0.4471591033","0.8","0.4","0.6","0.2","0.1819888556","0.4471591033","0.2018123945","0.2458600006","","","","","","","","","","","74","J","1","","","169","main_expt"
"2232","","bandit","248","644027","0.0-209.0-0.0","24102402","wem/bandit_either","ADGH21PCBH8R1","either","7","","","","","","","0","0","1","","0.4581839475","0.8","0.4","0.6","0.2","0.2329206984","0.4581839475","0.139238222","0.2214583157","","","","","","","","","","","74","J","1","","","170","main_expt"
"584","","bandit","249","646123","0.0-210.0-0.0","24102402","wem/bandit_either","ADGH21PCBH8R1","either","7","","","","","","","0","0","1","","0.4674995421","0.8","0.4","0.6","0.2","0.2000607923","0.4674995421","0.1466511374","0.296208115","","","","","","","","","","","74","J","1","","","171","main_expt"
"428","","bandit","250","648059","0.0-211.0-0.0","24102402","wem/bandit_either","ADGH21PCBH8R1","either","7","","","","","","","0","0","1","","0.4455620345","0.8","0.4","0.6","0.2","0.2342957318","0.4455620345","0.1348290388","0.3062379281","","","","","","","","","","","74","J","1","","","172","main_expt"
"484","","bandit","251","650051","0.0-212.0-0.0","24102402","wem/bandit_either","ADGH21PCBH8R1","either","7","","","","","","","0","0","1","0.4471610379","","0.8","0.4","0.6","0.2","","","","","0.2189308077","0.4471610379","0.1521691919","0.2498067723","","","","","","","74","J","1","","","173","main_expt"
"156","","bandit","252","651714","0.0-213.0-0.0","24102402","wem/bandit_either","ADGH21PCBH8R1","either","7","","","","","","","0","0","1","0.4496576915","","0.8","0.4","0.6","0.2","","","","","0.2373932689","0.4496576915","0.2191935525","0.1803522277","","","","","","","74","J","1","","","174","main_expt"
"303","","bandit","253","653531","0.0-214.0-0.0","24102402","wem/bandit_either","ADGH21PCBH8R1","either","7","","","","","","","0","0","1","","0.4715297358","0.8","0.4","0.6","0.2","0.2160264752","0.4715297358","0.219961305","0.2014319342","","","","","","","","","","","74","J","1","","","175","main_expt"
"201","","bandit","254","655242","0.0-215.0-0.0","24102402","wem/bandit_either","ADGH21PCBH8R1","either","7","","","","","","","0","1","0","","0.477956151","0.8","0.4","0.6","0.2","0.1990604306","0.477956151","0.1882485239","0.2122003168","","","","","","","","","","","74","J","1","","","176","main_expt"
"7","","bandit","255","656762","0.0-216.0-0.0","24102402","wem/bandit_either","ADGH21PCBH8R1","either","7","","","","","","","0","0","1","0.4563721206","","0.8","0.4","0.6","0.2","","","","","0.1729978196","0.4563721206","0.1644902553","0.2629069455","","","","","","","74","J","1","","","177","main_expt"
"352","","bandit","256","658627","0.0-217.0-0.0","24102402","wem/bandit_either","ADGH21PCBH8R1","either","7","","","","","","","1","0","0","0.4409869931","","0.8","0.4","0.6","0.2","","","","","0.1633080779","0.4409869931","0.1713669852","0.2336104206","","","","","","","74","J","1","","","178","main_expt"
"214","","bandit","257","660355","0.0-218.0-0.0","24102402","wem/bandit_either","ADGH21PCBH8R1","either","7","","","","","","","0","0","1","0.4243126063","","0.8","0.4","0.6","0.2","","","","","0.1243251356","0.4243126063","0.2263400462","0.1887504226","","","","","","","74","J","1","","","179","main_expt"
"296","","bandit","258","662162","0.0-219.0-0.0","24102402","wem/bandit_either","ADGH21PCBH8R1","either","7","","","","","","","0","0","1","0.4312830743","","0.8","0.4","0.6","0.2","","","","","0.1150149055","0.4312830743","0.2036870175","0.138376641","","","","","","","74","J","1","","","180","main_expt"
"320","","bandit","259","663995","0.0-220.0-0.0","24102402","wem/bandit_either","ADGH21PCBH8R1","either","7","","","","","","","0","1","0","","0.4433127893","0.8","0.4","0.6","0.2","0.1407924877","0.4433127893","0.1934599198","0.1883992559","","","","","","","","","","","74","J","1","","","181","main_expt"
"175","","bandit","260","665683","0.0-221.0-0.0","24102402","wem/bandit_either","ADGH21PCBH8R1","either","7","","","","","","","0","0","1","","0.440136403","0.8","0.4","0.6","0.2","0.09672650852","0.440136403","0.2424515525","0.128889003","","","","","","","","","","","74","J","1","","","182","main_expt"
"294","","bandit","261","667490","0.0-222.0-0.0","24102402","wem/bandit_either","ADGH21PCBH8R1","either","7","","","","","","","0","0","1","","0.4347693449","0.8","0.4","0.6","0.2","0.09888002855","0.4347693449","0.1961777535","0.1748769843","","","","","","","","","","","74","J","1","","","183","main_expt"
"264","","bandit","262","669267","0.0-223.0-0.0","24102402","wem/bandit_either","ADGH21PCBH8R1","either","7","","","","","","","0","0","1","","0.4277130926","0.8","0.4","0.6","0.2","0.07200145298","0.4277130926","0.1489283113","0.1945994373","","","","","","","","","","","74","J","1","","","184","main_expt"
"286","","bandit","263","671068","0.0-224.0-0.0","24102402","wem/bandit_either","ADGH21PCBH8R1","either","7","","","","","","","0","0","1","0.3956248437","","0.8","0.4","0.6","0.2","","","","","0.09476413333","0.3956248437","0.1499965078","0.1644748654","","","","","","","74","J","1","","","185","main_expt"
"47","","bandit","264","672627","0.0-225.0-0.0","24102402","wem/bandit_either","ADGH21PCBH8R1","either","7","","","","","","","0","0","1","0.2169832988","","0.8","0.4","0.6","0.2","","","","","0.06556422103","0.3748928266","0.2169832988","0.1504635592","","","","","","","75","K","2","","","186","main_expt"
"223","","bandit","265","674363","0.0-226.0-0.0","24102402","wem/bandit_either","ADGH21PCBH8R1","either","7","","","","","","","0","1","0","","0.2655186329","0.8","0.4","0.6","0.2","0.08901149072","0.3848139325","0.2655186329","0.1760039214","","","","","","","","","","","75","K","2","","","187","main_expt"
"287","","bandit","266","676163","0.0-227.0-0.0","24102402","wem/bandit_either","ADGH21PCBH8R1","either","7","","","","","","","0","0","1","","0.2738785118","0.8","0.4","0.6","0.2","0.09471428588","0.3990176401","0.2738785118","0.1203267588","","","","","","","","","","","75","K","2","","","188","main_expt"
"286","","bandit","267","677963","0.0-228.0-0.0","24102402","wem/bandit_either","ADGH21PCBH8R1","either","7","","","","","","","1","0","0","0.3041874674","","0.8","0.4","0.6","0.2","","","","","0.05118235823","0.3581396838","0.3041874674","0.1171540391","","","","","","","75","K","2","","","189","main_expt"
"280","","bandit","268","679755","0.0-229.0-0.0","24102402","wem/bandit_either","ADGH21PCBH8R1","either","7","","","","","","","1","0","0","0.3229453735","","0.8","0.4","0.6","0.2","","","","","0.05788318751","0.2882972244","0.3229453735","0.1535230761","","","","","","","75","K","2","","","190","main_expt"
"398","","bandit","269","681666","0.0-230.0-0.0","24102402","wem/bandit_either","ADGH21PCBH8R1","either","7","","","","","","","1","0","0","0.3818249757","","0.8","0.4","0.6","0.2","","","","","0.08736915481","0.3145326233","0.3818249757","0.1372750947","","","","","","","75","K","2","","","191","main_expt"
"96","","bandit","270","683275","0.0-231.0-0.0","24102402","wem/bandit_either","ADGH21PCBH8R1","either","7","","","","","","","0","0","1","0.4157726243","","0.8","0.4","0.6","0.2","","","","","0.08251019118","0.3270603702","0.4157726243","0.1047771501","","","","","","","75","K","2","","","192","main_expt"
"79","","bandit","271","684866","0.0-232.0-0.0","24102402","wem/bandit_either","ADGH21PCBH8R1","either","7","","","","","","","0","1","0","","0.4611608212","0.8","0.4","0.6","0.2","0.06897628064","0.3604030797","0.4611608212","0.1100845432","","","","","","","","","","","75","K","2","","","193","main_expt"
"1016","","bandit","272","687394","0.0-233.0-0.0","24102402","wem/bandit_either","ADGH21PCBH8R1","either","7","","","","","","","0","0","1","0.4508818777","","0.8","0.4","0.6","0.2","","","","","0.06801266305","0.357423186","0.4508818777","0.1468163818","","","","","","","75","K","2","","","194","main_expt"
"96","","bandit","273","689002","0.0-234.0-0.0","24102402","wem/bandit_either","ADGH21PCBH8R1","either","7","","","","","","","1","0","0","0.4278921451","","0.8","0.4","0.6","0.2","","","","","0.09923709358","0.3697779856","0.4278921451","0.1495594621","","","","","","","75","K","2","","","195","main_expt"
"368","","bandit","274","690884","0.0-235.0-0.0","24102402","wem/bandit_either","ADGH21PCBH8R1","either","7","","","","","","","0","0","1","0.4256293003","","0.8","0.4","0.6","0.2","","","","","0.1103063831","0.3617177512","0.4256293003","0.2263220537","","","","","","","75","K","2","","","196","main_expt"
"429","","bandit","275","692826","0.0-236.0-0.0","24102402","wem/bandit_either","ADGH21PCBH8R1","either","7","","","","","","","0","1","0","","0.4476975038","0.8","0.4","0.6","0.2","0.07377144043","0.3775990084","0.4476975038","0.2204718804","","","","","","","","","","","75","K","2","","","197","main_expt"
"143","","bandit","276","694483","0.0-237.0-0.0","24102402","wem/bandit_either","ADGH21PCBH8R1","either","7","","","","","","","0","0","1","0.4434357272","","0.8","0.4","0.6","0.2","","","","","0.08863448313","0.4144042571","0.4434357272","0.2401118457","","","","","","","75","K","2","","","198","main_expt"
"454","","bandit","277","696451","0.0-238.0-0.0","24102402","wem/bandit_either","ADGH21PCBH8R1","either","7","","","","","","","0","0","1","0.4245114622","","0.8","0.4","0.6","0.2","","","","","0.1082179128","0.4081775392","0.4245114622","0.2673724497","","","","","","","75","K","2","","","199","main_expt"
"2183","","bandit","278","700147","0.0-239.0-0.0","24102402","wem/bandit_either","ADGH21PCBH8R1","either","7","","","","","","","1","0","0","0.4087100315","","0.8","0.4","0.6","0.2","","","","","0.09350688576","0.4166156547","0.4087100315","0.3125307902","","","","","","","75","K","2","","","200","main_expt"
"3030","","bandit","279","704691","0.0-240.0-0.0","24102402","wem/bandit_either","ADGH21PCBH8R1","either","7","","","","","","","0","0","1","0.4361521275","","0.8","0.4","0.6","0.2","","","","","0.1036625099","0.4306537176","0.4361521275","0.2914574258","","","","","","","75","K","2","","","201","main_expt"
"263","","bandit","280","706468","0.0-241.0-0.0","24102402","wem/bandit_either","ADGH21PCBH8R1","either","7","","","","","","","0","0","1","0.3332596158","","0.8","0.4","0.6","0.2","","","","","0.1216733889","0.449382563","0.3332596158","0.2550600684","","","","","","","75","K","2","","","202","main_expt"
"189","","bandit","281","708170","0.0-242.0-0.0","24102402","wem/bandit_either","ADGH21PCBH8R1","either","7","","","","","","","0","1","0","","0.3581848779","0.8","0.4","0.6","0.2","0.120655788","0.4506576586","0.3581848779","0.2769745997","","","","","","","","","","","75","K","2","","","203","main_expt"
"248","","bandit","282","709930","0.0-243.0-0.0","24102402","wem/bandit_either","ADGH21PCBH8R1","either","7","","","","","","","0","0","1","0.3597133043","","0.8","0.4","0.6","0.2","","","","","0.1082970726","0.454839243","0.3597133043","0.2752990059","","","","","","","75","K","2","","","204","main_expt"
"95","","bandit","283","711540","0.0-244.0-0.0","24102402","wem/bandit_either","ADGH21PCBH8R1","either","7","","","","","","","1","0","0","0.3630183988","","0.8","0.4","0.6","0.2","","","","","0.09143681274","0.4512889682","0.3630183988","0.2901512169","","","","","","","75","K","2","","","205","main_expt"
"239","","bandit","284","713292","0.0-245.0-0.0","24102402","wem/bandit_either","ADGH21PCBH8R1","either","7","","","","","","","1","0","0","0.3737494834","","0.8","0.4","0.6","0.2","","","","","0.08377413986","0.4591490044","0.3737494834","0.2823763913","","","","","","","75","K","2","","","206","main_expt"
"10","","bandit","285","714811","0.0-246.0-0.0","24102402","wem/bandit_either","ADGH21PCBH8R1","either","7","","","","","","","0","1","0","","0.3668784438","0.8","0.4","0.6","0.2","0.1585073664","0.4650593633","0.3668784438","0.2708062506","","","","","","","","","","","75","K","2","","","207","main_expt"
"335","","bandit","286","716659","0.0-247.0-0.0","24102402","wem/bandit_either","ADGH21PCBH8R1","either","7","","","","","","","0","0","1","","0.4045351895","0.8","0.4","0.6","0.2","0.162299901","0.4641513068","0.4045351895","0.2641553663","","","","","","","","","","","75","K","2","","","208","main_expt"
"422","","bandit","287","718594","0.0-248.0-0.0","24102402","wem/bandit_either","ADGH21PCBH8R1","either","7","","","","","","","0","0","1","0.4402386934","","0.8","0.4","0.6","0.2","","","","","0.1542266077","0.4567807332","0.4402386934","0.2704675845","","","","","","","75","K","2","","","209","main_expt"
"351","","bandit","288","720459","0.0-249.0-0.0","24102402","wem/bandit_either","ADGH21PCBH8R1","either","7","","","","","","","0","0","1","0.4483623408","","0.8","0.4","0.6","0.2","","","","","0.1890415559","0.428253188","0.4483623408","0.3420868926","","","","","","","75","K","2","","","210","main_expt"
"302","","bandit","289","722274","0.0-250.0-0.0","24102402","wem/bandit_either","ADGH21PCBH8R1","either","7","","","","","","","0","1","0","","0.4471415093","0.8","0.4","0.6","0.2","0.1818133019","0.410271385","0.4471415093","0.3069688952","","","","","","","","","","","75","K","2","","","211","main_expt"
"263","","bandit","290","724051","0.0-251.0-0.0","24102402","wem/bandit_either","ADGH21PCBH8R1","either","7","","","","","","","0","0","1","","0.4374655127","0.8","0.4","0.6","0.2","0.1782747956","0.4065587724","0.4374655127","0.3005379093","","","","","","","","","","","75","K","2","","","212","main_expt"
"214","","bandit","291","725779","0.0-252.0-0.0","24102402","wem/bandit_either","ADGH21PCBH8R1","either","7","","","","","","","1","0","0","0.4381457257","","0.8","0.4","0.6","0.2","","","","","0.1935195711","0.4007116542","0.4381457257","0.213882915","","","","","","","75","K","2","","","213","main_expt"
"45","","bandit","292","727339","0.0-253.0-0.0","24102402","wem/bandit_either","ADGH21PCBH8R1","either","7","","","","","","","0","1","0","","0.4643769008","0.8","0.4","0.6","0.2","0.2421176173","0.4246209323","0.4643769008","0.2138557204","","","","","","","","","","","75","K","2","","","214","main_expt"
"62","","bandit","293","728914","0.0-254.0-0.0","24102402","wem/bandit_either","ADGH21PCBH8R1","either","7","","","","","","","1","0","0","0.4328812357","","0.8","0.4","0.6","0.2","","","","","0.2629876012","0.3993057066","0.4328812357","0.2142566612","","","","","","","75","K","2","","","215","main_expt"
"63","","bandit","294","730491","0.0-255.0-0.0","24102402","wem/bandit_either","ADGH21PCBH8R1","either","7","","","","","","","0","0","1","","0.4064507999","0.8","0.4","0.6","0.2","0.2977714141","0.3987772474","0.4064507999","0.1900351118","","","","","","","","","","","75","K","2","","","216","main_expt"
"406","","bandit","295","732412","0.0-256.0-0.0","24102402","wem/bandit_either","ADGH21PCBH8R1","either","7","","","","","","","0","0","1","0.4197961641","","0.8","0.4","0.6","0.2","","","","","0.3017601552","0.4101433534","0.4197961641","0.2185169477","","","","","","","75","K","2","","","217","main_expt"
"469","","bandit","296","734394","0.0-257.0-0.0","24102402","wem/bandit_either","ADGH21PCBH8R1","either","7","","","","","","","0","1","0","","0.4167397569","0.8","0.4","0.6","0.2","0.2888566207","0.4448029092","0.4167397569","0.2240895604","","","","","","","","","","","75","K","2","","","218","main_expt"
"285","","bandit","297","736195","0.0-258.0-0.0","24102402","wem/bandit_either","ADGH21PCBH8R1","either","7","","","","","","","0","1","0","","0.4250944588","0.8","0.4","0.6","0.2","0.2844008008","0.4454766299","0.4250944588","0.1990808675","","","","","","","","","","","75","K","2","","","219","main_expt"
"136","","bandit","298","737845","0.0-259.0-0.0","24102402","wem/bandit_either","ADGH21PCBH8R1","either","7","","","","","","","0","0","1","0.4173336587","","0.8","0.4","0.6","0.2","","","","","0.2225062479","0.4610997771","0.4173336587","0.266602996","","","","","","","75","K","2","","","220","main_expt"
"299","","bandit","299","739660","0.0-260.0-0.0","24102402","wem/bandit_either","ADGH21PCBH8R1","either","7","","","","","","","0","1","0","","0.3944711005","0.8","0.4","0.6","0.2","0.2409900116","0.4642289789","0.3944711005","0.2443661227","","","","","","","","","","","75","K","2","","","221","main_expt"
"166","","bandit","300","741341","0.0-261.0-0.0","24102402","wem/bandit_either","ADGH21PCBH8R1","either","7","","","","","","","0","0","1","","0.3619306912","0.8","0.4","0.6","0.2","0.1989678636","0.4641270597","0.3619306912","0.2205922116","","","","","","","","","","","75","K","2","","","222","main_expt"
"204","","bandit","301","743059","0.0-262.0-0.0","24102402","wem/bandit_either","ADGH21PCBH8R1","either","7","","","","","","","0","0","1","0.4117842179","","0.8","0.4","0.6","0.2","","","","","0.1902867071","0.4697433819","0.4117842179","0.1861223506","","","","","","","75","K","2","","","223","main_expt"
"278","","bandit","302","744852","0.0-263.0-0.0","24102402","wem/bandit_either","ADGH21PCBH8R1","either","7","","","","","","","0","0","1","0.3965092367","","0.8","0.4","0.6","0.2","","","","","0.2076415522","0.460898083","0.3965092367","0.1668884863","","","","","","","75","K","2","","","224","main_expt"
"93","","bandit","303","746459","0.0-264.0-0.0","24102402","wem/bandit_either","ADGH21PCBH8R1","either","7","","","","","","","1","0","0","0.4084477862","","0.8","0.4","0.6","0.2","","","","","0.2393469174","0.4394890665","0.4084477862","0.1481472712","","","","","","","75","K","2","","","225","main_expt"
"286","","bandit","304","748260","0.0-265.0-0.0","24102402","wem/bandit_either","ADGH21PCBH8R1","either","7","","","","","","","0","0","1","0.4104601526","","0.8","0.4","0.6","0.2","","","","","0.2425440376","0.4520955237","0.4104601526","0.1140846591","","","","","","","75","K","2","","","226","main_expt"
"161","","bandit","305","749931","0.0-266.0-0.0","24102402","wem/bandit_either","ADGH21PCBH8R1","either","7","","","","","","","1","0","0","0.3899733519","","0.8","0.4","0.6","0.2","","","","","0.2365603363","0.4324220164","0.3899733519","0.1074218354","","","","","","","75","K","2","","","227","main_expt"
"250","","bandit","306","751689","0.0-267.0-0.0","24102402","wem/bandit_either","ADGH21PCBH8R1","either","7","","","","","","","1","0","0","0.3796730737","","0.8","0.4","0.6","0.2","","","","","0.2127958296","0.4220482421","0.3796730737","0.08065165665","","","","","","","75","K","2","","","228","main_expt"
"128","","bandit","307","753330","0.0-268.0-0.0","24102402","wem/bandit_either","ADGH21PCBH8R1","either","7","","","","","","","0","1","0","","0.4046866514","0.8","0.4","0.6","0.2","0.2207861463","0.3885749154","0.4046866514","0.07774059362","","","","","","","","","","","75","K","2","","","229","main_expt"
"229","","bandit","308","755075","0.0-269.0-0.0","24102402","wem/bandit_either","ADGH21PCBH8R1","either","7","","","","","","","0","0","1","0.3988793555","","0.8","0.4","0.6","0.2","","","","","0.2589226453","0.4023755806","0.3988793555","0.1109483114","","","","","","","75","K","2","","","230","main_expt"
"230","","bandit","309","756818","0.0-270.0-0.0","24102402","wem/bandit_either","ADGH21PCBH8R1","either","7","","","","","","","0","0","1","0.3981898202","","0.8","0.4","0.6","0.2","","","","","0.2956158432","0.3768725222","0.3981898202","0.05902300203","","","","","","","75","K","2","","","231","main_expt"
"406","","bandit","310","758739","0.0-271.0-0.0","24102402","wem/bandit_either","ADGH21PCBH8R1","either","7","","","","","","","1","0","0","0.4411941832","","0.8","0.4","0.6","0.2","","","","","0.3202484073","0.3619917427","0.4411941832","0.06675855664","","","","","","","75","K","2","","","232","main_expt"
"934","","bandit","311","761186","0.0-272.0-0.0","24102402","wem/bandit_either","ADGH21PCBH8R1","either","7","","","","","","","0","0","1","","0.42967461","0.8","0.4","0.6","0.2","0.2933644042","0.3833578816","0.42967461","0.06703699679","","","","","","","","","","","75","K","2","","","233","main_expt"
"671","","bandit","312","763371","0.0-273.0-0.0","24102402","wem/bandit_either","ADGH21PCBH8R1","either","7","","","","","","","0","0","1","0.4242798354","","0.8","0.4","0.6","0.2","","","","","0.3106154811","0.3552131768","0.4242798354","0.05331023031","","","","","","","75","K","2","","","234","main_expt"
"422","","bandit","313","765307","0.0-274.0-0.0","24102402","wem/bandit_either","ADGH21PCBH8R1","either","7","","","","","","","1","0","0","0.4617388459","","0.8","0.4","0.6","0.2","","","","","0.3158990995","0.3135084543","0.4617388459","0.05187545802","","","","","","","75","K","2","","","235","main_expt"
"486","","bandit","314","767308","0.0-275.0-0.0","24102402","wem/bandit_either","ADGH21PCBH8R1","either","7","","","","","","","0","0","1","0.4619510484","","0.8","0.4","0.6","0.2","","","","","0.3036927748","0.244945467","0.4619510484","0.06939909985","","","","","","","75","K","2","","","236","main_expt"
"165","","bandit","315","768987","0.0-276.0-0.0","24102402","wem/bandit_either","ADGH21PCBH8R1","either","7","","","","","","","0","0","1","","0.4482398789","0.8","0.4","0.6","0.2","0.3491021326","0.1823839079","0.4482398789","0.1210409879","","","","","","","","","","","75","K","2","","","237","main_expt"
"85","","bandit","316","770586","0.0-277.0-0.0","24102402","wem/bandit_either","ADGH21PCBH8R1","either","7","","","","","","","0","0","1","","0.4193969143","0.8","0.4","0.6","0.2","0.3939254097","0.1685050226","0.4193969143","0.1147840357","","","","","","","","","","","75","K","2","","","238","main_expt"
"215","","bandit","317","772314","0.0-278.0-0.0","24102402","wem/bandit_either","ADGH21PCBH8R1","either","7","","","","","","","0","0","1","0.4203848948","","0.8","0.4","0.6","0.2","","","","","0.379108978","0.1606472637","0.4203848948","0.1006463842","","","","","","","75","K","2","","","239","main_expt"
"141","","bandit","318","773971","0.0-279.0-0.0","24102402","wem/bandit_either","ADGH21PCBH8R1","either","7","","","","","","","1","0","0","0.4489383263","","0.8","0.4","0.6","0.2","","","","","0.3876209848","0.1512795466","0.4489383263","0.1008771133","","","","","","","75","K","2","","","240","main_expt"
"237","","bandit","319","775723","0.0-280.0-0.0","24102402","wem/bandit_either","ADGH21PCBH8R1","either","7","","","","","","","1","0","0","0.4636195567","","0.8","0.4","0.6","0.2","","","","","0.3839625774","0.1916219391","0.4636195567","0.09981833296","","","","","","","75","K","2","","","241","main_expt"
"210","","bandit","320","777443","0.0-281.0-0.0","24102402","wem/bandit_either","ADGH21PCBH8R1","either","7","","","","","","","0","0","1","0.4575307695","","0.8","0.4","0.6","0.2","","","","","0.3477958629","0.1641013935","0.4575307695","0.1171772993","","","","","","","75","K","2","","","242","main_expt"
"282","","bandit","321","779236","0.0-282.0-0.0","24102402","wem/bandit_either","ADGH21PCBH8R1","either","7","","","","","","","0","1","0","","0.4449554393","0.8","0.4","0.6","0.2","0.3500658948","0.2064320789","0.4449554393","0.1239984651","","","","","","","","","","","75","K","2","","","243","main_expt"
"252","","bandit","322","781003","0.0-283.0-0.0","24102402","wem/bandit_either","ADGH21PCBH8R1","either","7","","","","","","","0","0","1","0.4525763452","","0.8","0.4","0.6","0.2","","","","","0.3452717574","0.2205496082","0.4525763452","0.1126152289","","","","","","","75","K","2","","","244","main_expt"
"382","","bandit","323","782900","0.0-284.0-0.0","24102402","wem/bandit_either","ADGH21PCBH8R1","either","7","","","","","","","0","1","0","","0.4753838692","0.8","0.4","0.6","0.2","0.3162288444","0.214276823","0.4753838692","0.1524829061","","","","","","","","","","","75","K","2","","","245","main_expt"
"291","","bandit","324","784706","0.0-285.0-0.0","24102402","wem/bandit_either","ADGH21PCBH8R1","either","7","","","","","","","0","0","1","0.4623654582","","0.8","0.4","0.6","0.2","","","","","0.2894596967","0.2084567316","0.4623654582","0.1921750243","","","","","","","75","K","2","","","246","main_expt"
"573","","bandit","325","786796","0.0-286.0-0.0","24102402","wem/bandit_either","ADGH21PCBH8R1","either","7","","","","","","","0","0","1","0.4331165165","","0.8","0.4","0.6","0.2","","","","","0.2642296388","0.2232303491","0.4331165165","0.1931065189","","","","","","","75","K","2","","","247","main_expt"
"509","","bandit","326","788819","0.0-287.0-0.0","24102402","wem/bandit_either","ADGH21PCBH8R1","either","7","","","","","","","0","0","1","0.4401602984","","0.8","0.4","0.6","0.2","","","","","0.2534255255","0.2541796534","0.4401602984","0.2189994516","","","","","","","75","K","2","","","248","main_expt"
"301","","bandit","327","790636","0.0-288.0-0.0","24102402","wem/bandit_either","ADGH21PCBH8R1","either","7","","","","","","","0","0","1","0.430892824","","0.8","0.4","0.6","0.2","","","","","0.2252980971","0.232462199","0.430892824","0.1989243371","","","","","","","75","K","2","","","249","main_expt"
"92","","bandit","328","792244","0.0-289.0-0.0","24102402","wem/bandit_either","ADGH21PCBH8R1","either","7","","","","","","","0","0","1","0.4282509168","","0.8","0.4","0.6","0.2","","","","","0.298830738","0.2877664065","0.4282509168","0.1635706079","","","","","","","75","K","2","","","250","main_expt"
"133","","bandit","329","793891","0.0-290.0-0.0","24102402","wem/bandit_either","ADGH21PCBH8R1","either","7","","","","","","","0","1","0","","0.1738575253","0.8","0.4","0.6","0.2","0.3113207693","0.2947451014","0.4499649657","0.1738575253","","","","","","","","","","","76","L","3","","","251","main_expt"
"275","","bandit","330","795683","0.0-291.0-0.0","24102402","wem/bandit_either","ADGH21PCBH8R1","either","7","","","","","","","0","1","0","","0.1868362494","0.8","0.4","0.6","0.2","0.2952600368","0.2581410112","0.458069626","0.1868362494","","","","","","","","","","","76","L","3","","","252","main_expt"
"222","","bandit","331","797418","0.0-292.0-0.0","24102402","wem/bandit_either","ADGH21PCBH8R1","either","7","","","","","","","0","0","1","","0.1888839862","0.8","0.4","0.6","0.2","0.2837805879","0.2526573277","0.4419078322","0.1888839862","","","","","","","","","","","76","L","3","","","253","main_expt"
"222","","bandit","332","799154","0.0-293.0-0.0","24102402","wem/bandit_either","ADGH21PCBH8R1","either","7","","","","","","","0","0","1","","0.1763585164","0.8","0.4","0.6","0.2","0.2664224025","0.2625272406","0.4374591364","0.1763585164","","","","","","","","","","","76","L","3","","","254","main_expt"
"112","","bandit","333","800779","0.0-294.0-0.0","24102402","wem/bandit_either","ADGH21PCBH8R1","either","7","","","","","","","0","0","1","0.2068017429","","0.8","0.4","0.6","0.2","","","","","0.2691363883","0.2433387163","0.4296106105","0.2068017429","","","","","","","76","L","3","","","255","main_expt"
