"rt","responses","trial_type","trial_index","time_elapsed","internal_node_id","subjID","study","MID","cond","drift","key_press","expt_phase","target","like","value","connected","respCharCode","respKey","respChoiceNum","respChoice","gems","bombs","no_reward","GemPrChosen","BombPrChosen","practice","trial_counter","WinPr_0","LosePr_0","trial_label","GainOverPainPr_0","WinPr_1","GainOverPainPr_1","LosePr_1","LosePr_2","GainOverPainPr_2","LosePr_3","GainOverPainPr_3","WinPr_2","WinPr_3","Q0","Q1","Q2","gender","age","ethnicity"
"2220","{""Q0"":""ABMX8XUNPR3LP""}","survey-text","0","2230","0.0-0.0","28218986","wem/bandit_either","ABMX8XUNPR3LP","either","5","","","","","","","","","","","","","","","","","","","","","","","","","","","","","","","","","","","",""
"7576","","text","1","10901","0.0-1.0","28218986","wem/bandit_either","ABMX8XUNPR3LP","either","5","32","","","","","","","","","","","","","","","","","","","","","","","","","","","","","","","","","","",""
"4020","","text","2","14924","0.0-2.0","28218986","wem/bandit_either","ABMX8XUNPR3LP","either","5","32","","","","","","","","","","","","","","","","","","","","","","","","","","","","","","","","","","",""
"8180","","text","3","23106","0.0-3.0","28218986","wem/bandit_either","ABMX8XUNPR3LP","either","5","32","","","","","","","","","","","","","","","","","","","","","","","","","","","","","","","","","","",""
"12653","","text","4","35763","0.0-4.0","28218986","wem/bandit_either","ABMX8XUNPR3LP","either","5","32","","","","","","","","","","","","","","","","","","","","","","","","","","","","","","","","","","",""
"9015","","text","5","44783","0.0-5.0","28218986","wem/bandit_either","ABMX8XUNPR3LP","either","5","32","","","","","","","","","","","","","","","","","","","","","","","","","","","","","","","","","","",""
"6443","","text","6","51229","0.0-6.0","28218986","wem/bandit_either","ABMX8XUNPR3LP","either","5","32","","","","","","","","","","","","","","","","","","","","","","","","","","","","","","","","","","",""
"3708","","text","7","54942","0.0-7.0","28218986","wem/bandit_either","ABMX8XUNPR3LP","either","5","32","","","","","","","","","","","","","","","","","","","","","","","","","","","","","","","","","","",""
"9109","","identification","8","64095","0.0-8.0-0.0","28218986","wem/bandit_either","ABMX8XUNPR3LP","either","5","","identification_pre","the village of Zur","0","0","0","","","","","","","","","","","","","","","","","","","","","","","","","","","","","",""
"6794","","identification","9","71912","0.0-8.0-1.0","28218986","wem/bandit_either","ABMX8XUNPR3LP","either","5","","identification_pre","the village of Nyx","6","6","6","","","","","","","","","","","","","","","","","","","","","","","","","","","","","",""
"4781","","text","10","77779","0.0-9.0","28218986","wem/bandit_either","ABMX8XUNPR3LP","either","5","32","","","","","","","","","","","","","","","","","","","","","","","","","","","","","","","","","","",""
"2181","","text","11","79964","0.0-10.0","28218986","wem/bandit_either","ABMX8XUNPR3LP","either","5","32","","","","","","","","","","","","","","","","","","","","","","","","","","","","","","","","","","",""
"1491","","text","12","81459","0.0-11.0","28218986","wem/bandit_either","ABMX8XUNPR3LP","either","5","32","","","","","","","","","","","","","","","","","","","","","","","","","","","","","","","","","","",""
"3710","","text","13","85171","0.0-12.0","28218986","wem/bandit_either","ABMX8XUNPR3LP","either","5","32","","","","","","","","","","","","","","","","","","","","","","","","","","","","","","","","","","",""
"1894","","bandit","14","88586","0.0-13.0-0.0","28218986","wem/bandit_either","ABMX8XUNPR3LP","either","5","","","","","","","74","J","0","img/none_selected_demo.jpg","0","0","1","0","0","true","0","0","0","","","","","","","","","","","","","","","","",""
"893","","bandit","15","91048","0.0-14.0-0.0","28218986","wem/bandit_either","ABMX8XUNPR3LP","either","5","","","","","","","75","K","0","img/none_selected_demo.jpg","0","0","1","0","0","true","0","0","0","","","","","","","","","","","","","","","","",""
"5995","","text","16","97047","0.0-15.0","28218986","wem/bandit_either","ABMX8XUNPR3LP","either","5","32","","","","","","","","","","","","","","","","","","","","","","","","","","","","","","","","","","",""
"7456","","text","17","104510","0.0-16.0","28218986","wem/bandit_either","ABMX8XUNPR3LP","either","5","32","","","","","","","","","","","","","","","","","","","","","","","","","","","","","","","","","","",""
"5299","","text","18","109812","0.0-17.0","28218986","wem/bandit_either","ABMX8XUNPR3LP","either","5","32","","","","","","","","","","","","","","","","","","","","","","","","","","","","","","","","","","",""
"1807","","text","19","111621","0.0-18.0","28218986","wem/bandit_either","ABMX8XUNPR3LP","either","5","32","","","","","","","","","","","","","","","","","","","","","","","","","","","","","","","","","","",""
"1469","","bandit","20","114608","0.0-19.0-0.0","28218986","wem/bandit_either","ABMX8XUNPR3LP","either","5","","","","","","","74","J","0","img/none_selected_demo.jpg","0","0","1","0.8","","true","0","0.8","","80_20_practice","0.5","0.2","0.5","","","","","","","","","","","","",""
"342","","bandit","21","116475","0.0-19.0-1.0","28218986","wem/bandit_either","ABMX8XUNPR3LP","either","5","","","","","","","75","K","1","","0","0","1","0.2","","true","0","0.8","","80_20_practice","0.5","0.2","0.5","","","","","","","","","","","","",""
"333","","bandit","22","118326","0.0-19.0-2.0","28218986","wem/bandit_either","ABMX8XUNPR3LP","either","5","","","","","","","75","K","1","","0","0","1","","0.2","true","0","","0.8","80_20_practice","0.5","","0.5","0.2","","","","","","","","","","","",""
"311","","bandit","23","120163","0.0-19.0-3.0","28218986","wem/bandit_either","ABMX8XUNPR3LP","either","5","","","","","","","74","J","0","img/none_selected_demo.jpg","1","0","0","0.8","","true","0","0.8","","80_20_practice","0.5","0.2","0.5","","","","","","","","","","","","",""
"328","","bandit","24","122069","0.0-19.0-4.0","28218986","wem/bandit_either","ABMX8XUNPR3LP","either","5","","","","","","","75","K","1","","0","0","1","0.2","","true","0","0.8","","80_20_practice","0.5","0.2","0.5","","","","","","","","","","","","",""
"272","","bandit","25","124064","0.0-19.0-5.0","28218986","wem/bandit_either","ABMX8XUNPR3LP","either","5","","","","","","","74","J","0","img/none_selected_demo.jpg","0","0","1","0.8","","true","0","0.8","","80_20_practice","0.5","0.2","0.5","","","","","","","","","","","","",""
"126","","bandit","26","125708","0.0-19.0-6.0","28218986","wem/bandit_either","ABMX8XUNPR3LP","either","5","","","","","","","75","K","1","","0","0","1","0.2","","true","0","0.8","","80_20_practice","0.5","0.2","0.5","","","","","","","","","","","","",""
"181","","bandit","27","127413","0.0-19.0-7.0","28218986","wem/bandit_either","ABMX8XUNPR3LP","either","5","","","","","","","74","J","0","img/none_selected_demo.jpg","0","0","1","","0.8","true","0","","0.8","80_20_practice","0.5","","0.5","0.2","","","","","","","","","","","",""
"174","","bandit","28","129137","0.0-19.0-8.0","28218986","wem/bandit_either","ABMX8XUNPR3LP","either","5","","","","","","","75","K","1","","0","0","1","0.2","","true","0","0.8","","80_20_practice","0.5","0.2","0.5","","","","","","","","","","","","",""
"138","","bandit","29","130807","0.0-19.0-9.0","28218986","wem/bandit_either","ABMX8XUNPR3LP","either","5","","","","","","","74","J","0","img/none_selected_demo.jpg","1","0","0","0.8","","true","0","0.8","","80_20_practice","0.5","0.2","0.5","","","","","","","","","","","","",""
"290","","bandit","30","132630","0.0-19.0-10.0","28218986","wem/bandit_either","ABMX8XUNPR3LP","either","5","","","","","","","74","J","0","img/none_selected_demo.jpg","0","1","0","","0.8","true","0","","0.8","80_20_practice","0.5","","0.5","0.2","","","","","","","","","","","",""
"340","","bandit","31","134491","0.0-19.0-11.0","28218986","wem/bandit_either","ABMX8XUNPR3LP","either","5","","","","","","","74","J","0","img/none_selected_demo.jpg","0","1","0","","0.8","true","0","","0.8","80_20_practice","0.5","","0.5","0.2","","","","","","","","","","","",""
"278","","bandit","32","136336","0.0-19.0-12.0","28218986","wem/bandit_either","ABMX8XUNPR3LP","either","5","","","","","","","74","J","0","img/none_selected_demo.jpg","1","0","0","0.8","","true","0","0.8","","80_20_practice","0.5","0.2","0.5","","","","","","","","","","","","",""
"149","","bandit","33","138092","0.0-19.0-13.0","28218986","wem/bandit_either","ABMX8XUNPR3LP","either","5","","","","","","","74","J","0","img/none_selected_demo.jpg","1","0","0","0.8","","true","0","0.8","","80_20_practice","0.5","0.2","0.5","","","","","","","","","","","","",""
"136","","bandit","34","139741","0.0-19.0-14.0","28218986","wem/bandit_either","ABMX8XUNPR3LP","either","5","","","","","","","74","J","0","img/none_selected_demo.jpg","0","1","0","","0.8","true","0","","0.8","80_20_practice","0.5","","0.5","0.2","","","","","","","","","","","",""
"137","","bandit","35","141397","0.0-19.0-15.0","28218986","wem/bandit_either","ABMX8XUNPR3LP","either","5","","","","","","","74","J","0","img/none_selected_demo.jpg","1","0","0","0.8","","true","0","0.8","","80_20_practice","0.5","0.2","0.5","","","","","","","","","","","","",""
"253","","bandit","36","143176","0.0-19.0-16.0","28218986","wem/bandit_either","ABMX8XUNPR3LP","either","5","","","","","","","74","J","0","img/none_selected_demo.jpg","0","1","0","","0.8","true","0","","0.8","80_20_practice","0.5","","0.5","0.2","","","","","","","","","","","",""
"276","","bandit","37","144979","0.0-19.0-17.0","28218986","wem/bandit_either","ABMX8XUNPR3LP","either","5","","","","","","","74","J","0","img/none_selected_demo.jpg","0","1","0","","0.8","true","0","","0.8","80_20_practice","0.5","","0.5","0.2","","","","","","","","","","","",""
"197","","bandit","38","146805","0.0-19.0-18.0","28218986","wem/bandit_either","ABMX8XUNPR3LP","either","5","","","","","","","74","J","0","img/none_selected_demo.jpg","0","1","0","","0.8","true","0","","0.8","80_20_practice","0.5","","0.5","0.2","","","","","","","","","","","",""
"270","","bandit","39","148603","0.0-19.0-19.0","28218986","wem/bandit_either","ABMX8XUNPR3LP","either","5","","","","","","","74","J","0","img/none_selected_demo.jpg","0","1","0","","0.8","true","0","","0.8","80_20_practice","0.5","","0.5","0.2","","","","","","","","","","","",""
"4386","","text","40","153002","0.0-20.0","28218986","wem/bandit_either","ABMX8XUNPR3LP","either","5","32","","","","","","","","","","","","","","","","","","","","","","","","","","","","","","","","","","",""
"1341","","bandit","41","155894","0.0-21.0-0.0","28218986","wem/bandit_either","ABMX8XUNPR3LP","either","5","","","","","","","74","J","0","img/none_selected_demo.jpg","1","0","0","1","0","true","0","1","0","","","0","","1","","","","","","","","","","","",""
"4401","","text","42","160299","0.0-22.0","28218986","wem/bandit_either","ABMX8XUNPR3LP","either","5","32","","","","","","","","","","","","","","","","","","","","","","","","","","","","","","","","","","",""
"2333","","text","43","162637","0.0-23.0","28218986","wem/bandit_either","ABMX8XUNPR3LP","either","5","32","","","","","","","","","","","","","","","","","","","","","","","","","","","","","","","","","","",""
"1665","","text","44","164307","0.0-24.0","28218986","wem/bandit_either","ABMX8XUNPR3LP","either","5","32","","","","","","","","","","","","","","","","","","","","","","","","","","","","","","","","","","",""
"1907","","text","45","166219","0.0-25.0","28218986","wem/bandit_either","ABMX8XUNPR3LP","either","5","32","","","","","","","","","","","","","","","","","","","","","","","","","","","","","","","","","","",""
"3068","","text","46","169291","0.0-26.0","28218986","wem/bandit_either","ABMX8XUNPR3LP","either","5","32","","","","","","","","","","","","","","","","","","","","","","","","","","","","","","","","","","",""
"1813","","text","47","171109","0.0-27.0","28218986","wem/bandit_either","ABMX8XUNPR3LP","either","5","32","","","","","","","","","","","","","","","","","","","","","","","","","","","","","","","","","","",""
"2119","","text","48","173234","0.0-28.0","28218986","wem/bandit_either","ABMX8XUNPR3LP","either","5","32","","","","","","","","","","","","","","","","","","","","","","","","","","","","","","","","","","",""
"2399","","text","49","175636","0.0-29.0","28218986","wem/bandit_either","ABMX8XUNPR3LP","either","5","32","","","","","","","","","","","","","","","","","","","","","","","","","","","","","","","","","","",""
"2412","","text","50","178054","0.0-30.0","28218986","wem/bandit_either","ABMX8XUNPR3LP","either","5","32","","","","","","","","","","","","","","","","","","","","","","","","","","","","","","","","","","",""
"1498","","text","51","179566","0.0-31.0","28218986","wem/bandit_either","ABMX8XUNPR3LP","either","5","32","","","","","","","","","","","","","","","","","","","","","","","","","","","","","","","","","","",""
"3917","","text","52","183491","0.0-32.0","28218986","wem/bandit_either","ABMX8XUNPR3LP","either","5","32","","","","","","","","","","","","","","","","","","","","","","","","","","","","","","","","","","",""
"834","","bandit","53","185863","0.0-33.0-0.0","28218986","wem/bandit_either","ABMX8XUNPR3LP","either","5","","","","","","","72","H","0","img/none_selected.jpg","0","1","0","","0.8","true","0","","0.8","full_practice","0.5","","0.5","0.2","0.6","0.5","0.2","0.5","","","","","","","",""
"315","","bandit","54","187781","0.0-33.0-1.0","28218986","wem/bandit_either","ABMX8XUNPR3LP","either","5","","","","","","","74","J","1","","0","0","1","","0.2","true","0","","0.8","full_practice","0.5","","0.5","0.2","0.6","0.5","0.2","0.5","","","","","","","",""
"430","","bandit","55","189739","0.0-33.0-2.0","28218986","wem/bandit_either","ABMX8XUNPR3LP","either","5","","","","","","","75","K","2","","0","0","1","0.6","","true","0","0.8","","full_practice","0.5","0.2","0.5","","","0.5","","0.5","0.6","0.2","","","","","",""
"290","","bandit","56","191548","0.0-33.0-3.0","28218986","wem/bandit_either","ABMX8XUNPR3LP","either","5","","","","","","","76","L","3","","0","0","1","","0.2","true","0","","0.8","full_practice","0.5","","0.5","0.2","0.6","0.5","0.2","0.5","","","","","","","",""
"338","","bandit","57","193409","0.0-33.0-4.0","28218986","wem/bandit_either","ABMX8XUNPR3LP","either","5","","","","","","","72","H","0","img/none_selected.jpg","1","0","0","0.8","","true","0","0.8","","full_practice","0.5","0.2","0.5","","","0.5","","0.5","0.6","0.2","","","","","",""
"265","","bandit","58","195290","0.0-33.0-5.0","28218986","wem/bandit_either","ABMX8XUNPR3LP","either","5","","","","","","","72","H","0","img/none_selected.jpg","0","1","0","","0.8","true","0","","0.8","full_practice","0.5","","0.5","0.2","0.6","0.5","0.2","0.5","","","","","","","",""
"298","","bandit","59","197151","0.0-33.0-6.0","28218986","wem/bandit_either","ABMX8XUNPR3LP","either","5","","","","","","","72","H","0","img/none_selected.jpg","1","0","0","0.8","","true","0","0.8","","full_practice","0.5","0.2","0.5","","","0.5","","0.5","0.6","0.2","","","","","",""
"305","","bandit","60","198990","0.0-33.0-7.0","28218986","wem/bandit_either","ABMX8XUNPR3LP","either","5","","","","","","","72","H","0","img/none_selected.jpg","0","1","0","","0.8","true","0","","0.8","full_practice","0.5","","0.5","0.2","0.6","0.5","0.2","0.5","","","","","","","",""
"329","","bandit","61","200841","0.0-33.0-8.0","28218986","wem/bandit_either","ABMX8XUNPR3LP","either","5","","","","","","","72","H","0","img/none_selected.jpg","1","0","0","0.8","","true","0","0.8","","full_practice","0.5","0.2","0.5","","","0.5","","0.5","0.6","0.2","","","","","",""
"316","","bandit","62","202715","0.0-33.0-9.0","28218986","wem/bandit_either","ABMX8XUNPR3LP","either","5","","","","","","","72","H","0","img/none_selected.jpg","0","1","0","","0.8","true","0","","0.8","full_practice","0.5","","0.5","0.2","0.6","0.5","0.2","0.5","","","","","","","",""
"311","","bandit","63","204545","0.0-33.0-10.0","28218986","wem/bandit_either","ABMX8XUNPR3LP","either","5","","","","","","","72","H","0","img/none_selected.jpg","0","1","0","","0.8","true","0","","0.8","full_practice","0.5","","0.5","0.2","0.6","0.5","0.2","0.5","","","","","","","",""
"307","","bandit","64","206372","0.0-33.0-11.0","28218986","wem/bandit_either","ABMX8XUNPR3LP","either","5","","","","","","","72","H","0","img/none_selected.jpg","1","0","0","0.8","","true","0","0.8","","full_practice","0.5","0.2","0.5","","","0.5","","0.5","0.6","0.2","","","","","",""
"314","","bandit","65","208223","0.0-33.0-12.0","28218986","wem/bandit_either","ABMX8XUNPR3LP","either","5","","","","","","","72","H","0","img/none_selected.jpg","0","1","0","","0.8","true","0","","0.8","full_practice","0.5","","0.5","0.2","0.6","0.5","0.2","0.5","","","","","","","",""
"281","","bandit","66","210029","0.0-33.0-13.0","28218986","wem/bandit_either","ABMX8XUNPR3LP","either","5","","","","","","","72","H","0","img/none_selected.jpg","1","0","0","0.8","","true","0","0.8","","full_practice","0.5","0.2","0.5","","","0.5","","0.5","0.6","0.2","","","","","",""
"296","","bandit","67","211899","0.0-33.0-14.0","28218986","wem/bandit_either","ABMX8XUNPR3LP","either","5","","","","","","","72","H","0","img/none_selected.jpg","0","0","1","","0.8","true","0","","0.8","full_practice","0.5","","0.5","0.2","0.6","0.5","0.2","0.5","","","","","","","",""
"275","","bandit","68","213720","0.0-33.0-15.0","28218986","wem/bandit_either","ABMX8XUNPR3LP","either","5","","","","","","","72","H","0","img/none_selected.jpg","0","1","0","","0.8","true","0","","0.8","full_practice","0.5","","0.5","0.2","0.6","0.5","0.2","0.5","","","","","","","",""
"324","","bandit","69","215575","0.0-33.0-16.0","28218986","wem/bandit_either","ABMX8XUNPR3LP","either","5","","","","","","","72","H","0","img/none_selected.jpg","0","1","0","","0.8","true","0","","0.8","full_practice","0.5","","0.5","0.2","0.6","0.5","0.2","0.5","","","","","","","",""
"906","","bandit","70","218154","0.0-33.0-17.0","28218986","wem/bandit_either","ABMX8XUNPR3LP","either","5","","","","","","","72","H","0","img/none_selected.jpg","0","0","1","","0.8","true","0","","0.8","full_practice","0.5","","0.5","0.2","0.6","0.5","0.2","0.5","","","","","","","",""
"1472","","bandit","71","221158","0.0-33.0-18.0","28218986","wem/bandit_either","ABMX8XUNPR3LP","either","5","","","","","","","72","H","0","img/none_selected.jpg","0","1","0","","0.8","true","0","","0.8","full_practice","0.5","","0.5","0.2","0.6","0.5","0.2","0.5","","","","","","","",""
"320","","bandit","72","223189","0.0-33.0-19.0","28218986","wem/bandit_either","ABMX8XUNPR3LP","either","5","","","","","","","72","H","0","img/none_selected.jpg","1","0","0","0.8","","true","0","0.8","","full_practice","0.5","0.2","0.5","","","0.5","","0.5","0.6","0.2","","","","","",""
"2246","","text","73","225445","0.0-34.0","28218986","wem/bandit_either","ABMX8XUNPR3LP","either","5","32","","","","","","","","","","","","","","","","","","","","","","","","","","","","","","","","","","",""
"10377","","text","74","236830","0.0-35.0","28218986","wem/bandit_either","ABMX8XUNPR3LP","either","5","32","","","","","","","","","","","","","","","","","","","","","","","","","","","","","","","","","","",""
"7391","","text","75","244231","0.0-36.0","28218986","wem/bandit_either","ABMX8XUNPR3LP","either","5","32","","","","","","","","","","","","","","","","","","","","","","","","","","","","","","","","","","",""
"5919","","text","76","250163","0.0-37.0","28218986","wem/bandit_either","ABMX8XUNPR3LP","either","5","32","","","","","","","","","","","","","","","","","","","","","","","","","","","","","","","","","","",""
"3468","","text","77","253647","0.0-38.0","28218986","wem/bandit_either","ABMX8XUNPR3LP","either","5","32","","","","","","","","","","","","","","","","","","","","","","","","","","","","","","","","","","",""
"2150","","text","78","255811","0.0-39.0","28218986","wem/bandit_either","ABMX8XUNPR3LP","either","5","32","","","","","","","","","","","","","","","","","","","","","","","","","","","","","","","","","","",""
"2602","","bandit","79","259946","0.0-40.0-0.0","28218986","wem/bandit_either","ABMX8XUNPR3LP","either","5","","","","","","","72","H","0","img/none_selected.jpg","1","0","0","0.3340388524","","","1","0.3340388524","","main_expt","0.8","0.1165465043","0.2","","","0.6","","0.4","0.3897275569","0.4265570961","","","","","",""
"369","","bandit","80","261854","0.0-41.0-0.0","28218986","wem/bandit_either","ABMX8XUNPR3LP","either","5","","","","","","","72","H","0","img/none_selected.jpg","0","0","1","0.3223834482","","","2","0.3223834482","","main_expt","0.8","0.08371899021","0.2","","","0.6","","0.4","0.3911966266","0.4177099958","","","","","",""
"310","","bandit","81","263711","0.0-42.0-0.0","28218986","wem/bandit_either","ABMX8XUNPR3LP","either","5","","","","","","","72","H","0","img/none_selected.jpg","1","0","0","0.3585509001","","","3","0.3585509001","","main_expt","0.8","0.04339790364","0.2","","","0.6","","0.4","0.4074861021","0.4192185534","","","","","",""
"274","","bandit","82","265516","0.0-43.0-0.0","28218986","wem/bandit_either","ABMX8XUNPR3LP","either","5","","","","","","","72","H","0","img/none_selected.jpg","0","0","1","","0.3416436242","","4","","0.3416436242","main_expt","0.8","","0.2","0.04073472785","0.3965638453","0.6","0.4241610434","0.4","","","","","","","",""
"280","","bandit","83","267341","0.0-44.0-0.0","28218986","wem/bandit_either","ABMX8XUNPR3LP","either","5","","","","","","","72","H","0","img/none_selected.jpg","0","1","0","","0.3444758892","","5","","0.3444758892","main_expt","0.8","","0.2","0.04731773769","0.3688269119","0.6","0.4284837315","0.4","","","","","","","",""
"270","","bandit","84","269256","0.0-45.0-0.0","28218986","wem/bandit_either","ABMX8XUNPR3LP","either","5","","","","","","","72","H","0","img/none_selected.jpg","0","0","1","","0.3574177426","","6","","0.3574177426","main_expt","0.8","","0.2","0.05617088868","0.3865867917","0.6","0.4328708062","0.4","","","","","","","",""
"274","","bandit","85","271092","0.0-46.0-0.0","28218986","wem/bandit_either","ABMX8XUNPR3LP","either","5","","","","","","","72","H","0","img/none_selected.jpg","1","0","0","0.3634052143","","","7","0.3634052143","","main_expt","0.8","0.05606577856","0.2","","","0.6","","0.4","0.4294719924","0.4176545671","","","","","",""
"396","","bandit","86","273016","0.0-47.0-0.0","28218986","wem/bandit_either","ABMX8XUNPR3LP","either","5","","","","","","","74","J","1","","0","0","1","","0.09244853328","","8","","0.3675420607","main_expt","0.8","","0.2","0.09244853328","0.4210378118","0.6","0.4022395488","0.4","","","","","","","",""
"119","","bandit","87","274663","0.0-48.0-0.0","28218986","wem/bandit_either","ABMX8XUNPR3LP","either","5","","","","","","","75","K","2","","0","0","1","","0.4502112583","","9","","0.3921196104","main_expt","0.8","","0.2","0.1271341085","0.4502112583","0.6","0.3929004949","0.4","","","","","","","",""
"333","","bandit","88","276518","0.0-49.0-0.0","28218986","wem/bandit_either","ABMX8XUNPR3LP","either","5","","","","","","","76","L","3","","0","0","1","0.3863711448","","","10","0.4026182126","","main_expt","0.8","0.1370717255","0.2","","","0.6","","0.4","0.4452653155","0.3863711448","","","","","",""
"162","","bandit","89","278224","0.0-50.0-0.0","28218986","wem/bandit_either","ABMX8XUNPR3LP","either","5","","","","","","","72","H","0","img/none_selected.jpg","1","0","0","0.3543069494","","","11","0.3543069494","","main_expt","0.8","0.1275050207","0.2","","","0.6","","0.4","0.4352349267","0.4205849279","","","","","",""
"378","","bandit","90","280122","0.0-51.0-0.0","28218986","wem/bandit_either","ABMX8XUNPR3LP","either","5","","","","","","","72","H","0","img/none_selected.jpg","0","0","1","0.3504097904","","","12","0.3504097904","","main_expt","0.8","0.122317004","0.2","","","0.6","","0.4","0.4029030639","0.4525069231","","","","","",""
"288","","bandit","91","282042","0.0-52.0-0.0","28218986","wem/bandit_either","ABMX8XUNPR3LP","either","5","","","","","","","72","H","0","img/none_selected.jpg","0","0","1","0.2787441393","","","13","0.2787441393","","main_expt","0.8","0.1251711411","0.2","","","0.6","","0.4","0.4198147105","0.4485799753","","","","","",""
"317","","bandit","92","283919","0.0-53.0-0.0","28218986","wem/bandit_either","ABMX8XUNPR3LP","either","5","","","","","","","74","J","1","","0","1","0","","0.1380641988","","14","","0.2723245106","main_expt","0.8","","0.2","0.1380641988","0.3761312174","0.6","0.4504049656","0.4","","","","","","","",""
"277","","bandit","93","285723","0.0-54.0-0.0","28218986","wem/bandit_either","ABMX8XUNPR3LP","either","5","","","","","","","74","J","1","","0","0","1","0.2010812313","","","15","0.3687644442","","main_expt","0.8","0.2010812313","0.2","","","0.6","","0.4","0.4017507227","0.4281165459","","","","","",""
"176","","bandit","94","287429","0.0-55.0-0.0","28218986","wem/bandit_either","ABMX8XUNPR3LP","either","5","","","","","","","74","J","1","","0","0","1","","0.1747275657","","16","","0.3992289848","main_expt","0.8","","0.2","0.1747275657","0.3859888637","0.6","0.4035101098","0.4","","","","","","","",""
"357","","bandit","95","289320","0.0-56.0-0.0","28218986","wem/bandit_either","ABMX8XUNPR3LP","either","5","","","","","","","75","K","2","","0","0","1","0.3706978481","","","17","0.4067061876","","main_expt","0.8","0.1816524112","0.2","","","0.6","","0.4","0.3706978481","0.4063691663","","","","","",""
"663","","bandit","96","291513","0.0-57.0-0.0","28218986","wem/bandit_either","ABMX8XUNPR3LP","either","5","","","","","","","76","L","3","","0","1","0","","0.4201618032","","18","","0.3969002131","main_expt","0.8","","0.2","0.1700798448","0.3323991027","0.6","0.4201618032","0.4","","","","","","","",""
"431","","bandit","97","293476","0.0-58.0-0.0","28218986","wem/bandit_either","ABMX8XUNPR3LP","either","5","","","","","","","76","L","3","","0","1","0","","0.3868389751","","19","","0.3930099592","main_expt","0.8","","0.2","0.1998500639","0.3301718366","0.6","0.3868389751","0.4","","","","","","","",""
"352","","bandit","98","295358","0.0-59.0-0.0","28218986","wem/bandit_either","ABMX8XUNPR3LP","either","5","","","","","","","76","L","3","","0","0","1","0.3868875991","","","20","0.3791602553","","main_expt","0.8","0.2418808817","0.2","","","0.6","","0.4","0.3714618997","0.3868875991","","","","","",""
"286","","bandit","99","297208","0.0-60.0-0.0","28218986","wem/bandit_either","ABMX8XUNPR3LP","either","5","","","","","","","76","L","3","","0","0","1","","0.4253770554","","21","","0.4127515201","main_expt","0.8","","0.2","0.2293341009","0.3621694591","0.6","0.4253770554","0.4","","","","","","","",""
"516","","bandit","100","299294","0.0-61.0-0.0","28218986","wem/bandit_either","ABMX8XUNPR3LP","either","5","","","","","","","72","H","0","img/none_selected.jpg","0","0","1","0.4164833055","","","22","0.4164833055","","main_expt","0.8","0.2074184163","0.2","","","0.6","","0.4","0.3648829928","0.4285762007","","","","","",""
"217","","bandit","101","301042","0.0-62.0-0.0","28218986","wem/bandit_either","ABMX8XUNPR3LP","either","5","","","","","","","74","J","1","","0","0","1","","0.1832507358","","23","","0.4143027846","main_expt","0.8","","0.2","0.1832507358","0.2856994719","0.6","0.4082522222","0.4","","","","","","","",""
"224","","bandit","102","302958","0.0-63.0-0.0","28218986","wem/bandit_either","ABMX8XUNPR3LP","either","5","","","","","","","75","K","2","","0","0","1","","0.3152516524","","24","","0.3649270698","main_expt","0.8","","0.2","0.1469425149","0.3152516524","0.6","0.4027270218","0.4","","","","","","","",""
"244","","bandit","103","304730","0.0-64.0-0.0","28218986","wem/bandit_either","ABMX8XUNPR3LP","either","5","","","","","","","76","L","3","","0","1","0","","0.4100212433","","25","","0.392676409","main_expt","0.8","","0.2","0.102794739","0.2778145345","0.6","0.4100212433","0.4","","","","","","","",""
"393","","bandit","104","306690","0.0-65.0-0.0","28218986","wem/bandit_either","ABMX8XUNPR3LP","either","5","","","","","","","76","L","3","","0","0","1","","0.4190791169","","26","","0.4031565401","main_expt","0.8","","0.2","0.1173732637","0.3170506137","0.6","0.4190791169","0.4","","","","","","","",""
"318","","bandit","105","308664","0.0-66.0-0.0","28218986","wem/bandit_either","ABMX8XUNPR3LP","either","5","","","","","","","76","L","3","","0","1","0","","0.4527212376","","27","","0.4245959001","main_expt","0.8","","0.2","0.08835016803","0.3223143746","0.6","0.4527212376","0.4","","","","","","","",""
"425","","bandit","106","310617","0.0-67.0-0.0","28218986","wem/bandit_either","ABMX8XUNPR3LP","either","5","","","","","","","76","L","3","","0","1","0","","0.4480998813","","28","","0.4232885055","main_expt","0.8","","0.2","0.1134440288","0.3234472479","0.6","0.4480998813","0.4","","","","","","","",""
"671","","bandit","107","312905","0.0-68.0-0.0","28218986","wem/bandit_either","ABMX8XUNPR3LP","either","5","","","","","","","76","L","3","","0","0","1","","0.4628669208","","29","","0.4495512981","main_expt","0.8","","0.2","0.1982905849","0.2881425904","0.6","0.4628669208","0.4","","","","","","","",""
"490","","bandit","108","314924","0.0-69.0-0.0","28218986","wem/bandit_either","ABMX8XUNPR3LP","either","5","","","","","","","76","L","3","","1","0","0","0.4565655028","","","30","0.4485299892","","main_expt","0.8","0.2366655967","0.2","","","0.6","","0.4","0.2326555855","0.4565655028","","","","","",""
"1075","","bandit","109","317524","0.0-70.0-0.0","28218986","wem/bandit_either","ABMX8XUNPR3LP","either","5","","","","","","","76","L","3","","0","0","1","","0.4686031056","","31","","0.4599237238","main_expt","0.8","","0.2","0.1622470467","0.2364604256","0.6","0.4686031056","0.4","","","","","","","",""
"656","","bandit","110","319715","0.0-71.0-0.0","28218986","wem/bandit_either","ABMX8XUNPR3LP","either","5","","","","","","","76","L","3","","0","0","1","","0.4659582456","","32","","0.4508116693","main_expt","0.8","","0.2","0.1771911602","0.2451982598","0.6","0.4659582456","0.4","","","","","","","",""
"584","","bandit","111","321863","0.0-72.0-0.0","28218986","wem/bandit_either","ABMX8XUNPR3LP","either","5","","","","","","","72","H","0","img/none_selected.jpg","0","0","1","0.45101727","","","33","0.45101727","","main_expt","0.8","0.1622836308","0.2","","","0.6","","0.4","0.2360369815","0.4810757035","","","","","",""
"62","","bandit","112","323461","0.0-73.0-0.0","28218986","wem/bandit_either","ABMX8XUNPR3LP","either","5","","","","","","","74","J","1","","0","0","1","","0.1655985557","","34","","0.4340174653","main_expt","0.8","","0.2","0.1655985557","0.2317763892","0.6","0.4842727378","0.4","","","","","","","",""
"1192","","bandit","113","326184","0.0-74.0-0.0","28218986","wem/bandit_either","ABMX8XUNPR3LP","either","5","","","","","","","75","K","2","","1","0","0","0.2527891731","","","35","0.4040147441","","main_expt","0.8","0.1492797185","0.2","","","0.6","","0.4","0.2527891731","0.4745470136","","","","","",""
"499","","bandit","114","328408","0.0-75.0-0.0","28218986","wem/bandit_either","ABMX8XUNPR3LP","either","5","","","","","","","75","K","2","","0","0","1","0.2641283143","","","36","0.4268829696","","main_expt","0.8","0.1504543003","0.2","","","0.6","","0.4","0.2641283143","0.4440965139","","","","","",""
"258","","bandit","115","330196","0.0-76.0-0.0","28218986","wem/bandit_either","ABMX8XUNPR3LP","either","5","","","","","","","76","L","3","","0","1","0","","0.4544425755","","37","","0.4562327564","main_expt","0.8","","0.2","0.1064249526","0.2309310423","0.6","0.4544425755","0.4","","","","","","","",""
"310","","bandit","116","332078","0.0-77.0-0.0","28218986","wem/bandit_either","ABMX8XUNPR3LP","either","5","","","","","","","76","L","3","","0","0","1","","0.4700138218","","38","","0.4481627861","main_expt","0.8","","0.2","0.1346530267","0.2093170459","0.6","0.4700138218","0.4","","","","","","","",""
"319","","bandit","117","333923","0.0-78.0-0.0","28218986","wem/bandit_either","ABMX8XUNPR3LP","either","5","","","","","","","76","L","3","","0","0","1","","0.466948448","","39","","0.4475890948","main_expt","0.8","","0.2","0.1303494481","0.1398625959","0.6","0.466948448","0.4","","","","","","","",""
"268","","bandit","118","335727","0.0-79.0-0.0","28218986","wem/bandit_either","ABMX8XUNPR3LP","either","5","","","","","","","75","K","2","","0","0","1","0.09690087606","","","40","0.4501575696","","main_expt","0.8","0.1492074344","0.2","","","0.6","","0.4","0.09690087606","0.4679256248","","","","","",""
"206","","bandit","119","337472","0.0-80.0-0.0","28218986","wem/bandit_either","ABMX8XUNPR3LP","either","5","","","","","","","76","L","3","","0","0","1","0.445537573","","","41","0.4121884666","","main_expt","0.8","0.1370672299","0.2","","","0.6","","0.4","0.1129569356","0.445537573","","","","","",""
"763","","bandit","120","339773","0.0-81.0-0.0","28218986","wem/bandit_either","ABMX8XUNPR3LP","either","5","","","","","","","72","H","0","img/none_selected.jpg","0","0","1","0.4379939247","","","42","0.4379939247","","main_expt","0.8","0.08144147181","0.2","","","0.6","","0.4","0.1227033228","0.4521531226","","","","","",""
"347","","bandit","121","341709","0.0-82.0-0.0","28218986","wem/bandit_either","ABMX8XUNPR3LP","either","5","","","","","","","74","J","1","","0","0","1","","0.06793865388","","43","","0.4271747655","main_expt","0.8","","0.2","0.06793865388","0.08393287497","0.6","0.4695072217","0.4","","","","","","","",""
"157","","bandit","122","343395","0.0-83.0-0.0","28218986","wem/bandit_either","ABMX8XUNPR3LP","either","5","","","","","","","75","K","2","","0","0","1","0.06260074275","","","44","0.4480494518","","main_expt","0.8","0.05295344446","0.2","","","0.6","","0.4","0.06260074275","0.4807409838","","","","","",""
"58","","bandit","123","345050","0.0-84.0-0.0","28218986","wem/bandit_either","ABMX8XUNPR3LP","either","5","","","","","","","76","L","3","","1","0","0","0.4507048108","","","45","0.4269729589","","main_expt","0.8","0.02744239742","0.2","","","0.6","","0.4","0.08062123592","0.4507048108","","","","","",""
"335","","bandit","124","346966","0.0-85.0-0.0","28218986","wem/bandit_either","ABMX8XUNPR3LP","either","5","","","","","","","76","L","3","","0","0","1","0.4382321206","","","46","0.4475746277","","main_expt","0.8","0.02347437243","0.2","","","0.6","","0.4","0.1110847749","0.4382321206","","","","","",""
"244","","bandit","125","348748","0.0-86.0-0.0","28218986","wem/bandit_either","ABMX8XUNPR3LP","either","5","","","","","","","76","L","3","","1","0","0","0.4393937913","","","47","0.4295618238","","main_expt","0.8","0.02418160198","0.2","","","0.6","","0.4","0.05346849493","0.4393937913","","","","","",""
"297","","bandit","126","350581","0.0-87.0-0.0","28218986","wem/bandit_either","ABMX8XUNPR3LP","either","5","","","","","","","76","L","3","","1","0","0","0.440318131","","","48","0.4431907244","","main_expt","0.8","0.01182676654","0.2","","","0.6","","0.4","0.04499733497","0.440318131","","","","","",""
"556","","bandit","127","352678","0.0-88.0-0.0","28218986","wem/bandit_either","ABMX8XUNPR3LP","either","5","","","","","","","76","L","3","","0","1","0","","0.4362102412","","49","","0.4187732916","main_expt","0.8","","0.2","0.0186287842","0.07378534534","0.6","0.4362102412","0.4","","","","","","","",""
"317","","bandit","128","354518","0.0-89.0-0.0","28218986","wem/bandit_either","ABMX8XUNPR3LP","either","5","","","","","","","76","L","3","","1","0","0","0.44488671","","","50","0.356579213","","main_expt","0.8","0.02550629551","0.2","","","0.6","","0.4","0.06168845619","0.44488671","","","","","",""
"523","","bandit","129","356564","0.0-90.0-0.0","28218986","wem/bandit_either","ABMX8XUNPR3LP","either","5","","","","","","","76","L","3","","0","0","1","0.4633405548","","","51","0.2629404955","","main_expt","0.8","0.04366809707","0.2","","","0.6","","0.4","0.1062028567","0.4633405548","","","","","",""
"764","","bandit","130","358879","0.0-91.0-0.0","28218986","wem/bandit_either","ABMX8XUNPR3LP","either","5","","","","","","","76","L","3","","0","0","1","0.4528043762","","","52","0.2919747068","","main_expt","0.8","0.04357168116","0.2","","","0.6","","0.4","0.1379608546","0.4528043762","","","","","",""
"750","","bandit","131","361174","0.0-92.0-0.0","28218986","wem/bandit_either","ABMX8XUNPR3LP","either","5","","","","","","","76","L","3","","0","0","1","","0.4390431751","","53","","0.3809901122","main_expt","0.8","","0.2","0.03899227154","0.1356826849","0.6","0.4390431751","0.4","","","","","","","",""
"486","","bandit","132","363196","0.0-93.0-0.0","28218986","wem/bandit_either","ABMX8XUNPR3LP","either","5","","","","","","","76","L","3","","0","1","0","","0.4549270822","","54","","0.3452518694","main_expt","0.8","","0.2","0.04009146386","0.1038772241","0.6","0.4549270822","0.4","","","","","","","",""
"503","","bandit","133","365236","0.0-94.0-0.0","28218986","wem/bandit_either","ABMX8XUNPR3LP","either","5","","","","","","","76","L","3","","0","0","1","","0.4710341864","","55","","0.3263112327","main_expt","0.8","","0.2","0.0155768565","0.1689791829","0.6","0.4710341864","0.4","","","","","","","",""
"406","","bandit","134","367170","0.0-95.0-0.0","28218986","wem/bandit_either","ABMX8XUNPR3LP","either","5","","","","","","","76","L","3","","0","0","1","","0.4745834276","","56","","0.3308963945","main_expt","0.8","","0.2","0.02112461672","0.1108888145","0.6","0.4745834276","0.4","","","","","","","",""
"669","","bandit","135","369387","0.0-96.0-0.0","28218986","wem/bandit_either","ABMX8XUNPR3LP","either","5","","","","","","","76","L","3","","0","1","0","","0.489318572","","57","","0.3150326571","main_expt","0.8","","0.2","0.0126553198","0.1206542402","0.6","0.489318572","0.4","","","","","","","",""
"281","","bandit","136","371205","0.0-97.0-0.0","28218986","wem/bandit_either","ABMX8XUNPR3LP","either","5","","","","","","","76","L","3","","0","0","1","","0.480037986","","58","","0.3049116772","main_expt","0.8","","0.2","0.01131359515","0.09707343937","0.6","0.480037986","0.4","","","","","","","",""
"264","","bandit","137","372990","0.0-98.0-0.0","28218986","wem/bandit_either","ABMX8XUNPR3LP","either","5","","","","","","","76","L","3","","0","1","0","","0.4593461039","","59","","0.3050987947","main_expt","0.8","","0.2","0.01030075821","0.1044384952","0.6","0.4593461039","0.4","","","","","","","",""
"290","","bandit","138","374873","0.0-99.0-0.0","28218986","wem/bandit_either","ABMX8XUNPR3LP","either","5","","","","","","","76","L","3","","1","0","0","0.446051488","","","60","0.3274009355","","main_expt","0.8","0.005868957973","0.2","","","0.6","","0.4","0.08890369623","0.446051488","","","","","",""
"326","","bandit","139","376726","0.0-100.0-0.0","28218986","wem/bandit_either","ABMX8XUNPR3LP","either","5","","","","","","","76","L","3","","0","0","1","0.4391285327","","","61","0.3428943983","","main_expt","0.8","0.004361943215","0.2","","","0.6","","0.4","0.08921221942","0.4391285327","","","","","",""
"400","","bandit","140","378663","0.0-101.0-0.0","28218986","wem/bandit_either","ABMX8XUNPR3LP","either","5","","","","","","","76","L","3","","0","0","1","","0.4063883723","","62","","0.3549763931","main_expt","0.8","","0.2","0.005208412743","0.09812025034","0.6","0.4063883723","0.4","","","","","","","",""
"315","","bandit","141","380511","0.0-102.0-0.0","28218986","wem/bandit_either","ABMX8XUNPR3LP","either","5","","","","","","","76","L","3","","0","1","0","","0.4330387396","","63","","0.3496678451","main_expt","0.8","","0.2","0.006461011255","0.09006279409","0.6","0.4330387396","0.4","","","","","","","",""
"555","","bandit","142","382596","0.0-103.0-0.0","28218986","wem/bandit_either","ABMX8XUNPR3LP","either","5","","","","","","","76","L","3","","1","0","0","0.4207902426","","","64","0.3188537263","","main_expt","0.8","0.01267926231","0.2","","","0.6","","0.4","0.1118976224","0.4207902426","","","","","",""
"518","","bandit","143","384729","0.0-104.0-0.0","28218986","wem/bandit_either","ABMX8XUNPR3LP","either","5","","","","","","","76","L","3","","0","0","1","0.3719582347","","","65","0.3191795336","","main_expt","0.8","0.009732787917","0.2","","","0.6","","0.4","0.1053817613","0.3719582347","","","","","",""
"812","","bandit","144","387080","0.0-105.0-0.0","28218986","wem/bandit_either","ABMX8XUNPR3LP","either","5","","","","","","","76","L","3","","0","1","0","","0.3748569955","","66","","0.268616347","main_expt","0.8","","0.2","0.01092542651","0.1307356695","0.6","0.3748569955","0.4","","","","","","","",""
"753","","bandit","145","389425","0.0-106.0-0.0","28218986","wem/bandit_either","ABMX8XUNPR3LP","either","5","","","","","","","76","L","3","","0","1","0","","0.335252031","","67","","0.259194563","main_expt","0.8","","0.2","0.02125534741","0.1418436428","0.6","0.335252031","0.4","","","","","","","",""
"752","","bandit","146","391702","0.0-107.0-0.0","28218986","wem/bandit_either","ABMX8XUNPR3LP","either","5","","","","","","","76","L","3","","0","0","1","","0.3199157278","","68","","0.2281204868","main_expt","0.8","","0.2","0.02360283027","0.1459089566","0.6","0.3199157278","0.4","","","","","","","",""
"609","","bandit","147","393891","0.0-108.0-0.0","28218986","wem/bandit_either","ABMX8XUNPR3LP","either","5","","","","","","","76","L","3","","0","0","1","0.3068525281","","","69","0.2195844169","","main_expt","0.8","0.02539305756","0.2","","","0.6","","0.4","0.1809721424","0.3068525281","","","","","",""
"395","","bandit","148","395815","0.0-109.0-0.0","28218986","wem/bandit_either","ABMX8XUNPR3LP","either","5","","","","","","","76","L","3","","0","0","1","","0.3181076016","","70","","0.1883338509","main_expt","0.8","","0.2","0.05014388586","0.1784068974","0.6","0.3181076016","0.4","","","","","","","",""
"1381","","bandit","149","398749","0.0-110.0-0.0","28218986","wem/bandit_either","ABMX8XUNPR3LP","either","5","","","","","","","72","H","0","img/none_selected.jpg","0","0","1","0.1639708178","","","71","0.1639708178","","main_expt","0.8","0.04209054697","0.2","","","0.6","","0.4","0.1973023396","0.2926426422","","","","","",""
"175","","bandit","150","400499","0.0-111.0-0.0","28218986","wem/bandit_either","ABMX8XUNPR3LP","either","5","","","","","","","74","J","1","","0","0","1","","0.05611199342","","72","","0.1312842785","main_expt","0.8","","0.2","0.05611199342","0.2436342847","0.6","0.2380263643","0.4","","","","","","","",""
"188","","bandit","151","402412","0.0-112.0-0.0","28218986","wem/bandit_either","ABMX8XUNPR3LP","either","5","","","","","","","75","K","2","","0","0","1","","0.1992173182","","73","","0.1805041857","main_expt","0.8","","0.2","0.05293238473","0.1992173182","0.6","0.2407197948","0.4","","","","","","","",""
"286","","bandit","152","404260","0.0-113.0-0.0","28218986","wem/bandit_either","ABMX8XUNPR3LP","either","5","","","","","","","76","L","3","","0","0","1","","0.2317468449","","74","","0.1739557812","main_expt","0.8","","0.2","0.0318456884","0.2347098304","0.6","0.2317468449","0.4","","","","","","","",""
"438","","bandit","153","406267","0.0-114.0-0.0","28218986","wem/bandit_either","ABMX8XUNPR3LP","either","5","","","","","","","72","H","0","img/none_selected.jpg","1","0","0","0.2434916027","","","75","0.2434916027","","main_expt","0.8","0.03873230677","0.2","","","0.6","","0.4","0.2641442137","0.2545997551","","","","","",""
"301","","bandit","154","408149","0.0-115.0-0.0","28218986","wem/bandit_either","ABMX8XUNPR3LP","either","5","","","","","","","72","H","0","img/none_selected.jpg","0","0","1","0.2438468568","","","76","0.2438468568","","main_expt","0.8","0.03304947682","0.2","","","0.6","","0.4","0.3192644053","0.2890845388","","","","","",""
"290","","bandit","155","409980","0.0-116.0-0.0","28218986","wem/bandit_either","ABMX8XUNPR3LP","either","5","","","","","","","74","J","1","","0","0","1","","0.02607887458","","77","","0.2425324642","main_expt","0.8","","0.2","0.02607887458","0.3351132613","0.6","0.2386362654","0.4","","","","","","","",""
"243","","bandit","156","411767","0.0-117.0-0.0","28218986","wem/bandit_either","ABMX8XUNPR3LP","either","5","","","","","","","75","K","2","","0","0","1","0.3086784207","","","78","0.205588479","","main_expt","0.8","0.02492981692","0.2","","","0.6","","0.4","0.3086784207","0.2673679704","","","","","",""
"354","","bandit","157","413671","0.0-118.0-0.0","28218986","wem/bandit_either","ABMX8XUNPR3LP","either","5","","","","","","","76","L","3","","0","0","1","","0.2813811921","","79","","0.213062191","main_expt","0.8","","0.2","0.01824110002","0.3076482073","0.6","0.2813811921","0.4","","","","","","","",""
"338","","bandit","158","415547","0.0-119.0-0.0","28218986","wem/bandit_either","ABMX8XUNPR3LP","either","5","","","","","","","72","H","0","img/none_selected.jpg","0","0","1","","0.1852926048","","80","","0.1852926048","main_expt","0.8","","0.2","0.0202176162","0.3605025214","0.6","0.2419447949","0.4","","","","","","","",""
"473","","bandit","159","417608","0.0-120.0-0.0","28218986","wem/bandit_either","ABMX8XUNPR3LP","either","5","","","","","","","72","H","0","img/none_selected.jpg","0","0","1","0.2332942271","","","81","0.2332942271","","main_expt","0.8","0.0252752587","0.2","","","0.6","","0.4","0.3286166321","0.323481111","","","","","",""
"324","","bandit","160","419458","0.0-121.0-0.0","28218986","wem/bandit_either","ABMX8XUNPR3LP","either","5","","","","","","","72","H","0","img/none_selected.jpg","0","0","1","0.2087797338","","","82","0.2087797338","","main_expt","0.8","0.05668457717","0.2","","","0.6","","0.4","0.3459677762","0.3097244961","","","","","",""
"291","","bandit","161","421371","0.0-122.0-0.0","28218986","wem/bandit_either","ABMX8XUNPR3LP","either","5","","","","","","","74","J","1","","0","0","1","0.07760530004","","","83","0.2049979043","","main_expt","0.8","0.07760530004","0.2","","","0.6","","0.4","0.3092751195","0.2787498647","","","","","",""
"314","","bandit","162","423218","0.0-123.0-0.0","28218986","wem/bandit_either","ABMX8XUNPR3LP","either","5","","","","","","","75","K","2","","0","0","1","","0.3044630387","","84","","0.2151780091","main_expt","0.8","","0.2","0.03696005566","0.3044630387","0.6","0.2589524449","0.4","","","","","","","",""
"289","","bandit","163","425059","0.0-124.0-0.0","28218986","wem/bandit_either","ABMX8XUNPR3LP","either","5","","","","","","","76","L","3","","0","0","1","","0.2769318636","","85","","0.1497615914","main_expt","0.8","","0.2","0.04177257934","0.2812480587","0.6","0.2769318636","0.4","","","","","","","",""
"140","","bandit","164","426729","0.0-125.0-0.0","28218986","wem/bandit_either","ABMX8XUNPR3LP","either","5","","","","","","","72","H","0","img/none_selected.jpg","0","0","1","0.1223687677","","","86","0.1223687677","","main_expt","0.8","0.0385770192","0.2","","","0.6","","0.4","0.2506532223","0.2849222391","","","","","",""
"330","","bandit","165","428620","0.0-126.0-0.0","28218986","wem/bandit_either","ABMX8XUNPR3LP","either","5","","","","","","","72","H","0","img/none_selected.jpg","0","0","1","0.1472857413","","","87","0.1472857413","","main_expt","0.8","0.03720252147","0.2","","","0.6","","0.4","0.2269900387","0.3131087309","","","","","",""
"39","","bandit","166","430185","0.0-127.0-0.0","28218986","wem/bandit_either","ABMX8XUNPR3LP","either","5","","","","","","","76","L","3","","0","1","0","","0.3038587512","","88","","0.1252586248","main_expt","0.8","","0.2","0.06746059371","0.1504729919","0.6","0.3038587512","0.4","","","","","","","",""
"320","","bandit","167","432041","0.0-128.0-0.0","28218986","wem/bandit_either","ABMX8XUNPR3LP","either","5","","","","","","","76","L","3","","0","0","1","","0.3308022157","","89","","0.1194927994","main_expt","0.8","","0.2","0.04069757945","0.1382070302","0.6","0.3308022157","0.4","","","","","","","",""
"351","","bandit","168","433942","0.0-129.0-0.0","28218986","wem/bandit_either","ABMX8XUNPR3LP","either","5","","","","","","","76","L","3","","1","0","0","0.3574922351","","","90","0.1589750007","","main_expt","0.8","0.07325379503","0.2","","","0.6","","0.4","0.1364765349","0.3574922351","","","","","",""
"333","","bandit","169","435819","0.0-130.0-0.0","28218986","wem/bandit_either","ABMX8XUNPR3LP","either","5","","","","","","","76","L","3","","0","1","0","","0.3729517688","","91","","0.1859960426","main_expt","0.8","","0.2","0.06877471811","0.09318196272","0.6","0.3729517688","0.4","","","","","","","",""
"51","","bandit","170","437398","0.0-131.0-0.0","28218986","wem/bandit_either","ABMX8XUNPR3LP","either","5","","","","","","","76","L","3","","0","0","1","","0.398352994","","92","","0.192419488","main_expt","0.8","","0.2","0.04115987362","0.06946097624","0.6","0.398352994","0.4","","","","","","","",""
"5542","","bandit","171","444739","0.0-132.0-0.0","28218986","wem/bandit_either","ABMX8XUNPR3LP","either","5","","","","","","","76","L","3","","1","0","0","0.4135860398","","","93","0.1716033463","","main_expt","0.8","0.07078892783","0.2","","","0.6","","0.4","0.08102832817","0.4135860398","","","","","",""
"1265","","bandit","172","447545","0.0-133.0-0.0","28218986","wem/bandit_either","ABMX8XUNPR3LP","either","5","","","","","","","76","L","3","","1","0","0","0.3786880174","","","94","0.1935897604","","main_expt","0.8","0.05572868433","0.2","","","0.6","","0.4","0.1271360848","0.3786880174","","","","","",""
"987","","bandit","173","450079","0.0-134.0-0.0","28218986","wem/bandit_either","ABMX8XUNPR3LP","either","5","","","","","","","76","L","3","","0","0","1","0.3823424718","","","95","0.2193228015","","main_expt","0.8","0.05056929995","0.2","","","0.6","","0.4","0.1097592989","0.3823424718","","","","","",""
"1515","","bandit","174","453132","0.0-135.0-0.0","28218986","wem/bandit_either","ABMX8XUNPR3LP","either","5","","","","","","","76","L","3","","1","0","0","0.3642725552","","","96","0.3262643469","","main_expt","0.8","0.04159874267","0.2","","","0.6","","0.4","0.1085490834","0.3642725552","","","","","",""
"742","","bandit","175","455514","0.0-136.0-0.0","28218986","wem/bandit_either","ABMX8XUNPR3LP","either","5","","","","","","","76","L","3","","0","1","0","","0.3197717944","","97","","0.3207405496","main_expt","0.8","","0.2","0.03654451862","0.1049812554","0.6","0.3197717944","0.4","","","","","","","",""
"658","","bandit","176","457802","0.0-137.0-0.0","28218986","wem/bandit_either","ABMX8XUNPR3LP","either","5","","","","","","","76","L","3","","0","0","1","0.2514424369","","","98","0.3712856991","","main_expt","0.8","0.04190300095","0.2","","","0.6","","0.4","0.08177978443","0.2514424369","","","","","",""
"654","","bandit","177","460011","0.0-138.0-0.0","28218986","wem/bandit_either","ABMX8XUNPR3LP","either","5","","","","","","","76","L","3","","0","0","1","","0.2926772137","","99","","0.3740145378","main_expt","0.8","","0.2","0.08742990617","0.07574087804","0.6","0.2926772137","0.4","","","","","","","",""
"1305","","bandit","178","462882","0.0-139.0-0.0","28218986","wem/bandit_either","ABMX8XUNPR3LP","either","5","","","","","","","76","L","3","","0","0","1","","0.234485335","","100","","0.3776295542","main_expt","0.8","","0.2","0.08966523481","0.07829319678","0.6","0.234485335","0.4","","","","","","","",""
"249","","bandit","179","464683","0.0-140.0-0.0","28218986","wem/bandit_either","ABMX8XUNPR3LP","either","5","","","","","","","76","L","3","","0","0","1","","0.250352175","","101","","0.3592666398","main_expt","0.8","","0.2","0.07849065771","0.07919243683","0.6","0.250352175","0.4","","","","","","","",""
"469","","bandit","180","466675","0.0-141.0-0.0","28218986","wem/bandit_either","ABMX8XUNPR3LP","either","5","","","","","","","72","H","0","img/none_selected.jpg","0","0","1","0.3412191773","","","102","0.3412191773","","main_expt","0.8","0.1054267613","0.2","","","0.6","","0.4","0.1052753188","0.2139972863","","","","","",""
"296","","bandit","181","468512","0.0-142.0-0.0","28218986","wem/bandit_either","ABMX8XUNPR3LP","either","5","","","","","","","74","J","1","","0","0","1","","0.1120981937","","103","","0.3133100433","main_expt","0.8","","0.2","0.1120981937","0.1248526142","0.6","0.20092706","0.4","","","","","","","",""
"491","","bandit","182","470530","0.0-143.0-0.0","28218986","wem/bandit_either","ABMX8XUNPR3LP","either","5","","","","","","","75","K","2","","1","0","0","0.142969925","","","104","0.3219148419","","main_expt","0.8","0.1034740879","0.2","","","0.6","","0.4","0.142969925","0.2305366804","","","","","",""
"472","","bandit","183","472574","0.0-144.0-0.0","28218986","wem/bandit_either","ABMX8XUNPR3LP","either","5","","","","","","","75","K","2","","0","0","1","0.13947254","","","105","0.3300892518","","main_expt","0.8","0.07597240327","0.2","","","0.6","","0.4","0.13947254","0.2102135581","","","","","",""
"2965","","bandit","184","477077","0.0-145.0-0.0","28218986","wem/bandit_either","ABMX8XUNPR3LP","either","5","","","","","","","76","L","3","","0","1","0","","0.2219457329","","106","","0.3401839058","main_expt","0.8","","0.2","0.1124257427","0.1329526997","0.6","0.2219457329","0.4","","","","","","","",""
"177","","bandit","185","478821","0.0-146.0-0.0","28218986","wem/bandit_either","ABMX8XUNPR3LP","either","5","","","","","","","76","L","3","","0","0","1","","0.3048423019","","107","","0.3784706915","main_expt","0.8","","0.2","0.1133168519","0.1727290233","0.6","0.3048423019","0.4","","","","","","","",""
"1546","","bandit","186","482047","0.0-147.0-0.0","28218986","wem/bandit_either","ABMX8XUNPR3LP","either","5","","","","","","","76","L","3","","0","0","1","","0.258150515","","108","","0.3945753887","main_expt","0.8","","0.2","0.1752395656","0.1864487031","0.6","0.258150515","0.4","","","","","","","",""
"164","","bandit","187","483743","0.0-148.0-0.0","28218986","wem/bandit_either","ABMX8XUNPR3LP","either","5","","","","","","","75","K","2","","0","0","1","0.2463216238","","","109","0.356827327","","main_expt","0.8","0.1862973424","0.2","","","0.6","","0.4","0.2463216238","0.1859129148","","","","","",""
"1464","","bandit","188","486737","0.0-149.0-0.0","28218986","wem/bandit_either","ABMX8XUNPR3LP","either","5","","","","","","","75","K","2","","0","0","1","","0.2431522628","","110","","0.2344179837","main_expt","0.8","","0.2","0.2015845776","0.2431522628","0.6","0.1371624404","0.4","","","","","","","",""
"2064","","bandit","189","490490","0.0-150.0-0.0","28218986","wem/bandit_either","ABMX8XUNPR3LP","either","5","","","","","","","74","J","1","","1","0","0","0.2003651753","","","111","0.2644823096","","main_expt","0.8","0.2003651753","0.2","","","0.6","","0.4","0.1757476643","0.1258232978","","","","","",""
"429","","bandit","190","492486","0.0-151.0-0.0","28218986","wem/bandit_either","ABMX8XUNPR3LP","either","5","","","","","","","74","J","1","","0","0","1","0.21392293","","","112","0.28311182","","main_expt","0.8","0.21392293","0.2","","","0.6","","0.4","0.2451518953","0.1529967373","","","","","",""
"903","","bandit","191","494921","0.0-152.0-0.0","28218986","wem/bandit_either","ABMX8XUNPR3LP","either","5","","","","","","","74","J","1","","1","0","0","0.1606798039","","","113","0.2413269532","","main_expt","0.8","0.1606798039","0.2","","","0.6","","0.4","0.2407836715","0.148248117","","","","","",""
"1072","","bandit","192","497581","0.0-153.0-0.0","28218986","wem/bandit_either","ABMX8XUNPR3LP","either","5","","","","","","","74","J","1","","0","0","1","","0.2095980235","","114","","0.3100969134","main_expt","0.8","","0.2","0.2095980235","0.3099317417","0.6","0.1562208239","0.4","","","","","","","",""
"350","","bandit","193","499461","0.0-154.0-0.0","28218986","wem/bandit_either","ABMX8XUNPR3LP","either","5","","","","","","","72","H","0","img/none_selected.jpg","0","0","1","0.329842252","","","115","0.329842252","","main_expt","0.8","0.2550279667","0.2","","","0.6","","0.4","0.3180754701","0.2138032898","","","","","",""
"199","","bandit","194","501236","0.0-155.0-0.0","28218986","wem/bandit_either","ABMX8XUNPR3LP","either","5","","","","","","","74","J","1","","0","0","1","","0.2471764387","","116","","0.3223706096","main_expt","0.8","","0.2","0.2471764387","0.2919742107","0.6","0.2331260325","0.4","","","","","","","",""
"216","","bandit","195","502985","0.0-156.0-0.0","28218986","wem/bandit_either","ABMX8XUNPR3LP","either","5","","","","","","","75","K","2","","0","0","1","0.2799774295","","","117","0.3098408215","","main_expt","0.8","0.2730878341","0.2","","","0.6","","0.4","0.2799774295","0.1826309729","","","","","",""
"327","","bandit","196","504873","0.0-157.0-0.0","28218986","wem/bandit_either","ABMX8XUNPR3LP","either","5","","","","","","","76","L","3","","0","0","1","","0.1511269107","","118","","0.2974554567","main_expt","0.8","","0.2","0.2071462199","0.2646714695","0.6","0.1511269107","0.4","","","","","","","",""
"432","","bandit","197","506841","0.0-158.0-0.0","28218986","wem/bandit_either","ABMX8XUNPR3LP","either","5","","","","","","","74","J","1","","0","0","1","","0.2275232499","","119","","0.3598468986","main_expt","0.8","","0.2","0.2275232499","0.3179839519","0.6","0.1559979654","0.4","","","","","","","",""
"6","","bandit","198","508535","0.0-159.0-0.0","28218986","wem/bandit_either","ABMX8XUNPR3LP","either","5","","","","","","","74","J","1","","0","0","1","0.2767559596","","","120","0.2984373086","","main_expt","0.8","0.2767559596","0.2","","","0.6","","0.4","0.3302262658","0.1463004055","","","","","",""
"664","","bandit","199","510790","0.0-160.0-0.0","28218986","wem/bandit_either","ABMX8XUNPR3LP","either","5","","","","","","","76","L","3","","0","0","1","0.1418195479","","","121","0.2973090059","","main_expt","0.8","0.3448590315","0.2","","","0.6","","0.4","0.3500549905","0.1418195479","","","","","",""
"16","","bandit","200","512333","0.0-161.0-0.0","28218986","wem/bandit_either","ABMX8XUNPR3LP","either","5","","","","","","","74","J","1","","0","1","0","","0.3593301016","","122","","0.3382791822","main_expt","0.8","","0.2","0.3593301016","0.2686616284","0.6","0.1270782113","0.4","","","","","","","",""
"336","","bandit","201","514222","0.0-162.0-0.0","28218986","wem/bandit_either","ABMX8XUNPR3LP","either","5","","","","","","","74","J","1","","0","0","1","","0.3680529171","","123","","0.3154347028","main_expt","0.8","","0.2","0.3680529171","0.2277230314","0.6","0.1207154071","0.4","","","","","","","",""
"285","","bandit","202","516039","0.0-163.0-0.0","28218986","wem/bandit_either","ABMX8XUNPR3LP","either","5","","","","","","","74","J","1","","0","1","0","","0.3476523483","","124","","0.2966737815","main_expt","0.8","","0.2","0.3476523483","0.3287090939","0.6","0.1229329119","0.4","","","","","","","",""
"270","","bandit","203","517866","0.0-164.0-0.0","28218986","wem/bandit_either","ABMX8XUNPR3LP","either","5","","","","","","","74","J","1","","0","0","1","","0.3564603465","","125","","0.3094831126","main_expt","0.8","","0.2","0.3564603465","0.3687339586","0.6","0.09241122996","0.4","","","","","","","",""
"316","","bandit","204","519714","0.0-165.0-0.0","28218986","wem/bandit_either","ABMX8XUNPR3LP","either","5","","","","","","","74","J","1","","0","1","0","","0.3550684458","","126","","0.2488993205","main_expt","0.8","","0.2","0.3550684458","0.3836195774","0.6","0.08418962236","0.4","","","","","","","",""
"314","","bandit","205","521598","0.0-166.0-0.0","28218986","wem/bandit_either","ABMX8XUNPR3LP","either","5","","","","","","","74","J","1","","0","0","1","","0.3235559827","","127","","0.1953487027","main_expt","0.8","","0.2","0.3235559827","0.3617365958","0.6","0.154715772","0.4","","","","","","","",""
"1548","","bandit","206","524692","0.0-167.0-0.0","28218986","wem/bandit_either","ABMX8XUNPR3LP","either","5","","","","","","","74","J","1","","0","0","1","","0.312087491","","128","","0.2171889907","main_expt","0.8","","0.2","0.312087491","0.3235283493","0.6","0.1556709078","0.4","","","","","","","",""
"14","","bandit","207","526248","0.0-168.0-0.0","28218986","wem/bandit_either","ABMX8XUNPR3LP","either","5","","","","","","","74","J","1","","0","0","1","0.2843272188","","","129","0.2467699801","","main_expt","0.8","0.2843272188","0.2","","","0.6","","0.4","0.3453830546","0.1214200615","","","","","",""
"446","","bandit","208","528272","0.0-169.0-0.0","28218986","wem/bandit_either","ABMX8XUNPR3LP","either","5","","","","","","","74","J","1","","0","0","1","","0.2128416856","","130","","0.2814443482","main_expt","0.8","","0.2","0.2128416856","0.3242747857","0.6","0.1377283829","0.4","","","","","","","",""
"772","","bandit","209","530649","0.0-170.0-0.0","28218986","wem/bandit_either","ABMX8XUNPR3LP","either","5","","","","","","","74","J","1","","0","0","1","","0.2403879813","","131","","0.2834176508","main_expt","0.8","","0.2","0.2403879813","0.3417201858","0.6","0.1397421628","0.4","","","","","","","",""
"81","","bandit","210","532264","0.0-171.0-0.0","28218986","wem/bandit_either","ABMX8XUNPR3LP","either","5","","","","","","","74","J","1","","0","0","1","","0.2811421594","","132","","0.2429908031","main_expt","0.8","","0.2","0.2811421594","0.3498614837","0.6","0.1061875113","0.4","","","","","","","",""
"2034","","bandit","211","535854","0.0-172.0-0.0","28218986","wem/bandit_either","ABMX8XUNPR3LP","either","5","","","","","","","74","J","1","","0","0","1","","0.3002858371","","133","","0.3053559495","main_expt","0.8","","0.2","0.3002858371","0.3134828643","0.6","0.07774811701","0.4","","","","","","","",""
"717","","bandit","212","538111","0.0-173.0-0.0","28218986","wem/bandit_either","ABMX8XUNPR3LP","either","5","","","","","","","74","J","1","","0","1","0","","0.277406375","","134","","0.2693478067","main_expt","0.8","","0.2","0.277406375","0.3554593188","0.6","0.08211281178","0.4","","","","","","","",""
"2137","","bandit","213","541788","0.0-174.0-0.0","28218986","wem/bandit_either","ABMX8XUNPR3LP","either","5","","","","","","","74","J","1","","0","1","0","","0.2897147582","","135","","0.3369166079","main_expt","0.8","","0.2","0.2897147582","0.3150900126","0.6","0.1123817552","0.4","","","","","","","",""
"3583","","bandit","214","546918","0.0-175.0-0.0","28218986","wem/bandit_either","ABMX8XUNPR3LP","either","5","","","","","","","74","J","1","","1","0","0","0.3590576628","","","136","0.268603144","","main_expt","0.8","0.3590576628","0.2","","","0.6","","0.4","0.3199395785","0.1478339482","","","","","",""
"323","","bandit","215","548909","0.0-176.0-0.0","28218986","wem/bandit_either","ABMX8XUNPR3LP","either","5","","","","","","","74","J","1","","0","1","0","","0.3822427384","","137","","0.2373427956","main_expt","0.8","","0.2","0.3822427384","0.33362357","0.6","0.1374936615","0.4","","","","","","","",""
"2161","","bandit","216","552614","0.0-177.0-0.0","28218986","wem/bandit_either","ABMX8XUNPR3LP","either","5","","","","","","","74","J","1","","0","1","0","","0.3410071165","","138","","0.2206869265","main_expt","0.8","","0.2","0.3410071165","0.3611324022","0.6","0.159761955","0.4","","","","","","","",""
"332","","bandit","217","554478","0.0-178.0-0.0","28218986","wem/bandit_either","ABMX8XUNPR3LP","either","5","","","","","","","74","J","1","","0","1","0","","0.3738014659","","139","","0.2177966349","main_expt","0.8","","0.2","0.3738014659","0.3504145086","0.6","0.1363721132","0.4","","","","","","","",""
"2044","","bandit","218","558231","0.0-179.0-0.0","28218986","wem/bandit_either","ABMX8XUNPR3LP","either","5","","","","","","","74","J","1","","0","0","1","","0.422575493","","140","","0.2387685432","main_expt","0.8","","0.2","0.422575493","0.309774603","0.6","0.1031445192","0.4","","","","","","","",""
"2198","","bandit","219","561982","0.0-180.0-0.0","28218986","wem/bandit_either","ABMX8XUNPR3LP","either","5","","","","","","","74","J","1","","0","1","0","","0.4439129864","","141","","0.2575087366","main_expt","0.8","","0.2","0.4439129864","0.3506531288","0.6","0.09805286369","0.4","","","","","","","",""
"737","","bandit","220","564267","0.0-181.0-0.0","28218986","wem/bandit_either","ABMX8XUNPR3LP","either","5","","","","","","","74","J","1","","0","0","1","","0.4323802182","","142","","0.2392038972","main_expt","0.8","","0.2","0.4323802182","0.2965027242","0.6","0.1149002948","0.4","","","","","","","",""
"322","","bandit","221","566117","0.0-182.0-0.0","28218986","wem/bandit_either","ABMX8XUNPR3LP","either","5","","","","","","","74","J","1","","0","1","0","","0.4358412593","","143","","0.2216470548","main_expt","0.8","","0.2","0.4358412593","0.2087517366","0.6","0.1209542099","0.4","","","","","","","",""
"324","","bandit","222","568010","0.0-183.0-0.0","28218986","wem/bandit_either","ABMX8XUNPR3LP","either","5","","","","","","","74","J","1","","0","0","1","0.4407373256","","","144","0.2224896139","","main_expt","0.8","0.4407373256","0.2","","","0.6","","0.4","0.2313605626","0.1202521083","","","","","",""
"364","","bandit","223","569940","0.0-184.0-0.0","28218986","wem/bandit_either","ABMX8XUNPR3LP","either","5","","","","","","","74","J","1","","1","0","0","0.4661091035","","","145","0.1925605464","","main_expt","0.8","0.4661091035","0.2","","","0.6","","0.4","0.1785565547","0.1619743669","","","","","",""
"414","","bandit","224","571899","0.0-185.0-0.0","28218986","wem/bandit_either","ABMX8XUNPR3LP","either","5","","","","","","","74","J","1","","0","0","1","","0.4637097668","","146","","0.2069800611","main_expt","0.8","","0.2","0.4637097668","0.1770660648","0.6","0.1664631043","0.4","","","","","","","",""
"364","","bandit","225","573801","0.0-186.0-0.0","28218986","wem/bandit_either","ABMX8XUNPR3LP","either","5","","","","","","","74","J","1","","0","0","1","","0.4700491642","","147","","0.2489662189","main_expt","0.8","","0.2","0.4700491642","0.1063371611","0.6","0.1669241763","0.4","","","","","","","",""
"246","","bandit","226","575583","0.0-187.0-0.0","28218986","wem/bandit_either","ABMX8XUNPR3LP","either","5","","","","","","","74","J","1","","1","0","0","0.4648109734","","","148","0.1946464158","","main_expt","0.8","0.4648109734","0.2","","","0.6","","0.4","0.1216370817","0.1581456949","","","","","",""
"252","","bandit","227","577382","0.0-188.0-0.0","28218986","wem/bandit_either","ABMX8XUNPR3LP","either","5","","","","","","","74","J","1","","0","1","0","","0.4635511513","","149","","0.1826562491","main_expt","0.8","","0.2","0.4635511513","0.1024256959","0.6","0.1698392466","0.4","","","","","","","",""
"291","","bandit","228","579201","0.0-189.0-0.0","28218986","wem/bandit_either","ABMX8XUNPR3LP","either","5","","","","","","","74","J","1","","0","1","0","","0.4445017148","","150","","0.1750473563","main_expt","0.8","","0.2","0.4445017148","0.1371094633","0.6","0.2140114634","0.4","","","","","","","",""
"290","","bandit","229","581031","0.0-190.0-0.0","28218986","wem/bandit_either","ABMX8XUNPR3LP","either","5","","","","","","","74","J","1","","0","0","1","","0.4434799742","","151","","0.1109536645","main_expt","0.8","","0.2","0.4434799742","0.1702433702","0.6","0.2392960001","0.4","","","","","","","",""
"4224","","bandit","230","586913","0.0-191.0-0.0","28218986","wem/bandit_either","ABMX8XUNPR3LP","either","5","","","","","","","74","J","1","","0","1","0","","0.4451665291","","152","","0.1143086707","main_expt","0.8","","0.2","0.4451665291","0.1860489046","0.6","0.2095863317","0.4","","","","","","","",""
"336","","bandit","231","588778","0.0-192.0-0.0","28218986","wem/bandit_either","ABMX8XUNPR3LP","either","5","","","","","","","74","J","1","","0","0","1","","0.4401532833","","153","","0.1236290712","main_expt","0.8","","0.2","0.4401532833","0.2117094388","0.6","0.2543258611","0.4","","","","","","","",""
"331","","bandit","232","590639","0.0-193.0-0.0","28218986","wem/bandit_either","ABMX8XUNPR3LP","either","5","","","","","","","74","J","1","","0","0","1","","0.4516855879","","154","","0.1600695342","main_expt","0.8","","0.2","0.4516855879","0.2072389033","0.6","0.2602259906","0.4","","","","","","","",""
"782","","bandit","233","592943","0.0-194.0-0.0","28218986","wem/bandit_either","ABMX8XUNPR3LP","either","5","","","","","","","74","J","1","","0","1","0","","0.4480264808","","155","","0.1770288166","main_expt","0.8","","0.2","0.4480264808","0.1986333914","0.6","0.2750581274","0.4","","","","","","","",""
"225","","bandit","234","594711","0.0-195.0-0.0","28218986","wem/bandit_either","ABMX8XUNPR3LP","either","5","","","","","","","74","J","1","","0","0","1","","0.4260414265","","156","","0.1761817894","main_expt","0.8","","0.2","0.4260414265","0.2054640346","0.6","0.2438045727","0.4","","","","","","","",""
"1788","","bandit","235","598178","0.0-196.0-0.0","28218986","wem/bandit_either","ABMX8XUNPR3LP","either","5","","","","","","","74","J","1","","0","0","1","","0.4365201507","","157","","0.1998830888","main_expt","0.8","","0.2","0.4365201507","0.1810715383","0.6","0.2857025143","0.4","","","","","","","",""
"30","","bandit","236","599764","0.0-197.0-0.0","28218986","wem/bandit_either","ABMX8XUNPR3LP","either","5","","","","","","","74","J","1","","0","1","0","","0.4076244479","","158","","0.2150354531","main_expt","0.8","","0.2","0.4076244479","0.2118906364","0.6","0.2887719476","0.4","","","","","","","",""
"1222","","bandit","237","602519","0.0-198.0-0.0","28218986","wem/bandit_either","ABMX8XUNPR3LP","either","5","","","","","","","74","J","1","","0","0","1","","0.403953851","","159","","0.2221069796","main_expt","0.8","","0.2","0.403953851","0.2293976715","0.6","0.2859462397","0.4","","","","","","","",""
"986","","bandit","238","605099","0.0-199.0-0.0","28218986","wem/bandit_either","ABMX8XUNPR3LP","either","5","","","","","","","74","J","1","","0","0","1","","0.4282135537","","160","","0.2627335039","main_expt","0.8","","0.2","0.4282135537","0.2186051381","0.6","0.207432816","0.4","","","","","","","",""
"1","","bandit","239","606630","0.0-200.0-0.0","28218986","wem/bandit_either","ABMX8XUNPR3LP","either","5","","","","","","","74","J","1","","0","1","0","","0.4479073124","","161","","0.2922457848","main_expt","0.8","","0.2","0.4479073124","0.2175927206","0.6","0.1611694724","0.4","","","","","","","",""
"2762","","bandit","240","610929","0.0-201.0-0.0","28218986","wem/bandit_either","ABMX8XUNPR3LP","either","5","","","","","","","74","J","1","","0","0","1","","0.4456201243","","162","","0.3040212123","main_expt","0.8","","0.2","0.4456201243","0.2370404117","0.6","0.14378348","0.4","","","","","","","",""
"143","","bandit","241","612599","0.0-202.0-0.0","28218986","wem/bandit_either","ABMX8XUNPR3LP","either","5","","","","","","","74","J","1","","0","0","1","","0.4384930657","","163","","0.2933359027","main_expt","0.8","","0.2","0.4384930657","0.2778780432","0.6","0.1707099899","0.4","","","","","","","",""
"1386","","bandit","242","615516","0.0-203.0-0.0","28218986","wem/bandit_either","ABMX8XUNPR3LP","either","5","","","","","","","74","J","1","","0","0","1","","0.4231568034","","164","","0.2388203062","main_expt","0.8","","0.2","0.4231568034","0.2643388611","0.6","0.1933693166","0.4","","","","","","","",""
"132","","bandit","243","617197","0.0-204.0-0.0","28218986","wem/bandit_either","ABMX8XUNPR3LP","either","5","","","","","","","74","J","1","","0","0","1","","0.4412535734","","165","","0.2646204916","main_expt","0.8","","0.2","0.4412535734","0.1967204453","0.6","0.2406324952","0.4","","","","","","","",""
"1960","","bandit","244","620694","0.0-205.0-0.0","28218986","wem/bandit_either","ABMX8XUNPR3LP","either","5","","","","","","","72","H","0","img/none_selected.jpg","0","0","1","0.2591758032","","","166","0.2591758032","","main_expt","0.8","0.438364003","0.2","","","0.6","","0.4","0.1567937345","0.2650462377","","","","","",""
"421","","bandit","245","622658","0.0-206.0-0.0","28218986","wem/bandit_either","ABMX8XUNPR3LP","either","5","","","","","","","72","H","0","img/none_selected.jpg","0","0","1","","0.1955934818","","167","","0.1955934818","main_expt","0.8","","0.2","0.4290991351","0.1201482918","0.6","0.245875583","0.4","","","","","","","",""
"5164","","bandit","246","629377","0.0-207.0-0.0","28218986","wem/bandit_either","ABMX8XUNPR3LP","either","5","","","","","","","72","H","0","img/none_selected.jpg","0","0","1","0.2090603634","","","168","0.2090603634","","main_expt","0.8","0.4510860662","0.2","","","0.6","","0.4","0.0936051119","0.257303599","","","","","",""
"244","","bandit","247","631341","0.0-208.0-0.0","28218986","wem/bandit_either","ABMX8XUNPR3LP","either","5","","","","","","","74","J","1","","0","1","0","","0.4491424364","","169","","0.2678479696","main_expt","0.8","","0.2","0.4491424364","0.08775096918","0.6","0.2993732043","0.4","","","","","","","",""
"484","","bandit","248","633377","0.0-209.0-0.0","28218986","wem/bandit_either","ABMX8XUNPR3LP","either","5","","","","","","","74","J","1","","0","1","0","","0.4332244901","","170","","0.2532125956","main_expt","0.8","","0.2","0.4332244901","0.06743429675","0.6","0.3388977639","0.4","","","","","","","",""
"849","","bandit","249","635760","0.0-210.0-0.0","28218986","wem/bandit_either","ABMX8XUNPR3LP","either","5","","","","","","","74","J","1","","0","0","1","","0.4405036994","","171","","0.2568627054","main_expt","0.8","","0.2","0.4405036994","0.05979118822","0.6","0.2947926635","0.4","","","","","","","",""
"1530","","bandit","250","638871","0.0-211.0-0.0","28218986","wem/bandit_either","ABMX8XUNPR3LP","either","5","","","","","","","74","J","1","","0","1","0","","0.4358521759","","172","","0.2451563353","main_expt","0.8","","0.2","0.4358521759","0.03200499914","0.6","0.2892529657","0.4","","","","","","","",""
"6981","","bandit","251","647423","0.0-212.0-0.0","28218986","wem/bandit_either","ABMX8XUNPR3LP","either","5","","","","","","","75","K","2","","0","0","1","","0.04613358223","","173","","0.3003395367","main_expt","0.8","","0.2","0.4471617722","0.04613358223","0.6","0.2571917514","0.4","","","","","","","",""
"2807","","bandit","252","651800","0.0-213.0-0.0","28218986","wem/bandit_either","ABMX8XUNPR3LP","either","5","","","","","","","76","L","3","","0","0","1","","0.244173221","","174","","0.2545998681","main_expt","0.8","","0.2","0.4560251174","0.05969677181","0.6","0.244173221","0.4","","","","","","","",""
"3660","","bandit","253","657010","0.0-214.0-0.0","28218986","wem/bandit_either","ABMX8XUNPR3LP","either","5","","","","","","","75","K","2","","0","0","1","0.05930066603","","","175","0.3383135611","","main_expt","0.8","0.4379349024","0.2","","","0.6","","0.4","0.05930066603","0.2038098688","","","","","",""
"302","","bandit","254","658877","0.0-215.0-0.0","28218986","wem/bandit_either","ABMX8XUNPR3LP","either","5","","","","","","","74","J","1","","0","0","1","","0.4328841116","","176","","0.3880627729","main_expt","0.8","","0.2","0.4328841116","0.08110879181","0.6","0.2053823003","0.4","","","","","","","",""
"454","","bandit","255","661053","0.0-216.0-0.0","28218986","wem/bandit_either","ABMX8XUNPR3LP","either","5","","","","","","","72","H","0","img/none_selected.jpg","0","0","1","0.3920994557","","","177","0.3920994557","","main_expt","0.8","0.3965365967","0.2","","","0.6","","0.4","0.07611568943","0.2193083282","","","","","",""
"447","","bandit","256","663034","0.0-217.0-0.0","28218986","wem/bandit_either","ABMX8XUNPR3LP","either","5","","","","","","","72","H","0","img/none_selected.jpg","0","0","1","0.3882277994","","","178","0.3882277994","","main_expt","0.8","0.3899234309","0.2","","","0.6","","0.4","0.1220467165","0.1904263594","","","","","",""
"318","","bandit","257","664941","0.0-218.0-0.0","28218986","wem/bandit_either","ABMX8XUNPR3LP","either","5","","","","","","","72","H","0","img/none_selected.jpg","0","0","1","","0.3939691408","","179","","0.3939691408","main_expt","0.8","","0.2","0.4238443777","0.1698853315","0.6","0.2212788648","0.4","","","","","","","",""
"301","","bandit","258","666802","0.0-219.0-0.0","28218986","wem/bandit_either","ABMX8XUNPR3LP","either","5","","","","","","","74","J","1","","0","0","1","","0.4487400994","","180","","0.4074656662","main_expt","0.8","","0.2","0.4487400994","0.1374762061","0.6","0.2640717145","0.4","","","","","","","",""
"319","","bandit","259","668655","0.0-220.0-0.0","28218986","wem/bandit_either","ABMX8XUNPR3LP","either","5","","","","","","","75","K","2","","0","0","1","0.09961924189","","","181","0.3724421945","","main_expt","0.8","0.4314573438","0.2","","","0.6","","0.4","0.09961924189","0.2426483564","","","","","",""
"68","","bandit","260","670252","0.0-221.0-0.0","28218986","wem/bandit_either","ABMX8XUNPR3LP","either","5","","","","","","","76","L","3","","1","0","0","0.2001563476","","","182","0.2998177931","","main_expt","0.8","0.4458059303","0.2","","","0.6","","0.4","0.1391043194","0.2001563476","","","","","",""
"947","","bandit","261","672764","0.0-222.0-0.0","28218986","wem/bandit_either","ABMX8XUNPR3LP","either","5","","","","","","","76","L","3","","1","0","0","0.2167094124","","","183","0.3629728763","","main_expt","0.8","0.4485460149","0.2","","","0.6","","0.4","0.1336424596","0.2167094124","","","","","",""
"392","","bandit","262","674688","0.0-223.0-0.0","28218986","wem/bandit_either","ABMX8XUNPR3LP","either","5","","","","","","","76","L","3","","0","0","1","","0.2402813617","","184","","0.3763603645","main_expt","0.8","","0.2","0.4078350507","0.115911235","0.6","0.2402813617","0.4","","","","","","","",""
"464","","bandit","263","676714","0.0-224.0-0.0","28218986","wem/bandit_either","ABMX8XUNPR3LP","either","5","","","","","","","76","L","3","","0","0","1","","0.2745112141","","185","","0.3472982705","main_expt","0.8","","0.2","0.3805788675","0.1394203739","0.6","0.2745112141","0.4","","","","","","","",""
"931","","bandit","264","679232","0.0-225.0-0.0","28218986","wem/bandit_either","ABMX8XUNPR3LP","either","5","","","","","","","76","L","3","","0","1","0","","0.2774566956","","186","","0.3095995051","main_expt","0.8","","0.2","0.4236809331","0.1557479742","0.6","0.2774566956","0.4","","","","","","","",""
"4577","","bandit","265","685344","0.0-226.0-0.0","28218986","wem/bandit_either","ABMX8XUNPR3LP","either","5","","","","","","","76","L","3","","0","0","1","","0.2876011691","","187","","0.2567332284","main_expt","0.8","","0.2","0.4058627081","0.1823611596","0.6","0.2876011691","0.4","","","","","","","",""
"1624","","bandit","266","688633","0.0-227.0-0.0","28218986","wem/bandit_either","ABMX8XUNPR3LP","either","5","","","","","","","76","L","3","","0","0","1","0.2947112378","","","188","0.2555256861","","main_expt","0.8","0.3913346521","0.2","","","0.6","","0.4","0.1854179297","0.2947112378","","","","","",""
"1382","","bandit","267","691563","0.0-228.0-0.0","28218986","wem/bandit_either","ABMX8XUNPR3LP","either","5","","","","","","","76","L","3","","0","1","0","","0.2581494","","189","","0.2009875262","main_expt","0.8","","0.2","0.3760164219","0.1875645599","0.6","0.2581494","0.4","","","","","","","",""
"731","","bandit","268","693894","0.0-229.0-0.0","28218986","wem/bandit_either","ABMX8XUNPR3LP","either","5","","","","","","","76","L","3","","1","0","0","0.1756323468","","","190","0.2055488595","","main_expt","0.8","0.3327352817","0.2","","","0.6","","0.4","0.2018323604","0.1756323468","","","","","",""
"1103","","bandit","269","696533","0.0-230.0-0.0","28218986","wem/bandit_either","ABMX8XUNPR3LP","either","5","","","","","","","76","L","3","","0","0","1","0.2521570866","","","191","0.1506387864","","main_expt","0.8","0.3015177445","0.2","","","0.6","","0.4","0.221094727","0.2521570866","","","","","",""
"975","","bandit","270","699032","0.0-231.0-0.0","28218986","wem/bandit_either","ABMX8XUNPR3LP","either","5","","","","","","","76","L","3","","0","1","0","","0.2964739449","","192","","0.2027442266","main_expt","0.8","","0.2","0.2773298268","0.2320570195","0.6","0.2964739449","0.4","","","","","","","",""
"511","","bandit","271","701097","0.0-232.0-0.0","28218986","wem/bandit_either","ABMX8XUNPR3LP","either","5","","","","","","","76","L","3","","0","0","1","","0.2612966838","","193","","0.1969137872","main_expt","0.8","","0.2","0.2836613797","0.2948950962","0.6","0.2612966838","0.4","","","","","","","",""
"1273","","bandit","272","703918","0.0-233.0-0.0","28218986","wem/bandit_either","ABMX8XUNPR3LP","either","5","","","","","","","76","L","3","","0","0","1","","0.3292914436","","194","","0.2114994946","main_expt","0.8","","0.2","0.2799350415","0.2602906927","0.6","0.3292914436","0.4","","","","","","","",""
"193","","bandit","273","705643","0.0-234.0-0.0","28218986","wem/bandit_either","ABMX8XUNPR3LP","either","5","","","","","","","76","L","3","","1","0","0","0.4070308407","","","195","0.2467939011","","main_expt","0.8","0.2068597772","0.2","","","0.6","","0.4","0.1771499101","0.4070308407","","","","","",""
"483","","bandit","274","707686","0.0-235.0-0.0","28218986","wem/bandit_either","ABMX8XUNPR3LP","either","5","","","","","","","76","L","3","","0","0","1","","0.3494820729","","196","","0.2731811988","main_expt","0.8","","0.2","0.2679469531","0.1746274925","0.6","0.3494820729","0.4","","","","","","","",""
"389","","bandit","275","709608","0.0-236.0-0.0","28218986","wem/bandit_either","ABMX8XUNPR3LP","either","5","","","","","","","76","L","3","","0","0","1","0.3571939809","","","197","0.2512114903","","main_expt","0.8","0.2448078588","0.2","","","0.6","","0.4","0.193224684","0.3571939809","","","","","",""
"1789","","bandit","276","712933","0.0-237.0-0.0","28218986","wem/bandit_either","ABMX8XUNPR3LP","either","5","","","","","","","76","L","3","","0","0","1","0.382430028","","","198","0.190651112","","main_expt","0.8","0.2433987968","0.2","","","0.6","","0.4","0.1771509929","0.382430028","","","","","",""
"142","","bandit","277","714605","0.0-238.0-0.0","28218986","wem/bandit_either","ABMX8XUNPR3LP","either","5","","","","","","","76","L","3","","0","1","0","","0.3353474301","","199","","0.1701189695","main_expt","0.8","","0.2","0.2653624242","0.2466668772","0.6","0.3353474301","0.4","","","","","","","",""
"672","","bandit","278","716806","0.0-239.0-0.0","28218986","wem/bandit_either","ABMX8XUNPR3LP","either","5","","","","","","","76","L","3","","0","0","1","","0.3321976498","","200","","0.1656975488","main_expt","0.8","","0.2","0.2551376492","0.2477816141","0.6","0.3321976498","0.4","","","","","","","",""
"704","","bandit","279","719115","0.0-240.0-0.0","28218986","wem/bandit_either","ABMX8XUNPR3LP","either","5","","","","","","","76","L","3","","0","1","0","","0.3218117355","","201","","0.1647298582","main_expt","0.8","","0.2","0.2660639347","0.2744817861","0.6","0.3218117355","0.4","","","","","","","",""
"781","","bandit","280","721426","0.0-241.0-0.0","28218986","wem/bandit_either","ABMX8XUNPR3LP","either","5","","","","","","","76","L","3","","0","0","1","","0.2949214693","","202","","0.1242041815","main_expt","0.8","","0.2","0.2220900594","0.3043062986","0.6","0.2949214693","0.4","","","","","","","",""
"4411","","bandit","281","727393","0.0-242.0-0.0","28218986","wem/bandit_either","ABMX8XUNPR3LP","either","5","","","","","","","76","L","3","","0","1","0","","0.300077299","","203","","0.1684487429","main_expt","0.8","","0.2","0.1543353204","0.272185569","0.6","0.300077299","0.4","","","","","","","",""
"914","","bandit","282","730024","0.0-243.0-0.0","28218986","wem/bandit_either","ABMX8XUNPR3LP","either","5","","","","","","","76","L","3","","0","0","1","0.2866085977","","","204","0.1666409686","","main_expt","0.8","0.1605482003","0.2","","","0.6","","0.4","0.2610767704","0.2866085977","","","","","",""
"687","","bandit","283","732285","0.0-244.0-0.0","28218986","wem/bandit_either","ABMX8XUNPR3LP","either","5","","","","","","","76","L","3","","0","0","1","","0.2695546272","","205","","0.2197286508","main_expt","0.8","","0.2","0.1406914754","0.2832615928","0.6","0.2695546272","0.4","","","","","","","",""
"1517","","bandit","284","735345","0.0-245.0-0.0","28218986","wem/bandit_either","ABMX8XUNPR3LP","either","5","","","","","","","76","L","3","","0","0","1","","0.2622178416","","206","","0.2754509052","main_expt","0.8","","0.2","0.1138947463","0.300913322","0.6","0.2622178416","0.4","","","","","","","",""
"398","","bandit","285","737305","0.0-246.0-0.0","28218986","wem/bandit_either","ABMX8XUNPR3LP","either","5","","","","","","","76","L","3","","0","0","1","","0.2498186578","","207","","0.2664869377","main_expt","0.8","","0.2","0.1096702189","0.3260258847","0.6","0.2498186578","0.4","","","","","","","",""
"395","","bandit","286","739247","0.0-247.0-0.0","28218986","wem/bandit_either","ABMX8XUNPR3LP","either","5","","","","","","","76","L","3","","1","0","0","0.2335358635","","","208","0.2686565688","","main_expt","0.8","0.09922356593","0.2","","","0.6","","0.4","0.3173829003","0.2335358635","","","","","",""
"373","","bandit","287","741150","0.0-248.0-0.0","28218986","wem/bandit_either","ABMX8XUNPR3LP","either","5","","","","","","","76","L","3","","0","0","1","","0.2638942681","","209","","0.2380255957","main_expt","0.8","","0.2","0.101567507","0.3153846937","0.6","0.2638942681","0.4","","","","","","","",""
"100","","bandit","288","742898","0.0-249.0-0.0","28218986","wem/bandit_either","ABMX8XUNPR3LP","either","5","","","","","","","76","L","3","","0","1","0","","0.2526926237","","210","","0.2507768727","main_expt","0.8","","0.2","0.08675379402","0.3010876552","0.6","0.2526926237","0.4","","","","","","","",""
"351","","bandit","289","744800","0.0-250.0-0.0","28218986","wem/bandit_either","ABMX8XUNPR3LP","either","5","","","","","","","76","L","3","","0","0","1","0.2740367769","","","211","0.2685142319","","main_expt","0.8","0.07512021269","0.2","","","0.6","","0.4","0.2864900033","0.2740367769","","","","","",""
"4907","","bandit","290","751254","0.0-251.0-0.0","28218986","wem/bandit_either","ABMX8XUNPR3LP","either","5","","","","","","","76","L","3","","0","0","1","0.2440836191","","","212","0.260511483","","main_expt","0.8","0.08144254236","0.2","","","0.6","","0.4","0.3163372434","0.2440836191","","","","","",""
"177","","bandit","291","753126","0.0-252.0-0.0","28218986","wem/bandit_either","ABMX8XUNPR3LP","either","5","","","","","","","76","L","3","","0","0","1","0.2341903104","","","213","0.2579605047","","main_expt","0.8","0.06585574052","0.2","","","0.6","","0.4","0.2701305136","0.2341903104","","","","","",""
"84","","bandit","292","754740","0.0-253.0-0.0","28218986","wem/bandit_either","ABMX8XUNPR3LP","either","5","","","","","","","76","L","3","","0","0","1","0.2097526345","","","214","0.2470456849","","main_expt","0.8","0.08686614453","0.2","","","0.6","","0.4","0.302599165","0.2097526345","","","","","",""
"344","","bandit","293","756637","0.0-254.0-0.0","28218986","wem/bandit_either","ABMX8XUNPR3LP","either","5","","","","","","","76","L","3","","0","0","1","","0.1796882487","","215","","0.3285383036","main_expt","0.8","","0.2","0.1068548489","0.2968005471","0.6","0.1796882487","0.4","","","","","","","",""
"354","","bandit","294","758529","0.0-255.0-0.0","28218986","wem/bandit_either","ABMX8XUNPR3LP","either","5","","","","","","","76","L","3","","0","0","1","","0.2237900511","","216","","0.3780044773","main_expt","0.8","","0.2","0.1211736082","0.2835536598","0.6","0.2237900511","0.4","","","","","","","",""
"64","","bandit","295","760171","0.0-256.0-0.0","28218986","wem/bandit_either","ABMX8XUNPR3LP","either","5","","","","","","","76","L","3","","0","0","1","0.2265358539","","","217","0.3939228946","","main_expt","0.8","0.09343701815","0.2","","","0.6","","0.4","0.2520762718","0.2265358539","","","","","",""
"311","","bandit","296","762011","0.0-257.0-0.0","28218986","wem/bandit_either","ABMX8XUNPR3LP","either","5","","","","","","","76","L","3","","1","0","0","0.2364013437","","","218","0.3198270803","","main_expt","0.8","0.1001055386","0.2","","","0.6","","0.4","0.2562699476","0.2364013437","","","","","",""
"216","","bandit","297","763761","0.0-258.0-0.0","28218986","wem/bandit_either","ABMX8XUNPR3LP","either","5","","","","","","","76","L","3","","0","0","1","","0.2810560361","","219","","0.3502502288","main_expt","0.8","","0.2","0.09524874014","0.3002431464","0.6","0.2810560361","0.4","","","","","","","",""
"918","","bandit","298","766225","0.0-259.0-0.0","28218986","wem/bandit_either","ABMX8XUNPR3LP","either","5","","","","","","","76","L","3","","0","0","1","0.3027429446","","","220","0.3402456168","","main_expt","0.8","0.1304899995","0.2","","","0.6","","0.4","0.3365413303","0.3027429446","","","","","",""
"493","","bandit","299","768256","0.0-260.0-0.0","28218986","wem/bandit_either","ABMX8XUNPR3LP","either","5","","","","","","","76","L","3","","0","0","1","","0.3132134988","","221","","0.3770059732","main_expt","0.8","","0.2","0.1272814923","0.2946103072","0.6","0.3132134988","0.4","","","","","","","",""
"2716","","bandit","300","772533","0.0-261.0-0.0","28218986","wem/bandit_either","ABMX8XUNPR3LP","either","5","","","","","","","72","H","0","img/none_selected.jpg","0","1","0","","0.3864421123","","222","","0.3864421123","main_expt","0.8","","0.2","0.1654407056","0.3267284332","0.6","0.2424821827","0.4","","","","","","","",""
"934","","bandit","301","775050","0.0-262.0-0.0","28218986","wem/bandit_either","ABMX8XUNPR3LP","either","5","","","","","","","72","H","0","img/none_selected.jpg","1","0","0","0.4205211408","","","223","0.4205211408","","main_expt","0.8","0.1788325852","0.2","","","0.6","","0.4","0.3175152631","0.2595367495","","","","","",""
"8650","","bandit","302","785241","0.0-263.0-0.0","28218986","wem/bandit_either","ABMX8XUNPR3LP","either","5","","","","","","","72","H","0","img/none_selected.jpg","0","0","1","","0.4131889957","","224","","0.4131889957","main_expt","0.8","","0.2","0.1736623033","0.3192400935","0.6","0.328819141","0.4","","","","","","","",""
"340","","bandit","303","787135","0.0-264.0-0.0","28218986","wem/bandit_either","ABMX8XUNPR3LP","either","5","","","","","","","72","H","0","img/none_selected.jpg","0","1","0","","0.4001513574","","225","","0.4001513574","main_expt","0.8","","0.2","0.1721911447","0.3096750449","0.6","0.356121412","0.4","","","","","","","",""
"712","","bandit","304","789385","0.0-265.0-0.0","28218986","wem/bandit_either","ABMX8XUNPR3LP","either","5","","","","","","","72","H","0","img/none_selected.jpg","0","0","1","","0.3963688582","","226","","0.3963688582","main_expt","0.8","","0.2","0.2133818582","0.3142833063","0.6","0.3394019192","0.4","","","","","","","",""
"93","","bandit","305","791068","0.0-266.0-0.0","28218986","wem/bandit_either","ABMX8XUNPR3LP","either","5","","","","","","","72","H","0","img/none_selected.jpg","0","0","1","0.3979714495","","","227","0.3979714495","","main_expt","0.8","0.2620007467","0.2","","","0.6","","0.4","0.3096885674","0.2860553004","","","","","",""
"2418","","bandit","306","795039","0.0-267.0-0.0","28218986","wem/bandit_either","ABMX8XUNPR3LP","either","5","","","","","","","72","H","0","img/none_selected.jpg","1","0","0","0.3811043637","","","228","0.3811043637","","main_expt","0.8","0.2961930455","0.2","","","0.6","","0.4","0.3048295172","0.2967856672","","","","","",""
"7659","","bandit","307","804402","0.0-268.0-0.0","28218986","wem/bandit_either","ABMX8XUNPR3LP","either","5","","","","","","","72","H","0","img/none_selected.jpg","0","0","1","0.3488149186","","","229","0.3488149186","","main_expt","0.8","0.3081123415","0.2","","","0.6","","0.4","0.2553920021","0.2857745529","","","","","",""
"989","","bandit","308","806933","0.0-269.0-0.0","28218986","wem/bandit_either","ABMX8XUNPR3LP","either","5","","","","","","","72","H","0","img/none_selected.jpg","0","0","1","0.2883621188","","","230","0.2883621188","","main_expt","0.8","0.3027177586","0.2","","","0.6","","0.4","0.2783794412","0.2589404948","","","","","",""
"292","","bandit","309","808790","0.0-270.0-0.0","28218986","wem/bandit_either","ABMX8XUNPR3LP","either","5","","","","","","","72","H","0","img/none_selected.jpg","1","0","0","0.2444465504","","","231","0.2444465504","","main_expt","0.8","0.2495346478","0.2","","","0.6","","0.4","0.2735536708","0.2628441024","","","","","",""
"272","","bandit","310","810803","0.0-271.0-0.0","28218986","wem/bandit_either","ABMX8XUNPR3LP","either","5","","","","","","","72","H","0","img/none_selected.jpg","0","0","1","0.2996930955","","","232","0.2996930955","","main_expt","0.8","0.2185872191","0.2","","","0.6","","0.4","0.2262440502","0.276537748","","","","","",""
"141","","bandit","311","812505","0.0-272.0-0.0","28218986","wem/bandit_either","ABMX8XUNPR3LP","either","5","","","","","","","72","H","0","img/none_selected.jpg","0","0","1","0.3103031796","","","233","0.3103031796","","main_expt","0.8","0.1874863907","0.2","","","0.6","","0.4","0.2171974885","0.2485723575","","","","","",""
"374","","bandit","312","814419","0.0-273.0-0.0","28218986","wem/bandit_either","ABMX8XUNPR3LP","either","5","","","","","","","72","H","0","img/none_selected.jpg","1","0","0","0.2971988612","","","234","0.2971988612","","main_expt","0.8","0.2165838284","0.2","","","0.6","","0.4","0.2951485073","0.2172766866","","","","","",""
"6110","","bandit","313","822099","0.0-274.0-0.0","28218986","wem/bandit_either","ABMX8XUNPR3LP","either","5","","","","","","","74","J","1","","0","1","0","","0.1791302586","","235","","0.3266576642","main_expt","0.8","","0.2","0.1791302586","0.3135740045","0.6","0.221542824","0.4","","","","","","","",""
"344","","bandit","314","823997","0.0-275.0-0.0","28218986","wem/bandit_either","ABMX8XUNPR3LP","either","5","","","","","","","74","J","1","","0","0","1","0.2463713802","","","236","0.3596878827","","main_expt","0.8","0.2463713802","0.2","","","0.6","","0.4","0.2945285262","0.2200573756","","","","","",""
"262","","bandit","315","825827","0.0-276.0-0.0","28218986","wem/bandit_either","ABMX8XUNPR3LP","either","5","","","","","","","72","H","0","img/none_selected.jpg","1","0","0","0.3951370387","","","237","0.3951370387","","main_expt","0.8","0.2204623923","0.2","","","0.6","","0.4","0.2797454337","0.2146478317","","","","","",""
"474","","bandit","316","827863","0.0-277.0-0.0","28218986","wem/bandit_either","ABMX8XUNPR3LP","either","5","","","","","","","72","H","0","img/none_selected.jpg","0","0","1","0.3863552979","","","238","0.3863552979","","main_expt","0.8","0.2316256556","0.2","","","0.6","","0.4","0.266453507","0.2237656472","","","","","",""
"14","","bandit","317","829413","0.0-278.0-0.0","28218986","wem/bandit_either","ABMX8XUNPR3LP","either","5","","","","","","","72","H","0","img/none_selected.jpg","0","0","1","","0.3962704677","","239","","0.3962704677","main_expt","0.8","","0.2","0.2406304147","0.310831157","0.6","0.2302611888","0.4","","","","","","","",""
"230","","bandit","318","831179","0.0-279.0-0.0","28218986","wem/bandit_either","ABMX8XUNPR3LP","either","5","","","","","","","72","H","0","img/none_selected.jpg","0","0","1","0.3926977495","","","240","0.3926977495","","main_expt","0.8","0.2624476398","0.2","","","0.6","","0.4","0.331950591","0.2253069634","","","","","",""
"338","","bandit","319","833164","0.0-280.0-0.0","28218986","wem/bandit_either","ABMX8XUNPR3LP","either","5","","","","","","","74","J","1","","0","0","1","","0.2627099727","","241","","0.3381110468","main_expt","0.8","","0.2","0.2627099727","0.3223776605","0.6","0.2523404353","0.4","","","","","","","",""
"254","","bandit","320","834942","0.0-281.0-0.0","28218986","wem/bandit_either","ABMX8XUNPR3LP","either","5","","","","","","","74","J","1","","0","0","1","","0.2262339403","","242","","0.3213381148","main_expt","0.8","","0.2","0.2262339403","0.3389272588","0.6","0.238450381","0.4","","","","","","","",""
"346","","bandit","321","836826","0.0-282.0-0.0","28218986","wem/bandit_either","ABMX8XUNPR3LP","either","5","","","","","","","74","J","1","","0","0","1","","0.2511573395","","243","","0.3395415742","main_expt","0.8","","0.2","0.2511573395","0.4023830898","0.6","0.2476478509","0.4","","","","","","","",""
"273","","bandit","322","838655","0.0-283.0-0.0","28218986","wem/bandit_either","ABMX8XUNPR3LP","either","5","","","","","","","75","K","2","","0","1","0","","0.4072225753","","244","","0.3077285799","main_expt","0.8","","0.2","0.3112309098","0.4072225753","0.6","0.2603762171","0.4","","","","","","","",""
"146","","bandit","323","840328","0.0-284.0-0.0","28218986","wem/bandit_either","ABMX8XUNPR3LP","either","5","","","","","","","75","K","2","","0","0","1","0.4047901721","","","245","0.269997398","","main_expt","0.8","0.3169667097","0.2","","","0.6","","0.4","0.4047901721","0.2778117757","","","","","",""
"346","","bandit","324","842244","0.0-285.0-0.0","28218986","wem/bandit_either","ABMX8XUNPR3LP","either","5","","","","","","","75","K","2","","0","0","1","","0.4245844383","","246","","0.2896792764","main_expt","0.8","","0.2","0.3774934029","0.4245844383","0.6","0.2571702875","0.4","","","","","","","",""
"594","","bandit","325","844381","0.0-286.0-0.0","28218986","wem/bandit_either","ABMX8XUNPR3LP","either","5","","","","","","","76","L","3","","0","0","1","0.2790325972","","","247","0.3079745892","","main_expt","0.8","0.3592590195","0.2","","","0.6","","0.4","0.4425022826","0.2790325972","","","","","",""
"200","","bandit","326","846144","0.0-287.0-0.0","28218986","wem/bandit_either","ABMX8XUNPR3LP","either","5","","","","","","","76","L","3","","1","0","0","0.2665328125","","","248","0.2306801962","","main_expt","0.8","0.3659800935","0.2","","","0.6","","0.4","0.4454461089","0.2665328125","","","","","",""
"294","","bandit","327","847982","0.0-288.0-0.0","28218986","wem/bandit_either","ABMX8XUNPR3LP","either","5","","","","","","","76","L","3","","0","0","1","","0.2666328085","","249","","0.2363838343","main_expt","0.8","","0.2","0.3940863056","0.4565985803","0.6","0.2666328085","0.4","","","","","","","",""
"307","","bandit","328","849839","0.0-289.0-0.0","28218986","wem/bandit_either","ABMX8XUNPR3LP","either","5","","","","","","","76","L","3","","0","0","1","","0.2637425143","","250","","0.2865845142","main_expt","0.8","","0.2","0.3652193683","0.4666950096","0.6","0.2637425143","0.4","","","","","","","",""
"317","","bandit","329","851727","0.0-290.0-0.0","28218986","wem/bandit_either","ABMX8XUNPR3LP","either","5","","","","","","","76","L","3","","1","0","0","0.3041279159","","","251","0.3527425442","","main_expt","0.8","0.3118516898","0.2","","","0.6","","0.4","0.4491167865","0.3041279159","","","","","",""
"287","","bandit","330","853585","0.0-291.0-0.0","28218986","wem/bandit_either","ABMX8XUNPR3LP","either","5","","","","","","","76","L","3","","1","0","0","0.3054217384","","","252","0.3236638898","","main_expt","0.8","0.3291033061","0.2","","","0.6","","0.4","0.4512042396","0.3054217384","","","","","",""
"99","","bandit","331","855217","0.0-292.0-0.0","28218986","wem/bandit_either","ABMX8XUNPR3LP","either","5","","","","","","","76","L","3","","0","0","1","","0.3241125582","","253","","0.2905162115","main_expt","0.8","","0.2","0.35413613","0.4572977034","0.6","0.3241125582","0.4","","","","","","","",""
"314","","bandit","332","857091","0.0-293.0-0.0","28218986","wem/bandit_either","ABMX8XUNPR3LP","either","5","","","","","","","76","L","3","","0","0","1","","0.3512447021","","254","","0.2486268238","main_expt","0.8","","0.2","0.2644422317","0.4550853681","0.6","0.3512447021","0.4","","","","","","","",""
"375","","bandit","333","859036","0.0-294.0-0.0","28218986","wem/bandit_either","ABMX8XUNPR3LP","either","5","","","","","","","76","L","3","","0","0","1","0.3367754603","","","255","0.2578586278","","main_expt","0.8","0.3151268161","0.2","","","0.6","","0.4","0.4068249484","0.3367754603","","","","","",""
