"rt","responses","trial_type","trial_index","time_elapsed","internal_node_id","subjID","study","MID","cond","drift","key_press","expt_phase","target","like","value","connected","gems","bombs","no_reward","GemPrChosen","BombPrChosen","GainOverPainPr_0","GainOverPainPr_1","GainOverPainPr_2","GainOverPainPr_3","LosePr_0","LosePr_1","LosePr_2","LosePr_3","WinPr_0","WinPr_1","WinPr_2","WinPr_3","Q0","Q1","Q2","gender","age","ethnicity","respCharCode","respKey","respChoiceNum","respChoice","practice","trial_counter","trial_label"
"2353","{""Q0"":""A2AX54JH2WED4O""}","survey-text","0","2361","0.0-0.0","28664074","wem/bandit_either","A2AX54JH2WED4O","either","2","","","","","","","","","","","","","","","","","","","","","","","","","","","","","","","","","","","",""
"9615","","text","1","12980","0.0-1.0","28664074","wem/bandit_either","A2AX54JH2WED4O","either","2","32","","","","","","","","","","","","","","","","","","","","","","","","","","","","","","","","","","",""
"4285","","text","2","17267","0.0-2.0","28664074","wem/bandit_either","A2AX54JH2WED4O","either","2","32","","","","","","","","","","","","","","","","","","","","","","","","","","","","","","","","","","",""
"25374","","text","3","42643","0.0-3.0","28664074","wem/bandit_either","A2AX54JH2WED4O","either","2","32","","","","","","","","","","","","","","","","","","","","","","","","","","","","","","","","","","",""
"15493","","text","4","58138","0.0-4.0","28664074","wem/bandit_either","A2AX54JH2WED4O","either","2","32","","","","","","","","","","","","","","","","","","","","","","","","","","","","","","","","","","",""
"18483","","text","5","76623","0.0-5.0","28664074","wem/bandit_either","A2AX54JH2WED4O","either","2","32","","","","","","","","","","","","","","","","","","","","","","","","","","","","","","","","","","",""
"5593","","text","6","82216","0.0-6.0","28664074","wem/bandit_either","A2AX54JH2WED4O","either","2","32","","","","","","","","","","","","","","","","","","","","","","","","","","","","","","","","","","",""
"5713","","text","7","87931","0.0-7.0","28664074","wem/bandit_either","A2AX54JH2WED4O","either","2","32","","","","","","","","","","","","","","","","","","","","","","","","","","","","","","","","","","",""
"7321","","identification","8","95300","0.0-8.0-0.0","28664074","wem/bandit_either","A2AX54JH2WED4O","either","2","","identification_pre","the village of Zur","","","","","","","","","","","","","","","","","","","","","","","","","","","","","","","","",""
"4638","","identification","9","100987","0.0-8.0-1.0","28664074","wem/bandit_either","A2AX54JH2WED4O","either","2","","identification_pre","the village of Nyx","","","","","","","","","","","","","","","","","","","","","","","","","","","","","","","","",""
"5066","","text","10","107056","0.0-9.0","28664074","wem/bandit_either","A2AX54JH2WED4O","either","2","32","","","","","","","","","","","","","","","","","","","","","","","","","","","","","","","","","","",""
"2551","","text","11","109609","0.0-10.0","28664074","wem/bandit_either","A2AX54JH2WED4O","either","2","32","","","","","","","","","","","","","","","","","","","","","","","","","","","","","","","","","","",""
"1916","","text","12","111527","0.0-11.0","28664074","wem/bandit_either","A2AX54JH2WED4O","either","2","32","","","","","","","","","","","","","","","","","","","","","","","","","","","","","","","","","","",""
"2848","","text","13","114375","0.0-12.0","28664074","wem/bandit_either","A2AX54JH2WED4O","either","2","32","","","","","","","","","","","","","","","","","","","","","","","","","","","","","","","","","","",""
"2140","","bandit","14","118025","0.0-13.0-0.0","28664074","wem/bandit_either","A2AX54JH2WED4O","either","2","","","","","","","0","0","1","0","0","","","","","0","","","","0","","","","","","","","","","74","J","0","img/none_selected_demo.jpg","true","0",""
"3057","","bandit","15","122588","0.0-14.0-0.0","28664074","wem/bandit_either","A2AX54JH2WED4O","either","2","","","","","","","0","0","1","0","0","","","","","0","","","","0","","","","","","","","","","75","K","0","img/none_selected_demo.jpg","true","0",""
"8461","","text","16","131051","0.0-15.0","28664074","wem/bandit_either","A2AX54JH2WED4O","either","2","32","","","","","","","","","","","","","","","","","","","","","","","","","","","","","","","","","","",""
"10705","","text","17","141758","0.0-16.0","28664074","wem/bandit_either","A2AX54JH2WED4O","either","2","32","","","","","","","","","","","","","","","","","","","","","","","","","","","","","","","","","","",""
"4855","","text","18","146615","0.0-17.0","28664074","wem/bandit_either","A2AX54JH2WED4O","either","2","32","","","","","","","","","","","","","","","","","","","","","","","","","","","","","","","","","","",""
"5509","","text","19","152126","0.0-18.0","28664074","wem/bandit_either","A2AX54JH2WED4O","either","2","32","","","","","","","","","","","","","","","","","","","","","","","","","","","","","","","","","","",""
"1102","","bandit","20","154735","0.0-19.0-0.0","28664074","wem/bandit_either","A2AX54JH2WED4O","either","2","","","","","","","0","1","0","","0.8","0.5","0.5","","","0.8","0.2","","","","","","","","","","","","","74","J","0","img/none_selected_demo.jpg","true","0","80_20_practice"
"1109","","bandit","21","157351","0.0-19.0-1.0","28664074","wem/bandit_either","A2AX54JH2WED4O","either","2","","","","","","","0","0","1","0.2","","0.5","0.5","","","","","","","0.8","0.2","","","","","","","","","75","K","1","","true","0","80_20_practice"
"794","","bandit","22","159653","0.0-19.0-2.0","28664074","wem/bandit_either","A2AX54JH2WED4O","either","2","","","","","","","0","0","1","","0.2","0.5","0.5","","","0.8","0.2","","","","","","","","","","","","","75","K","1","","true","0","80_20_practice"
"510","","bandit","23","161670","0.0-19.0-3.0","28664074","wem/bandit_either","A2AX54JH2WED4O","either","2","","","","","","","0","1","0","","0.2","0.5","0.5","","","0.8","0.2","","","","","","","","","","","","","75","K","1","","true","0","80_20_practice"
"477","","bandit","24","163654","0.0-19.0-4.0","28664074","wem/bandit_either","A2AX54JH2WED4O","either","2","","","","","","","1","0","0","0.8","","0.5","0.5","","","","","","","0.8","0.2","","","","","","","","","74","J","0","img/none_selected_demo.jpg","true","0","80_20_practice"
"516","","bandit","25","165677","0.0-19.0-5.0","28664074","wem/bandit_either","A2AX54JH2WED4O","either","2","","","","","","","0","1","0","","0.8","0.5","0.5","","","0.8","0.2","","","","","","","","","","","","","74","J","0","img/none_selected_demo.jpg","true","0","80_20_practice"
"319","","bandit","26","167503","0.0-19.0-6.0","28664074","wem/bandit_either","A2AX54JH2WED4O","either","2","","","","","","","1","0","0","0.8","","0.5","0.5","","","","","","","0.8","0.2","","","","","","","","","74","J","0","img/none_selected_demo.jpg","true","0","80_20_practice"
"484","","bandit","27","169493","0.0-19.0-7.0","28664074","wem/bandit_either","A2AX54JH2WED4O","either","2","","","","","","","0","1","0","","0.8","0.5","0.5","","","0.8","0.2","","","","","","","","","","","","","74","J","0","img/none_selected_demo.jpg","true","0","80_20_practice"
"718","","bandit","28","171718","0.0-19.0-8.0","28664074","wem/bandit_either","A2AX54JH2WED4O","either","2","","","","","","","0","0","1","0.2","","0.5","0.5","","","","","","","0.8","0.2","","","","","","","","","75","K","1","","true","0","80_20_practice"
"637","","bandit","29","173862","0.0-19.0-9.0","28664074","wem/bandit_either","A2AX54JH2WED4O","either","2","","","","","","","0","0","1","","0.2","0.5","0.5","","","0.8","0.2","","","","","","","","","","","","","75","K","1","","true","0","80_20_practice"
"612","","bandit","30","175980","0.0-19.0-10.0","28664074","wem/bandit_either","A2AX54JH2WED4O","either","2","","","","","","","0","0","1","0.2","","0.5","0.5","","","","","","","0.8","0.2","","","","","","","","","75","K","1","","true","0","80_20_practice"
"487","","bandit","31","177974","0.0-19.0-11.0","28664074","wem/bandit_either","A2AX54JH2WED4O","either","2","","","","","","","0","0","1","0.2","","0.5","0.5","","","","","","","0.8","0.2","","","","","","","","","75","K","1","","true","0","80_20_practice"
"460","","bandit","32","179942","0.0-19.0-12.0","28664074","wem/bandit_either","A2AX54JH2WED4O","either","2","","","","","","","1","0","0","0.2","","0.5","0.5","","","","","","","0.8","0.2","","","","","","","","","75","K","1","","true","0","80_20_practice"
"460","","bandit","33","181910","0.0-19.0-13.0","28664074","wem/bandit_either","A2AX54JH2WED4O","either","2","","","","","","","0","0","1","0.2","","0.5","0.5","","","","","","","0.8","0.2","","","","","","","","","75","K","1","","true","0","80_20_practice"
"556","","bandit","34","183973","0.0-19.0-14.0","28664074","wem/bandit_either","A2AX54JH2WED4O","either","2","","","","","","","0","0","1","","0.2","0.5","0.5","","","0.8","0.2","","","","","","","","","","","","","75","K","1","","true","0","80_20_practice"
"326","","bandit","35","185804","0.0-19.0-15.0","28664074","wem/bandit_either","A2AX54JH2WED4O","either","2","","","","","","","0","0","1","0.2","","0.5","0.5","","","","","","","0.8","0.2","","","","","","","","","75","K","1","","true","0","80_20_practice"
"454","","bandit","36","187764","0.0-19.0-16.0","28664074","wem/bandit_either","A2AX54JH2WED4O","either","2","","","","","","","0","0","1","0.2","","0.5","0.5","","","","","","","0.8","0.2","","","","","","","","","75","K","1","","true","0","80_20_practice"
"453","","bandit","37","189724","0.0-19.0-17.0","28664074","wem/bandit_either","A2AX54JH2WED4O","either","2","","","","","","","0","0","1","0.2","","0.5","0.5","","","","","","","0.8","0.2","","","","","","","","","75","K","1","","true","0","80_20_practice"
"285","","bandit","38","191516","0.0-19.0-18.0","28664074","wem/bandit_either","A2AX54JH2WED4O","either","2","","","","","","","0","0","1","0.2","","0.5","0.5","","","","","","","0.8","0.2","","","","","","","","","75","K","1","","true","0","80_20_practice"
"342","","bandit","39","193364","0.0-19.0-19.0","28664074","wem/bandit_either","A2AX54JH2WED4O","either","2","","","","","","","0","0","1","","0.2","0.5","0.5","","","0.8","0.2","","","","","","","","","","","","","75","K","1","","true","0","80_20_practice"
"4527","","text","40","197894","0.0-20.0","28664074","wem/bandit_either","A2AX54JH2WED4O","either","2","32","","","","","","","","","","","","","","","","","","","","","","","","","","","","","","","","","","",""
"1061","","bandit","41","200462","0.0-21.0-0.0","28664074","wem/bandit_either","A2AX54JH2WED4O","either","2","","","","","","","0","1","0","0","1","","","","","0","1","","","1","0","","","","","","","","","75","K","1","","true","0",""
"5524","","text","42","205988","0.0-22.0","28664074","wem/bandit_either","A2AX54JH2WED4O","either","2","32","","","","","","","","","","","","","","","","","","","","","","","","","","","","","","","","","","",""
"1872","","text","43","207861","0.0-23.0","28664074","wem/bandit_either","A2AX54JH2WED4O","either","2","32","","","","","","","","","","","","","","","","","","","","","","","","","","","","","","","","","","",""
"1550","","text","44","209413","0.0-24.0","28664074","wem/bandit_either","A2AX54JH2WED4O","either","2","32","","","","","","","","","","","","","","","","","","","","","","","","","","","","","","","","","","",""
"2438","","text","45","211853","0.0-25.0","28664074","wem/bandit_either","A2AX54JH2WED4O","either","2","32","","","","","","","","","","","","","","","","","","","","","","","","","","","","","","","","","","",""
"3069","","text","46","214925","0.0-26.0","28664074","wem/bandit_either","A2AX54JH2WED4O","either","2","32","","","","","","","","","","","","","","","","","","","","","","","","","","","","","","","","","","",""
"2622","","text","47","217549","0.0-27.0","28664074","wem/bandit_either","A2AX54JH2WED4O","either","2","32","","","","","","","","","","","","","","","","","","","","","","","","","","","","","","","","","","",""
"3087","","text","48","220637","0.0-28.0","28664074","wem/bandit_either","A2AX54JH2WED4O","either","2","32","","","","","","","","","","","","","","","","","","","","","","","","","","","","","","","","","","",""
"3524","","text","49","224163","0.0-29.0","28664074","wem/bandit_either","A2AX54JH2WED4O","either","2","32","","","","","","","","","","","","","","","","","","","","","","","","","","","","","","","","","","",""
"3128","","text","50","227292","0.0-30.0","28664074","wem/bandit_either","A2AX54JH2WED4O","either","2","32","","","","","","","","","","","","","","","","","","","","","","","","","","","","","","","","","","",""
"958","","text","51","228253","0.0-31.0","28664074","wem/bandit_either","A2AX54JH2WED4O","either","2","32","","","","","","","","","","","","","","","","","","","","","","","","","","","","","","","","","","",""
"4138","","text","52","232393","0.0-32.0","28664074","wem/bandit_either","A2AX54JH2WED4O","either","2","32","","","","","","","","","","","","","","","","","","","","","","","","","","","","","","","","","","",""
"1620","","bandit","53","235521","0.0-33.0-0.0","28664074","wem/bandit_either","A2AX54JH2WED4O","either","2","","","","","","","0","0","1","0.8","","0.5","0.5","0.5","0.5","","","","","0.8","0.2","0.6","0.2","","","","","","","72","H","0","img/none_selected.jpg","true","0","full_practice"
"691","","bandit","54","237718","0.0-33.0-1.0","28664074","wem/bandit_either","A2AX54JH2WED4O","either","2","","","","","","","0","1","0","","0.8","0.5","0.5","0.5","0.5","0.8","0.2","0.6","0.2","","","","","","","","","","","72","H","0","img/none_selected.jpg","true","0","full_practice"
"352","","bandit","55","239577","0.0-33.0-2.0","28664074","wem/bandit_either","A2AX54JH2WED4O","either","2","","","","","","","0","1","0","","0.8","0.5","0.5","0.5","0.5","0.8","0.2","0.6","0.2","","","","","","","","","","","72","H","0","img/none_selected.jpg","true","0","full_practice"
"341","","bandit","56","241426","0.0-33.0-3.0","28664074","wem/bandit_either","A2AX54JH2WED4O","either","2","","","","","","","0","0","1","0.2","","0.5","0.5","0.5","0.5","","","","","0.8","0.2","0.6","0.2","","","","","","","74","J","1","","true","0","full_practice"
"371","","bandit","57","243304","0.0-33.0-4.0","28664074","wem/bandit_either","A2AX54JH2WED4O","either","2","","","","","","","0","0","1","","0.2","0.5","0.5","0.5","0.5","0.8","0.2","0.6","0.2","","","","","","","","","","","74","J","1","","true","0","full_practice"
"326","","bandit","58","245137","0.0-33.0-5.0","28664074","wem/bandit_either","A2AX54JH2WED4O","either","2","","","","","","","0","0","1","0.2","","0.5","0.5","0.5","0.5","","","","","0.8","0.2","0.6","0.2","","","","","","","74","J","1","","true","0","full_practice"
"389","","bandit","59","247034","0.0-33.0-6.0","28664074","wem/bandit_either","A2AX54JH2WED4O","either","2","","","","","","","0","0","1","","0.6","0.5","0.5","0.5","0.5","0.8","0.2","0.6","0.2","","","","","","","","","","","75","K","2","","true","0","full_practice"
"261","","bandit","60","248801","0.0-33.0-7.0","28664074","wem/bandit_either","A2AX54JH2WED4O","either","2","","","","","","","0","0","1","","0.6","0.5","0.5","0.5","0.5","0.8","0.2","0.6","0.2","","","","","","","","","","","75","K","2","","true","0","full_practice"
"302","","bandit","61","250610","0.0-33.0-8.0","28664074","wem/bandit_either","A2AX54JH2WED4O","either","2","","","","","","","0","1","0","","0.6","0.5","0.5","0.5","0.5","0.8","0.2","0.6","0.2","","","","","","","","","","","75","K","2","","true","0","full_practice"
"348","","bandit","62","252466","0.0-33.0-9.0","28664074","wem/bandit_either","A2AX54JH2WED4O","either","2","","","","","","","0","0","1","0.2","","0.5","0.5","0.5","0.5","","","","","0.8","0.2","0.6","0.2","","","","","","","76","L","3","","true","0","full_practice"
"4","","bandit","63","253977","0.0-33.0-10.0","28664074","wem/bandit_either","A2AX54JH2WED4O","either","2","","","","","","","0","0","1","","0.2","0.5","0.5","0.5","0.5","0.8","0.2","0.6","0.2","","","","","","","","","","","76","L","3","","true","0","full_practice"
"911","","bandit","64","256393","0.0-33.0-11.0","28664074","wem/bandit_either","A2AX54JH2WED4O","either","2","","","","","","","0","0","1","0.2","","0.5","0.5","0.5","0.5","","","","","0.8","0.2","0.6","0.2","","","","","","","76","L","3","","true","0","full_practice"
"397","","bandit","65","258297","0.0-33.0-12.0","28664074","wem/bandit_either","A2AX54JH2WED4O","either","2","","","","","","","0","0","1","","0.2","0.5","0.5","0.5","0.5","0.8","0.2","0.6","0.2","","","","","","","","","","","76","L","3","","true","0","full_practice"
"445","","bandit","66","260250","0.0-33.0-13.0","28664074","wem/bandit_either","A2AX54JH2WED4O","either","2","","","","","","","0","0","1","0.2","","0.5","0.5","0.5","0.5","","","","","0.8","0.2","0.6","0.2","","","","","","","76","L","3","","true","0","full_practice"
"324","","bandit","67","262082","0.0-33.0-14.0","28664074","wem/bandit_either","A2AX54JH2WED4O","either","2","","","","","","","0","0","1","","0.2","0.5","0.5","0.5","0.5","0.8","0.2","0.6","0.2","","","","","","","","","","","76","L","3","","true","0","full_practice"
"290","","bandit","68","263880","0.0-33.0-15.0","28664074","wem/bandit_either","A2AX54JH2WED4O","either","2","","","","","","","0","0","1","","0.2","0.5","0.5","0.5","0.5","0.8","0.2","0.6","0.2","","","","","","","","","","","76","L","3","","true","0","full_practice"
"359","","bandit","69","265745","0.0-33.0-16.0","28664074","wem/bandit_either","A2AX54JH2WED4O","either","2","","","","","","","0","0","1","0.2","","0.5","0.5","0.5","0.5","","","","","0.8","0.2","0.6","0.2","","","","","","","76","L","3","","true","0","full_practice"
"644","","bandit","70","267898","0.0-33.0-17.0","28664074","wem/bandit_either","A2AX54JH2WED4O","either","2","","","","","","","0","1","0","","0.2","0.5","0.5","0.5","0.5","0.8","0.2","0.6","0.2","","","","","","","","","","","76","L","3","","true","0","full_practice"
"346","","bandit","71","269750","0.0-33.0-18.0","28664074","wem/bandit_either","A2AX54JH2WED4O","either","2","","","","","","","1","0","0","0.6","","0.5","0.5","0.5","0.5","","","","","0.8","0.2","0.6","0.2","","","","","","","75","K","2","","true","0","full_practice"
"326","","bandit","72","271585","0.0-33.0-19.0","28664074","wem/bandit_either","A2AX54JH2WED4O","either","2","","","","","","","0","1","0","","0.6","0.5","0.5","0.5","0.5","0.8","0.2","0.6","0.2","","","","","","","","","","","75","K","2","","true","0","full_practice"
"6826","","text","73","278416","0.0-34.0","28664074","wem/bandit_either","A2AX54JH2WED4O","either","2","32","","","","","","","","","","","","","","","","","","","","","","","","","","","","","","","","","","",""
"11931","","text","74","291350","0.0-35.0","28664074","wem/bandit_either","A2AX54JH2WED4O","either","2","32","","","","","","","","","","","","","","","","","","","","","","","","","","","","","","","","","","",""
"5987","","text","75","297340","0.0-36.0","28664074","wem/bandit_either","A2AX54JH2WED4O","either","2","32","","","","","","","","","","","","","","","","","","","","","","","","","","","","","","","","","","",""
"4202","","text","76","301544","0.0-37.0","28664074","wem/bandit_either","A2AX54JH2WED4O","either","2","32","","","","","","","","","","","","","","","","","","","","","","","","","","","","","","","","","","",""
"3484","","text","77","305031","0.0-38.0","28664074","wem/bandit_either","A2AX54JH2WED4O","either","2","32","","","","","","","","","","","","","","","","","","","","","","","","","","","","","","","","","","",""
"981","","text","78","306014","0.0-39.0","28664074","wem/bandit_either","A2AX54JH2WED4O","either","2","32","","","","","","","","","","","","","","","","","","","","","","","","","","","","","","","","","","",""
"2030","","bandit","79","309550","0.0-40.0-0.0","28664074","wem/bandit_either","A2AX54JH2WED4O","either","2","","","","","","","0","1","0","","0.326135308","0.8","0.2","0.4","0.6","0.362799796","0.3653736811","0.4781977867","0.326135308","","","","","","","","","","","76","L","3","","","1","main_expt"
"46","","bandit","80","311103","0.0-41.0-0.0","28664074","wem/bandit_either","A2AX54JH2WED4O","either","2","","","","","","","1","0","0","0.4765481994","","0.8","0.2","0.4","0.6","","","","","0.3891507205","0.3999069229","0.4765481994","0.3564958201","","","","","","","75","K","2","","","2","main_expt"
"133","","bandit","81","312742","0.0-42.0-0.0","28664074","wem/bandit_either","A2AX54JH2WED4O","either","2","","","","","","","0","1","0","","0.4722158263","0.8","0.2","0.4","0.6","0.3151339382","0.4363582421","0.4722158263","0.3309056029","","","","","","","","","","","75","K","2","","","3","main_expt"
"78","","bandit","82","314326","0.0-43.0-0.0","28664074","wem/bandit_either","A2AX54JH2WED4O","either","2","","","","","","","0","1","0","","0.4609570051","0.8","0.2","0.4","0.6","0.250648122","0.4300921111","0.4609570051","0.308467875","","","","","","","","","","","75","K","2","","","4","main_expt"
"1823","","bandit","83","317656","0.0-44.0-0.0","28664074","wem/bandit_either","A2AX54JH2WED4O","either","2","","","","","","","0","0","1","","0.3863220662","0.8","0.2","0.4","0.6","0.2382585344","0.3863220662","0.4707799186","0.3349995635","","","","","","","","","","","74","J","1","","","5","main_expt"
"2196","","bandit","84","321358","0.0-45.0-0.0","28664074","wem/bandit_either","A2AX54JH2WED4O","either","2","","","","","","","0","0","1","0.4192648028","","0.8","0.2","0.4","0.6","","","","","0.2088101903","0.4192648028","0.4676743975","0.3743101545","","","","","","","74","J","1","","","6","main_expt"
"383","","bandit","85","323247","0.0-46.0-0.0","28664074","wem/bandit_either","A2AX54JH2WED4O","either","2","","","","","","","0","1","0","","0.4218548145","0.8","0.2","0.4","0.6","0.1884279889","0.4218548145","0.4767364015","0.377506125","","","","","","","","","","","74","J","1","","","7","main_expt"
"1453","","bandit","86","326205","0.0-47.0-0.0","28664074","wem/bandit_either","A2AX54JH2WED4O","either","2","","","","","","","0","0","1","0.2297930851","","0.8","0.2","0.4","0.6","","","","","0.2297930851","0.4298914749","0.4837409877","0.3452849142","","","","","","","72","H","0","img/none_selected.jpg","","8","main_expt"
"327","","bandit","87","328039","0.0-48.0-0.0","28664074","wem/bandit_either","A2AX54JH2WED4O","either","2","","","","","","","0","0","1","","0.2219539873","0.8","0.2","0.4","0.6","0.2219539873","0.4215440671","0.4825212187","0.2713567333","","","","","","","","","","","72","H","0","img/none_selected.jpg","","9","main_expt"
"324","","bandit","88","329869","0.0-49.0-0.0","28664074","wem/bandit_either","A2AX54JH2WED4O","either","2","","","","","","","0","0","1","","0.2398128751","0.8","0.2","0.4","0.6","0.2398128751","0.3991616263","0.4791264729","0.2712708503","","","","","","","","","","","72","H","0","img/none_selected.jpg","","10","main_expt"
"118","","bandit","89","331494","0.0-50.0-0.0","28664074","wem/bandit_either","A2AX54JH2WED4O","either","2","","","","","","","0","0","1","0.2551733424","","0.8","0.2","0.4","0.6","","","","","0.2551733424","0.4002673883","0.4762013833","0.2635531688","","","","","","","72","H","0","img/none_selected.jpg","","11","main_expt"
"348","","bandit","90","333348","0.0-51.0-0.0","28664074","wem/bandit_either","A2AX54JH2WED4O","either","2","","","","","","","1","0","0","0.2593424883","","0.8","0.2","0.4","0.6","","","","","0.2593424883","0.368629831","0.4729837645","0.2669056975","","","","","","","72","H","0","img/none_selected.jpg","","12","main_expt"
"511","","bandit","91","335367","0.0-52.0-0.0","28664074","wem/bandit_either","A2AX54JH2WED4O","either","2","","","","","","","0","1","0","","0.4189726289","0.8","0.2","0.4","0.6","0.2493591627","0.4189726289","0.4749786695","0.3204456557","","","","","","","","","","","74","J","1","","","13","main_expt"
"340","","bandit","92","337214","0.0-53.0-0.0","28664074","wem/bandit_either","A2AX54JH2WED4O","either","2","","","","","","","0","1","0","","0.4810115094","0.8","0.2","0.4","0.6","0.2686446846","0.4352425359","0.4810115094","0.3466526728","","","","","","","","","","","75","K","2","","","14","main_expt"
"526","","bandit","93","339246","0.0-54.0-0.0","28664074","wem/bandit_either","A2AX54JH2WED4O","either","2","","","","","","","0","1","0","","0.3736671224","0.8","0.2","0.4","0.6","0.2690169042","0.3819090161","0.4705329286","0.3736671224","","","","","","","","","","","76","L","3","","","15","main_expt"
"316","","bandit","94","341070","0.0-55.0-0.0","28664074","wem/bandit_either","A2AX54JH2WED4O","either","2","","","","","","","0","0","1","0.2518303543","","0.8","0.2","0.4","0.6","","","","","0.2518303543","0.3737760256","0.4687419894","0.3778143907","","","","","","","72","H","0","img/none_selected.jpg","","16","main_expt"
"1102","","bandit","95","343679","0.0-56.0-0.0","28664074","wem/bandit_either","A2AX54JH2WED4O","either","2","","","","","","","1","0","0","0.2406549936","","0.8","0.2","0.4","0.6","","","","","0.2406549936","0.4151791473","0.4594180265","0.3845750066","","","","","","","72","H","0","img/none_selected.jpg","","17","main_expt"
"547","","bandit","96","345734","0.0-57.0-0.0","28664074","wem/bandit_either","A2AX54JH2WED4O","either","2","","","","","","","0","0","1","0.2670149403","","0.8","0.2","0.4","0.6","","","","","0.2670149403","0.4137363134","0.425397146","0.4041286345","","","","","","","72","H","0","img/none_selected.jpg","","18","main_expt"
"459","","bandit","97","347700","0.0-58.0-0.0","28664074","wem/bandit_either","A2AX54JH2WED4O","either","2","","","","","","","0","0","1","0.2658482338","","0.8","0.2","0.4","0.6","","","","","0.2658482338","0.4084056464","0.4201246927","0.4127350431","","","","","","","72","H","0","img/none_selected.jpg","","19","main_expt"
"383","","bandit","98","349590","0.0-59.0-0.0","28664074","wem/bandit_either","A2AX54JH2WED4O","either","2","","","","","","","0","1","0","","0.2452433766","0.8","0.2","0.4","0.6","0.2452433766","0.4129175496","0.3954271328","0.4107359536","","","","","","","","","","","72","H","0","img/none_selected.jpg","","20","main_expt"
"347","","bandit","99","351444","0.0-60.0-0.0","28664074","wem/bandit_either","A2AX54JH2WED4O","either","2","","","","","","","0","0","1","0.2298761452","","0.8","0.2","0.4","0.6","","","","","0.2298761452","0.3888488162","0.4196431029","0.3954861765","","","","","","","72","H","0","img/none_selected.jpg","","21","main_expt"
"261","","bandit","100","353214","0.0-61.0-0.0","28664074","wem/bandit_either","A2AX54JH2WED4O","either","2","","","","","","","1","0","0","0.266827693","","0.8","0.2","0.4","0.6","","","","","0.266827693","0.3873149631","0.3843335182","0.3805979297","","","","","","","72","H","0","img/none_selected.jpg","","22","main_expt"
"397","","bandit","101","355118","0.0-62.0-0.0","28664074","wem/bandit_either","A2AX54JH2WED4O","either","2","","","","","","","0","0","1","0.2519769849","","0.8","0.2","0.4","0.6","","","","","0.2519769849","0.3659772031","0.3839977458","0.425451992","","","","","","","72","H","0","img/none_selected.jpg","","23","main_expt"
"565","","bandit","102","357190","0.0-63.0-0.0","28664074","wem/bandit_either","A2AX54JH2WED4O","either","2","","","","","","","1","0","0","0.2447613107","","0.8","0.2","0.4","0.6","","","","","0.2447613107","0.3594327093","0.3338939571","0.4699447661","","","","","","","72","H","0","img/none_selected.jpg","","24","main_expt"
"372","","bandit","103","359070","0.0-64.0-0.0","28664074","wem/bandit_either","A2AX54JH2WED4O","either","2","","","","","","","0","0","1","","0.2350413847","0.8","0.2","0.4","0.6","0.2350413847","0.3719143394","0.324486952","0.4484050393","","","","","","","","","","","72","H","0","img/none_selected.jpg","","25","main_expt"
"374","","bandit","104","360949","0.0-65.0-0.0","28664074","wem/bandit_either","A2AX54JH2WED4O","either","2","","","","","","","0","0","1","","0.207774486","0.8","0.2","0.4","0.6","0.207774486","0.3690014044","0.3095710384","0.4190234423","","","","","","","","","","","72","H","0","img/none_selected.jpg","","26","main_expt"
"382","","bandit","105","362835","0.0-66.0-0.0","28664074","wem/bandit_either","A2AX54JH2WED4O","either","2","","","","","","","0","1","0","","0.2164182795","0.8","0.2","0.4","0.6","0.2164182795","0.3940030818","0.3355629191","0.4251478254","","","","","","","","","","","72","H","0","img/none_selected.jpg","","27","main_expt"
"471","","bandit","106","364813","0.0-67.0-0.0","28664074","wem/bandit_either","A2AX54JH2WED4O","either","2","","","","","","","0","0","1","","0.3668681485","0.8","0.2","0.4","0.6","0.2164031865","0.4111080327","0.3668681485","0.4287328697","","","","","","","","","","","75","K","2","","","28","main_expt"
"412","","bandit","107","366733","0.0-68.0-0.0","28664074","wem/bandit_either","A2AX54JH2WED4O","either","2","","","","","","","0","0","1","0.343198694","","0.8","0.2","0.4","0.6","","","","","0.2770000278","0.41290056","0.343198694","0.4106025245","","","","","","","75","K","2","","","29","main_expt"
"315","","bandit","108","368557","0.0-69.0-0.0","28664074","wem/bandit_either","A2AX54JH2WED4O","either","2","","","","","","","0","0","1","0.326069126","","0.8","0.2","0.4","0.6","","","","","0.2354797847","0.3937480262","0.326069126","0.3942494676","","","","","","","75","K","2","","","30","main_expt"
"252","","bandit","109","370318","0.0-70.0-0.0","28664074","wem/bandit_either","A2AX54JH2WED4O","either","2","","","","","","","0","0","1","","0.3390127419","0.8","0.2","0.4","0.6","0.2692030882","0.3997016236","0.3390127419","0.4285056211","","","","","","","","","","","75","K","2","","","31","main_expt"
"316","","bandit","110","372140","0.0-71.0-0.0","28664074","wem/bandit_either","A2AX54JH2WED4O","either","2","","","","","","","0","1","0","","0.4249454459","0.8","0.2","0.4","0.6","0.2471118655","0.3574295763","0.3360649894","0.4249454459","","","","","","","","","","","76","L","3","","","32","main_expt"
"285","","bandit","111","373932","0.0-72.0-0.0","28664074","wem/bandit_either","A2AX54JH2WED4O","either","2","","","","","","","1","0","0","0.416417765","","0.8","0.2","0.4","0.6","","","","","0.2879199001","0.3877818659","0.3052602024","0.416417765","","","","","","","76","L","3","","","33","main_expt"
"326","","bandit","112","375766","0.0-73.0-0.0","28664074","wem/bandit_either","A2AX54JH2WED4O","either","2","","","","","","","0","0","1","0.4623714429","","0.8","0.2","0.4","0.6","","","","","0.3180115212","0.3799496232","0.3594788954","0.4623714429","","","","","","","76","L","3","","","34","main_expt"
"235","","bandit","113","377510","0.0-74.0-0.0","28664074","wem/bandit_either","A2AX54JH2WED4O","either","2","","","","","","","0","1","0","","0.4591977302","0.8","0.2","0.4","0.6","0.2524306687","0.3577573403","0.380235832","0.4591977302","","","","","","","","","","","76","L","3","","","35","main_expt"
"107","","bandit","114","379126","0.0-75.0-0.0","28664074","wem/bandit_either","A2AX54JH2WED4O","either","2","","","","","","","0","0","1","0.4686235256","","0.8","0.2","0.4","0.6","","","","","0.2351869563","0.3895375856","0.3459989602","0.4686235256","","","","","","","76","L","3","","","36","main_expt"
"227","","bandit","115","380862","0.0-76.0-0.0","28664074","wem/bandit_either","A2AX54JH2WED4O","either","2","","","","","","","1","0","0","0.4571547709","","0.8","0.2","0.4","0.6","","","","","0.2629170466","0.3783527007","0.3320905149","0.4571547709","","","","","","","76","L","3","","","37","main_expt"
"579","","bandit","116","382949","0.0-77.0-0.0","28664074","wem/bandit_either","A2AX54JH2WED4O","either","2","","","","","","","0","0","1","0.4688430709","","0.8","0.2","0.4","0.6","","","","","0.3090194305","0.284076782","0.3471020919","0.4688430709","","","","","","","76","L","3","","","38","main_expt"
"195","","bandit","117","384653","0.0-78.0-0.0","28664074","wem/bandit_either","A2AX54JH2WED4O","either","2","","","","","","","0","0","1","0.4612923778","","0.8","0.2","0.4","0.6","","","","","0.2845371228","0.3388972186","0.3401763967","0.4612923778","","","","","","","76","L","3","","","39","main_expt"
"523","","bandit","118","386685","0.0-79.0-0.0","28664074","wem/bandit_either","A2AX54JH2WED4O","either","2","","","","","","","1","0","0","0.3260487483","","0.8","0.2","0.4","0.6","","","","","0.3076259244","0.2663655232","0.3260487483","0.4576194683","","","","","","","75","K","2","","","40","main_expt"
"315","","bandit","119","388508","0.0-80.0-0.0","28664074","wem/bandit_either","A2AX54JH2WED4O","either","2","","","","","","","0","1","0","","0.3390218734","0.8","0.2","0.4","0.6","0.2888769276","0.2608266697","0.3390218734","0.4473921051","","","","","","","","","","","75","K","2","","","41","main_expt"
"345","","bandit","120","390359","0.0-81.0-0.0","28664074","wem/bandit_either","A2AX54JH2WED4O","either","2","","","","","","","1","0","0","0.2889680017","","0.8","0.2","0.4","0.6","","","","","0.2639198141","0.2287676803","0.2889680017","0.425470286","","","","","","","75","K","2","","","42","main_expt"
"219","","bandit","121","392084","0.0-82.0-0.0","28664074","wem/bandit_either","A2AX54JH2WED4O","either","2","","","","","","","0","0","1","","0.2784828801","0.8","0.2","0.4","0.6","0.2255441472","0.2043112358","0.2784828801","0.4030522017","","","","","","","","","","","75","K","2","","","43","main_expt"
"181","","bandit","122","393772","0.0-83.0-0.0","28664074","wem/bandit_either","A2AX54JH2WED4O","either","2","","","","","","","0","0","1","","0.1957049551","0.8","0.2","0.4","0.6","0.2050272072","0.1957049551","0.2805729819","0.4106315797","","","","","","","","","","","74","J","1","","","44","main_expt"
"308","","bandit","123","395587","0.0-84.0-0.0","28664074","wem/bandit_either","A2AX54JH2WED4O","either","2","","","","","","","0","0","1","","0.2207366272","0.8","0.2","0.4","0.6","0.239455925","0.2207366272","0.2195119073","0.4258527362","","","","","","","","","","","74","J","1","","","45","main_expt"
"380","","bandit","124","397475","0.0-85.0-0.0","28664074","wem/bandit_either","A2AX54JH2WED4O","either","2","","","","","","","0","0","1","","0.2657932304","0.8","0.2","0.4","0.6","0.2414778298","0.1727988076","0.2657932304","0.4425966235","","","","","","","","","","","75","K","2","","","46","main_expt"
"198","","bandit","125","399180","0.0-86.0-0.0","28664074","wem/bandit_either","A2AX54JH2WED4O","either","2","","","","","","","0","0","1","","0.4428977597","0.8","0.2","0.4","0.6","0.1884211613","0.1446735631","0.2678398397","0.4428977597","","","","","","","","","","","76","L","3","","","47","main_expt"
"308","","bandit","126","400997","0.0-87.0-0.0","28664074","wem/bandit_either","A2AX54JH2WED4O","either","2","","","","","","","1","0","0","0.4479964269","","0.8","0.2","0.4","0.6","","","","","0.1755274282","0.1681765936","0.2866904938","0.4479964269","","","","","","","76","L","3","","","48","main_expt"
"316","","bandit","127","402820","0.0-88.0-0.0","28664074","wem/bandit_either","A2AX54JH2WED4O","either","2","","","","","","","0","0","1","0.4660387519","","0.8","0.2","0.4","0.6","","","","","0.1646396384","0.1473883531","0.2803848884","0.4660387519","","","","","","","76","L","3","","","49","main_expt"
"435","","bandit","128","404765","0.0-89.0-0.0","28664074","wem/bandit_either","A2AX54JH2WED4O","either","2","","","","","","","1","0","0","0.2587411269","","0.8","0.2","0.4","0.6","","","","","0.2024226619","0.1378170987","0.2587411269","0.4345757832","","","","","","","75","K","2","","","50","main_expt"
"194","","bandit","129","406469","0.0-90.0-0.0","28664074","wem/bandit_either","A2AX54JH2WED4O","either","2","","","","","","","0","0","1","","0.1430360168","0.8","0.2","0.4","0.6","0.1976760068","0.1430360168","0.2212901065","0.4450950844","","","","","","","","","","","74","J","1","","","51","main_expt"
"426","","bandit","130","408405","0.0-91.0-0.0","28664074","wem/bandit_either","A2AX54JH2WED4O","either","2","","","","","","","0","0","1","0.1796352224","","0.8","0.2","0.4","0.6","","","","","0.1796352224","0.1731798725","0.236006857","0.4475354499","","","","","","","72","H","0","img/none_selected.jpg","","52","main_expt"
"179","","bandit","131","410093","0.0-92.0-0.0","28664074","wem/bandit_either","A2AX54JH2WED4O","either","2","","","","","","","0","0","1","","0.1312409056","0.8","0.2","0.4","0.6","0.2451732725","0.1312409056","0.2660825342","0.4627294295","","","","","","","","","","","74","J","1","","","53","main_expt"
"99","","bandit","132","411702","0.0-93.0-0.0","28664074","wem/bandit_either","A2AX54JH2WED4O","either","2","","","","","","","0","0","1","0.2458345041","","0.8","0.2","0.4","0.6","","","","","0.2621482643","0.1862053218","0.2458345041","0.44829207","","","","","","","75","K","2","","","54","main_expt"
"466","","bandit","133","413677","0.0-94.0-0.0","28664074","wem/bandit_either","A2AX54JH2WED4O","either","2","","","","","","","0","0","1","","0.4505537928","0.8","0.2","0.4","0.6","0.2441780383","0.1733563037","0.2265690781","0.4505537928","","","","","","","","","","","76","L","3","","","55","main_expt"
"339","","bandit","134","415526","0.0-95.0-0.0","28664074","wem/bandit_either","A2AX54JH2WED4O","either","2","","","","","","","1","0","0","0.4686400132","","0.8","0.2","0.4","0.6","","","","","0.199729785","0.1728369204","0.2741820357","0.4686400132","","","","","","","76","L","3","","","56","main_expt"
"482","","bandit","135","417518","0.0-96.0-0.0","28664074","wem/bandit_either","A2AX54JH2WED4O","either","2","","","","","","","1","0","0","0.4572679106","","0.8","0.2","0.4","0.6","","","","","0.1945085845","0.09176359954","0.2937641054","0.4572679106","","","","","","","76","L","3","","","57","main_expt"
"314","","bandit","136","419340","0.0-97.0-0.0","28664074","wem/bandit_either","A2AX54JH2WED4O","either","2","","","","","","","0","0","1","","0.4300169527","0.8","0.2","0.4","0.6","0.2614759052","0.04991422033","0.2949827607","0.4300169527","","","","","","","","","","","76","L","3","","","58","main_expt"
"1011","","bandit","137","421861","0.0-98.0-0.0","28664074","wem/bandit_either","A2AX54JH2WED4O","either","2","","","","","","","0","0","1","0.2426118991","","0.8","0.2","0.4","0.6","","","","","0.2426118991","0.053239915","0.2710075273","0.4050829606","","","","","","","72","H","0","img/none_selected.jpg","","59","main_expt"
"178","","bandit","138","423549","0.0-99.0-0.0","28664074","wem/bandit_either","A2AX54JH2WED4O","either","2","","","","","","","0","0","1","","0.2623750897","0.8","0.2","0.4","0.6","0.2623750897","0.06994226662","0.2766623035","0.4070720156","","","","","","","","","","","72","H","0","img/none_selected.jpg","","60","main_expt"
"674","","bandit","139","425731","0.0-100.0-0.0","28664074","wem/bandit_either","A2AX54JH2WED4O","either","2","","","","","","","0","0","1","","0.07064832373","0.8","0.2","0.4","0.6","0.2139103784","0.07064832373","0.2574592035","0.3895400789","","","","","","","","","","","74","J","1","","","61","main_expt"
"365","","bandit","140","427603","0.0-101.0-0.0","28664074","wem/bandit_either","A2AX54JH2WED4O","either","2","","","","","","","1","0","0","0.2425209234","","0.8","0.2","0.4","0.6","","","","","0.2566580444","0.08925217872","0.2425209234","0.4050708951","","","","","","","75","K","2","","","62","main_expt"
"341","","bandit","141","429452","0.0-102.0-0.0","28664074","wem/bandit_either","A2AX54JH2WED4O","either","2","","","","","","","0","0","1","0.2294211584","","0.8","0.2","0.4","0.6","","","","","0.2393402704","0.08505035955","0.2294211584","0.3765761212","","","","","","","75","K","2","","","63","main_expt"
"652","","bandit","142","431611","0.0-103.0-0.0","28664074","wem/bandit_either","A2AX54JH2WED4O","either","2","","","","","","","0","0","1","","0.2350173232","0.8","0.2","0.4","0.6","0.300105392","0.09892528285","0.2350173232","0.3859881554","","","","","","","","","","","75","K","2","","","64","main_expt"
"805","","bandit","143","433923","0.0-104.0-0.0","28664074","wem/bandit_either","A2AX54JH2WED4O","either","2","","","","","","","0","1","0","","0.3817039273","0.8","0.2","0.4","0.6","0.2584268813","0.1428545766","0.2775473173","0.3817039273","","","","","","","","","","","76","L","3","","","65","main_expt"
"317","","bandit","144","435750","0.0-105.0-0.0","28664074","wem/bandit_either","A2AX54JH2WED4O","either","2","","","","","","","0","0","1","","0.3622232449","0.8","0.2","0.4","0.6","0.2536378703","0.120440259","0.298861572","0.3622232449","","","","","","","","","","","76","L","3","","","66","main_expt"
"370","","bandit","145","437628","0.0-106.0-0.0","28664074","wem/bandit_either","A2AX54JH2WED4O","either","2","","","","","","","0","1","0","","0.3043747659","0.8","0.2","0.4","0.6","0.2548884231","0.2019700983","0.3043747659","0.3768721334","","","","","","","","","","","75","K","2","","","67","main_expt"
"338","","bandit","146","439475","0.0-107.0-0.0","28664074","wem/bandit_either","A2AX54JH2WED4O","either","2","","","","","","","0","0","1","0.1467862533","","0.8","0.2","0.4","0.6","","","","","0.2105458193","0.1467862533","0.2533072519","0.3826604183","","","","","","","74","J","1","","","68","main_expt"
"364","","bandit","147","441347","0.0-108.0-0.0","28664074","wem/bandit_either","A2AX54JH2WED4O","either","2","","","","","","","0","0","1","0.2901666962","","0.8","0.2","0.4","0.6","","","","","0.2901666962","0.09022805221","0.2451677402","0.3981811202","","","","","","","72","H","0","img/none_selected.jpg","","69","main_expt"
"398","","bandit","148","443252","0.0-109.0-0.0","28664074","wem/bandit_either","A2AX54JH2WED4O","either","2","","","","","","","0","0","1","","0.1128827508","0.8","0.2","0.4","0.6","0.2973761433","0.1128827508","0.2403061491","0.3936557204","","","","","","","","","","","74","J","1","","","70","main_expt"
"619","","bandit","149","445380","0.0-110.0-0.0","28664074","wem/bandit_either","A2AX54JH2WED4O","either","2","","","","","","","1","0","0","0.1917576795","","0.8","0.2","0.4","0.6","","","","","0.2737706179","0.1184182172","0.1917576795","0.3949471057","","","","","","","75","K","2","","","71","main_expt"
"282","","bandit","150","447172","0.0-111.0-0.0","28664074","wem/bandit_either","A2AX54JH2WED4O","either","2","","","","","","","0","0","1","","0.3888869603","0.8","0.2","0.4","0.6","0.3005227265","0.1038133506","0.1894079546","0.3888869603","","","","","","","","","","","76","L","3","","","72","main_expt"
"315","","bandit","151","448995","0.0-112.0-0.0","28664074","wem/bandit_either","A2AX54JH2WED4O","either","2","","","","","","","1","0","0","0.235909594","","0.8","0.2","0.4","0.6","","","","","0.3205676235","0.07830871569","0.235909594","0.4015056825","","","","","","","75","K","2","","","73","main_expt"
"116","","bandit","152","450620","0.0-113.0-0.0","28664074","wem/bandit_either","A2AX54JH2WED4O","either","2","","","","","","","0","0","1","","0.09226686474","0.8","0.2","0.4","0.6","0.3040473008","0.09226686474","0.2772030277","0.4200542591","","","","","","","","","","","74","J","1","","","74","main_expt"
"283","","bandit","153","452411","0.0-114.0-0.0","28664074","wem/bandit_either","A2AX54JH2WED4O","either","2","","","","","","","0","0","1","0.2686744794","","0.8","0.2","0.4","0.6","","","","","0.2686744794","0.07948082514","0.2237268092","0.4353174817","","","","","","","72","H","0","img/none_selected.jpg","","75","main_expt"
"365","","bandit","154","454285","0.0-115.0-0.0","28664074","wem/bandit_either","A2AX54JH2WED4O","either","2","","","","","","","0","1","0","","0.1279570505","0.8","0.2","0.4","0.6","0.258707356","0.1279570505","0.1739375455","0.4196821318","","","","","","","","","","","74","J","1","","","76","main_expt"
"258","","bandit","155","456051","0.0-116.0-0.0","28664074","wem/bandit_either","A2AX54JH2WED4O","either","2","","","","","","","0","0","1","","0.1648796623","0.8","0.2","0.4","0.6","0.3010070056","0.1202820049","0.1648796623","0.3787369199","","","","","","","","","","","75","K","2","","","77","main_expt"
"371","","bandit","156","457930","0.0-117.0-0.0","28664074","wem/bandit_either","A2AX54JH2WED4O","either","2","","","","","","","0","0","1","","0.1054071572","0.8","0.2","0.4","0.6","0.2648586626","0.1054071572","0.1637798684","0.4314930014","","","","","","","","","","","74","J","1","","","78","main_expt"
"141","","bandit","157","459576","0.0-118.0-0.0","28664074","wem/bandit_either","A2AX54JH2WED4O","either","2","","","","","","","0","0","1","0.1490076182","","0.8","0.2","0.4","0.6","","","","","0.1984114041","0.1403095361","0.1490076182","0.4155078174","","","","","","","75","K","2","","","79","main_expt"
"14","","bandit","158","461097","0.0-119.0-0.0","28664074","wem/bandit_either","A2AX54JH2WED4O","either","2","","","","","","","0","1","0","","0.4226243671","0.8","0.2","0.4","0.6","0.180325551","0.1891235553","0.1093198388","0.4226243671","","","","","","","","","","","76","L","3","","","80","main_expt"
"286","","bandit","159","462890","0.0-120.0-0.0","28664074","wem/bandit_either","A2AX54JH2WED4O","either","2","","","","","","","0","0","1","0.224531153","","0.8","0.2","0.4","0.6","","","","","0.224531153","0.1858030354","0.08868186825","0.4474166549","","","","","","","72","H","0","img/none_selected.jpg","","81","main_expt"
"220","","bandit","160","464618","0.0-121.0-0.0","28664074","wem/bandit_either","A2AX54JH2WED4O","either","2","","","","","","","0","0","1","","0.2476542501","0.8","0.2","0.4","0.6","0.221125015","0.2476542501","0.1073880826","0.4636297045","","","","","","","","","","","74","J","1","","","82","main_expt"
"290","","bandit","161","466417","0.0-122.0-0.0","28664074","wem/bandit_either","A2AX54JH2WED4O","either","2","","","","","","","0","0","1","0.1022587498","","0.8","0.2","0.4","0.6","","","","","0.2143237207","0.2188241074","0.1022587498","0.467509749","","","","","","","75","K","2","","","83","main_expt"
"332","","bandit","162","468257","0.0-123.0-0.0","28664074","wem/bandit_either","A2AX54JH2WED4O","either","2","","","","","","","0","1","0","","0.4551111531","0.8","0.2","0.4","0.6","0.2097367537","0.2754771977","0.1085807699","0.4551111531","","","","","","","","","","","76","L","3","","","84","main_expt"
"390","","bandit","163","470155","0.0-124.0-0.0","28664074","wem/bandit_either","A2AX54JH2WED4O","either","2","","","","","","","0","0","1","0.4621419017","","0.8","0.2","0.4","0.6","","","","","0.1661536269","0.2965575968","0.1263918358","0.4621419017","","","","","","","76","L","3","","","85","main_expt"
"307","","bandit","164","471970","0.0-125.0-0.0","28664074","wem/bandit_either","A2AX54JH2WED4O","either","2","","","","","","","0","0","1","0.1481941301","","0.8","0.2","0.4","0.6","","","","","0.1364458955","0.257129161","0.1481941301","0.4612050897","","","","","","","75","K","2","","","86","main_expt"
"285","","bandit","165","473763","0.0-126.0-0.0","28664074","wem/bandit_either","A2AX54JH2WED4O","either","2","","","","","","","0","0","1","","0.2338967043","0.8","0.2","0.4","0.6","0.08235553135","0.2338967043","0.1447872846","0.4334675206","","","","","","","","","","","74","J","1","","","87","main_expt"
"386","","bandit","166","475659","0.0-127.0-0.0","28664074","wem/bandit_either","A2AX54JH2WED4O","either","2","","","","","","","0","0","1","0.0754832669","","0.8","0.2","0.4","0.6","","","","","0.0754832669","0.2161535794","0.1391637727","0.4397617206","","","","","","","72","H","0","img/none_selected.jpg","","88","main_expt"
"515","","bandit","167","477686","0.0-128.0-0.0","28664074","wem/bandit_either","A2AX54JH2WED4O","either","2","","","","","","","0","0","1","0.4635478967","","0.8","0.2","0.4","0.6","","","","","0.109361408","0.2043146745","0.1476089376","0.4635478967","","","","","","","76","L","3","","","89","main_expt"
"368","","bandit","168","479564","0.0-129.0-0.0","28664074","wem/bandit_either","A2AX54JH2WED4O","either","2","","","","","","","0","0","1","","0.4234969579","0.8","0.2","0.4","0.6","0.07391079866","0.2346009907","0.2081489191","0.4234969579","","","","","","","","","","","76","L","3","","","90","main_expt"
"481","","bandit","169","481554","0.0-130.0-0.0","28664074","wem/bandit_either","A2AX54JH2WED4O","either","2","","","","","","","0","0","1","0.4267507071","","0.8","0.2","0.4","0.6","","","","","0.1164594673","0.2333967219","0.1834039029","0.4267507071","","","","","","","76","L","3","","","91","main_expt"
"747","","bandit","170","483811","0.0-131.0-0.0","28664074","wem/bandit_either","A2AX54JH2WED4O","either","2","","","","","","","0","0","1","","0.2027314649","0.8","0.2","0.4","0.6","0.113043345","0.2150480475","0.2027314649","0.4089505196","","","","","","","","","","","75","K","2","","","92","main_expt"
"418","","bandit","171","485738","0.0-132.0-0.0","28664074","wem/bandit_either","A2AX54JH2WED4O","either","2","","","","","","","0","0","1","","0.1738894496","0.8","0.2","0.4","0.6","0.1714352716","0.2588080464","0.1738894496","0.4112501448","","","","","","","","","","","75","K","2","","","93","main_expt"
"330","","bandit","172","487577","0.0-133.0-0.0","28664074","wem/bandit_either","A2AX54JH2WED4O","either","2","","","","","","","0","0","1","","0.2484708832","0.8","0.2","0.4","0.6","0.1253024032","0.2748849181","0.2484708832","0.452415855","","","","","","","","","","","75","K","2","","","94","main_expt"
"115","","bandit","173","489202","0.0-134.0-0.0","28664074","wem/bandit_either","A2AX54JH2WED4O","either","2","","","","","","","0","0","1","0.2791739054","","0.8","0.2","0.4","0.6","","","","","0.1401284447","0.2791739054","0.2914685715","0.4589197587","","","","","","","74","J","1","","","95","main_expt"
"1211","","bandit","174","491921","0.0-135.0-0.0","28664074","wem/bandit_either","A2AX54JH2WED4O","either","2","","","","","","","0","0","1","0.3149564315","","0.8","0.2","0.4","0.6","","","","","0.1320491369","0.3149564315","0.2417524935","0.4481870348","","","","","","","74","J","1","","","96","main_expt"
"445","","bandit","175","493874","0.0-136.0-0.0","28664074","wem/bandit_either","A2AX54JH2WED4O","either","2","","","","","","","0","0","1","","0.372564007","0.8","0.2","0.4","0.6","0.1518453759","0.372564007","0.2492821404","0.4597072186","","","","","","","","","","","74","J","1","","","97","main_expt"
"339","","bandit","176","495720","0.0-137.0-0.0","28664074","wem/bandit_either","A2AX54JH2WED4O","either","2","","","","","","","0","0","1","","0.3002958449","0.8","0.2","0.4","0.6","0.2173959583","0.393328365","0.3002958449","0.4705619112","","","","","","","","","","","75","K","2","","","98","main_expt"
"38","","bandit","177","497266","0.0-138.0-0.0","28664074","wem/bandit_either","A2AX54JH2WED4O","either","2","","","","","","","1","0","0","0.3544832656","","0.8","0.2","0.4","0.6","","","","","0.2618725657","0.421239771","0.3544832656","0.4800968761","","","","","","","75","K","2","","","99","main_expt"
"154","","bandit","178","498931","0.0-139.0-0.0","28664074","wem/bandit_either","A2AX54JH2WED4O","either","2","","","","","","","0","0","1","","0.3810954338","0.8","0.2","0.4","0.6","0.2487788848","0.4130759476","0.3810954338","0.4780143146","","","","","","","","","","","75","K","2","","","100","main_expt"
"450","","bandit","179","500890","0.0-140.0-0.0","28664074","wem/bandit_either","A2AX54JH2WED4O","either","2","","","","","","","0","1","0","","0.4849002763","0.8","0.2","0.4","0.6","0.2890792313","0.4089462913","0.4042362267","0.4849002763","","","","","","","","","","","76","L","3","","","101","main_expt"
"627","","bandit","180","503026","0.0-141.0-0.0","28664074","wem/bandit_either","A2AX54JH2WED4O","either","2","","","","","","","0","0","1","","0.4886078379","0.8","0.2","0.4","0.6","0.3136369757","0.370330464","0.4594696392","0.4886078379","","","","","","","","","","","76","L","3","","","102","main_expt"
"395","","bandit","181","504930","0.0-142.0-0.0","28664074","wem/bandit_either","A2AX54JH2WED4O","either","2","","","","","","","0","1","0","","0.47121906","0.8","0.2","0.4","0.6","0.2364671533","0.3306315663","0.4588766667","0.47121906","","","","","","","","","","","76","L","3","","","103","main_expt"
"274","","bandit","182","506714","0.0-143.0-0.0","28664074","wem/bandit_either","A2AX54JH2WED4O","either","2","","","","","","","0","1","0","","0.4760763377","0.8","0.2","0.4","0.6","0.2202486688","0.354634178","0.4372785745","0.4760763377","","","","","","","","","","","76","L","3","","","104","main_expt"
"310","","bandit","183","508532","0.0-144.0-0.0","28664074","wem/bandit_either","A2AX54JH2WED4O","either","2","","","","","","","0","1","0","","0.4701389446","0.8","0.2","0.4","0.6","0.1854418088","0.3896605338","0.4063887309","0.4701389446","","","","","","","","","","","76","L","3","","","105","main_expt"
"353","","bandit","184","510394","0.0-145.0-0.0","28664074","wem/bandit_either","A2AX54JH2WED4O","either","2","","","","","","","0","0","1","0.471324938","","0.8","0.2","0.4","0.6","","","","","0.1596754559","0.414339711","0.3778019321","0.471324938","","","","","","","76","L","3","","","106","main_expt"
"364","","bandit","185","512266","0.0-146.0-0.0","28664074","wem/bandit_either","A2AX54JH2WED4O","either","2","","","","","","","0","0","1","0.3614143111","","0.8","0.2","0.4","0.6","","","","","0.137099288","0.4164239898","0.3614143111","0.4786694594","","","","","","","75","K","2","","","107","main_expt"
"452","","bandit","186","514227","0.0-147.0-0.0","28664074","wem/bandit_either","A2AX54JH2WED4O","either","2","","","","","","","0","0","1","","0.3681250399","0.8","0.2","0.4","0.6","0.1443984823","0.3836571442","0.3681250399","0.4810065258","","","","","","","","","","","75","K","2","","","108","main_expt"
"826","","bandit","187","516563","0.0-148.0-0.0","28664074","wem/bandit_either","A2AX54JH2WED4O","either","2","","","","","","","1","0","0","0.3446081275","","0.8","0.2","0.4","0.6","","","","","0.1409511773","0.3881214568","0.3446081275","0.4816764674","","","","","","","75","K","2","","","109","main_expt"
"481","","bandit","188","518554","0.0-149.0-0.0","28664074","wem/bandit_either","A2AX54JH2WED4O","either","2","","","","","","","0","1","0","","0.3681270965","0.8","0.2","0.4","0.6","0.1787750665","0.4266873791","0.3681270965","0.4882082215","","","","","","","","","","","75","K","2","","","110","main_expt"
"371","","bandit","189","520435","0.0-150.0-0.0","28664074","wem/bandit_either","A2AX54JH2WED4O","either","2","","","","","","","0","0","1","","0.391379093","0.8","0.2","0.4","0.6","0.1862786225","0.4475699482","0.391379093","0.478642168","","","","","","","","","","","75","K","2","","","111","main_expt"
"482","","bandit","190","522425","0.0-151.0-0.0","28664074","wem/bandit_either","A2AX54JH2WED4O","either","2","","","","","","","0","0","1","","0.4131544452","0.8","0.2","0.4","0.6","0.1654620982","0.4190314983","0.4131544452","0.4841415165","","","","","","","","","","","75","K","2","","","112","main_expt"
"403","","bandit","191","524336","0.0-152.0-0.0","28664074","wem/bandit_either","A2AX54JH2WED4O","either","2","","","","","","","1","0","0","0.3963985948","","0.8","0.2","0.4","0.6","","","","","0.1582981878","0.3666128881","0.3963985948","0.4883212127","","","","","","","75","K","2","","","113","main_expt"
"547","","bandit","192","526394","0.0-153.0-0.0","28664074","wem/bandit_either","A2AX54JH2WED4O","either","2","","","","","","","0","1","0","","0.4117985871","0.8","0.2","0.4","0.6","0.1922757069","0.3866259854","0.4117985871","0.4883790739","","","","","","","","","","","75","K","2","","","114","main_expt"
"1849","","bandit","193","529752","0.0-154.0-0.0","28664074","wem/bandit_either","A2AX54JH2WED4O","either","2","","","","","","","0","0","1","","0.394381103","0.8","0.2","0.4","0.6","0.185618385","0.354161152","0.394381103","0.4902011966","","","","","","","","","","","75","K","2","","","115","main_expt"
"619","","bandit","194","531881","0.0-155.0-0.0","28664074","wem/bandit_either","A2AX54JH2WED4O","either","2","","","","","","","0","0","1","0.3762408663","","0.8","0.2","0.4","0.6","","","","","0.2057277395","0.3170745426","0.3762408663","0.4844723045","","","","","","","75","K","2","","","116","main_expt"
"345","","bandit","195","533737","0.0-156.0-0.0","28664074","wem/bandit_either","A2AX54JH2WED4O","either","2","","","","","","","0","0","1","0.4895589844","","0.8","0.2","0.4","0.6","","","","","0.2288411079","0.304536318","0.3823674378","0.4895589844","","","","","","","76","L","3","","","117","main_expt"
"883","","bandit","196","536130","0.0-157.0-0.0","28664074","wem/bandit_either","A2AX54JH2WED4O","either","2","","","","","","","0","0","1","","0.4899729034","0.8","0.2","0.4","0.6","0.2207517482","0.3411026949","0.4050195855","0.4899729034","","","","","","","","","","","76","L","3","","","118","main_expt"
"634","","bandit","197","538274","0.0-158.0-0.0","28664074","wem/bandit_either","A2AX54JH2WED4O","either","2","","","","","","","0","1","0","","0.4227562767","0.8","0.2","0.4","0.6","0.1955286499","0.3447942488","0.4227562767","0.4947041593","","","","","","","","","","","75","K","2","","","119","main_expt"
"1468","","bandit","198","541251","0.0-159.0-0.0","28664074","wem/bandit_either","A2AX54JH2WED4O","either","2","","","","","","","0","0","1","","0.4916865355","0.8","0.2","0.4","0.6","0.2427950695","0.3686185352","0.4163810796","0.4916865355","","","","","","","","","","","76","L","3","","","120","main_expt"
"1041","","bandit","199","543801","0.0-160.0-0.0","28664074","wem/bandit_either","A2AX54JH2WED4O","either","2","","","","","","","0","0","1","0.3547669752","","0.8","0.2","0.4","0.6","","","","","0.2479682904","0.3547669752","0.406821829","0.4860386064","","","","","","","74","J","1","","","121","main_expt"
"1690","","bandit","200","547000","0.0-161.0-0.0","28664074","wem/bandit_either","A2AX54JH2WED4O","either","2","","","","","","","1","0","0","0.3081985406","","0.8","0.2","0.4","0.6","","","","","0.3081985406","0.365994073","0.3999449125","0.483083859","","","","","","","72","H","0","img/none_selected.jpg","","122","main_expt"
"4892","","bandit","201","553400","0.0-162.0-0.0","28664074","wem/bandit_either","A2AX54JH2WED4O","either","2","","","","","","","0","0","1","","0.3089359708","0.8","0.2","0.4","0.6","0.3089359708","0.3120596142","0.366626489","0.4791491275","","","","","","","","","","","72","H","0","img/none_selected.jpg","","123","main_expt"
"674","","bandit","202","555583","0.0-163.0-0.0","28664074","wem/bandit_either","A2AX54JH2WED4O","either","2","","","","","","","0","0","1","0.3706278578","","0.8","0.2","0.4","0.6","","","","","0.3298338218","0.302161917","0.3706278578","0.4776777384","","","","","","","75","K","2","","","124","main_expt"
"406","","bandit","203","557497","0.0-164.0-0.0","28664074","wem/bandit_either","A2AX54JH2WED4O","either","2","","","","","","","0","1","0","","0.478983255","0.8","0.2","0.4","0.6","0.2795250441","0.2794370347","0.3545504723","0.478983255","","","","","","","","","","","76","L","3","","","125","main_expt"
"825","","bandit","204","559833","0.0-165.0-0.0","28664074","wem/bandit_either","A2AX54JH2WED4O","either","2","","","","","","","0","1","0","","0.4724726719","0.8","0.2","0.4","0.6","0.2184127205","0.2466154908","0.3106298006","0.4724726719","","","","","","","","","","","76","L","3","","","126","main_expt"
"627","","bandit","205","561968","0.0-166.0-0.0","28664074","wem/bandit_either","A2AX54JH2WED4O","either","2","","","","","","","1","0","0","0.4796244369","","0.8","0.2","0.4","0.6","","","","","0.2488858907","0.2712823261","0.3351405197","0.4796244369","","","","","","","76","L","3","","","127","main_expt"
"2515","","bandit","206","565993","0.0-167.0-0.0","28664074","wem/bandit_either","A2AX54JH2WED4O","either","2","","","","","","","0","0","1","","0.4825212971","0.8","0.2","0.4","0.6","0.2850827173","0.2095517986","0.2984422464","0.4825212971","","","","","","","","","","","76","L","3","","","128","main_expt"
"2793","","bandit","207","570295","0.0-168.0-0.0","28664074","wem/bandit_either","A2AX54JH2WED4O","either","2","","","","","","","0","0","1","0.4877535013","","0.8","0.2","0.4","0.6","","","","","0.2867242009","0.1986866195","0.2027892291","0.4877535013","","","","","","","76","L","3","","","129","main_expt"
"219","","bandit","208","572024","0.0-169.0-0.0","28664074","wem/bandit_either","A2AX54JH2WED4O","either","2","","","","","","","0","0","1","","0.13768179","0.8","0.2","0.4","0.6","0.2509552002","0.172959111","0.13768179","0.4833646461","","","","","","","","","","","75","K","2","","","130","main_expt"
"387","","bandit","209","573920","0.0-170.0-0.0","28664074","wem/bandit_either","A2AX54JH2WED4O","either","2","","","","","","","0","0","1","","0.163172462","0.8","0.2","0.4","0.6","0.2172434631","0.163172462","0.1352832961","0.4790990265","","","","","","","","","","","74","J","1","","","131","main_expt"
"610","","bandit","210","576040","0.0-171.0-0.0","28664074","wem/bandit_either","A2AX54JH2WED4O","either","2","","","","","","","0","0","1","0.158295755","","0.8","0.2","0.4","0.6","","","","","0.158295755","0.161148659","0.08660982753","0.4882311922","","","","","","","72","H","0","img/none_selected.jpg","","132","main_expt"
"331","","bandit","211","577881","0.0-172.0-0.0","28664074","wem/bandit_either","A2AX54JH2WED4O","either","2","","","","","","","1","0","0","0.4889625365","","0.8","0.2","0.4","0.6","","","","","0.185310911","0.1735641072","0.1020907376","0.4889625365","","","","","","","76","L","3","","","133","main_expt"
"728","","bandit","212","580120","0.0-173.0-0.0","28664074","wem/bandit_either","A2AX54JH2WED4O","either","2","","","","","","","1","0","0","0.4916783795","","0.8","0.2","0.4","0.6","","","","","0.1966535246","0.1597390633","0.1231499397","0.4916783795","","","","","","","76","L","3","","","134","main_expt"
"441","","bandit","213","582072","0.0-174.0-0.0","28664074","wem/bandit_either","A2AX54JH2WED4O","either","2","","","","","","","0","0","1","0.4904315354","","0.8","0.2","0.4","0.6","","","","","0.2290191974","0.1460070414","0.1524236556","0.4904315354","","","","","","","76","L","3","","","135","main_expt"
"265","","bandit","214","583849","0.0-175.0-0.0","28664074","wem/bandit_either","A2AX54JH2WED4O","either","2","","","","","","","1","0","0","0.2929229053","","0.8","0.2","0.4","0.6","","","","","0.2929229053","0.105474526","0.1954247664","0.491666595","","","","","","","72","H","0","img/none_selected.jpg","","136","main_expt"
"329","","bandit","215","585690","0.0-176.0-0.0","28664074","wem/bandit_either","A2AX54JH2WED4O","either","2","","","","","","","0","0","1","0.2780805385","","0.8","0.2","0.4","0.6","","","","","0.2780805385","0.08835118593","0.1833989084","0.4917142499","","","","","","","72","H","0","img/none_selected.jpg","","137","main_expt"
"1142","","bandit","216","588344","0.0-177.0-0.0","28664074","wem/bandit_either","A2AX54JH2WED4O","either","2","","","","","","","0","0","1","0.217224157","","0.8","0.2","0.4","0.6","","","","","0.217224157","0.06418360449","0.1490533902","0.4870170403","","","","","","","72","H","0","img/none_selected.jpg","","138","main_expt"
"690","","bandit","217","590545","0.0-178.0-0.0","28664074","wem/bandit_either","A2AX54JH2WED4O","either","2","","","","","","","0","0","1","0.2323391466","","0.8","0.2","0.4","0.6","","","","","0.2323391466","0.03554325754","0.1318817547","0.4834992155","","","","","","","72","H","0","img/none_selected.jpg","","139","main_expt"
"1721","","bandit","218","593776","0.0-179.0-0.0","28664074","wem/bandit_either","A2AX54JH2WED4O","either","2","","","","","","","0","0","1","","0.1877412345","0.8","0.2","0.4","0.6","0.244475209","0.04477370895","0.1877412345","0.4927392517","","","","","","","","","","","75","K","2","","","140","main_expt"
"27","","bandit","219","595311","0.0-180.0-0.0","28664074","wem/bandit_either","A2AX54JH2WED4O","either","2","","","","","","","0","0","1","","0.03780119019","0.8","0.2","0.4","0.6","0.232604034","0.03780119019","0.2363671377","0.4872377518","","","","","","","","","","","74","J","1","","","141","main_expt"
"130","","bandit","220","596950","0.0-181.0-0.0","28664074","wem/bandit_either","A2AX54JH2WED4O","either","2","","","","","","","1","0","0","0.4846254936","","0.8","0.2","0.4","0.6","","","","","0.2447345556","0.03149913875","0.2546402356","0.4846254936","","","","","","","76","L","3","","","142","main_expt"
"332","","bandit","221","598792","0.0-182.0-0.0","28664074","wem/bandit_either","A2AX54JH2WED4O","either","2","","","","","","","0","0","1","0.4815328815","","0.8","0.2","0.4","0.6","","","","","0.26413271","0.04191513266","0.2825544685","0.4815328815","","","","","","","76","L","3","","","143","main_expt"
"457","","bandit","222","600759","0.0-183.0-0.0","28664074","wem/bandit_either","A2AX54JH2WED4O","either","2","","","","","","","0","1","0","","0.2731230023","0.8","0.2","0.4","0.6","0.1988203511","0.05613120157","0.2731230023","0.4854048375","","","","","","","","","","","75","K","2","","","144","main_expt"
"347","","bandit","223","602617","0.0-184.0-0.0","28664074","wem/bandit_either","A2AX54JH2WED4O","either","2","","","","","","","0","0","1","0.2943814715","","0.8","0.2","0.4","0.6","","","","","0.217822638","0.03827589539","0.2943814715","0.4813029389","","","","","","","75","K","2","","","145","main_expt"
"287","","bandit","224","604416","0.0-185.0-0.0","28664074","wem/bandit_either","A2AX54JH2WED4O","either","2","","","","","","","0","0","1","0.4884824202","","0.8","0.2","0.4","0.6","","","","","0.2009042904","0.02861175853","0.328634005","0.4884824202","","","","","","","76","L","3","","","146","main_expt"
"256","","bandit","225","606183","0.0-186.0-0.0","28664074","wem/bandit_either","A2AX54JH2WED4O","either","2","","","","","","","0","0","1","","0.2080446297","0.8","0.2","0.4","0.6","0.2080446297","0.02140640811","0.3511209141","0.4835291327","","","","","","","","","","","72","H","0","img/none_selected.jpg","","147","main_expt"
"651","","bandit","226","608343","0.0-187.0-0.0","28664074","wem/bandit_either","A2AX54JH2WED4O","either","2","","","","","","","0","0","1","0.0202041473","","0.8","0.2","0.4","0.6","","","","","0.1536700415","0.0202041473","0.3874996206","0.4716003481","","","","","","","74","J","1","","","148","main_expt"
"505","","bandit","227","610358","0.0-188.0-0.0","28664074","wem/bandit_either","A2AX54JH2WED4O","either","2","","","","","","","0","1","0","","0.3476646045","0.8","0.2","0.4","0.6","0.1593661633","0.01154190459","0.3476646045","0.4341886607","","","","","","","","","","","75","K","2","","","149","main_expt"
"437","","bandit","228","612304","0.0-189.0-0.0","28664074","wem/bandit_either","A2AX54JH2WED4O","either","2","","","","","","","0","0","1","0.3323010919","","0.8","0.2","0.4","0.6","","","","","0.144955896","0.01291237021","0.3323010919","0.4014438172","","","","","","","75","K","2","","","150","main_expt"
"735","","bandit","229","614549","0.0-190.0-0.0","28664074","wem/bandit_either","A2AX54JH2WED4O","either","2","","","","","","","0","1","0","","0.3954477196","0.8","0.2","0.4","0.6","0.2123564028","0.0137789916","0.3954477196","0.3980713407","","","","","","","","","","","75","K","2","","","151","main_expt"
"412","","bandit","230","616472","0.0-191.0-0.0","28664074","wem/bandit_either","A2AX54JH2WED4O","either","2","","","","","","","0","0","1","","0.4002357887","0.8","0.2","0.4","0.6","0.2301890466","0.01985271471","0.4186327087","0.4002357887","","","","","","","","","","","76","L","3","","","152","main_expt"
"609","","bandit","231","618589","0.0-192.0-0.0","28664074","wem/bandit_either","A2AX54JH2WED4O","either","2","","","","","","","0","0","1","","0.388677987","0.8","0.2","0.4","0.6","0.2295153641","0.02951100453","0.4029566754","0.388677987","","","","","","","","","","","76","L","3","","","153","main_expt"
"547","","bandit","232","620647","0.0-193.0-0.0","28664074","wem/bandit_either","A2AX54JH2WED4O","either","2","","","","","","","0","0","1","0.3817747688","","0.8","0.2","0.4","0.6","","","","","0.2163321136","0.02325572033","0.4037751878","0.3817747688","","","","","","","76","L","3","","","154","main_expt"
"272","","bandit","233","622430","0.0-194.0-0.0","28664074","wem/bandit_either","A2AX54JH2WED4O","either","2","","","","","","","0","0","1","0.4078727314","","0.8","0.2","0.4","0.6","","","","","0.2257858177","0.03925092562","0.4078727314","0.327727533","","","","","","","75","K","2","","","155","main_expt"
"458","","bandit","234","624400","0.0-195.0-0.0","28664074","wem/bandit_either","A2AX54JH2WED4O","either","2","","","","","","","0","0","1","","0.05532081832","0.8","0.2","0.4","0.6","0.2077891775","0.05532081832","0.3941681487","0.2821504166","","","","","","","","","","","74","J","1","","","156","main_expt"
"370","","bandit","235","626280","0.0-196.0-0.0","28664074","wem/bandit_either","A2AX54JH2WED4O","either","2","","","","","","","0","0","1","0.1742908387","","0.8","0.2","0.4","0.6","","","","","0.1742908387","0.05983660039","0.3417147062","0.2784527126","","","","","","","72","H","0","img/none_selected.jpg","","157","main_expt"
"433","","bandit","236","628223","0.0-197.0-0.0","28664074","wem/bandit_either","A2AX54JH2WED4O","either","2","","","","","","","0","0","1","","0.2963220618","0.8","0.2","0.4","0.6","0.162057643","0.09347744845","0.2963220618","0.2857058734","","","","","","","","","","","75","K","2","","","158","main_expt"
"240","","bandit","237","629974","0.0-198.0-0.0","28664074","wem/bandit_either","A2AX54JH2WED4O","either","2","","","","","","","0","0","1","0.2349295223","","0.8","0.2","0.4","0.6","","","","","0.1805514511","0.09649648717","0.2961528309","0.2349295223","","","","","","","76","L","3","","","159","main_expt"
"540","","bandit","238","632024","0.0-199.0-0.0","28664074","wem/bandit_either","A2AX54JH2WED4O","either","2","","","","","","","0","0","1","0.1724629995","","0.8","0.2","0.4","0.6","","","","","0.1724629995","0.08382429791","0.2842772575","0.2275717407","","","","","","","72","H","0","img/none_selected.jpg","","160","main_expt"
"673","","bandit","239","634208","0.0-200.0-0.0","28664074","wem/bandit_either","A2AX54JH2WED4O","either","2","","","","","","","0","0","1","","0.1466352983","0.8","0.2","0.4","0.6","0.1660992999","0.1466352983","0.2747674873","0.2559884592","","","","","","","","","","","74","J","1","","","161","main_expt"
"475","","bandit","240","636192","0.0-201.0-0.0","28664074","wem/bandit_either","A2AX54JH2WED4O","either","2","","","","","","","0","1","0","","0.2993190406","0.8","0.2","0.4","0.6","0.2281832109","0.1569467617","0.2993190406","0.2670526618","","","","","","","","","","","75","K","2","","","162","main_expt"
"344","","bandit","241","638046","0.0-202.0-0.0","28664074","wem/bandit_either","A2AX54JH2WED4O","either","2","","","","","","","0","0","1","","0.3102408377","0.8","0.2","0.4","0.6","0.2144285545","0.1437935099","0.3102408377","0.2618894379","","","","","","","","","","","75","K","2","","","163","main_expt"
"339","","bandit","242","639895","0.0-203.0-0.0","28664074","wem/bandit_either","A2AX54JH2WED4O","either","2","","","","","","","0","1","0","","0.2607878409","0.8","0.2","0.4","0.6","0.2131293933","0.1503677763","0.2607878409","0.2977476978","","","","","","","","","","","75","K","2","","","164","main_expt"
"346","","bandit","243","641751","0.0-204.0-0.0","28664074","wem/bandit_either","A2AX54JH2WED4O","either","2","","","","","","","0","0","1","0.2470054868","","0.8","0.2","0.4","0.6","","","","","0.251698227","0.1574825995","0.2470054868","0.3138636066","","","","","","","75","K","2","","","165","main_expt"
"249","","bandit","244","643512","0.0-205.0-0.0","28664074","wem/bandit_either","A2AX54JH2WED4O","either","2","","","","","","","0","0","1","","0.2629624785","0.8","0.2","0.4","0.6","0.2831539445","0.1500633275","0.2629624785","0.3204338644","","","","","","","","","","","75","K","2","","","166","main_expt"
"185","","bandit","245","645208","0.0-206.0-0.0","28664074","wem/bandit_either","A2AX54JH2WED4O","either","2","","","","","","","0","0","1","","0.3600517585","0.8","0.2","0.4","0.6","0.2496169508","0.1137242654","0.2745713682","0.3600517585","","","","","","","","","","","76","L","3","","","167","main_expt"
"275","","bandit","246","646991","0.0-207.0-0.0","28664074","wem/bandit_either","A2AX54JH2WED4O","either","2","","","","","","","0","0","1","0.3678373827","","0.8","0.2","0.4","0.6","","","","","0.2315540067","0.145192941","0.2557249153","0.3678373827","","","","","","","76","L","3","","","168","main_expt"
"1441","","bandit","247","649941","0.0-208.0-0.0","28664074","wem/bandit_either","A2AX54JH2WED4O","either","2","","","","","","","0","0","1","","0.3421512568","0.8","0.2","0.4","0.6","0.1825517174","0.1863479632","0.2016321063","0.3421512568","","","","","","","","","","","76","L","3","","","169","main_expt"
"282","","bandit","248","651733","0.0-209.0-0.0","28664074","wem/bandit_either","A2AX54JH2WED4O","either","2","","","","","","","0","0","1","0.3917895485","","0.8","0.2","0.4","0.6","","","","","0.2535959064","0.142304713","0.2210696627","0.3917895485","","","","","","","76","L","3","","","170","main_expt"
"514","","bandit","249","653757","0.0-210.0-0.0","28664074","wem/bandit_either","A2AX54JH2WED4O","either","2","","","","","","","0","0","1","0.3206692194","","0.8","0.2","0.4","0.6","","","","","0.3004284576","0.1739768979","0.1627904758","0.3206692194","","","","","","","76","L","3","","","171","main_expt"
"451","","bandit","250","655719","0.0-211.0-0.0","28664074","wem/bandit_either","A2AX54JH2WED4O","either","2","","","","","","","0","0","1","0.3198600846","","0.8","0.2","0.4","0.6","","","","","0.2716191145","0.2172659048","0.1421076649","0.3198600846","","","","","","","76","L","3","","","172","main_expt"
"79","","bandit","251","657309","0.0-212.0-0.0","28664074","wem/bandit_either","A2AX54JH2WED4O","either","2","","","","","","","0","1","0","","0.165050165","0.8","0.2","0.4","0.6","0.3253138029","0.2419731025","0.165050165","0.2641483633","","","","","","","","","","","75","K","2","","","173","main_expt"
"355","","bandit","252","659174","0.0-213.0-0.0","28664074","wem/bandit_either","A2AX54JH2WED4O","either","2","","","","","","","0","0","1","","0.1406738207","0.8","0.2","0.4","0.6","0.3419591401","0.2239571331","0.1406738207","0.2248062597","","","","","","","","","","","75","K","2","","","174","main_expt"
"521","","bandit","253","661207","0.0-214.0-0.0","28664074","wem/bandit_either","A2AX54JH2WED4O","either","2","","","","","","","0","0","1","0.3442692367","","0.8","0.2","0.4","0.6","","","","","0.3442692367","0.2311410243","0.138310495","0.2370379408","","","","","","","72","H","0","img/none_selected.jpg","","175","main_expt"
"401","","bandit","254","663118","0.0-215.0-0.0","28664074","wem/bandit_either","A2AX54JH2WED4O","either","2","","","","","","","0","0","1","","0.3397266539","0.8","0.2","0.4","0.6","0.3397266539","0.2610077479","0.1675243642","0.2157433706","","","","","","","","","","","72","H","0","img/none_selected.jpg","","176","main_expt"
"371","","bandit","255","664999","0.0-216.0-0.0","28664074","wem/bandit_either","A2AX54JH2WED4O","either","2","","","","","","","0","0","1","0.2997078274","","0.8","0.2","0.4","0.6","","","","","0.2997078274","0.2780938204","0.1919885971","0.2014791824","","","","","","","72","H","0","img/none_selected.jpg","","177","main_expt"
"264","","bandit","256","666774","0.0-217.0-0.0","28664074","wem/bandit_either","A2AX54JH2WED4O","either","2","","","","","","","0","0","1","","0.3151752793","0.8","0.2","0.4","0.6","0.3064007527","0.3151752793","0.2365392944","0.1913564418","","","","","","","","","","","74","J","1","","","178","main_expt"
"353","","bandit","257","668638","0.0-218.0-0.0","28664074","wem/bandit_either","A2AX54JH2WED4O","either","2","","","","","","","0","1","0","","0.2509455726","0.8","0.2","0.4","0.6","0.3533432679","0.2799621139","0.2509455726","0.1980728016","","","","","","","","","","","75","K","2","","","179","main_expt"
"433","","bandit","258","670583","0.0-219.0-0.0","28664074","wem/bandit_either","A2AX54JH2WED4O","either","2","","","","","","","0","0","1","0.1833491223","","0.8","0.2","0.4","0.6","","","","","0.3652522579","0.3170936092","0.2767223981","0.1833491223","","","","","","","76","L","3","","","180","main_expt"
"753","","bandit","259","672847","0.0-220.0-0.0","28664074","wem/bandit_either","A2AX54JH2WED4O","either","2","","","","","","","0","0","1","","0.1342686697","0.8","0.2","0.4","0.6","0.3383156657","0.28101752","0.314600373","0.1342686697","","","","","","","","","","","76","L","3","","","181","main_expt"
"936","","bandit","260","675293","0.0-221.0-0.0","28664074","wem/bandit_either","A2AX54JH2WED4O","either","2","","","","","","","1","0","0","0.3943610609","","0.8","0.2","0.4","0.6","","","","","0.2902116232","0.3043342224","0.3943610609","0.1636660304","","","","","","","75","K","2","","","182","main_expt"
"3058","","bandit","261","679862","0.0-222.0-0.0","28664074","wem/bandit_either","A2AX54JH2WED4O","either","2","","","","","","","0","0","1","","0.3586422101","0.8","0.2","0.4","0.6","0.3026157476","0.3192524042","0.3586422101","0.136761637","","","","","","","","","","","75","K","2","","","183","main_expt"
"577","","bandit","262","681949","0.0-223.0-0.0","28664074","wem/bandit_either","A2AX54JH2WED4O","either","2","","","","","","","0","0","1","","0.1685989701","0.8","0.2","0.4","0.6","0.3360229169","0.3332516821","0.3879999062","0.1685989701","","","","","","","","","","","76","L","3","","","184","main_expt"
"483","","bandit","263","683942","0.0-224.0-0.0","28664074","wem/bandit_either","A2AX54JH2WED4O","either","2","","","","","","","0","0","1","0.3228184693","","0.8","0.2","0.4","0.6","","","","","0.3336456265","0.3228184693","0.3831340227","0.1663529744","","","","","","","74","J","1","","","185","main_expt"
"841","","bandit","264","686294","0.0-225.0-0.0","28664074","wem/bandit_either","A2AX54JH2WED4O","either","2","","","","","","","0","0","1","0.3308881938","","0.8","0.2","0.4","0.6","","","","","0.3308881938","0.3111703144","0.3999004662","0.1916836285","","","","","","","72","H","0","img/none_selected.jpg","","186","main_expt"
"624","","bandit","265","688430","0.0-226.0-0.0","28664074","wem/bandit_either","A2AX54JH2WED4O","either","2","","","","","","","0","0","1","","0.3353611299","0.8","0.2","0.4","0.6","0.325530054","0.3353611299","0.3875363153","0.1686829448","","","","","","","","","","","74","J","1","","","187","main_expt"
"608","","bandit","266","690549","0.0-227.0-0.0","28664074","wem/bandit_either","A2AX54JH2WED4O","either","2","","","","","","","1","0","0","0.3875691392","","0.8","0.2","0.4","0.6","","","","","0.3055482451","0.3646937268","0.3875691392","0.1461675531","","","","","","","75","K","2","","","188","main_expt"
"391","","bandit","267","692452","0.0-228.0-0.0","28664074","wem/bandit_either","A2AX54JH2WED4O","either","2","","","","","","","0","0","1","0.1382971047","","0.8","0.2","0.4","0.6","","","","","0.3002345065","0.3891323825","0.4166866882","0.1382971047","","","","","","","76","L","3","","","189","main_expt"
"452","","bandit","268","694414","0.0-229.0-0.0","28664074","wem/bandit_either","A2AX54JH2WED4O","either","2","","","","","","","0","0","1","","0.4124474499","0.8","0.2","0.4","0.6","0.2693931213","0.3860741766","0.4124474499","0.1898135375","","","","","","","","","","","75","K","2","","","190","main_expt"
"295","","bandit","269","696220","0.0-230.0-0.0","28664074","wem/bandit_either","A2AX54JH2WED4O","either","2","","","","","","","0","1","0","","0.3864243721","0.8","0.2","0.4","0.6","0.3009284261","0.3864243721","0.3638199534","0.1264917812","","","","","","","","","","","74","J","1","","","191","main_expt"
"357","","bandit","270","698086","0.0-231.0-0.0","28664074","wem/bandit_either","A2AX54JH2WED4O","either","2","","","","","","","0","0","1","0.3157917784","","0.8","0.2","0.4","0.6","","","","","0.3157917784","0.400448014","0.3711146034","0.1185409567","","","","","","","72","H","0","img/none_selected.jpg","","192","main_expt"
"306","","bandit","271","699901","0.0-232.0-0.0","28664074","wem/bandit_either","A2AX54JH2WED4O","either","2","","","","","","","0","1","0","","0.3895367297","0.8","0.2","0.4","0.6","0.2999212614","0.3895367297","0.3654165885","0.09837948322","","","","","","","","","","","74","J","1","","","193","main_expt"
"440","","bandit","272","701853","0.0-233.0-0.0","28664074","wem/bandit_either","A2AX54JH2WED4O","either","2","","","","","","","0","0","1","0.3537818584","","0.8","0.2","0.4","0.6","","","","","0.3287494418","0.4032313792","0.3537818584","0.137690802","","","","","","","75","K","2","","","194","main_expt"
"504","","bandit","273","703869","0.0-234.0-0.0","28664074","wem/bandit_either","A2AX54JH2WED4O","either","2","","","","","","","0","0","1","0.1683354775","","0.8","0.2","0.4","0.6","","","","","0.3031978913","0.337234763","0.3597494918","0.1683354775","","","","","","","76","L","3","","","195","main_expt"
"408","","bandit","274","705789","0.0-235.0-0.0","28664074","wem/bandit_either","A2AX54JH2WED4O","either","2","","","","","","","0","0","1","0.2901303692","","0.8","0.2","0.4","0.6","","","","","0.2901303692","0.3950764453","0.3479121901","0.1561951964","","","","","","","72","H","0","img/none_selected.jpg","","196","main_expt"
"616","","bandit","275","707917","0.0-236.0-0.0","28664074","wem/bandit_either","A2AX54JH2WED4O","either","2","","","","","","","0","0","1","","0.4193743727","0.8","0.2","0.4","0.6","0.2444781728","0.4193743727","0.3596292454","0.1329868482","","","","","","","","","","","74","J","1","","","197","main_expt"
"379","","bandit","276","709806","0.0-237.0-0.0","28664074","wem/bandit_either","A2AX54JH2WED4O","either","2","","","","","","","0","0","1","","0.3555371828","0.8","0.2","0.4","0.6","0.2140047665","0.4375347816","0.3555371828","0.1730826789","","","","","","","","","","","75","K","2","","","198","main_expt"
"328","","bandit","277","711646","0.0-238.0-0.0","28664074","wem/bandit_either","A2AX54JH2WED4O","either","2","","","","","","","1","0","0","0.1385649096","","0.8","0.2","0.4","0.6","","","","","0.2077842613","0.4315030007","0.4016486285","0.1385649096","","","","","","","76","L","3","","","199","main_expt"
"1056","","bandit","278","714212","0.0-239.0-0.0","28664074","wem/bandit_either","A2AX54JH2WED4O","either","2","","","","","","","0","0","1","","0.1941139053","0.8","0.2","0.4","0.6","0.180488049","0.4340108373","0.3871107612","0.1941139053","","","","","","","","","","","76","L","3","","","200","main_expt"
"434","","bandit","279","716157","0.0-240.0-0.0","28664074","wem/bandit_either","A2AX54JH2WED4O","either","2","","","","","","","0","0","1","0.3856539452","","0.8","0.2","0.4","0.6","","","","","0.2084987087","0.441078118","0.3856539452","0.1825013029","","","","","","","75","K","2","","","201","main_expt"
"833","","bandit","280","718501","0.0-241.0-0.0","28664074","wem/bandit_either","A2AX54JH2WED4O","either","2","","","","","","","0","1","0","","0.4143682719","0.8","0.2","0.4","0.6","0.1869669721","0.4143682719","0.358588673","0.162440572","","","","","","","","","","","74","J","1","","","202","main_expt"
"441","","bandit","281","720455","0.0-242.0-0.0","28664074","wem/bandit_either","A2AX54JH2WED4O","either","2","","","","","","","0","0","1","0.1383076553","","0.8","0.2","0.4","0.6","","","","","0.1383076553","0.4280720422","0.3460881607","0.1914238456","","","","","","","72","H","0","img/none_selected.jpg","","203","main_expt"
"487","","bandit","282","722453","0.0-243.0-0.0","28664074","wem/bandit_either","A2AX54JH2WED4O","either","2","","","","","","","1","0","0","0.4113524858","","0.8","0.2","0.4","0.6","","","","","0.1656187697","0.4113524858","0.3091432968","0.1849793247","","","","","","","74","J","1","","","204","main_expt"
"736","","bandit","283","724701","0.0-244.0-0.0","28664074","wem/bandit_either","A2AX54JH2WED4O","either","2","","","","","","","0","0","1","0.3016396897","","0.8","0.2","0.4","0.6","","","","","0.1699285253","0.4151465815","0.3016396897","0.1722293799","","","","","","","75","K","2","","","205","main_expt"
"346","","bandit","284","726557","0.0-245.0-0.0","28664074","wem/bandit_either","A2AX54JH2WED4O","either","2","","","","","","","0","0","1","0.1625694713","","0.8","0.2","0.4","0.6","","","","","0.161732949","0.4002359997","0.3300702997","0.1625694713","","","","","","","76","L","3","","","206","main_expt"
"1360","","bandit","285","729429","0.0-246.0-0.0","28664074","wem/bandit_either","A2AX54JH2WED4O","either","2","","","","","","","0","0","1","0.1699017951","","0.8","0.2","0.4","0.6","","","","","0.1699017951","0.3692387261","0.2648848683","0.1079769143","","","","","","","72","H","0","img/none_selected.jpg","","207","main_expt"
"369","","bandit","286","731309","0.0-247.0-0.0","28664074","wem/bandit_either","A2AX54JH2WED4O","either","2","","","","","","","0","0","1","","0.3283471685","0.8","0.2","0.4","0.6","0.1592107695","0.3283471685","0.2502792914","0.1380178959","","","","","","","","","","","74","J","1","","","208","main_expt"
"447","","bandit","287","733267","0.0-248.0-0.0","28664074","wem/bandit_either","A2AX54JH2WED4O","either","2","","","","","","","0","1","0","","0.2770073026","0.8","0.2","0.4","0.6","0.1659907122","0.2924758898","0.2770073026","0.1538506734","","","","","","","","","","","75","K","2","","","209","main_expt"
"466","","bandit","288","735245","0.0-249.0-0.0","28664074","wem/bandit_either","A2AX54JH2WED4O","either","2","","","","","","","0","0","1","0.1406222791","","0.8","0.2","0.4","0.6","","","","","0.229525517","0.2279470939","0.3451435735","0.1406222791","","","","","","","76","L","3","","","210","main_expt"
"1297","","bandit","289","738053","0.0-250.0-0.0","28664074","wem/bandit_either","A2AX54JH2WED4O","either","2","","","","","","","0","1","0","","0.3514478275","0.8","0.2","0.4","0.6","0.2434605193","0.2131844406","0.3514478275","0.08987887408","","","","","","","","","","","75","K","2","","","211","main_expt"
"416","","bandit","290","739980","0.0-251.0-0.0","28664074","wem/bandit_either","A2AX54JH2WED4O","either","2","","","","","","","1","0","0","0.3579324364","","0.8","0.2","0.4","0.6","","","","","0.1633214123","0.1601793481","0.3579324364","0.1277875359","","","","","","","75","K","2","","","212","main_expt"
"401","","bandit","291","741894","0.0-252.0-0.0","28664074","wem/bandit_either","A2AX54JH2WED4O","either","2","","","","","","","0","0","1","","0.3231243524","0.8","0.2","0.4","0.6","0.1014835246","0.1354109392","0.3231243524","0.134271297","","","","","","","","","","","75","K","2","","","213","main_expt"
"895","","bandit","292","744299","0.0-253.0-0.0","28664074","wem/bandit_either","A2AX54JH2WED4O","either","2","","","","","","","0","0","1","0.1142105534","","0.8","0.2","0.4","0.6","","","","","0.09587264096","0.1142105534","0.2798540136","0.1385204111","","","","","","","74","J","1","","","214","main_expt"
"250","","bandit","293","746059","0.0-254.0-0.0","28664074","wem/bandit_either","A2AX54JH2WED4O","either","2","","","","","","","1","0","0","0.08342689115","","0.8","0.2","0.4","0.6","","","","","0.08342689115","0.1031311673","0.2469391402","0.1089132689","","","","","","","72","H","0","img/none_selected.jpg","","215","main_expt"
"561","","bandit","294","748134","0.0-255.0-0.0","28664074","wem/bandit_either","A2AX54JH2WED4O","either","2","","","","","","","0","0","1","","0.05361264496","0.8","0.2","0.4","0.6","0.05361264496","0.1031732366","0.3211823944","0.1299508563","","","","","","","","","","","72","H","0","img/none_selected.jpg","","216","main_expt"
"437","","bandit","295","750084","0.0-256.0-0.0","28664074","wem/bandit_either","A2AX54JH2WED4O","either","2","","","","","","","0","0","1","","0.1188097379","0.8","0.2","0.4","0.6","0.09912420903","0.1188097379","0.3545519007","0.131109262","","","","","","","","","","","74","J","1","","","217","main_expt"
"500","","bandit","296","752093","0.0-257.0-0.0","28664074","wem/bandit_either","A2AX54JH2WED4O","either","2","","","","","","","0","0","1","","0.3781539282","0.8","0.2","0.4","0.6","0.1021137889","0.1096623481","0.3781539282","0.1039495344","","","","","","","","","","","75","K","2","","","218","main_expt"
"482","","bandit","297","754085","0.0-258.0-0.0","28664074","wem/bandit_either","A2AX54JH2WED4O","either","2","","","","","","","0","0","1","0.09488552944","","0.8","0.2","0.4","0.6","","","","","0.1025207236","0.08679630722","0.3674409598","0.09488552944","","","","","","","76","L","3","","","219","main_expt"
"376","","bandit","298","755971","0.0-259.0-0.0","28664074","wem/bandit_either","A2AX54JH2WED4O","either","2","","","","","","","1","0","0","0.315237632","","0.8","0.2","0.4","0.6","","","","","0.1049734862","0.1482089448","0.315237632","0.1311925698","","","","","","","75","K","2","","","220","main_expt"
"420","","bandit","299","757899","0.0-260.0-0.0","28664074","wem/bandit_either","A2AX54JH2WED4O","either","2","","","","","","","0","0","1","","0.217172314","0.8","0.2","0.4","0.6","0.08244295151","0.217172314","0.3572442142","0.08224132258","","","","","","","","","","","74","J","1","","","221","main_expt"
"426","","bandit","300","759835","0.0-261.0-0.0","28664074","wem/bandit_either","A2AX54JH2WED4O","either","2","","","","","","","0","0","1","0.09815111748","","0.8","0.2","0.4","0.6","","","","","0.09815111748","0.2227738938","0.2796125419","0.06870998364","","","","","","","72","H","0","img/none_selected.jpg","","222","main_expt"
"331","","bandit","301","761676","0.0-262.0-0.0","28664074","wem/bandit_either","A2AX54JH2WED4O","either","2","","","","","","","0","1","0","","0.2768694491","0.8","0.2","0.4","0.6","0.09925351505","0.2768694491","0.2265565182","0.111762886","","","","","","","","","","","74","J","1","","","223","main_expt"
"97","","bandit","302","763286","0.0-263.0-0.0","28664074","wem/bandit_either","A2AX54JH2WED4O","either","2","","","","","","","0","0","1","","0.1727872262","0.8","0.2","0.4","0.6","0.07842644678","0.2895694018","0.1727872262","0.09652303785","","","","","","","","","","","75","K","2","","","224","main_expt"
"391","","bandit","303","765188","0.0-264.0-0.0","28664074","wem/bandit_either","A2AX54JH2WED4O","either","2","","","","","","","0","0","1","0.09424892582","","0.8","0.2","0.4","0.6","","","","","0.05284632075","0.3515154126","0.1580797834","0.09424892582","","","","","","","76","L","3","","","225","main_expt"
"887","","bandit","304","767587","0.0-265.0-0.0","28664074","wem/bandit_either","A2AX54JH2WED4O","either","2","","","","","","","0","1","0","","0.1206031336","0.8","0.2","0.4","0.6","0.06788221328","0.3960872924","0.1206031336","0.1094697254","","","","","","","","","","","75","K","2","","","226","main_expt"
"496","","bandit","305","769596","0.0-266.0-0.0","28664074","wem/bandit_either","A2AX54JH2WED4O","either","2","","","","","","","0","0","1","","0.1218099769","0.8","0.2","0.4","0.6","0.04226868229","0.3301105445","0.1218099769","0.1055794081","","","","","","","","","","","75","K","2","","","227","main_expt"
"494","","bandit","306","771603","0.0-267.0-0.0","28664074","wem/bandit_either","A2AX54JH2WED4O","either","2","","","","","","","0","0","1","","0.3679650562","0.8","0.2","0.4","0.6","0.06174471126","0.3679650562","0.08458740206","0.1210232629","","","","","","","","","","","74","J","1","","","228","main_expt"
"384","","bandit","307","773500","0.0-268.0-0.0","28664074","wem/bandit_either","A2AX54JH2WED4O","either","2","","","","","","","0","0","1","","0.06122033102","0.8","0.2","0.4","0.6","0.06122033102","0.3413725311","0.06311990622","0.1249199002","","","","","","","","","","","72","H","0","img/none_selected.jpg","","229","main_expt"
"455","","bandit","308","775467","0.0-269.0-0.0","28664074","wem/bandit_either","A2AX54JH2WED4O","either","2","","","","","","","0","1","0","","0.3652503211","0.8","0.2","0.4","0.6","0.09369367087","0.3652503211","0.04674316758","0.1423167866","","","","","","","","","","","74","J","1","","","230","main_expt"
"367","","bandit","309","777345","0.0-270.0-0.0","28664074","wem/bandit_either","A2AX54JH2WED4O","either","2","","","","","","","0","0","1","","0.06697327866","0.8","0.2","0.4","0.6","0.1378364932","0.3774172636","0.06697327866","0.1441411413","","","","","","","","","","","75","K","2","","","231","main_expt"
"493","","bandit","310","779348","0.0-271.0-0.0","28664074","wem/bandit_either","A2AX54JH2WED4O","either","2","","","","","","","0","0","1","","0.1132866493","0.8","0.2","0.4","0.6","0.1138343256","0.3507397895","0.08617656909","0.1132866493","","","","","","","","","","","76","L","3","","","232","main_expt"
"472","","bandit","311","781332","0.0-272.0-0.0","28664074","wem/bandit_either","A2AX54JH2WED4O","either","2","","","","","","","0","0","1","","0.08388286328","0.8","0.2","0.4","0.6","0.1602674987","0.3228668676","0.08388286328","0.07587191469","","","","","","","","","","","75","K","2","","","233","main_expt"
"327","","bandit","312","783171","0.0-273.0-0.0","28664074","wem/bandit_either","A2AX54JH2WED4O","either","2","","","","","","","0","0","1","","0.3219168209","0.8","0.2","0.4","0.6","0.1399599793","0.3219168209","0.08303297831","0.08330376307","","","","","","","","","","","74","J","1","","","234","main_expt"
"609","","bandit","313","785291","0.0-274.0-0.0","28664074","wem/bandit_either","A2AX54JH2WED4O","either","2","","","","","","","0","0","1","0.1577883936","","0.8","0.2","0.4","0.6","","","","","0.1577883936","0.2907257894","0.08228619446","0.07960395758","","","","","","","72","H","0","img/none_selected.jpg","","235","main_expt"
"535","","bandit","314","787339","0.0-275.0-0.0","28664074","wem/bandit_either","A2AX54JH2WED4O","either","2","","","","","","","0","0","1","0.07856112713","","0.8","0.2","0.4","0.6","","","","","0.1206463377","0.2879125653","0.07856112713","0.06703487678","","","","","","","75","K","2","","","236","main_expt"
"351","","bandit","315","789204","0.0-276.0-0.0","28664074","wem/bandit_either","A2AX54JH2WED4O","either","2","","","","","","","0","0","1","0.07970276757","","0.8","0.2","0.4","0.6","","","","","0.1224948263","0.3055933028","0.09394336493","0.07970276757","","","","","","","76","L","3","","","237","main_expt"
"71","","bandit","316","790787","0.0-277.0-0.0","28664074","wem/bandit_either","A2AX54JH2WED4O","either","2","","","","","","","0","0","1","","0.1163601633","0.8","0.2","0.4","0.6","0.1163601633","0.3197806133","0.1044036833","0.05589422377","","","","","","","","","","","72","H","0","img/none_selected.jpg","","238","main_expt"
"408","","bandit","317","792706","0.0-278.0-0.0","28664074","wem/bandit_either","A2AX54JH2WED4O","either","2","","","","","","","0","0","1","","0.2699970134","0.8","0.2","0.4","0.6","0.09302868556","0.2699970134","0.1010835707","0.07304711058","","","","","","","","","","","74","J","1","","","239","main_expt"
"287","","bandit","318","794507","0.0-279.0-0.0","28664074","wem/bandit_either","A2AX54JH2WED4O","either","2","","","","","","","0","0","1","0.1196592177","","0.8","0.2","0.4","0.6","","","","","0.1142909623","0.2594796501","0.1196592177","0.05193691484","","","","","","","75","K","2","","","240","main_expt"
"408","","bandit","319","796429","0.0-280.0-0.0","28664074","wem/bandit_either","A2AX54JH2WED4O","either","2","","","","","","","0","0","1","","0.06844812817","0.8","0.2","0.4","0.6","0.1694552561","0.252227353","0.127320561","0.06844812817","","","","","","","","","","","76","L","3","","","241","main_expt"
"461","","bandit","320","798403","0.0-281.0-0.0","28664074","wem/bandit_either","A2AX54JH2WED4O","either","2","","","","","","","0","0","1","0.10641745","","0.8","0.2","0.4","0.6","","","","","0.1828807391","0.301231011","0.10641745","0.07869989264","","","","","","","75","K","2","","","242","main_expt"
"345","","bandit","321","800260","0.0-282.0-0.0","28664074","wem/bandit_either","A2AX54JH2WED4O","either","2","","","","","","","0","0","1","0.2903867436","","0.8","0.2","0.4","0.6","","","","","0.1236361748","0.2903867436","0.131785075","0.06084245892","","","","","","","74","J","1","","","243","main_expt"
"489","","bandit","322","802259","0.0-283.0-0.0","28664074","wem/bandit_either","A2AX54JH2WED4O","either","2","","","","","","","0","0","1","0.1131162958","","0.8","0.2","0.4","0.6","","","","","0.1131162958","0.2659167858","0.1150513838","0.04982625113","","","","","","","72","H","0","img/none_selected.jpg","","244","main_expt"
"370","","bandit","323","804137","0.0-284.0-0.0","28664074","wem/bandit_either","A2AX54JH2WED4O","either","2","","","","","","","0","0","1","0.1651966394","","0.8","0.2","0.4","0.6","","","","","0.08611006768","0.254087564","0.1651966394","0.04708965441","","","","","","","75","K","2","","","245","main_expt"
"482","","bandit","324","806130","0.0-285.0-0.0","28664074","wem/bandit_either","A2AX54JH2WED4O","either","2","","","","","","","0","0","1","","0.0280961865","0.8","0.2","0.4","0.6","0.1123216353","0.2551799517","0.1555796254","0.0280961865","","","","","","","","","","","76","L","3","","","246","main_expt"
"369","","bandit","325","808011","0.0-286.0-0.0","28664074","wem/bandit_either","A2AX54JH2WED4O","either","2","","","","","","","0","0","1","0.09475638668","","0.8","0.2","0.4","0.6","","","","","0.09475638668","0.2629335529","0.1703980626","0.04499456282","","","","","","","72","H","0","img/none_selected.jpg","","247","main_expt"
"544","","bandit","326","810067","0.0-287.0-0.0","28664074","wem/bandit_either","A2AX54JH2WED4O","either","2","","","","","","","0","0","1","","0.2393496224","0.8","0.2","0.4","0.6","0.08309477664","0.2393496224","0.1502680902","0.03910304398","","","","","","","","","","","74","J","1","","","248","main_expt"
"352","","bandit","327","811931","0.0-288.0-0.0","28664074","wem/bandit_either","A2AX54JH2WED4O","either","2","","","","","","","0","1","0","","0.1515252412","0.8","0.2","0.4","0.6","0.09118761135","0.2612635012","0.1515252412","0.02658952892","","","","","","","","","","","75","K","2","","","249","main_expt"
"286","","bandit","328","813730","0.0-289.0-0.0","28664074","wem/bandit_either","A2AX54JH2WED4O","either","2","","","","","","","0","0","1","","0.02715120894","0.8","0.2","0.4","0.6","0.1173751119","0.2729339083","0.164479444","0.02715120894","","","","","","","","","","","76","L","3","","","250","main_expt"
"366","","bandit","329","815610","0.0-290.0-0.0","28664074","wem/bandit_either","A2AX54JH2WED4O","either","2","","","","","","","0","0","1","0.1036013708","","0.8","0.2","0.4","0.6","","","","","0.10167128","0.2394547858","0.1036013708","0.02468122838","","","","","","","75","K","2","","","251","main_expt"
"471","","bandit","330","817594","0.0-291.0-0.0","28664074","wem/bandit_either","A2AX54JH2WED4O","either","2","","","","","","","0","0","1","","0.1971678968","0.8","0.2","0.4","0.6","0.1297907712","0.1971678968","0.1206404305","0.01934001153","","","","","","","","","","","74","J","1","","","252","main_expt"
"414","","bandit","331","819521","0.0-292.0-0.0","28664074","wem/bandit_either","A2AX54JH2WED4O","either","2","","","","","","","0","0","1","","0.08555329314","0.8","0.2","0.4","0.6","0.08555329314","0.2194815642","0.144481093","0.01552303999","","","","","","","","","","","72","H","0","img/none_selected.jpg","","253","main_expt"
"257","","bandit","332","821291","0.0-293.0-0.0","28664074","wem/bandit_either","A2AX54JH2WED4O","either","2","","","","","","","0","0","1","","0.2365987297","0.8","0.2","0.4","0.6","0.05661737176","0.2365987297","0.1495858552","0.02294208798","","","","","","","","","","","74","J","1","","","254","main_expt"
"305","","bandit","333","823107","0.0-294.0-0.0","28664074","wem/bandit_either","A2AX54JH2WED4O","either","2","","","","","","","0","0","1","","0.1670870388","0.8","0.2","0.4","0.6","0.04453848373","0.2300386291","0.1670870388","0.03654195668","","","","","","","","","","","75","K","2","","","255","main_expt"
