"rt","responses","trial_type","trial_index","time_elapsed","internal_node_id","subjID","study","MID","cond","drift","key_press","expt_phase","target","like","value","connected","gems","bombs","no_reward","GemPrChosen","BombPrChosen","GainOverPainPr_0","GainOverPainPr_1","GainOverPainPr_2","GainOverPainPr_3","LosePr_0","LosePr_1","LosePr_2","LosePr_3","WinPr_0","WinPr_1","WinPr_2","WinPr_3","Q0","Q1","Q2","gender","age","ethnicity","respCharCode","respKey","respChoiceNum","respChoice","practice","trial_counter","trial_label"
"4841","{""Q0"":""A3FR7HHX2IS2FG""}","survey-text","0","4858","0.0-0.0","28777482","wem/bandit_either","A3FR7HHX2IS2FG","either","4","","","","","","","","","","","","","","","","","","","","","","","","","","","","","","","","","","","",""
"7745","","text","1","13608","0.0-1.0","28777482","wem/bandit_either","A3FR7HHX2IS2FG","either","4","32","","","","","","","","","","","","","","","","","","","","","","","","","","","","","","","","","","",""
"3523","","text","2","17135","0.0-2.0","28777482","wem/bandit_either","A3FR7HHX2IS2FG","either","4","32","","","","","","","","","","","","","","","","","","","","","","","","","","","","","","","","","","",""
"2520","","text","3","19656","0.0-3.0","28777482","wem/bandit_either","A3FR7HHX2IS2FG","either","4","32","","","","","","","","","","","","","","","","","","","","","","","","","","","","","","","","","","",""
"1315","","text","4","20973","0.0-4.0","28777482","wem/bandit_either","A3FR7HHX2IS2FG","either","4","32","","","","","","","","","","","","","","","","","","","","","","","","","","","","","","","","","","",""
"1812","","text","5","22787","0.0-5.0","28777482","wem/bandit_either","A3FR7HHX2IS2FG","either","4","32","","","","","","","","","","","","","","","","","","","","","","","","","","","","","","","","","","",""
"1152","","text","6","23941","0.0-6.0","28777482","wem/bandit_either","A3FR7HHX2IS2FG","either","4","32","","","","","","","","","","","","","","","","","","","","","","","","","","","","","","","","","","",""
"2097","","text","7","26041","0.0-7.0","28777482","wem/bandit_either","A3FR7HHX2IS2FG","either","4","32","","","","","","","","","","","","","","","","","","","","","","","","","","","","","","","","","","",""
"4580","","identification","8","30655","0.0-8.0-0.0","28777482","wem/bandit_either","A3FR7HHX2IS2FG","either","4","","identification_pre","the village of Zur","","","","","","","","","","","","","","","","","","","","","","","","","","","","","","","","",""
"2482","","identification","9","34184","0.0-8.0-1.0","28777482","wem/bandit_either","A3FR7HHX2IS2FG","either","4","","identification_pre","the village of Nyx","","","","","","","","","","","","","","","","","","","","","","","","","","","","","","","","",""
"2442","","text","10","37631","0.0-9.0","28777482","wem/bandit_either","A3FR7HHX2IS2FG","either","4","32","","","","","","","","","","","","","","","","","","","","","","","","","","","","","","","","","","",""
"1365","","text","11","38998","0.0-10.0","28777482","wem/bandit_either","A3FR7HHX2IS2FG","either","4","32","","","","","","","","","","","","","","","","","","","","","","","","","","","","","","","","","","",""
"1485","","text","12","40485","0.0-11.0","28777482","wem/bandit_either","A3FR7HHX2IS2FG","either","4","32","","","","","","","","","","","","","","","","","","","","","","","","","","","","","","","","","","",""
"4334","","text","13","44822","0.0-12.0","28777482","wem/bandit_either","A3FR7HHX2IS2FG","either","4","32","","","","","","","","","","","","","","","","","","","","","","","","","","","","","","","","","","",""
"1788","","bandit","14","48122","0.0-13.0-0.0","28777482","wem/bandit_either","A3FR7HHX2IS2FG","either","4","","","","","","","0","0","1","0","0","","","","","0","","","","0","","","","","","","","","","74","J","0","img/none_selected_demo.jpg","true","0",""
"1527","","bandit","15","51157","0.0-14.0-0.0","28777482","wem/bandit_either","A3FR7HHX2IS2FG","either","4","","","","","","","0","0","1","0","0","","","","","0","","","","0","","","","","","","","","","75","K","0","img/none_selected_demo.jpg","true","0",""
"3145","","text","16","54303","0.0-15.0","28777482","wem/bandit_either","A3FR7HHX2IS2FG","either","4","32","","","","","","","","","","","","","","","","","","","","","","","","","","","","","","","","","","",""
"786","","text","17","55091","0.0-16.0","28777482","wem/bandit_either","A3FR7HHX2IS2FG","either","4","32","","","","","","","","","","","","","","","","","","","","","","","","","","","","","","","","","","",""
"611","","text","18","55704","0.0-17.0","28777482","wem/bandit_either","A3FR7HHX2IS2FG","either","4","32","","","","","","","","","","","","","","","","","","","","","","","","","","","","","","","","","","",""
"608","","text","19","56313","0.0-18.0","28777482","wem/bandit_either","A3FR7HHX2IS2FG","either","4","32","","","","","","","","","","","","","","","","","","","","","","","","","","","","","","","","","","",""
"661","","bandit","20","58491","0.0-19.0-0.0","28777482","wem/bandit_either","A3FR7HHX2IS2FG","either","4","","","","","","","0","1","0","","0.8","0.5","0.5","","","0.8","0.2","","","","","","","","","","","","","74","J","0","img/none_selected_demo.jpg","true","0","80_20_practice"
"41","","bandit","21","60069","0.0-19.0-1.0","28777482","wem/bandit_either","A3FR7HHX2IS2FG","either","4","","","","","","","0","0","1","","0.2","0.5","0.5","","","0.8","0.2","","","","","","","","","","","","","75","K","1","","true","0","80_20_practice"
"1058","","bandit","22","62640","0.0-19.0-2.0","28777482","wem/bandit_either","A3FR7HHX2IS2FG","either","4","","","","","","","0","0","1","","0.2","0.5","0.5","","","0.8","0.2","","","","","","","","","","","","","75","K","1","","true","0","80_20_practice"
"630","","bandit","23","64778","0.0-19.0-3.0","28777482","wem/bandit_either","A3FR7HHX2IS2FG","either","4","","","","","","","0","0","1","","0.2","0.5","0.5","","","0.8","0.2","","","","","","","","","","","","","75","K","1","","true","0","80_20_practice"
"854","","bandit","24","67142","0.0-19.0-4.0","28777482","wem/bandit_either","A3FR7HHX2IS2FG","either","4","","","","","","","0","0","1","0.2","","0.5","0.5","","","","","","","0.8","0.2","","","","","","","","","75","K","1","","true","0","80_20_practice"
"464","","bandit","25","69117","0.0-19.0-5.0","28777482","wem/bandit_either","A3FR7HHX2IS2FG","either","4","","","","","","","0","0","1","0.2","","0.5","0.5","","","","","","","0.8","0.2","","","","","","","","","75","K","1","","true","0","80_20_practice"
"82","","bandit","26","70716","0.0-19.0-6.0","28777482","wem/bandit_either","A3FR7HHX2IS2FG","either","4","","","","","","","0","0","1","","0.2","0.5","0.5","","","0.8","0.2","","","","","","","","","","","","","75","K","1","","true","0","80_20_practice"
"180","","bandit","27","72402","0.0-19.0-7.0","28777482","wem/bandit_either","A3FR7HHX2IS2FG","either","4","","","","","","","1","0","0","0.8","","0.5","0.5","","","","","","","0.8","0.2","","","","","","","","","74","J","0","img/none_selected_demo.jpg","true","0","80_20_practice"
"616","","bandit","28","74527","0.0-19.0-8.0","28777482","wem/bandit_either","A3FR7HHX2IS2FG","either","4","","","","","","","0","0","1","","0.8","0.5","0.5","","","0.8","0.2","","","","","","","","","","","","","74","J","0","img/none_selected_demo.jpg","true","0","80_20_practice"
"335","","bandit","29","76371","0.0-19.0-9.0","28777482","wem/bandit_either","A3FR7HHX2IS2FG","either","4","","","","","","","1","0","0","0.8","","0.5","0.5","","","","","","","0.8","0.2","","","","","","","","","74","J","0","img/none_selected_demo.jpg","true","0","80_20_practice"
"401","","bandit","30","78281","0.0-19.0-10.0","28777482","wem/bandit_either","A3FR7HHX2IS2FG","either","4","","","","","","","0","0","1","","0.2","0.5","0.5","","","0.8","0.2","","","","","","","","","","","","","75","K","1","","true","0","80_20_practice"
"318","","bandit","31","80111","0.0-19.0-11.0","28777482","wem/bandit_either","A3FR7HHX2IS2FG","either","4","","","","","","","0","1","0","","0.8","0.5","0.5","","","0.8","0.2","","","","","","","","","","","","","74","J","0","img/none_selected_demo.jpg","true","0","80_20_practice"
"243","","bandit","32","81865","0.0-19.0-12.0","28777482","wem/bandit_either","A3FR7HHX2IS2FG","either","4","","","","","","","0","0","1","0.2","","0.5","0.5","","","","","","","0.8","0.2","","","","","","","","","75","K","1","","true","0","80_20_practice"
"325","","bandit","33","83697","0.0-19.0-13.0","28777482","wem/bandit_either","A3FR7HHX2IS2FG","either","4","","","","","","","0","1","0","","0.8","0.5","0.5","","","0.8","0.2","","","","","","","","","","","","","74","J","0","img/none_selected_demo.jpg","true","0","80_20_practice"
"179","","bandit","34","85384","0.0-19.0-14.0","28777482","wem/bandit_either","A3FR7HHX2IS2FG","either","4","","","","","","","0","0","1","","0.2","0.5","0.5","","","0.8","0.2","","","","","","","","","","","","","75","K","1","","true","0","80_20_practice"
"204","","bandit","35","87096","0.0-19.0-15.0","28777482","wem/bandit_either","A3FR7HHX2IS2FG","either","4","","","","","","","0","0","1","","0.2","0.5","0.5","","","0.8","0.2","","","","","","","","","","","","","75","K","1","","true","0","80_20_practice"
"24","","bandit","36","88634","0.0-19.0-16.0","28777482","wem/bandit_either","A3FR7HHX2IS2FG","either","4","","","","","","","0","1","0","","0.8","0.5","0.5","","","0.8","0.2","","","","","","","","","","","","","74","J","0","img/none_selected_demo.jpg","true","0","80_20_practice"
"209","","bandit","37","90362","0.0-19.0-17.0","28777482","wem/bandit_either","A3FR7HHX2IS2FG","either","4","","","","","","","0","0","1","0.2","","0.5","0.5","","","","","","","0.8","0.2","","","","","","","","","75","K","1","","true","0","80_20_practice"
"51","","bandit","38","91923","0.0-19.0-18.0","28777482","wem/bandit_either","A3FR7HHX2IS2FG","either","4","","","","","","","0","0","1","","0.2","0.5","0.5","","","0.8","0.2","","","","","","","","","","","","","75","K","1","","true","0","80_20_practice"
"62","","bandit","39","93514","0.0-19.0-19.0","28777482","wem/bandit_either","A3FR7HHX2IS2FG","either","4","","","","","","","0","1","0","","0.8","0.5","0.5","","","0.8","0.2","","","","","","","","","","","","","74","J","0","img/none_selected_demo.jpg","true","0","80_20_practice"
"2224","","text","40","95742","0.0-20.0","28777482","wem/bandit_either","A3FR7HHX2IS2FG","either","4","32","","","","","","","","","","","","","","","","","","","","","","","","","","","","","","","","","","",""
"1601","","bandit","41","98852","0.0-21.0-0.0","28777482","wem/bandit_either","A3FR7HHX2IS2FG","either","4","","","","","","","1","0","0","1","0","","","","","0","1","","","1","0","","","","","","","","","74","J","0","img/none_selected_demo.jpg","true","0",""
"3139","","text","42","101994","0.0-22.0","28777482","wem/bandit_either","A3FR7HHX2IS2FG","either","4","32","","","","","","","","","","","","","","","","","","","","","","","","","","","","","","","","","","",""
"3392","","text","43","105388","0.0-23.0","28777482","wem/bandit_either","A3FR7HHX2IS2FG","either","4","32","","","","","","","","","","","","","","","","","","","","","","","","","","","","","","","","","","",""
"486","","text","44","105878","0.0-24.0","28777482","wem/bandit_either","A3FR7HHX2IS2FG","either","4","32","","","","","","","","","","","","","","","","","","","","","","","","","","","","","","","","","","",""
"329","","text","45","106211","0.0-25.0","28777482","wem/bandit_either","A3FR7HHX2IS2FG","either","4","32","","","","","","","","","","","","","","","","","","","","","","","","","","","","","","","","","","",""
"315","","text","46","106529","0.0-26.0","28777482","wem/bandit_either","A3FR7HHX2IS2FG","either","4","32","","","","","","","","","","","","","","","","","","","","","","","","","","","","","","","","","","",""
"373","","text","47","106904","0.0-27.0","28777482","wem/bandit_either","A3FR7HHX2IS2FG","either","4","32","","","","","","","","","","","","","","","","","","","","","","","","","","","","","","","","","","",""
"363","","text","48","107270","0.0-28.0","28777482","wem/bandit_either","A3FR7HHX2IS2FG","either","4","32","","","","","","","","","","","","","","","","","","","","","","","","","","","","","","","","","","",""
"368","","text","49","107641","0.0-29.0","28777482","wem/bandit_either","A3FR7HHX2IS2FG","either","4","32","","","","","","","","","","","","","","","","","","","","","","","","","","","","","","","","","","",""
"371","","text","50","108014","0.0-30.0","28777482","wem/bandit_either","A3FR7HHX2IS2FG","either","4","32","","","","","","","","","","","","","","","","","","","","","","","","","","","","","","","","","","",""
"248887","","text","51","356906","0.0-31.0","28777482","wem/bandit_either","A3FR7HHX2IS2FG","either","4","32","","","","","","","","","","","","","","","","","","","","","","","","","","","","","","","","","","",""
"3665","","text","52","360579","0.0-32.0","28777482","wem/bandit_either","A3FR7HHX2IS2FG","either","4","32","","","","","","","","","","","","","","","","","","","","","","","","","","","","","","","","","","",""
"643","","bandit","53","362740","0.0-33.0-0.0","28777482","wem/bandit_either","A3FR7HHX2IS2FG","either","4","","","","","","","0","1","0","","0.8","0.5","0.5","0.5","0.5","0.8","0.2","0.6","0.2","","","","","","","","","","","72","H","0","img/none_selected.jpg","true","0","full_practice"
"13","","bandit","54","364267","0.0-33.0-1.0","28777482","wem/bandit_either","A3FR7HHX2IS2FG","either","4","","","","","","","0","0","1","0.6","","0.5","0.5","0.5","0.5","","","","","0.8","0.2","0.6","0.2","","","","","","","75","K","2","","true","0","full_practice"
"122","","bandit","55","365900","0.0-33.0-2.0","28777482","wem/bandit_either","A3FR7HHX2IS2FG","either","4","","","","","","","0","0","1","","0.2","0.5","0.5","0.5","0.5","0.8","0.2","0.6","0.2","","","","","","","","","","","74","J","1","","true","0","full_practice"
"293","","bandit","56","367703","0.0-33.0-3.0","28777482","wem/bandit_either","A3FR7HHX2IS2FG","either","4","","","","","","","1","0","0","0.2","","0.5","0.5","0.5","0.5","","","","","0.8","0.2","0.6","0.2","","","","","","","76","L","3","","true","0","full_practice"
"235","","bandit","57","369448","0.0-33.0-4.0","28777482","wem/bandit_either","A3FR7HHX2IS2FG","either","4","","","","","","","0","0","1","","0.8","0.5","0.5","0.5","0.5","0.8","0.2","0.6","0.2","","","","","","","","","","","72","H","0","img/none_selected.jpg","true","0","full_practice"
"23","","bandit","58","370980","0.0-33.0-5.0","28777482","wem/bandit_either","A3FR7HHX2IS2FG","either","4","","","","","","","0","1","0","","0.2","0.5","0.5","0.5","0.5","0.8","0.2","0.6","0.2","","","","","","","","","","","76","L","3","","true","0","full_practice"
"224","","bandit","59","372713","0.0-33.0-6.0","28777482","wem/bandit_either","A3FR7HHX2IS2FG","either","4","","","","","","","0","0","1","","0.2","0.5","0.5","0.5","0.5","0.8","0.2","0.6","0.2","","","","","","","","","","","74","J","1","","true","0","full_practice"
"198","","bandit","60","374440","0.0-33.0-7.0","28777482","wem/bandit_either","A3FR7HHX2IS2FG","either","4","","","","","","","1","0","0","0.8","","0.5","0.5","0.5","0.5","","","","","0.8","0.2","0.6","0.2","","","","","","","72","H","0","img/none_selected.jpg","true","0","full_practice"
"158","","bandit","61","376108","0.0-33.0-8.0","28777482","wem/bandit_either","A3FR7HHX2IS2FG","either","4","","","","","","","0","0","1","","0.2","0.5","0.5","0.5","0.5","0.8","0.2","0.6","0.2","","","","","","","","","","","74","J","1","","true","0","full_practice"
"334","","bandit","62","377953","0.0-33.0-9.0","28777482","wem/bandit_either","A3FR7HHX2IS2FG","either","4","","","","","","","0","0","1","0.6","","0.5","0.5","0.5","0.5","","","","","0.8","0.2","0.6","0.2","","","","","","","75","K","2","","true","0","full_practice"
"15","","bandit","63","379483","0.0-33.0-10.0","28777482","wem/bandit_either","A3FR7HHX2IS2FG","either","4","","","","","","","1","0","0","0.8","","0.5","0.5","0.5","0.5","","","","","0.8","0.2","0.6","0.2","","","","","","","72","H","0","img/none_selected.jpg","true","0","full_practice"
"317","","bandit","64","381312","0.0-33.0-11.0","28777482","wem/bandit_either","A3FR7HHX2IS2FG","either","4","","","","","","","0","0","1","0.8","","0.5","0.5","0.5","0.5","","","","","0.8","0.2","0.6","0.2","","","","","","","72","H","0","img/none_selected.jpg","true","0","full_practice"
"221","","bandit","65","383046","0.0-33.0-12.0","28777482","wem/bandit_either","A3FR7HHX2IS2FG","either","4","","","","","","","0","0","1","0.2","","0.5","0.5","0.5","0.5","","","","","0.8","0.2","0.6","0.2","","","","","","","74","J","1","","true","0","full_practice"
"386","","bandit","66","384946","0.0-33.0-13.0","28777482","wem/bandit_either","A3FR7HHX2IS2FG","either","4","","","","","","","0","0","1","0.6","","0.5","0.5","0.5","0.5","","","","","0.8","0.2","0.6","0.2","","","","","","","75","K","2","","true","0","full_practice"
"217","","bandit","67","386678","0.0-33.0-14.0","28777482","wem/bandit_either","A3FR7HHX2IS2FG","either","4","","","","","","","0","0","1","","0.2","0.5","0.5","0.5","0.5","0.8","0.2","0.6","0.2","","","","","","","","","","","76","L","3","","true","0","full_practice"
"563","","bandit","68","388751","0.0-33.0-15.0","28777482","wem/bandit_either","A3FR7HHX2IS2FG","either","4","","","","","","","1","0","0","0.8","","0.5","0.5","0.5","0.5","","","","","0.8","0.2","0.6","0.2","","","","","","","72","H","0","img/none_selected.jpg","true","0","full_practice"
"527","","bandit","69","390789","0.0-33.0-16.0","28777482","wem/bandit_either","A3FR7HHX2IS2FG","either","4","","","","","","","0","0","1","0.6","","0.5","0.5","0.5","0.5","","","","","0.8","0.2","0.6","0.2","","","","","","","75","K","2","","true","0","full_practice"
"204","","bandit","70","392505","0.0-33.0-17.0","28777482","wem/bandit_either","A3FR7HHX2IS2FG","either","4","","","","","","","1","0","0","0.8","","0.5","0.5","0.5","0.5","","","","","0.8","0.2","0.6","0.2","","","","","","","72","H","0","img/none_selected.jpg","true","0","full_practice"
"168","","bandit","71","394183","0.0-33.0-18.0","28777482","wem/bandit_either","A3FR7HHX2IS2FG","either","4","","","","","","","0","0","1","","0.2","0.5","0.5","0.5","0.5","0.8","0.2","0.6","0.2","","","","","","","","","","","74","J","1","","true","0","full_practice"
"184","","bandit","72","395878","0.0-33.0-19.0","28777482","wem/bandit_either","A3FR7HHX2IS2FG","either","4","","","","","","","0","1","0","","0.8","0.5","0.5","0.5","0.5","0.8","0.2","0.6","0.2","","","","","","","","","","","72","H","0","img/none_selected.jpg","true","0","full_practice"
"2417","","text","73","398340","0.0-34.0","28777482","wem/bandit_either","A3FR7HHX2IS2FG","either","4","32","","","","","","","","","","","","","","","","","","","","","","","","","","","","","","","","","","",""
"12686","","text","74","412034","0.0-35.0","28777482","wem/bandit_either","A3FR7HHX2IS2FG","either","4","32","","","","","","","","","","","","","","","","","","","","","","","","","","","","","","","","","","",""
"4205","","text","75","416244","0.0-36.0","28777482","wem/bandit_either","A3FR7HHX2IS2FG","either","4","32","","","","","","","","","","","","","","","","","","","","","","","","","","","","","","","","","","",""
"899","","text","76","417148","0.0-37.0","28777482","wem/bandit_either","A3FR7HHX2IS2FG","either","4","32","","","","","","","","","","","","","","","","","","","","","","","","","","","","","","","","","","",""
"505","","text","77","417659","0.0-38.0","28777482","wem/bandit_either","A3FR7HHX2IS2FG","either","4","32","","","","","","","","","","","","","","","","","","","","","","","","","","","","","","","","","","",""
"365","","text","78","418029","0.0-39.0","28777482","wem/bandit_either","A3FR7HHX2IS2FG","either","4","32","","","","","","","","","","","","","","","","","","","","","","","","","","","","","","","","","","",""
"1081","","bandit","79","420622","0.0-40.0-0.0","28777482","wem/bandit_either","A3FR7HHX2IS2FG","either","4","","","","","","","0","0","1","0.3242650943","","0.8","0.6","0.2","0.4","","","","","0.2771551185","0.3242650943","0.3894728165","0.3525715257","","","","","","","74","J","1","","","1","main_expt"
"256","","bandit","80","422387","0.0-41.0-0.0","28777482","wem/bandit_either","A3FR7HHX2IS2FG","either","4","","","","","","","0","0","1","0.363660736","","0.8","0.6","0.2","0.4","","","","","0.3030893157","0.3296228245","0.363660736","0.390153736","","","","","","","75","K","2","","","2","main_expt"
"136","","bandit","81","424032","0.0-42.0-0.0","28777482","wem/bandit_either","A3FR7HHX2IS2FG","either","4","","","","","","","1","0","0","0.3211059343","","0.8","0.6","0.2","0.4","","","","","0.3211059343","0.3102780753","0.3842171554","0.3725447061","","","","","","","72","H","0","img/none_selected.jpg","","3","main_expt"
"313","","bandit","82","425854","0.0-43.0-0.0","28777482","wem/bandit_either","A3FR7HHX2IS2FG","either","4","","","","","","","1","0","0","0.3831963053","","0.8","0.6","0.2","0.4","","","","","0.2804386453","0.2749892112","0.3831963053","0.3431524481","","","","","","","75","K","2","","","4","main_expt"
"317","","bandit","83","427694","0.0-44.0-0.0","28777482","wem/bandit_either","A3FR7HHX2IS2FG","either","4","","","","","","","0","0","1","0.3037824898","","0.8","0.6","0.2","0.4","","","","","0.2609559086","0.3037824898","0.4056596471","0.3448007793","","","","","","","74","J","1","","","5","main_expt"
"44","","bandit","84","429249","0.0-45.0-0.0","28777482","wem/bandit_either","A3FR7HHX2IS2FG","either","4","","","","","","","0","0","1","0.2259287768","","0.8","0.6","0.2","0.4","","","","","0.2259287768","0.3217417103","0.4409946319","0.3980888019","","","","","","","72","H","0","img/none_selected.jpg","","6","main_expt"
"375","","bandit","85","431136","0.0-46.0-0.0","28777482","wem/bandit_either","A3FR7HHX2IS2FG","either","4","","","","","","","1","0","0","0.3821747998","","0.8","0.6","0.2","0.4","","","","","0.2433618728","0.3018715163","0.3821747998","0.3693121862","","","","","","","75","K","2","","","7","main_expt"
"247","","bandit","86","432897","0.0-47.0-0.0","28777482","wem/bandit_either","A3FR7HHX2IS2FG","either","4","","","","","","","0","0","1","","0.2933697555","0.8","0.6","0.2","0.4","0.2025356769","0.3643645816","0.3841844813","0.2933697555","","","","","","","","","","","76","L","3","","","8","main_expt"
"430","","bandit","87","434838","0.0-48.0-0.0","28777482","wem/bandit_either","A3FR7HHX2IS2FG","either","4","","","","","","","0","0","1","","0.3412237964","0.8","0.6","0.2","0.4","0.1441028094","0.3418610374","0.3412237964","0.3036212831","","","","","","","","","","","75","K","2","","","9","main_expt"
"462","","bandit","88","436811","0.0-49.0-0.0","28777482","wem/bandit_either","A3FR7HHX2IS2FG","either","4","","","","","","","0","0","1","0.1736005971","","0.8","0.6","0.2","0.4","","","","","0.1736005971","0.3190157878","0.3256420777","0.308020301","","","","","","","72","H","0","img/none_selected.jpg","","10","main_expt"
"271","","bandit","89","438591","0.0-50.0-0.0","28777482","wem/bandit_either","A3FR7HHX2IS2FG","either","4","","","","","","","0","1","0","","0.2998731478","0.8","0.6","0.2","0.4","0.1836365694","0.2998731478","0.3514007431","0.3065973113","","","","","","","","","","","74","J","1","","","11","main_expt"
"338","","bandit","90","440452","0.0-51.0-0.0","28777482","wem/bandit_either","A3FR7HHX2IS2FG","either","4","","","","","","","0","0","1","0.3722032088","","0.8","0.6","0.2","0.4","","","","","0.2143869662","0.2942822571","0.3722032088","0.3271859636","","","","","","","75","K","2","","","12","main_expt"
"675","","bandit","91","442643","0.0-52.0-0.0","28777482","wem/bandit_either","A3FR7HHX2IS2FG","either","4","","","","","","","0","0","1","","0.2761076709","0.8","0.6","0.2","0.4","0.1637139448","0.3009212619","0.3681707299","0.2761076709","","","","","","","","","","","76","L","3","","","13","main_expt"
"208","","bandit","92","444364","0.0-53.0-0.0","28777482","wem/bandit_either","A3FR7HHX2IS2FG","either","4","","","","","","","0","0","1","","0.1488535162","0.8","0.6","0.2","0.4","0.1488535162","0.3227424667","0.3528222564","0.2311164494","","","","","","","","","","","72","H","0","img/none_selected.jpg","","14","main_expt"
"405","","bandit","93","446279","0.0-54.0-0.0","28777482","wem/bandit_either","A3FR7HHX2IS2FG","either","4","","","","","","","0","0","1","0.3547546862","","0.8","0.6","0.2","0.4","","","","","0.1332411271","0.3547546862","0.3738838661","0.2905977425","","","","","","","74","J","1","","","15","main_expt"
"386","","bandit","94","448178","0.0-55.0-0.0","28777482","wem/bandit_either","A3FR7HHX2IS2FG","either","4","","","","","","","0","0","1","","0.3385239332","0.8","0.6","0.2","0.4","0.09882415698","0.3241157583","0.3385239332","0.2924554969","","","","","","","","","","","75","K","2","","","16","main_expt"
"366","","bandit","95","450056","0.0-56.0-0.0","28777482","wem/bandit_either","A3FR7HHX2IS2FG","either","4","","","","","","","1","0","0","0.3114836302","","0.8","0.6","0.2","0.4","","","","","0.1069157009","0.3363410386","0.3111355138","0.3114836302","","","","","","","76","L","3","","","17","main_expt"
"644","","bandit","96","452214","0.0-57.0-0.0","28777482","wem/bandit_either","A3FR7HHX2IS2FG","either","4","","","","","","","0","1","0","","0.3215333475","0.8","0.6","0.2","0.4","0.134958137","0.3880947854","0.3487767647","0.3215333475","","","","","","","","","","","76","L","3","","","18","main_expt"
"423","","bandit","97","454161","0.0-58.0-0.0","28777482","wem/bandit_either","A3FR7HHX2IS2FG","either","4","","","","","","","0","0","1","0.2733398822","","0.8","0.6","0.2","0.4","","","","","0.1230418706","0.4116912081","0.3010303499","0.2733398822","","","","","","","76","L","3","","","19","main_expt"
"440","","bandit","98","456119","0.0-59.0-0.0","28777482","wem/bandit_either","A3FR7HHX2IS2FG","either","4","","","","","","","0","0","1","0.2351410235","","0.8","0.6","0.2","0.4","","","","","0.09866604889","0.3973894305","0.2907203997","0.2351410235","","","","","","","76","L","3","","","20","main_expt"
"476","","bandit","99","458108","0.0-60.0-0.0","28777482","wem/bandit_either","A3FR7HHX2IS2FG","either","4","","","","","","","0","1","0","","0.2257810982","0.8","0.6","0.2","0.4","0.1021222834","0.369037109","0.3088108907","0.2257810982","","","","","","","","","","","76","L","3","","","21","main_expt"
"369","","bandit","100","459991","0.0-61.0-0.0","28777482","wem/bandit_either","A3FR7HHX2IS2FG","either","4","","","","","","","0","0","1","","0.349202701","0.8","0.6","0.2","0.4","0.1234138809","0.4179468344","0.349202701","0.2221856846","","","","","","","","","","","75","K","2","","","22","main_expt"
"476","","bandit","101","461977","0.0-62.0-0.0","28777482","wem/bandit_either","A3FR7HHX2IS2FG","either","4","","","","","","","0","0","1","","0.3785068464","0.8","0.6","0.2","0.4","0.1030640584","0.4276062926","0.3785068464","0.2127124712","","","","","","","","","","","75","K","2","","","23","main_expt"
"245","","bandit","102","463733","0.0-63.0-0.0","28777482","wem/bandit_either","A3FR7HHX2IS2FG","either","4","","","","","","","0","0","1","","0.4012919653","0.8","0.6","0.2","0.4","0.1261035851","0.4078122208","0.4012919653","0.1882566648","","","","","","","","","","","75","K","2","","","24","main_expt"
"221","","bandit","103","465470","0.0-64.0-0.0","28777482","wem/bandit_either","A3FR7HHX2IS2FG","either","4","","","","","","","0","0","1","","0.3950411191","0.8","0.6","0.2","0.4","0.1796705612","0.3950411191","0.400899794","0.1273223766","","","","","","","","","","","74","J","1","","","25","main_expt"
"276","","bandit","104","467258","0.0-65.0-0.0","28777482","wem/bandit_either","A3FR7HHX2IS2FG","either","4","","","","","","","0","0","1","","0.4322303329","0.8","0.6","0.2","0.4","0.2414651519","0.4322303329","0.4126274585","0.15747458","","","","","","","","","","","74","J","1","","","26","main_expt"
"243","","bandit","105","469011","0.0-66.0-0.0","28777482","wem/bandit_either","A3FR7HHX2IS2FG","either","4","","","","","","","1","0","0","0.2005374927","","0.8","0.6","0.2","0.4","","","","","0.2005374927","0.4353643722","0.3992263875","0.1442684908","","","","","","","72","H","0","img/none_selected.jpg","","27","main_expt"
"462","","bandit","106","470983","0.0-67.0-0.0","28777482","wem/bandit_either","A3FR7HHX2IS2FG","either","4","","","","","","","0","0","1","0.3197257227","","0.8","0.6","0.2","0.4","","","","","0.3197257227","0.4464017809","0.3846584236","0.2255404594","","","","","","","72","H","0","img/none_selected.jpg","","28","main_expt"
"482","","bandit","107","472974","0.0-68.0-0.0","28777482","wem/bandit_either","A3FR7HHX2IS2FG","either","4","","","","","","","1","0","0","0.4417109462","","0.8","0.6","0.2","0.4","","","","","0.3141869899","0.4417109462","0.3561298134","0.2730951691","","","","","","","74","J","1","","","29","main_expt"
"352","","bandit","108","474836","0.0-69.0-0.0","28777482","wem/bandit_either","A3FR7HHX2IS2FG","either","4","","","","","","","0","1","0","","0.3101363315","0.8","0.6","0.2","0.4","0.3445991012","0.4065908859","0.3101363315","0.2890412698","","","","","","","","","","","75","K","2","","","30","main_expt"
"542","","bandit","109","476887","0.0-70.0-0.0","28777482","wem/bandit_either","A3FR7HHX2IS2FG","either","4","","","","","","","0","0","1","","0.3322219809","0.8","0.6","0.2","0.4","0.3456655029","0.3954582793","0.3322219809","0.3309226042","","","","","","","","","","","75","K","2","","","31","main_expt"
"413","","bandit","110","478811","0.0-71.0-0.0","28777482","wem/bandit_either","A3FR7HHX2IS2FG","either","4","","","","","","","0","0","1","","0.3826172224","0.8","0.6","0.2","0.4","0.3826172224","0.3716723047","0.3516269472","0.3519301717","","","","","","","","","","","72","H","0","img/none_selected.jpg","","32","main_expt"
"71","","bandit","111","480395","0.0-72.0-0.0","28777482","wem/bandit_either","A3FR7HHX2IS2FG","either","4","","","","","","","0","1","0","","0.3799724366","0.8","0.6","0.2","0.4","0.3804083149","0.3799724366","0.3852085553","0.3414953842","","","","","","","","","","","74","J","1","","","33","main_expt"
"392","","bandit","112","482301","0.0-73.0-0.0","28777482","wem/bandit_either","A3FR7HHX2IS2FG","either","4","","","","","","","0","0","1","","0.2938412915","0.8","0.6","0.2","0.4","0.3808178469","0.409480615","0.4196644934","0.2938412915","","","","","","","","","","","76","L","3","","","34","main_expt"
"590","","bandit","113","484402","0.0-74.0-0.0","28777482","wem/bandit_either","A3FR7HHX2IS2FG","either","4","","","","","","","0","0","1","0.420891004","","0.8","0.6","0.2","0.4","","","","","0.376129724","0.3869649509","0.420891004","0.2256616696","","","","","","","75","K","2","","","35","main_expt"
"592","","bandit","114","486507","0.0-75.0-0.0","28777482","wem/bandit_either","A3FR7HHX2IS2FG","either","4","","","","","","","0","0","1","","0.3045389962","0.8","0.6","0.2","0.4","0.4027809904","0.3045389962","0.3808881167","0.2525957923","","","","","","","","","","","74","J","1","","","36","main_expt"
"419","","bandit","115","488439","0.0-76.0-0.0","28777482","wem/bandit_either","A3FR7HHX2IS2FG","either","4","","","","","","","1","0","0","0.3715556026","","0.8","0.6","0.2","0.4","","","","","0.3715556026","0.2954217214","0.3634360393","0.2333373749","","","","","","","72","H","0","img/none_selected.jpg","","37","main_expt"
"457","","bandit","116","490409","0.0-77.0-0.0","28777482","wem/bandit_either","A3FR7HHX2IS2FG","either","4","","","","","","","0","0","1","0.354842885","","0.8","0.6","0.2","0.4","","","","","0.354842885","0.2749906923","0.3432691328","0.2126884676","","","","","","","72","H","0","img/none_selected.jpg","","38","main_expt"
"471","","bandit","117","492390","0.0-78.0-0.0","28777482","wem/bandit_either","A3FR7HHX2IS2FG","either","4","","","","","","","1","0","0","0.3066825603","","0.8","0.6","0.2","0.4","","","","","0.3066825603","0.2911873598","0.3113322025","0.212498526","","","","","","","72","H","0","img/none_selected.jpg","","39","main_expt"
"392","","bandit","118","494291","0.0-79.0-0.0","28777482","wem/bandit_either","A3FR7HHX2IS2FG","either","4","","","","","","","0","0","1","0.3208648015","","0.8","0.6","0.2","0.4","","","","","0.3208648015","0.3066149412","0.3298138996","0.2031275136","","","","","","","72","H","0","img/none_selected.jpg","","40","main_expt"
"240","","bandit","119","496043","0.0-80.0-0.0","28777482","wem/bandit_either","A3FR7HHX2IS2FG","either","4","","","","","","","0","0","1","","0.2612722093","0.8","0.6","0.2","0.4","0.2774570704","0.2612722093","0.3590557929","0.2409224204","","","","","","","","","","","74","J","1","","","41","main_expt"
"308","","bandit","120","497866","0.0-81.0-0.0","28777482","wem/bandit_either","A3FR7HHX2IS2FG","either","4","","","","","","","0","1","0","","0.3455434044","0.8","0.6","0.2","0.4","0.3092882543","0.2579482203","0.3455434044","0.2166695961","","","","","","","","","","","75","K","2","","","42","main_expt"
"226","","bandit","121","499604","0.0-82.0-0.0","28777482","wem/bandit_either","A3FR7HHX2IS2FG","either","4","","","","","","","0","0","1","","0.2314197793","0.8","0.6","0.2","0.4","0.3161251671","0.2232302517","0.4020043176","0.2314197793","","","","","","","","","","","76","L","3","","","43","main_expt"
"403","","bandit","122","501521","0.0-83.0-0.0","28777482","wem/bandit_either","A3FR7HHX2IS2FG","either","4","","","","","","","0","0","1","0.3032549762","","0.8","0.6","0.2","0.4","","","","","0.3032549762","0.2435669349","0.4088695108","0.1889371852","","","","","","","72","H","0","img/none_selected.jpg","","44","main_expt"
"188","","bandit","123","503221","0.0-84.0-0.0","28777482","wem/bandit_either","A3FR7HHX2IS2FG","either","4","","","","","","","0","0","1","","0.1885724617","0.8","0.6","0.2","0.4","0.3012359134","0.1885724617","0.3914045207","0.2152104473","","","","","","","","","","","74","J","1","","","45","main_expt"
"93","","bandit","124","504824","0.0-85.0-0.0","28777482","wem/bandit_either","A3FR7HHX2IS2FG","either","4","","","","","","","0","0","1","0.3682142312","","0.8","0.6","0.2","0.4","","","","","0.2994346937","0.104230756","0.3682142312","0.2260726972","","","","","","","75","K","2","","","46","main_expt"
"264","","bandit","125","506601","0.0-86.0-0.0","28777482","wem/bandit_either","A3FR7HHX2IS2FG","either","4","","","","","","","0","0","1","","0.2330399618","0.8","0.6","0.2","0.4","0.3169549043","0.09013225529","0.3462276735","0.2330399618","","","","","","","","","","","76","L","3","","","47","main_expt"
"70","","bandit","126","508182","0.0-87.0-0.0","28777482","wem/bandit_either","A3FR7HHX2IS2FG","either","4","","","","","","","1","0","0","0.3137179834","","0.8","0.6","0.2","0.4","","","","","0.3137179834","0.1066227192","0.3501405617","0.2769685944","","","","","","","72","H","0","img/none_selected.jpg","","48","main_expt"
"252","","bandit","127","509947","0.0-88.0-0.0","28777482","wem/bandit_either","A3FR7HHX2IS2FG","either","4","","","","","","","1","0","0","0.1273062614","","0.8","0.6","0.2","0.4","","","","","0.3026837323","0.1273062614","0.3607669766","0.2954986192","","","","","","","74","J","1","","","49","main_expt"
"369","","bandit","128","511845","0.0-89.0-0.0","28777482","wem/bandit_either","A3FR7HHX2IS2FG","either","4","","","","","","","0","0","1","0.2690248343","","0.8","0.6","0.2","0.4","","","","","0.2690248343","0.08158159543","0.3776327681","0.2730110453","","","","","","","72","H","0","img/none_selected.jpg","","50","main_expt"
"333","","bandit","129","513691","0.0-90.0-0.0","28777482","wem/bandit_either","A3FR7HHX2IS2FG","either","4","","","","","","","0","0","1","0.08035098666","","0.8","0.6","0.2","0.4","","","","","0.2407215714","0.08035098666","0.3922012959","0.2672659715","","","","","","","74","J","1","","","51","main_expt"
"176","","bandit","130","515379","0.0-91.0-0.0","28777482","wem/bandit_either","A3FR7HHX2IS2FG","either","4","","","","","","","0","1","0","","0.3532085343","0.8","0.6","0.2","0.4","0.2758158767","0.1007468434","0.3532085343","0.2552972095","","","","","","","","","","","75","K","2","","","52","main_expt"
"355","","bandit","131","517244","0.0-92.0-0.0","28777482","wem/bandit_either","A3FR7HHX2IS2FG","either","4","","","","","","","0","1","0","","0.1954439593","0.8","0.6","0.2","0.4","0.2661511239","0.1479770317","0.3597378762","0.1954439593","","","","","","","","","","","76","L","3","","","53","main_expt"
"397","","bandit","132","519154","0.0-93.0-0.0","28777482","wem/bandit_either","A3FR7HHX2IS2FG","either","4","","","","","","","1","0","0","0.250303373","","0.8","0.6","0.2","0.4","","","","","0.250303373","0.1450389045","0.3553644404","0.1250298759","","","","","","","72","H","0","img/none_selected.jpg","","54","main_expt"
"1084","","bandit","133","521752","0.0-94.0-0.0","28777482","wem/bandit_either","A3FR7HHX2IS2FG","either","4","","","","","","","0","0","1","0.1850572083","","0.8","0.6","0.2","0.4","","","","","0.1850572083","0.1678096349","0.3427354451","0.1224949652","","","","","","","72","H","0","img/none_selected.jpg","","55","main_expt"
"501","","bandit","134","523768","0.0-95.0-0.0","28777482","wem/bandit_either","A3FR7HHX2IS2FG","either","4","","","","","","","0","0","1","0.1748395718","","0.8","0.6","0.2","0.4","","","","","0.2410157884","0.1748395718","0.3158877586","0.1312048923","","","","","","","74","J","1","","","56","main_expt"
"92","","bandit","135","525376","0.0-96.0-0.0","28777482","wem/bandit_either","A3FR7HHX2IS2FG","either","4","","","","","","","1","0","0","0.3224611445","","0.8","0.6","0.2","0.4","","","","","0.2657224069","0.146986137","0.3224611445","0.14452077","","","","","","","75","K","2","","","57","main_expt"
"2940","","bandit","136","529831","0.0-97.0-0.0","28777482","wem/bandit_either","A3FR7HHX2IS2FG","either","4","","","","","","","0","0","1","0.2361308133","","0.8","0.6","0.2","0.4","","","","","0.2361308133","0.1316135006","0.3378672788","0.1198415177","","","","","","","72","H","0","img/none_selected.jpg","","58","main_expt"
"394","","bandit","137","531741","0.0-98.0-0.0","28777482","wem/bandit_either","A3FR7HHX2IS2FG","either","4","","","","","","","0","0","1","0.1776120447","","0.8","0.6","0.2","0.4","","","","","0.2078360154","0.1776120447","0.3438075972","0.1674914914","","","","","","","74","J","1","","","59","main_expt"
"483","","bandit","138","533744","0.0-99.0-0.0","28777482","wem/bandit_either","A3FR7HHX2IS2FG","either","4","","","","","","","0","0","1","","0.2950987239","0.8","0.6","0.2","0.4","0.2256957235","0.2034864675","0.2950987239","0.147959707","","","","","","","","","","","75","K","2","","","60","main_expt"
"844","","bandit","139","536118","0.0-100.0-0.0","28777482","wem/bandit_either","A3FR7HHX2IS2FG","either","4","","","","","","","0","0","1","","0.1217284172","0.8","0.6","0.2","0.4","0.2713547376","0.1325668513","0.2939622289","0.1217284172","","","","","","","","","","","76","L","3","","","61","main_expt"
"149","","bandit","140","537784","0.0-101.0-0.0","28777482","wem/bandit_either","A3FR7HHX2IS2FG","either","4","","","","","","","0","0","1","","0.2800078023","0.8","0.6","0.2","0.4","0.2800078023","0.125492747","0.2907096119","0.1392905859","","","","","","","","","","","72","H","0","img/none_selected.jpg","","62","main_expt"
"864","","bandit","141","540164","0.0-102.0-0.0","28777482","wem/bandit_either","A3FR7HHX2IS2FG","either","4","","","","","","","0","0","1","","0.1081989139","0.8","0.6","0.2","0.4","0.362183352","0.1081989139","0.2696382907","0.1953314019","","","","","","","","","","","74","J","1","","","63","main_expt"
"154","","bandit","142","541831","0.0-103.0-0.0","28777482","wem/bandit_either","A3FR7HHX2IS2FG","either","4","","","","","","","0","1","0","","0.2496415039","0.8","0.6","0.2","0.4","0.3354395381","0.09104284411","0.2496415039","0.2618523415","","","","","","","","","","","75","K","2","","","64","main_expt"
"331","","bandit","143","543679","0.0-104.0-0.0","28777482","wem/bandit_either","A3FR7HHX2IS2FG","either","4","","","","","","","1","0","0","0.2893845237","","0.8","0.6","0.2","0.4","","","","","0.2893845237","0.1264903162","0.2364994079","0.2686672798","","","","","","","72","H","0","img/none_selected.jpg","","65","main_expt"
"2192","","bandit","144","547388","0.0-105.0-0.0","28777482","wem/bandit_either","A3FR7HHX2IS2FG","either","4","","","","","","","0","0","1","0.2355717356","","0.8","0.6","0.2","0.4","","","","","0.2355717356","0.1665937301","0.2541683514","0.2451656397","","","","","","","72","H","0","img/none_selected.jpg","","66","main_expt"
"380","","bandit","145","549286","0.0-106.0-0.0","28777482","wem/bandit_either","A3FR7HHX2IS2FG","either","4","","","","","","","0","0","1","0.1740025863","","0.8","0.6","0.2","0.4","","","","","0.2848755716","0.1740025863","0.2985471382","0.2445320338","","","","","","","74","J","1","","","67","main_expt"
"91","","bandit","146","550894","0.0-107.0-0.0","28777482","wem/bandit_either","A3FR7HHX2IS2FG","either","4","","","","","","","0","1","0","","0.3391290389","0.8","0.6","0.2","0.4","0.3341158043","0.2300011382","0.3391290389","0.2261158315","","","","","","","","","","","75","K","2","","","68","main_expt"
"13","","bandit","147","552420","0.0-108.0-0.0","28777482","wem/bandit_either","A3FR7HHX2IS2FG","either","4","","","","","","","0","0","1","0.1627286519","","0.8","0.6","0.2","0.4","","","","","0.3253412689","0.1768594062","0.3114764975","0.1627286519","","","","","","","76","L","3","","","69","main_expt"
"362","","bandit","148","554296","0.0-109.0-0.0","28777482","wem/bandit_either","A3FR7HHX2IS2FG","either","4","","","","","","","1","0","0","0.3280915152","","0.8","0.6","0.2","0.4","","","","","0.3280915152","0.1906145184","0.3056328376","0.1301009224","","","","","","","72","H","0","img/none_selected.jpg","","70","main_expt"
"539","","bandit","149","556351","0.0-110.0-0.0","28777482","wem/bandit_either","A3FR7HHX2IS2FG","either","4","","","","","","","1","0","0","0.3772643828","","0.8","0.6","0.2","0.4","","","","","0.3772643828","0.1451664327","0.3445325487","0.1356707761","","","","","","","72","H","0","img/none_selected.jpg","","71","main_expt"
"499","","bandit","150","558366","0.0-111.0-0.0","28777482","wem/bandit_either","A3FR7HHX2IS2FG","either","4","","","","","","","1","0","0","0.4074174212","","0.8","0.6","0.2","0.4","","","","","0.4074174212","0.1091447996","0.364612409","0.1045412551","","","","","","","72","H","0","img/none_selected.jpg","","72","main_expt"
"400","","bandit","151","560281","0.0-112.0-0.0","28777482","wem/bandit_either","A3FR7HHX2IS2FG","either","4","","","","","","","1","0","0","0.3736299767","","0.8","0.6","0.2","0.4","","","","","0.3736299767","0.1248737042","0.4454774056","0.0867882282","","","","","","","72","H","0","img/none_selected.jpg","","73","main_expt"
"469","","bandit","152","562263","0.0-113.0-0.0","28777482","wem/bandit_either","A3FR7HHX2IS2FG","either","4","","","","","","","1","0","0","0.383211712","","0.8","0.6","0.2","0.4","","","","","0.383211712","0.1073746888","0.4492830973","0.1018359722","","","","","","","72","H","0","img/none_selected.jpg","","74","main_expt"
"505","","bandit","153","564280","0.0-114.0-0.0","28777482","wem/bandit_either","A3FR7HHX2IS2FG","either","4","","","","","","","0","0","1","","0.3681962321","0.8","0.6","0.2","0.4","0.3681962321","0.1051395745","0.449321966","0.09443707336","","","","","","","","","","","72","H","0","img/none_selected.jpg","","75","main_expt"
"108","","bandit","154","565906","0.0-115.0-0.0","28777482","wem/bandit_either","A3FR7HHX2IS2FG","either","4","","","","","","","0","0","1","","0.09171451076","0.8","0.6","0.2","0.4","0.3574328021","0.09171451076","0.4299726132","0.08768691443","","","","","","","","","","","74","J","1","","","76","main_expt"
"444","","bandit","155","567866","0.0-116.0-0.0","28777482","wem/bandit_either","A3FR7HHX2IS2FG","either","4","","","","","","","0","0","1","","0.4349340462","0.8","0.6","0.2","0.4","0.4041720962","0.1256070833","0.4349340462","0.07744448812","","","","","","","","","","","75","K","2","","","77","main_expt"
"103","","bandit","156","569481","0.0-117.0-0.0","28777482","wem/bandit_either","A3FR7HHX2IS2FG","either","4","","","","","","","0","0","1","0.4000946746","","0.8","0.6","0.2","0.4","","","","","0.4000946746","0.1398604905","0.4112950215","0.05712631425","","","","","","","72","H","0","img/none_selected.jpg","","78","main_expt"
"169","","bandit","157","571167","0.0-118.0-0.0","28777482","wem/bandit_either","A3FR7HHX2IS2FG","either","4","","","","","","","0","0","1","","0.425248604","0.8","0.6","0.2","0.4","0.425248604","0.1303191282","0.4123046053","0.03981704588","","","","","","","","","","","72","H","0","img/none_selected.jpg","","79","main_expt"
"334","","bandit","158","573016","0.0-119.0-0.0","28777482","wem/bandit_either","A3FR7HHX2IS2FG","either","4","","","","","","","0","0","1","0.4263383456","","0.8","0.6","0.2","0.4","","","","","0.4263383456","0.1491340647","0.4345430878","0.02961196177","","","","","","","72","H","0","img/none_selected.jpg","","80","main_expt"
"202","","bandit","159","574732","0.0-120.0-0.0","28777482","wem/bandit_either","A3FR7HHX2IS2FG","either","4","","","","","","","0","1","0","","0.4377411966","0.8","0.6","0.2","0.4","0.4377411966","0.1484119081","0.4255274095","0.0408206899","","","","","","","","","","","72","H","0","img/none_selected.jpg","","81","main_expt"
"133","","bandit","160","576385","0.0-121.0-0.0","28777482","wem/bandit_either","A3FR7HHX2IS2FG","either","4","","","","","","","0","0","1","0.135460029","","0.8","0.6","0.2","0.4","","","","","0.4263216968","0.135460029","0.4266934287","0.03491361241","","","","","","","74","J","1","","","82","main_expt"
"39","","bandit","161","577941","0.0-122.0-0.0","28777482","wem/bandit_either","A3FR7HHX2IS2FG","either","4","","","","","","","0","0","1","","0.4321646522","0.8","0.6","0.2","0.4","0.4536492548","0.09497461961","0.4321646522","0.01881925386","","","","","","","","","","","75","K","2","","","83","main_expt"
"585","","bandit","162","580040","0.0-123.0-0.0","28777482","wem/bandit_either","A3FR7HHX2IS2FG","either","4","","","","","","","0","0","1","","0.03441768066","0.8","0.6","0.2","0.4","0.4344769981","0.0956585677","0.43129245","0.03441768066","","","","","","","","","","","76","L","3","","","84","main_expt"
"113","","bandit","163","581668","0.0-124.0-0.0","28777482","wem/bandit_either","A3FR7HHX2IS2FG","either","4","","","","","","","1","0","0","0.4167097255","","0.8","0.6","0.2","0.4","","","","","0.4167097255","0.08427930603","0.4307495417","0.04015732792","","","","","","","72","H","0","img/none_selected.jpg","","85","main_expt"
"269","","bandit","164","583454","0.0-125.0-0.0","28777482","wem/bandit_either","A3FR7HHX2IS2FG","either","4","","","","","","","1","0","0","0.4215971904","","0.8","0.6","0.2","0.4","","","","","0.4215971904","0.09540141202","0.4327415212","0.0462821445","","","","","","","72","H","0","img/none_selected.jpg","","86","main_expt"
"195","","bandit","165","585163","0.0-126.0-0.0","28777482","wem/bandit_either","A3FR7HHX2IS2FG","either","4","","","","","","","0","0","1","0.3962725568","","0.8","0.6","0.2","0.4","","","","","0.3962725568","0.06504543429","0.4507305815","0.07236867375","","","","","","","72","H","0","img/none_selected.jpg","","87","main_expt"
"291","","bandit","166","586967","0.0-127.0-0.0","28777482","wem/bandit_either","A3FR7HHX2IS2FG","either","4","","","","","","","0","0","1","0.05894337134","","0.8","0.6","0.2","0.4","","","","","0.4038430626","0.05894337134","0.4571393315","0.1132918069","","","","","","","74","J","1","","","88","main_expt"
"92","","bandit","167","588575","0.0-128.0-0.0","28777482","wem/bandit_either","A3FR7HHX2IS2FG","either","4","","","","","","","0","1","0","","0.4639779763","0.8","0.6","0.2","0.4","0.4247877058","0.06803635399","0.4639779763","0.1466354559","","","","","","","","","","","75","K","2","","","89","main_expt"
"685","","bandit","168","590773","0.0-129.0-0.0","28777482","wem/bandit_either","A3FR7HHX2IS2FG","either","4","","","","","","","0","0","1","","0.1746819083","0.8","0.6","0.2","0.4","0.4196700557","0.09657856289","0.4620017245","0.1746819083","","","","","","","","","","","76","L","3","","","90","main_expt"
"194","","bandit","169","592483","0.0-130.0-0.0","28777482","wem/bandit_either","A3FR7HHX2IS2FG","either","4","","","","","","","1","0","0","0.401758082","","0.8","0.6","0.2","0.4","","","","","0.401758082","0.08522031428","0.4492963398","0.1864657318","","","","","","","72","H","0","img/none_selected.jpg","","91","main_expt"
"578","","bandit","170","594594","0.0-131.0-0.0","28777482","wem/bandit_either","A3FR7HHX2IS2FG","either","4","","","","","","","0","0","1","0.3422099147","","0.8","0.6","0.2","0.4","","","","","0.3422099147","0.07078380504","0.462009279","0.2124622091","","","","","","","72","H","0","img/none_selected.jpg","","92","main_expt"
"83","","bandit","171","596191","0.0-132.0-0.0","28777482","wem/bandit_either","A3FR7HHX2IS2FG","either","4","","","","","","","0","0","1","","0.0564278809","0.8","0.6","0.2","0.4","0.3279059742","0.0564278809","0.4363090379","0.245786276","","","","","","","","","","","74","J","1","","","93","main_expt"
"240","","bandit","172","597944","0.0-133.0-0.0","28777482","wem/bandit_either","A3FR7HHX2IS2FG","either","4","","","","","","","1","0","0","0.3155724737","","0.8","0.6","0.2","0.4","","","","","0.3155724737","0.06067733924","0.4457519602","0.2316759231","","","","","","","72","H","0","img/none_selected.jpg","","94","main_expt"
"546","","bandit","173","600009","0.0-134.0-0.0","28777482","wem/bandit_either","A3FR7HHX2IS2FG","either","4","","","","","","","0","0","1","0.3519625041","","0.8","0.6","0.2","0.4","","","","","0.3519625041","0.08632751489","0.4231248902","0.2231756969","","","","","","","72","H","0","img/none_selected.jpg","","95","main_expt"
"508","","bandit","174","602031","0.0-135.0-0.0","28777482","wem/bandit_either","A3FR7HHX2IS2FG","either","4","","","","","","","0","0","1","0.3661455107","","0.8","0.6","0.2","0.4","","","","","0.3661455107","0.08481729553","0.4210676831","0.1957128212","","","","","","","72","H","0","img/none_selected.jpg","","96","main_expt"
"26124","","bandit","175","629675","0.0-136.0-0.0","28777482","wem/bandit_either","A3FR7HHX2IS2FG","either","4","","","","","","","0","0","1","0.3558031673","","0.8","0.6","0.2","0.4","","","","","0.3558031673","0.08386440452","0.4022895305","0.1638116915","","","","","","","72","H","0","img/none_selected.jpg","","97","main_expt"
"560","","bandit","176","631748","0.0-137.0-0.0","28777482","wem/bandit_either","A3FR7HHX2IS2FG","either","4","","","","","","","0","0","1","0.0940701929","","0.8","0.6","0.2","0.4","","","","","0.3558230887","0.0940701929","0.4187351015","0.1405816365","","","","","","","74","J","1","","","98","main_expt"
"314","","bandit","177","633582","0.0-138.0-0.0","28777482","wem/bandit_either","A3FR7HHX2IS2FG","either","4","","","","","","","0","1","0","","0.1435678602","0.8","0.6","0.2","0.4","0.3064708089","0.1285058524","0.3981340028","0.1435678602","","","","","","","","","","","76","L","3","","","99","main_expt"
"14637","","bandit","178","649741","0.0-139.0-0.0","28777482","wem/bandit_either","A3FR7HHX2IS2FG","either","4","","","","","","","0","0","1","0.065882019","","0.8","0.6","0.2","0.4","","","","","0.352498313","0.065882019","0.3520446815","0.1478754355","","","","","","","74","J","1","","","100","main_expt"
"817","","bandit","179","652087","0.0-140.0-0.0","28777482","wem/bandit_either","A3FR7HHX2IS2FG","either","4","","","","","","","1","0","0","0.3511810171","","0.8","0.6","0.2","0.4","","","","","0.3511810171","0.05692140794","0.3715523215","0.1532559328","","","","","","","72","H","0","img/none_selected.jpg","","101","main_expt"
"192","","bandit","180","653801","0.0-141.0-0.0","28777482","wem/bandit_either","A3FR7HHX2IS2FG","either","4","","","","","","","0","0","1","0.3246867477","","0.8","0.6","0.2","0.4","","","","","0.3246867477","0.04322280369","0.3966955113","0.15857411","","","","","","","72","H","0","img/none_selected.jpg","","102","main_expt"
"401","","bandit","181","655727","0.0-142.0-0.0","28777482","wem/bandit_either","A3FR7HHX2IS2FG","either","4","","","","","","","0","0","1","0.2827689756","","0.8","0.6","0.2","0.4","","","","","0.2827689756","0.05121437093","0.3865714765","0.1552377357","","","","","","","72","H","0","img/none_selected.jpg","","103","main_expt"
"280","","bandit","182","657525","0.0-143.0-0.0","28777482","wem/bandit_either","A3FR7HHX2IS2FG","either","4","","","","","","","0","1","0","","0.06548077564","0.8","0.6","0.2","0.4","0.3307995119","0.06548077564","0.3440646931","0.1584193753","","","","","","","","","","","74","J","1","","","104","main_expt"
"326","","bandit","183","659388","0.0-144.0-0.0","28777482","wem/bandit_either","A3FR7HHX2IS2FG","either","4","","","","","","","0","0","1","","0.330981063","0.8","0.6","0.2","0.4","0.3078297571","0.07577357845","0.330981063","0.192058402","","","","","","","","","","","75","K","2","","","105","main_expt"
"418","","bandit","184","661335","0.0-145.0-0.0","28777482","wem/bandit_either","A3FR7HHX2IS2FG","either","4","","","","","","","0","0","1","0.1562344916","","0.8","0.6","0.2","0.4","","","","","0.3202685942","0.09041352565","0.3317280627","0.1562344916","","","","","","","76","L","3","","","106","main_expt"
"77","","bandit","185","662925","0.0-146.0-0.0","28777482","wem/bandit_either","A3FR7HHX2IS2FG","either","4","","","","","","","0","1","0","","0.2760665195","0.8","0.6","0.2","0.4","0.3163418234","0.1184921167","0.2760665195","0.1493116313","","","","","","","","","","","75","K","2","","","107","main_expt"
"221","","bandit","186","664665","0.0-147.0-0.0","28777482","wem/bandit_either","A3FR7HHX2IS2FG","either","4","","","","","","","0","0","1","","0.1057615429","0.8","0.6","0.2","0.4","0.3425943818","0.1057615429","0.2826301941","0.1357435498","","","","","","","","","","","74","J","1","","","108","main_expt"
"267","","bandit","187","666450","0.0-148.0-0.0","28777482","wem/bandit_either","A3FR7HHX2IS2FG","either","4","","","","","","","1","0","0","0.2852030557","","0.8","0.6","0.2","0.4","","","","","0.2852030557","0.1464484126","0.318117281","0.1164074326","","","","","","","72","H","0","img/none_selected.jpg","","109","main_expt"
"1037","","bandit","188","669005","0.0-149.0-0.0","28777482","wem/bandit_either","A3FR7HHX2IS2FG","either","4","","","","","","","0","0","1","0.3392406975","","0.8","0.6","0.2","0.4","","","","","0.3392406975","0.1641354829","0.3358587519","0.1444451916","","","","","","","72","H","0","img/none_selected.jpg","","110","main_expt"
"528","","bandit","189","671066","0.0-150.0-0.0","28777482","wem/bandit_either","A3FR7HHX2IS2FG","either","4","","","","","","","0","0","1","0.3023411017","","0.8","0.6","0.2","0.4","","","","","0.3023411017","0.1386891192","0.3031660534","0.09905323685","","","","","","","72","H","0","img/none_selected.jpg","","111","main_expt"
"425","","bandit","190","673005","0.0-151.0-0.0","28777482","wem/bandit_either","A3FR7HHX2IS2FG","either","4","","","","","","","0","0","1","0.296849772","","0.8","0.6","0.2","0.4","","","","","0.296849772","0.1847512065","0.2773548355","0.09652445584","","","","","","","72","H","0","img/none_selected.jpg","","112","main_expt"
"404","","bandit","191","674921","0.0-152.0-0.0","28777482","wem/bandit_either","A3FR7HHX2IS2FG","either","4","","","","","","","0","0","1","0.1304555333","","0.8","0.6","0.2","0.4","","","","","0.2673419259","0.1304555333","0.2370758425","0.09961189632","","","","","","","74","J","1","","","113","main_expt"
"79","","bandit","192","676527","0.0-153.0-0.0","28777482","wem/bandit_either","A3FR7HHX2IS2FG","either","4","","","","","","","0","0","1","","0.1821928837","0.8","0.6","0.2","0.4","0.2670531803","0.1770102637","0.1821928837","0.1036139638","","","","","","","","","","","75","K","2","","","114","main_expt"
"647","","bandit","193","678699","0.0-154.0-0.0","28777482","wem/bandit_either","A3FR7HHX2IS2FG","either","4","","","","","","","0","0","1","0.2825009356","","0.8","0.6","0.2","0.4","","","","","0.2825009356","0.1564651975","0.1315453283","0.0968506792","","","","","","","72","H","0","img/none_selected.jpg","","115","main_expt"
"90","","bandit","194","680309","0.0-155.0-0.0","28777482","wem/bandit_either","A3FR7HHX2IS2FG","either","4","","","","","","","0","0","1","","0.08782875681","0.8","0.6","0.2","0.4","0.3237719372","0.1665702367","0.1102777544","0.08782875681","","","","","","","","","","","76","L","3","","","116","main_expt"
"384","","bandit","195","682242","0.0-156.0-0.0","28777482","wem/bandit_either","A3FR7HHX2IS2FG","either","4","","","","","","","1","0","0","0.3154846423","","0.8","0.6","0.2","0.4","","","","","0.3154846423","0.1530687496","0.1101610351","0.06031800864","","","","","","","72","H","0","img/none_selected.jpg","","117","main_expt"
"460","","bandit","196","684229","0.0-157.0-0.0","28777482","wem/bandit_either","A3FR7HHX2IS2FG","either","4","","","","","","","0","0","1","","0.05633053331","0.8","0.6","0.2","0.4","0.2584508078","0.1674206906","0.122460482","0.05633053331","","","","","","","","","","","76","L","3","","","118","main_expt"
"52","","bandit","197","685798","0.0-158.0-0.0","28777482","wem/bandit_either","A3FR7HHX2IS2FG","either","4","","","","","","","0","0","1","","0.1451868924","0.8","0.6","0.2","0.4","0.2141905193","0.1990215448","0.1451868924","0.07530514027","","","","","","","","","","","75","K","2","","","119","main_expt"
"310","","bandit","198","687636","0.0-159.0-0.0","28777482","wem/bandit_either","A3FR7HHX2IS2FG","either","4","","","","","","","0","0","1","0.2208640619","","0.8","0.6","0.2","0.4","","","","","0.2341954374","0.2208640619","0.09092593383","0.09639595661","","","","","","","74","J","1","","","120","main_expt"
"558","","bandit","199","689716","0.0-160.0-0.0","28777482","wem/bandit_either","A3FR7HHX2IS2FG","either","4","","","","","","","0","0","1","","0.1886372651","0.8","0.6","0.2","0.4","0.1886372651","0.2602917539","0.1080456108","0.1421799471","","","","","","","","","","","72","H","0","img/none_selected.jpg","","121","main_expt"
"539","","bandit","200","691778","0.0-161.0-0.0","28777482","wem/bandit_either","A3FR7HHX2IS2FG","either","4","","","","","","","0","0","1","0.1597592322","","0.8","0.6","0.2","0.4","","","","","0.1597592322","0.2512498235","0.1169053248","0.1624760489","","","","","","","72","H","0","img/none_selected.jpg","","122","main_expt"
"557","","bandit","201","693860","0.0-162.0-0.0","28777482","wem/bandit_either","A3FR7HHX2IS2FG","either","4","","","","","","","1","0","0","0.2266242761","","0.8","0.6","0.2","0.4","","","","","0.1895266442","0.2266242761","0.1571594809","0.1640214383","","","","","","","74","J","1","","","123","main_expt"
"1221","","bandit","202","696597","0.0-163.0-0.0","28777482","wem/bandit_either","A3FR7HHX2IS2FG","either","4","","","","","","","0","0","1","","0.2373824638","0.8","0.6","0.2","0.4","0.2042850732","0.2373824638","0.2231804049","0.2014340991","","","","","","","","","","","74","J","1","","","124","main_expt"
"1176","","bandit","203","699292","0.0-164.0-0.0","28777482","wem/bandit_either","A3FR7HHX2IS2FG","either","4","","","","","","","0","0","1","","0.2538727107","0.8","0.6","0.2","0.4","0.1812515389","0.2538727107","0.2232794356","0.2229229076","","","","","","","","","","","74","J","1","","","125","main_expt"
"587","","bandit","204","701408","0.0-165.0-0.0","28777482","wem/bandit_either","A3FR7HHX2IS2FG","either","4","","","","","","","0","0","1","","0.1694736183","0.8","0.6","0.2","0.4","0.1694736183","0.290219491","0.2316903634","0.2324712723","","","","","","","","","","","72","H","0","img/none_selected.jpg","","126","main_expt"
"456","","bandit","205","703398","0.0-166.0-0.0","28777482","wem/bandit_either","A3FR7HHX2IS2FG","either","4","","","","","","","0","0","1","0.2542505169","","0.8","0.6","0.2","0.4","","","","","0.1624528765","0.2542505169","0.2337524142","0.2628391623","","","","","","","74","J","1","","","127","main_expt"
"479","","bandit","206","705403","0.0-167.0-0.0","28777482","wem/bandit_either","A3FR7HHX2IS2FG","either","4","","","","","","","0","0","1","","0.2198210178","0.8","0.6","0.2","0.4","0.1632982916","0.2582316027","0.2198210178","0.2654356302","","","","","","","","","","","75","K","2","","","128","main_expt"
"482","","bandit","207","707408","0.0-168.0-0.0","28777482","wem/bandit_either","A3FR7HHX2IS2FG","either","4","","","","","","","0","0","1","0.2264598068","","0.8","0.6","0.2","0.4","","","","","0.2264598068","0.3267566011","0.2280168395","0.2070569149","","","","","","","72","H","0","img/none_selected.jpg","","129","main_expt"
"630","","bandit","208","709570","0.0-169.0-0.0","28777482","wem/bandit_either","A3FR7HHX2IS2FG","either","4","","","","","","","1","0","0","0.3323271388","","0.8","0.6","0.2","0.4","","","","","0.202760285","0.3323271388","0.243895296","0.2579182239","","","","","","","74","J","1","","","130","main_expt"
"576","","bandit","209","711672","0.0-170.0-0.0","28777482","wem/bandit_either","A3FR7HHX2IS2FG","either","4","","","","","","","0","1","0","","0.2666668646","0.8","0.6","0.2","0.4","0.1585094705","0.2666668646","0.2164454501","0.2329110821","","","","","","","","","","","74","J","1","","","131","main_expt"
"345","","bandit","210","713535","0.0-171.0-0.0","28777482","wem/bandit_either","A3FR7HHX2IS2FG","either","4","","","","","","","0","0","1","","0.1304261544","0.8","0.6","0.2","0.4","0.1304261544","0.2359119393","0.200468731","0.2400232435","","","","","","","","","","","72","H","0","img/none_selected.jpg","","132","main_expt"
"324","","bandit","211","715386","0.0-172.0-0.0","28777482","wem/bandit_either","A3FR7HHX2IS2FG","either","4","","","","","","","0","0","1","0.2084798617","","0.8","0.6","0.2","0.4","","","","","0.09339990826","0.2540740643","0.2038597077","0.2084798617","","","","","","","76","L","3","","","133","main_expt"
"25","","bandit","212","716944","0.0-173.0-0.0","28777482","wem/bandit_either","A3FR7HHX2IS2FG","either","4","","","","","","","0","0","1","","0.2263269307","0.8","0.6","0.2","0.4","0.08524612959","0.2414927735","0.2263269307","0.2034544","","","","","","","","","","","75","K","2","","","134","main_expt"
"410","","bandit","213","718886","0.0-174.0-0.0","28777482","wem/bandit_either","A3FR7HHX2IS2FG","either","4","","","","","","","1","0","0","0.2632369982","","0.8","0.6","0.2","0.4","","","","","0.0622033461","0.2632369982","0.2686469146","0.2088958693","","","","","","","74","J","1","","","135","main_expt"
"488","","bandit","214","720898","0.0-175.0-0.0","28777482","wem/bandit_either","A3FR7HHX2IS2FG","either","4","","","","","","","0","0","1","0.05632890875","","0.8","0.6","0.2","0.4","","","","","0.05632890875","0.3032623762","0.3170393738","0.2573758916","","","","","","","72","H","0","img/none_selected.jpg","","136","main_expt"
"511","","bandit","215","722938","0.0-176.0-0.0","28777482","wem/bandit_either","A3FR7HHX2IS2FG","either","4","","","","","","","1","0","0","0.2984046037","","0.8","0.6","0.2","0.4","","","","","0.06052980877","0.2984046037","0.338962466","0.2467438462","","","","","","","74","J","1","","","137","main_expt"
"587","","bandit","216","725055","0.0-177.0-0.0","28777482","wem/bandit_either","A3FR7HHX2IS2FG","either","4","","","","","","","0","0","1","","0.3110629865","0.8","0.6","0.2","0.4","0.1038497792","0.3110629865","0.3586643031","0.2221944767","","","","","","","","","","","74","J","1","","","138","main_expt"
"457","","bandit","217","727026","0.0-178.0-0.0","28777482","wem/bandit_either","A3FR7HHX2IS2FG","either","4","","","","","","","0","0","1","0.08561062373","","0.8","0.6","0.2","0.4","","","","","0.08561062373","0.3048373826","0.3430902759","0.2750517365","","","","","","","72","H","0","img/none_selected.jpg","","139","main_expt"
"448","","bandit","218","728991","0.0-179.0-0.0","28777482","wem/bandit_either","A3FR7HHX2IS2FG","either","4","","","","","","","0","0","1","0.3163642845","","0.8","0.6","0.2","0.4","","","","","0.08025295029","0.3163642845","0.3777112835","0.277474309","","","","","","","74","J","1","","","140","main_expt"
"176","","bandit","219","730685","0.0-180.0-0.0","28777482","wem/bandit_either","A3FR7HHX2IS2FG","either","4","","","","","","","0","0","1","","0.4276051364","0.8","0.6","0.2","0.4","0.09309891757","0.2213861514","0.4276051364","0.2932007391","","","","","","","","","","","75","K","2","","","141","main_expt"
"228","","bandit","220","732432","0.0-181.0-0.0","28777482","wem/bandit_either","A3FR7HHX2IS2FG","either","4","","","","","","","0","1","0","","0.3001807938","0.8","0.6","0.2","0.4","0.1107976638","0.2492613222","0.4312347149","0.3001807938","","","","","","","","","","","76","L","3","","","142","main_expt"
"194","","bandit","221","734141","0.0-182.0-0.0","28777482","wem/bandit_either","A3FR7HHX2IS2FG","either","4","","","","","","","0","0","1","0.09575525052","","0.8","0.6","0.2","0.4","","","","","0.09575525052","0.2645663874","0.386657586","0.3640878437","","","","","","","72","H","0","img/none_selected.jpg","","143","main_expt"
"368","","bandit","222","736028","0.0-183.0-0.0","28777482","wem/bandit_either","A3FR7HHX2IS2FG","either","4","","","","","","","0","1","0","","0.2928215939","0.8","0.6","0.2","0.4","0.07222794989","0.2928215939","0.3409851627","0.2706796495","","","","","","","","","","","74","J","1","","","144","main_expt"
"509","","bandit","223","738066","0.0-184.0-0.0","28777482","wem/bandit_either","A3FR7HHX2IS2FG","either","4","","","","","","","0","0","1","","0.3538709708","0.8","0.6","0.2","0.4","0.03203798906","0.3178979655","0.3538709708","0.2359726437","","","","","","","","","","","75","K","2","","","145","main_expt"
"579","","bandit","224","740168","0.0-185.0-0.0","28777482","wem/bandit_either","A3FR7HHX2IS2FG","either","4","","","","","","","0","0","1","","0.03073079809","0.8","0.6","0.2","0.4","0.03073079809","0.2850957273","0.2745956728","0.2200332621","","","","","","","","","","","72","H","0","img/none_selected.jpg","","146","main_expt"
"376","","bandit","225","742067","0.0-186.0-0.0","28777482","wem/bandit_either","A3FR7HHX2IS2FG","either","4","","","","","","","0","0","1","","0.1957794229","0.8","0.6","0.2","0.4","0.05105424151","0.2483519338","0.2375793476","0.1957794229","","","","","","","","","","","76","L","3","","","147","main_expt"
"315","","bandit","226","743911","0.0-187.0-0.0","28777482","wem/bandit_either","A3FR7HHX2IS2FG","either","4","","","","","","","0","0","1","0.2954602587","","0.8","0.6","0.2","0.4","","","","","0.04045355104","0.2309770791","0.2954602587","0.1790722045","","","","","","","75","K","2","","","148","main_expt"
"396","","bandit","227","745833","0.0-188.0-0.0","28777482","wem/bandit_either","A3FR7HHX2IS2FG","either","4","","","","","","","0","0","1","","0.1759049641","0.8","0.6","0.2","0.4","0.06416506337","0.1759049641","0.3435099865","0.2189150546","","","","","","","","","","","74","J","1","","","149","main_expt"
"391","","bandit","228","747744","0.0-189.0-0.0","28777482","wem/bandit_either","A3FR7HHX2IS2FG","either","4","","","","","","","0","0","1","0.07819388902","","0.8","0.6","0.2","0.4","","","","","0.07819388902","0.1910702346","0.268900415","0.2119229637","","","","","","","72","H","0","img/none_selected.jpg","","150","main_expt"
"442","","bandit","229","749704","0.0-190.0-0.0","28777482","wem/bandit_either","A3FR7HHX2IS2FG","either","4","","","","","","","0","0","1","0.1186979887","","0.8","0.6","0.2","0.4","","","","","0.1186979887","0.1799178466","0.2326488896","0.2472398003","","","","","","","72","H","0","img/none_selected.jpg","","151","main_expt"
"338","","bandit","230","751580","0.0-191.0-0.0","28777482","wem/bandit_either","A3FR7HHX2IS2FG","either","4","","","","","","","1","0","0","0.1826140084","","0.8","0.6","0.2","0.4","","","","","0.1084773402","0.1826140084","0.2768057641","0.2148428051","","","","","","","74","J","1","","","152","main_expt"
"576","","bandit","231","753680","0.0-192.0-0.0","28777482","wem/bandit_either","A3FR7HHX2IS2FG","either","4","","","","","","","0","0","1","","0.147924298","0.8","0.6","0.2","0.4","0.1314289417","0.147924298","0.2997660112","0.1598057249","","","","","","","","","","","74","J","1","","","153","main_expt"
"395","","bandit","232","755595","0.0-193.0-0.0","28777482","wem/bandit_either","A3FR7HHX2IS2FG","either","4","","","","","","","0","0","1","","0.1354051011","0.8","0.6","0.2","0.4","0.1354051011","0.1388357139","0.3196464983","0.1489099923","","","","","","","","","","","72","H","0","img/none_selected.jpg","","154","main_expt"
"823","","bandit","233","757943","0.0-194.0-0.0","28777482","wem/bandit_either","A3FR7HHX2IS2FG","either","4","","","","","","","0","0","1","0.1085215933","","0.8","0.6","0.2","0.4","","","","","0.1085215933","0.1658398244","0.3141654429","0.1502541116","","","","","","","72","H","0","img/none_selected.jpg","","155","main_expt"
"1325","","bandit","234","760783","0.0-195.0-0.0","28777482","wem/bandit_either","A3FR7HHX2IS2FG","either","4","","","","","","","0","0","1","0.1383379057","","0.8","0.6","0.2","0.4","","","","","0.1383379057","0.1104921729","0.2667217688","0.1605084188","","","","","","","72","H","0","img/none_selected.jpg","","156","main_expt"
"5545","","bandit","235","767851","0.0-196.0-0.0","28777482","wem/bandit_either","A3FR7HHX2IS2FG","either","4","","","","","","","0","0","1","0.1428990181","","0.8","0.6","0.2","0.4","","","","","0.1428990181","0.09530810267","0.2867075714","0.1684101418","","","","","","","72","H","0","img/none_selected.jpg","","157","main_expt"
"324","","bandit","236","769693","0.0-197.0-0.0","28777482","wem/bandit_either","A3FR7HHX2IS2FG","either","4","","","","","","","0","0","1","","0.1211627972","0.8","0.6","0.2","0.4","0.07455979893","0.1211627972","0.2788639118","0.1807688322","","","","","","","","","","","74","J","1","","","158","main_expt"
"343","","bandit","237","771556","0.0-198.0-0.0","28777482","wem/bandit_either","A3FR7HHX2IS2FG","either","4","","","","","","","0","1","0","","0.3020710819","0.8","0.6","0.2","0.4","0.1009372764","0.1012897464","0.3020710819","0.1516426412","","","","","","","","","","","75","K","2","","","159","main_expt"
"302","","bandit","238","773381","0.0-199.0-0.0","28777482","wem/bandit_either","A3FR7HHX2IS2FG","either","4","","","","","","","1","0","0","0.05118862797","","0.8","0.6","0.2","0.4","","","","","0.05118862797","0.1188035868","0.3404227007","0.1638698877","","","","","","","72","H","0","img/none_selected.jpg","","160","main_expt"
"379","","bandit","239","775278","0.0-200.0-0.0","28777482","wem/bandit_either","A3FR7HHX2IS2FG","either","4","","","","","","","0","0","1","","0.05265847637","0.8","0.6","0.2","0.4","0.05265847637","0.1606836622","0.2876249865","0.1645359983","","","","","","","","","","","72","H","0","img/none_selected.jpg","","161","main_expt"
"660","","bandit","240","777455","0.0-201.0-0.0","28777482","wem/bandit_either","A3FR7HHX2IS2FG","either","4","","","","","","","0","0","1","","0.2509918509","0.8","0.6","0.2","0.4","0.07938684611","0.1859884171","0.2401308511","0.2509918509","","","","","","","","","","","76","L","3","","","162","main_expt"
"235","","bandit","241","779212","0.0-202.0-0.0","28777482","wem/bandit_either","A3FR7HHX2IS2FG","either","4","","","","","","","1","0","0","0.0970900163","","0.8","0.6","0.2","0.4","","","","","0.0970900163","0.2528258464","0.2486605046","0.1883685458","","","","","","","72","H","0","img/none_selected.jpg","","163","main_expt"
"291","","bandit","242","781019","0.0-203.0-0.0","28777482","wem/bandit_either","A3FR7HHX2IS2FG","either","4","","","","","","","0","0","1","","0.22675384","0.8","0.6","0.2","0.4","0.07401968201","0.2515292425","0.22675384","0.2179532334","","","","","","","","","","","75","K","2","","","164","main_expt"
"174","","bandit","243","782718","0.0-204.0-0.0","28777482","wem/bandit_either","A3FR7HHX2IS2FG","either","4","","","","","","","0","0","1","0.06633104104","","0.8","0.6","0.2","0.4","","","","","0.06633104104","0.2068970429","0.2841151948","0.2143704678","","","","","","","72","H","0","img/none_selected.jpg","","165","main_expt"
"426","","bandit","244","784675","0.0-205.0-0.0","28777482","wem/bandit_either","A3FR7HHX2IS2FG","either","4","","","","","","","0","0","1","0.1413778631","","0.8","0.6","0.2","0.4","","","","","0.05309652092","0.1413778631","0.2842980464","0.2175899085","","","","","","","74","J","1","","","166","main_expt"
"486","","bandit","245","786678","0.0-206.0-0.0","28777482","wem/bandit_either","A3FR7HHX2IS2FG","either","4","","","","","","","0","0","1","0.07357446968","","0.8","0.6","0.2","0.4","","","","","0.07357446968","0.1999497975","0.3007590714","0.2137120923","","","","","","","72","H","0","img/none_selected.jpg","","167","main_expt"
"468","","bandit","246","788662","0.0-207.0-0.0","28777482","wem/bandit_either","A3FR7HHX2IS2FG","either","4","","","","","","","0","0","1","0.1054325378","","0.8","0.6","0.2","0.4","","","","","0.1054325378","0.1696145944","0.2884936601","0.2331560811","","","","","","","72","H","0","img/none_selected.jpg","","168","main_expt"
"515","","bandit","247","790694","0.0-208.0-0.0","28777482","wem/bandit_either","A3FR7HHX2IS2FG","either","4","","","","","","","0","0","1","0.08536867429","","0.8","0.6","0.2","0.4","","","","","0.08536867429","0.1338518967","0.2803439438","0.2367963754","","","","","","","72","H","0","img/none_selected.jpg","","169","main_expt"
"430","","bandit","248","792643","0.0-209.0-0.0","28777482","wem/bandit_either","A3FR7HHX2IS2FG","either","4","","","","","","","0","0","1","0.1083432756","","0.8","0.6","0.2","0.4","","","","","0.1083432756","0.1307598277","0.3010437192","0.2378050175","","","","","","","72","H","0","img/none_selected.jpg","","170","main_expt"
"560","","bandit","249","794723","0.0-210.0-0.0","28777482","wem/bandit_either","A3FR7HHX2IS2FG","either","4","","","","","","","0","0","1","0.09185370626","","0.8","0.6","0.2","0.4","","","","","0.09185370626","0.1200375331","0.3243802095","0.2253696972","","","","","","","72","H","0","img/none_selected.jpg","","171","main_expt"
"224","","bandit","250","796466","0.0-211.0-0.0","28777482","wem/bandit_either","A3FR7HHX2IS2FG","either","4","","","","","","","0","0","1","0.07514546963","","0.8","0.6","0.2","0.4","","","","","0.09458096772","0.07514546963","0.3140094691","0.2903394368","","","","","","","74","J","1","","","172","main_expt"
"151","","bandit","251","798133","0.0-212.0-0.0","28777482","wem/bandit_either","A3FR7HHX2IS2FG","either","4","","","","","","","0","0","1","","0.2433770114","0.8","0.6","0.2","0.4","0.1016296913","0.07704486673","0.2433770114","0.2384828248","","","","","","","","","","","75","K","2","","","173","main_expt"
"22","","bandit","252","799680","0.0-213.0-0.0","28777482","wem/bandit_either","A3FR7HHX2IS2FG","either","4","","","","","","","0","1","0","","0.2823111034","0.8","0.6","0.2","0.4","0.117107939","0.04061738922","0.2080779891","0.2823111034","","","","","","","","","","","76","L","3","","","174","main_expt"
"331","","bandit","253","801530","0.0-214.0-0.0","28777482","wem/bandit_either","A3FR7HHX2IS2FG","either","4","","","","","","","0","0","1","0.1254773658","","0.8","0.6","0.2","0.4","","","","","0.1254773658","0.02968316822","0.2211365803","0.292147578","","","","","","","72","H","0","img/none_selected.jpg","","175","main_expt"
"254","","bandit","254","803304","0.0-215.0-0.0","28777482","wem/bandit_either","A3FR7HHX2IS2FG","either","4","","","","","","","0","0","1","","0.231280906","0.8","0.6","0.2","0.4","0.1518856622","0.04419366322","0.231280906","0.2928295457","","","","","","","","","","","75","K","2","","","176","main_expt"
"589","","bandit","255","805410","0.0-216.0-0.0","28777482","wem/bandit_either","A3FR7HHX2IS2FG","either","4","","","","","","","0","0","1","0.1502483312","","0.8","0.6","0.2","0.4","","","","","0.1502483312","0.04140429262","0.1689881391","0.297241693","","","","","","","72","H","0","img/none_selected.jpg","","177","main_expt"
"127","","bandit","256","807057","0.0-217.0-0.0","28777482","wem/bandit_either","A3FR7HHX2IS2FG","either","4","","","","","","","0","0","1","","0.06103489621","0.8","0.6","0.2","0.4","0.2073149786","0.06103489621","0.1699404395","0.276241128","","","","","","","","","","","74","J","1","","","178","main_expt"
"889","","bandit","257","809462","0.0-218.0-0.0","28777482","wem/bandit_either","A3FR7HHX2IS2FG","either","4","","","","","","","0","0","1","","0.1928578162","0.8","0.6","0.2","0.4","0.1928578162","0.053608248","0.1571972967","0.2405339857","","","","","","","","","","","72","H","0","img/none_selected.jpg","","179","main_expt"
"482","","bandit","258","811463","0.0-219.0-0.0","28777482","wem/bandit_either","A3FR7HHX2IS2FG","either","4","","","","","","","0","0","1","0.1412953234","","0.8","0.6","0.2","0.4","","","","","0.1412953234","0.06289379635","0.1567782565","0.233428307","","","","","","","72","H","0","img/none_selected.jpg","","180","main_expt"
"449","","bandit","259","813437","0.0-220.0-0.0","28777482","wem/bandit_either","A3FR7HHX2IS2FG","either","4","","","","","","","0","0","1","","0.1492691696","0.8","0.6","0.2","0.4","0.1258774719","0.07748386732","0.1492691696","0.1459310114","","","","","","","","","","","75","K","2","","","181","main_expt"
"475","","bandit","260","815435","0.0-221.0-0.0","28777482","wem/bandit_either","A3FR7HHX2IS2FG","either","4","","","","","","","0","0","1","0.1796360657","","0.8","0.6","0.2","0.4","","","","","0.1121960069","0.096714051","0.1609613705","0.1796360657","","","","","","","76","L","3","","","182","main_expt"
"264","","bandit","261","817216","0.0-222.0-0.0","28777482","wem/bandit_either","A3FR7HHX2IS2FG","either","4","","","","","","","0","0","1","0.05351369794","","0.8","0.6","0.2","0.4","","","","","0.08335286121","0.05351369794","0.1982891881","0.1907874973","","","","","","","74","J","1","","","183","main_expt"
"411","","bandit","262","819146","0.0-223.0-0.0","28777482","wem/bandit_either","A3FR7HHX2IS2FG","either","4","","","","","","","0","0","1","0.1085923678","","0.8","0.6","0.2","0.4","","","","","0.1085923678","0.08854511538","0.1703318442","0.1451627339","","","","","","","72","H","0","img/none_selected.jpg","","184","main_expt"
"438","","bandit","263","821106","0.0-224.0-0.0","28777482","wem/bandit_either","A3FR7HHX2IS2FG","either","4","","","","","","","0","0","1","0.1113654269","","0.8","0.6","0.2","0.4","","","","","0.1113654269","0.136385666","0.09566746086","0.1692531577","","","","","","","72","H","0","img/none_selected.jpg","","185","main_expt"
"282","","bandit","264","822910","0.0-225.0-0.0","28777482","wem/bandit_either","A3FR7HHX2IS2FG","either","4","","","","","","","0","0","1","","0.1848043888","0.8","0.6","0.2","0.4","0.1383531569","0.1848043888","0.1254261761","0.1885113298","","","","","","","","","","","74","J","1","","","186","main_expt"
"500","","bandit","265","824926","0.0-226.0-0.0","28777482","wem/bandit_either","A3FR7HHX2IS2FG","either","4","","","","","","","0","0","1","","0.1081798115","0.8","0.6","0.2","0.4","0.1739713275","0.1640989128","0.1081798115","0.2088125345","","","","","","","","","","","75","K","2","","","187","main_expt"
"160","","bandit","266","826607","0.0-227.0-0.0","28777482","wem/bandit_either","A3FR7HHX2IS2FG","either","4","","","","","","","0","0","1","","0.2228369986","0.8","0.6","0.2","0.4","0.1926366302","0.1301402021","0.08529062399","0.2228369986","","","","","","","","","","","76","L","3","","","188","main_expt"
"255","","bandit","267","828392","0.0-228.0-0.0","28777482","wem/bandit_either","A3FR7HHX2IS2FG","either","4","","","","","","","0","0","1","","0.2499935398","0.8","0.6","0.2","0.4","0.2499935398","0.1980942663","0.07250281893","0.2567428292","","","","","","","","","","","72","H","0","img/none_selected.jpg","","189","main_expt"
"693","","bandit","268","830620","0.0-229.0-0.0","28777482","wem/bandit_either","A3FR7HHX2IS2FG","either","4","","","","","","","0","0","1","","0.1842725295","0.8","0.6","0.2","0.4","0.2367317824","0.1842725295","0.07895395147","0.3177850294","","","","","","","","","","","74","J","1","","","190","main_expt"
"588","","bandit","269","832726","0.0-230.0-0.0","28777482","wem/bandit_either","A3FR7HHX2IS2FG","either","4","","","","","","","0","0","1","0.2515026666","","0.8","0.6","0.2","0.4","","","","","0.2515026666","0.2087081259","0.06204701637","0.2876912335","","","","","","","72","H","0","img/none_selected.jpg","","191","main_expt"
"112","","bandit","270","834356","0.0-231.0-0.0","28777482","wem/bandit_either","A3FR7HHX2IS2FG","either","4","","","","","","","0","0","1","0.064067899","","0.8","0.6","0.2","0.4","","","","","0.2451916405","0.1800110976","0.064067899","0.2383873749","","","","","","","75","K","2","","","192","main_expt"
"1110","","bandit","271","836984","0.0-232.0-0.0","28777482","wem/bandit_either","A3FR7HHX2IS2FG","either","4","","","","","","","0","0","1","","0.2353451433","0.8","0.6","0.2","0.4","0.2353451433","0.1519186298","0.1286650472","0.24690957","","","","","","","","","","","72","H","0","img/none_selected.jpg","","193","main_expt"
"634","","bandit","272","839139","0.0-233.0-0.0","28777482","wem/bandit_either","A3FR7HHX2IS2FG","either","4","","","","","","","0","0","1","0.307075739","","0.8","0.6","0.2","0.4","","","","","0.307075739","0.1431656489","0.1746490116","0.2728455101","","","","","","","72","H","0","img/none_selected.jpg","","194","main_expt"
"558","","bandit","273","841215","0.0-234.0-0.0","28777482","wem/bandit_either","A3FR7HHX2IS2FG","either","4","","","","","","","0","0","1","0.3011001907","","0.8","0.6","0.2","0.4","","","","","0.3011001907","0.1868251083","0.129035247","0.2421292151","","","","","","","72","H","0","img/none_selected.jpg","","195","main_expt"
"348","","bandit","274","843083","0.0-235.0-0.0","28777482","wem/bandit_either","A3FR7HHX2IS2FG","either","4","","","","","","","0","0","1","0.176624335","","0.8","0.6","0.2","0.4","","","","","0.2861216794","0.176624335","0.09052040682","0.2598052724","","","","","","","74","J","1","","","196","main_expt"
"495","","bandit","275","845096","0.0-236.0-0.0","28777482","wem/bandit_either","A3FR7HHX2IS2FG","either","4","","","","","","","0","0","1","0.2121549007","","0.8","0.6","0.2","0.4","","","","","0.2121549007","0.2383323772","0.08675464884","0.2540930088","","","","","","","72","H","0","img/none_selected.jpg","","197","main_expt"
"381","","bandit","276","846996","0.0-237.0-0.0","28777482","wem/bandit_either","A3FR7HHX2IS2FG","either","4","","","","","","","0","1","0","","0.260340052","0.8","0.6","0.2","0.4","0.260340052","0.260618614","0.09429549835","0.2460150375","","","","","","","","","","","72","H","0","img/none_selected.jpg","","198","main_expt"
"519","","bandit","277","849035","0.0-238.0-0.0","28777482","wem/bandit_either","A3FR7HHX2IS2FG","either","4","","","","","","","1","0","0","0.09303778716","","0.8","0.6","0.2","0.4","","","","","0.3009562829","0.2935067364","0.09303778716","0.2217343644","","","","","","","75","K","2","","","199","main_expt"
"1132","","bandit","278","851686","0.0-239.0-0.0","28777482","wem/bandit_either","A3FR7HHX2IS2FG","either","4","","","","","","","0","0","1","","0.07354084322","0.8","0.6","0.2","0.4","0.3430896668","0.362920627","0.07354084322","0.2830302048","","","","","","","","","","","75","K","2","","","200","main_expt"
"1143","","bandit","279","854348","0.0-240.0-0.0","28777482","wem/bandit_either","A3FR7HHX2IS2FG","either","4","","","","","","","0","0","1","","0.3119044903","0.8","0.6","0.2","0.4","0.2973668079","0.3119044903","0.08115367452","0.3175621279","","","","","","","","","","","74","J","1","","","201","main_expt"
"384","","bandit","280","856251","0.0-241.0-0.0","28777482","wem/bandit_either","A3FR7HHX2IS2FG","either","4","","","","","","","0","0","1","0.3219337599","","0.8","0.6","0.2","0.4","","","","","0.3219337599","0.3095695708","0.0774842685","0.3049471546","","","","","","","72","H","0","img/none_selected.jpg","","202","main_expt"
"1107","","bandit","281","858878","0.0-242.0-0.0","28777482","wem/bandit_either","A3FR7HHX2IS2FG","either","4","","","","","","","0","0","1","","0.3229991028","0.8","0.6","0.2","0.4","0.3229991028","0.3005459379","0.09704724367","0.2975042969","","","","","","","","","","","72","H","0","img/none_selected.jpg","","203","main_expt"
"888","","bandit","282","861285","0.0-243.0-0.0","28777482","wem/bandit_either","A3FR7HHX2IS2FG","either","4","","","","","","","0","0","1","","0.2268457719","0.8","0.6","0.2","0.4","0.3077995671","0.3116824409","0.1224111047","0.2268457719","","","","","","","","","","","76","L","3","","","204","main_expt"
"303","","bandit","283","863107","0.0-244.0-0.0","28777482","wem/bandit_either","A3FR7HHX2IS2FG","either","4","","","","","","","0","0","1","","0.1627664319","0.8","0.6","0.2","0.4","0.3070199156","0.3291635812","0.1627664319","0.2582085449","","","","","","","","","","","75","K","2","","","205","main_expt"
"292","","bandit","284","864930","0.0-245.0-0.0","28777482","wem/bandit_either","A3FR7HHX2IS2FG","either","4","","","","","","","0","0","1","0.4008790519","","0.8","0.6","0.2","0.4","","","","","0.3109683939","0.4008790519","0.1604236747","0.2841247045","","","","","","","74","J","1","","","206","main_expt"
"736","","bandit","285","867188","0.0-246.0-0.0","28777482","wem/bandit_either","A3FR7HHX2IS2FG","either","4","","","","","","","1","0","0","0.2845075958","","0.8","0.6","0.2","0.4","","","","","0.2845075958","0.4202180382","0.126388554","0.3333225396","","","","","","","72","H","0","img/none_selected.jpg","","207","main_expt"
"1606","","bandit","286","870315","0.0-247.0-0.0","28777482","wem/bandit_either","A3FR7HHX2IS2FG","either","4","","","","","","","0","0","1","0.2419557814","","0.8","0.6","0.2","0.4","","","","","0.2419557814","0.4168586074","0.1602309633","0.290219871","","","","","","","72","H","0","img/none_selected.jpg","","208","main_expt"
"581","","bandit","287","872418","0.0-248.0-0.0","28777482","wem/bandit_either","A3FR7HHX2IS2FG","either","4","","","","","","","1","0","0","0.3949328033","","0.8","0.6","0.2","0.4","","","","","0.2449545816","0.3949328033","0.2009997365","0.3426384504","","","","","","","74","J","1","","","209","main_expt"
"2193","","bandit","288","876132","0.0-249.0-0.0","28777482","wem/bandit_either","A3FR7HHX2IS2FG","either","4","","","","","","","0","0","1","0.2176860071","","0.8","0.6","0.2","0.4","","","","","0.2176860071","0.41782505","0.1997114924","0.2932754766","","","","","","","72","H","0","img/none_selected.jpg","","210","main_expt"
"2590","","bandit","289","880244","0.0-250.0-0.0","28777482","wem/bandit_either","A3FR7HHX2IS2FG","either","4","","","","","","","0","0","1","0.2460847292","","0.8","0.6","0.2","0.4","","","","","0.2460847292","0.4377941382","0.2631807131","0.2522206247","","","","","","","72","H","0","img/none_selected.jpg","","211","main_expt"
"577","","bandit","290","882338","0.0-251.0-0.0","28777482","wem/bandit_either","A3FR7HHX2IS2FG","either","4","","","","","","","0","0","1","","0.2008991105","0.8","0.6","0.2","0.4","0.2017704833","0.4619006446","0.2008991105","0.2323705111","","","","","","","","","","","75","K","2","","","212","main_expt"
"200","","bandit","291","884062","0.0-252.0-0.0","28777482","wem/bandit_either","A3FR7HHX2IS2FG","either","4","","","","","","","1","0","0","0.2815580385","","0.8","0.6","0.2","0.4","","","","","0.1891715169","0.4508737721","0.1656487101","0.2815580385","","","","","","","76","L","3","","","213","main_expt"
"581","","bandit","292","886167","0.0-253.0-0.0","28777482","wem/bandit_either","A3FR7HHX2IS2FG","either","4","","","","","","","1","0","0","0.1819308411","","0.8","0.6","0.2","0.4","","","","","0.1819308411","0.4639731149","0.213788386","0.2955812139","","","","","","","72","H","0","img/none_selected.jpg","","214","main_expt"
"402","","bandit","293","888095","0.0-254.0-0.0","28777482","wem/bandit_either","A3FR7HHX2IS2FG","either","4","","","","","","","0","0","1","","0.2206736926","0.8","0.6","0.2","0.4","0.1406935411","0.4690757113","0.2206736926","0.2988647484","","","","","","","","","","","75","K","2","","","215","main_expt"
"428","","bandit","294","890045","0.0-255.0-0.0","28777482","wem/bandit_either","A3FR7HHX2IS2FG","either","4","","","","","","","0","0","1","","0.4685680314","0.8","0.6","0.2","0.4","0.206739756","0.4685680314","0.2270120675","0.3361974059","","","","","","","","","","","74","J","1","","","216","main_expt"
"833","","bandit","295","892402","0.0-256.0-0.0","28777482","wem/bandit_either","A3FR7HHX2IS2FG","either","4","","","","","","","0","0","1","0.178624692","","0.8","0.6","0.2","0.4","","","","","0.178624692","0.4873952874","0.2561581829","0.2764506131","","","","","","","72","H","0","img/none_selected.jpg","","217","main_expt"
"1390","","bandit","296","895311","0.0-257.0-0.0","28777482","wem/bandit_either","A3FR7HHX2IS2FG","either","4","","","","","","","0","0","1","0.2021641755","","0.8","0.6","0.2","0.4","","","","","0.2021641755","0.4790671899","0.2785758431","0.299893698","","","","","","","72","H","0","img/none_selected.jpg","","218","main_expt"
"1206","","bandit","297","898037","0.0-258.0-0.0","28777482","wem/bandit_either","A3FR7HHX2IS2FG","either","4","","","","","","","0","0","1","0.2076996705","","0.8","0.6","0.2","0.4","","","","","0.2076996705","0.4769795117","0.2707863597","0.3213687962","","","","","","","72","H","0","img/none_selected.jpg","","219","main_expt"
"1980","","bandit","298","901537","0.0-259.0-0.0","28777482","wem/bandit_either","A3FR7HHX2IS2FG","either","4","","","","","","","0","0","1","0.2479045362","","0.8","0.6","0.2","0.4","","","","","0.2479045362","0.4746148145","0.2262269101","0.3782095139","","","","","","","72","H","0","img/none_selected.jpg","","220","main_expt"
"2233","","bandit","299","905291","0.0-260.0-0.0","28777482","wem/bandit_either","A3FR7HHX2IS2FG","either","4","","","","","","","0","0","1","","0.251163546","0.8","0.6","0.2","0.4","0.251163546","0.4789253058","0.2522421151","0.3572699546","","","","","","","","","","","72","H","0","img/none_selected.jpg","","221","main_expt"
"372","","bandit","300","907186","0.0-261.0-0.0","28777482","wem/bandit_either","A3FR7HHX2IS2FG","either","4","","","","","","","0","1","0","","0.332217079","0.8","0.6","0.2","0.4","0.2653622565","0.4765400837","0.2323100388","0.332217079","","","","","","","","","","","76","L","3","","","222","main_expt"
"69","","bandit","301","908784","0.0-262.0-0.0","28777482","wem/bandit_either","A3FR7HHX2IS2FG","either","4","","","","","","","0","0","1","","0.2013525365","0.8","0.6","0.2","0.4","0.2034578964","0.4872993944","0.2013525365","0.3327789551","","","","","","","","","","","75","K","2","","","223","main_expt"
"518","","bandit","302","910823","0.0-263.0-0.0","28777482","wem/bandit_either","A3FR7HHX2IS2FG","either","4","","","","","","","0","0","1","0.4864577786","","0.8","0.6","0.2","0.4","","","","","0.1176985371","0.4864577786","0.2017363432","0.3720138676","","","","","","","74","J","1","","","224","main_expt"
"658","","bandit","303","913002","0.0-264.0-0.0","28777482","wem/bandit_either","A3FR7HHX2IS2FG","either","4","","","","","","","0","0","1","","0.08531446518","0.8","0.6","0.2","0.4","0.08531446518","0.4815865163","0.1608447522","0.4035982493","","","","","","","","","","","72","H","0","img/none_selected.jpg","","225","main_expt"
"732","","bandit","304","915254","0.0-265.0-0.0","28777482","wem/bandit_either","A3FR7HHX2IS2FG","either","4","","","","","","","0","0","1","0.0901010045","","0.8","0.6","0.2","0.4","","","","","0.0901010045","0.4781941344","0.2023183299","0.3538577565","","","","","","","72","H","0","img/none_selected.jpg","","226","main_expt"
"1011","","bandit","305","917787","0.0-266.0-0.0","28777482","wem/bandit_either","A3FR7HHX2IS2FG","either","4","","","","","","","1","0","0","0.06499555022","","0.8","0.6","0.2","0.4","","","","","0.06499555022","0.4742279627","0.1555458008","0.4205879778","","","","","","","72","H","0","img/none_selected.jpg","","227","main_expt"
"438","","bandit","306","919753","0.0-267.0-0.0","28777482","wem/bandit_either","A3FR7HHX2IS2FG","either","4","","","","","","","0","0","1","","0.1210896773","0.8","0.6","0.2","0.4","0.06967502077","0.4597327255","0.1210896773","0.4082381823","","","","","","","","","","","75","K","2","","","228","main_expt"
"485","","bandit","307","921755","0.0-268.0-0.0","28777482","wem/bandit_either","A3FR7HHX2IS2FG","either","4","","","","","","","0","0","1","0.4274963613","","0.8","0.6","0.2","0.4","","","","","0.07642173418","0.4733003713","0.1206830913","0.4274963613","","","","","","","76","L","3","","","229","main_expt"
"63","","bandit","308","923343","0.0-269.0-0.0","28777482","wem/bandit_either","A3FR7HHX2IS2FG","either","4","","","","","","","1","0","0","0.04973788902","","0.8","0.6","0.2","0.4","","","","","0.04973788902","0.4832022084","0.1334008039","0.4362488765","","","","","","","72","H","0","img/none_selected.jpg","","230","main_expt"
"303","","bandit","309","925170","0.0-270.0-0.0","28777482","wem/bandit_either","A3FR7HHX2IS2FG","either","4","","","","","","","1","0","0","0.4802630573","","0.8","0.6","0.2","0.4","","","","","0.07419495466","0.4802630573","0.1048467088","0.4420629534","","","","","","","74","J","1","","","231","main_expt"
"1024","","bandit","310","927716","0.0-271.0-0.0","28777482","wem/bandit_either","A3FR7HHX2IS2FG","either","4","","","","","","","0","0","1","0.08125260149","","0.8","0.6","0.2","0.4","","","","","0.08125260149","0.4739318499","0.1184002818","0.4287414635","","","","","","","72","H","0","img/none_selected.jpg","","232","main_expt"
"558","","bandit","311","929798","0.0-272.0-0.0","28777482","wem/bandit_either","A3FR7HHX2IS2FG","either","4","","","","","","","1","0","0","0.4709765286","","0.8","0.6","0.2","0.4","","","","","0.06057073796","0.4709765286","0.08533064469","0.4395511981","","","","","","","74","J","1","","","233","main_expt"
"558","","bandit","312","931883","0.0-273.0-0.0","28777482","wem/bandit_either","A3FR7HHX2IS2FG","either","4","","","","","","","0","0","1","0.1037411708","","0.8","0.6","0.2","0.4","","","","","0.1037411708","0.4658145356","0.1190123434","0.4479240545","","","","","","","72","H","0","img/none_selected.jpg","","234","main_expt"
"183","","bandit","313","933586","0.0-274.0-0.0","28777482","wem/bandit_either","A3FR7HHX2IS2FG","either","4","","","","","","","0","0","1","","0.1392024459","0.8","0.6","0.2","0.4","0.1267441937","0.4312508187","0.1392024459","0.4476644646","","","","","","","","","","","75","K","2","","","235","main_expt"
"274","","bandit","314","935382","0.0-275.0-0.0","28777482","wem/bandit_either","A3FR7HHX2IS2FG","either","4","","","","","","","0","1","0","","0.457106966","0.8","0.6","0.2","0.4","0.1002206095","0.4323277229","0.1076242464","0.457106966","","","","","","","","","","","76","L","3","","","236","main_expt"
"525","","bandit","315","937428","0.0-276.0-0.0","28777482","wem/bandit_either","A3FR7HHX2IS2FG","either","4","","","","","","","0","0","1","0.08353940566","","0.8","0.6","0.2","0.4","","","","","0.08353940566","0.4517679415","0.1539911713","0.4097288684","","","","","","","72","H","0","img/none_selected.jpg","","237","main_expt"
"573","","bandit","316","939523","0.0-277.0-0.0","28777482","wem/bandit_either","A3FR7HHX2IS2FG","either","4","","","","","","","1","0","0","0.4476427196","","0.8","0.6","0.2","0.4","","","","","0.07847158511","0.4476427196","0.1833253983","0.4530646831","","","","","","","74","J","1","","","238","main_expt"
"344","","bandit","317","941386","0.0-278.0-0.0","28777482","wem/bandit_either","A3FR7HHX2IS2FG","either","4","","","","","","","0","1","0","","0.185515968","0.8","0.6","0.2","0.4","0.1132310855","0.4421551546","0.185515968","0.4532148127","","","","","","","","","","","75","K","2","","","239","main_expt"
"295","","bandit","318","943203","0.0-279.0-0.0","28777482","wem/bandit_either","A3FR7HHX2IS2FG","either","4","","","","","","","0","0","1","0.130249024","","0.8","0.6","0.2","0.4","","","","","0.130249024","0.4205303603","0.2545144829","0.4456906816","","","","","","","72","H","0","img/none_selected.jpg","","240","main_expt"
"919","","bandit","319","945665","0.0-280.0-0.0","28777482","wem/bandit_either","A3FR7HHX2IS2FG","either","4","","","","","","","0","0","1","","0.1356270161","0.8","0.6","0.2","0.4","0.1356270161","0.4304808994","0.1902236802","0.4515134246","","","","","","","","","","","72","H","0","img/none_selected.jpg","","241","main_expt"
"165","","bandit","320","947354","0.0-281.0-0.0","28777482","wem/bandit_either","A3FR7HHX2IS2FG","either","4","","","","","","","0","0","1","0.4318168925","","0.8","0.6","0.2","0.4","","","","","0.1402569013","0.4318168925","0.2196571485","0.4640222466","","","","","","","74","J","1","","","242","main_expt"
"0","","bandit","321","948883","0.0-282.0-0.0","28777482","wem/bandit_either","A3FR7HHX2IS2FG","either","4","","","","","","","1","0","0","0.4305348251","","0.8","0.6","0.2","0.4","","","","","0.1851652895","0.4437639365","0.2691755858","0.4305348251","","","","","","","76","L","3","","","243","main_expt"
"396","","bandit","322","950811","0.0-283.0-0.0","28777482","wem/bandit_either","A3FR7HHX2IS2FG","either","4","","","","","","","0","1","0","","0.2689580194","0.8","0.6","0.2","0.4","0.1871667761","0.4444545885","0.2689580194","0.4444417595","","","","","","","","","","","75","K","2","","","244","main_expt"
"130","","bandit","323","952462","0.0-284.0-0.0","28777482","wem/bandit_either","A3FR7HHX2IS2FG","either","4","","","","","","","0","0","1","","0.445216333","0.8","0.6","0.2","0.4","0.1881322931","0.445216333","0.1935089033","0.4468105605","","","","","","","","","","","74","J","1","","","245","main_expt"
"721","","bandit","324","954707","0.0-285.0-0.0","28777482","wem/bandit_either","A3FR7HHX2IS2FG","either","4","","","","","","","0","0","1","0.187853128","","0.8","0.6","0.2","0.4","","","","","0.187853128","0.4767449203","0.1466547275","0.4453418505","","","","","","","72","H","0","img/none_selected.jpg","","246","main_expt"
"576","","bandit","325","956809","0.0-286.0-0.0","28777482","wem/bandit_either","A3FR7HHX2IS2FG","either","4","","","","","","","1","0","0","0.1952756904","","0.8","0.6","0.2","0.4","","","","","0.1952756904","0.4530054638","0.1275107348","0.4426138654","","","","","","","72","H","0","img/none_selected.jpg","","247","main_expt"
"475","","bandit","326","958816","0.0-287.0-0.0","28777482","wem/bandit_either","A3FR7HHX2IS2FG","either","4","","","","","","","0","0","1","0.4326938674","","0.8","0.6","0.2","0.4","","","","","0.1722543521","0.4326938674","0.107785627","0.464375056","","","","","","","74","J","1","","","248","main_expt"
"418","","bandit","327","960757","0.0-288.0-0.0","28777482","wem/bandit_either","A3FR7HHX2IS2FG","either","4","","","","","","","0","0","1","","0.1169449123","0.8","0.6","0.2","0.4","0.1935833679","0.4276367863","0.1169449123","0.4416705694","","","","","","","","","","","75","K","2","","","249","main_expt"
"99","","bandit","328","962375","0.0-289.0-0.0","28777482","wem/bandit_either","A3FR7HHX2IS2FG","either","4","","","","","","","0","1","0","","0.4352039605","0.8","0.6","0.2","0.4","0.1783221165","0.4602627553","0.1474950258","0.4352039605","","","","","","","","","","","76","L","3","","","250","main_expt"
"417","","bandit","329","964315","0.0-290.0-0.0","28777482","wem/bandit_either","A3FR7HHX2IS2FG","either","4","","","","","","","0","0","1","0.2191654692","","0.8","0.6","0.2","0.4","","","","","0.2191654692","0.4429671406","0.1272017844","0.4625669079","","","","","","","72","H","0","img/none_selected.jpg","","251","main_expt"
