"rt","responses","trial_type","trial_index","time_elapsed","internal_node_id","subjID","study","MID","cond","drift","key_press","expt_phase","target","like","value","connected","respCharCode","respKey","respChoiceNum","respChoice","gems","bombs","no_reward","GemPrChosen","BombPrChosen","practice","trial_counter","WinPr_0","LosePr_0","trial_label","GainOverPainPr_0","LosePr_1","GainOverPainPr_1","WinPr_1","WinPr_2","GainOverPainPr_2","WinPr_3","GainOverPainPr_3","LosePr_2","LosePr_3","Q0","Q1","Q2","gender","age","ethnicity"
"8962","{""Q0"":""A1OZPLHNIU1519""}","survey-text","0","9002","0.0-0.0","29096264","wem/bandit_either","A1OZPLHNIU1519","either","3","","","","","","","","","","","","","","","","","","","","","","","","","","","","","","","","","","","",""
"13570","","text","1","23586","0.0-1.0","29096264","wem/bandit_either","A1OZPLHNIU1519","either","3","32","","","","","","","","","","","","","","","","","","","","","","","","","","","","","","","","","","",""
"9388","","text","2","32986","0.0-2.0","29096264","wem/bandit_either","A1OZPLHNIU1519","either","3","32","","","","","","","","","","","","","","","","","","","","","","","","","","","","","","","","","","",""
"23628","","text","3","56625","0.0-3.0","29096264","wem/bandit_either","A1OZPLHNIU1519","either","3","32","","","","","","","","","","","","","","","","","","","","","","","","","","","","","","","","","","",""
"15707","","text","4","72350","0.0-4.0","29096264","wem/bandit_either","A1OZPLHNIU1519","either","3","32","","","","","","","","","","","","","","","","","","","","","","","","","","","","","","","","","","",""
"19487","","text","5","91850","0.0-5.0","29096264","wem/bandit_either","A1OZPLHNIU1519","either","3","32","","","","","","","","","","","","","","","","","","","","","","","","","","","","","","","","","","",""
"11215","","text","6","103083","0.0-6.0","29096264","wem/bandit_either","A1OZPLHNIU1519","either","3","32","","","","","","","","","","","","","","","","","","","","","","","","","","","","","","","","","","",""
"5294","","text","7","108388","0.0-7.0","29096264","wem/bandit_either","A1OZPLHNIU1519","either","3","32","","","","","","","","","","","","","","","","","","","","","","","","","","","","","","","","","","",""
"13923","","identification","8","122445","0.0-8.0-0.0","29096264","wem/bandit_either","A1OZPLHNIU1519","either","3","","identification_pre","the village of Zur","3","4","4","","","","","","","","","","","","","","","","","","","","","","","","","","","","","",""
"9774","","identification","9","133351","0.0-8.0-1.0","29096264","wem/bandit_either","A1OZPLHNIU1519","either","3","","identification_pre","the village of Nyx","2","1","1","","","","","","","","","","","","","","","","","","","","","","","","","","","","","",""
"7386","","text","10","141752","0.0-9.0","29096264","wem/bandit_either","A1OZPLHNIU1519","either","3","32","","","","","","","","","","","","","","","","","","","","","","","","","","","","","","","","","","",""
"4489","","text","11","146251","0.0-10.0","29096264","wem/bandit_either","A1OZPLHNIU1519","either","3","32","","","","","","","","","","","","","","","","","","","","","","","","","","","","","","","","","","",""
"3291","","text","12","149549","0.0-11.0","29096264","wem/bandit_either","A1OZPLHNIU1519","either","3","32","","","","","","","","","","","","","","","","","","","","","","","","","","","","","","","","","","",""
"7580","","text","13","157137","0.0-12.0","29096264","wem/bandit_either","A1OZPLHNIU1519","either","3","32","","","","","","","","","","","","","","","","","","","","","","","","","","","","","","","","","","",""
"4843","","bandit","14","163519","0.0-13.0-0.0","29096264","wem/bandit_either","A1OZPLHNIU1519","either","3","","","","","","","74","J","0","img/none_selected_demo.jpg","0","0","1","0","0","true","0","0","0","","","","","","","","","","","","","","","","",""
"2871","","bandit","15","167962","0.0-14.0-0.0","29096264","wem/bandit_either","A1OZPLHNIU1519","either","3","","","","","","","75","K","0","img/none_selected_demo.jpg","0","0","1","0","0","true","0","0","0","","","","","","","","","","","","","","","","",""
"15319","","text","16","183292","0.0-15.0","29096264","wem/bandit_either","A1OZPLHNIU1519","either","3","32","","","","","","","","","","","","","","","","","","","","","","","","","","","","","","","","","","",""
"6639","","text","17","189954","0.0-16.0","29096264","wem/bandit_either","A1OZPLHNIU1519","either","3","32","","","","","","","","","","","","","","","","","","","","","","","","","","","","","","","","","","",""
"6723","","text","18","196687","0.0-17.0","29096264","wem/bandit_either","A1OZPLHNIU1519","either","3","32","","","","","","","","","","","","","","","","","","","","","","","","","","","","","","","","","","",""
"7317","","text","19","204018","0.0-18.0","29096264","wem/bandit_either","A1OZPLHNIU1519","either","3","32","","","","","","","","","","","","","","","","","","","","","","","","","","","","","","","","","","",""
"1302","","bandit","20","206893","0.0-19.0-0.0","29096264","wem/bandit_either","A1OZPLHNIU1519","either","3","","","","","","","75","K","1","","0","0","1","","0.2","true","0","","0.8","80_20_practice","0.5","0.2","0.5","","","","","","","","","","","","",""
"2045","","bandit","21","210504","0.0-19.0-1.0","29096264","wem/bandit_either","A1OZPLHNIU1519","either","3","","","","","","","74","J","0","img/none_selected_demo.jpg","0","1","0","","0.8","true","0","","0.8","80_20_practice","0.5","0.2","0.5","","","","","","","","","","","","",""
"1563","","bandit","22","213634","0.0-19.0-2.0","29096264","wem/bandit_either","A1OZPLHNIU1519","either","3","","","","","","","74","J","0","img/none_selected_demo.jpg","0","0","1","","0.8","true","0","","0.8","80_20_practice","0.5","0.2","0.5","","","","","","","","","","","","",""
"714","","bandit","23","215901","0.0-19.0-3.0","29096264","wem/bandit_either","A1OZPLHNIU1519","either","3","","","","","","","75","K","1","","0","0","1","0.2","","true","0","0.8","","80_20_practice","0.5","","0.5","0.2","","","","","","","","","","","",""
"404","","bandit","24","217858","0.0-19.0-4.0","29096264","wem/bandit_either","A1OZPLHNIU1519","either","3","","","","","","","74","J","0","img/none_selected_demo.jpg","1","0","0","0.8","","true","0","0.8","","80_20_practice","0.5","","0.5","0.2","","","","","","","","","","","",""
"704","","bandit","25","220134","0.0-19.0-5.0","29096264","wem/bandit_either","A1OZPLHNIU1519","either","3","","","","","","","74","J","0","img/none_selected_demo.jpg","0","1","0","","0.8","true","0","","0.8","80_20_practice","0.5","0.2","0.5","","","","","","","","","","","","",""
"709","","bandit","26","222506","0.0-19.0-6.0","29096264","wem/bandit_either","A1OZPLHNIU1519","either","3","","","","","","","74","J","0","img/none_selected_demo.jpg","0","1","0","","0.8","true","0","","0.8","80_20_practice","0.5","0.2","0.5","","","","","","","","","","","","",""
"550","","bandit","27","224612","0.0-19.0-7.0","29096264","wem/bandit_either","A1OZPLHNIU1519","either","3","","","","","","","74","J","0","img/none_selected_demo.jpg","0","1","0","","0.8","true","0","","0.8","80_20_practice","0.5","0.2","0.5","","","","","","","","","","","","",""
"481","","bandit","28","226635","0.0-19.0-8.0","29096264","wem/bandit_either","A1OZPLHNIU1519","either","3","","","","","","","74","J","0","img/none_selected_demo.jpg","1","0","0","0.8","","true","0","0.8","","80_20_practice","0.5","","0.5","0.2","","","","","","","","","","","",""
"443","","bandit","29","228631","0.0-19.0-9.0","29096264","wem/bandit_either","A1OZPLHNIU1519","either","3","","","","","","","74","J","0","img/none_selected_demo.jpg","0","0","1","0.8","","true","0","0.8","","80_20_practice","0.5","","0.5","0.2","","","","","","","","","","","",""
"358","","bandit","30","230534","0.0-19.0-10.0","29096264","wem/bandit_either","A1OZPLHNIU1519","either","3","","","","","","","74","J","0","img/none_selected_demo.jpg","0","1","0","","0.8","true","0","","0.8","80_20_practice","0.5","0.2","0.5","","","","","","","","","","","","",""
"395","","bandit","31","232474","0.0-19.0-11.0","29096264","wem/bandit_either","A1OZPLHNIU1519","either","3","","","","","","","74","J","0","img/none_selected_demo.jpg","1","0","0","0.8","","true","0","0.8","","80_20_practice","0.5","","0.5","0.2","","","","","","","","","","","",""
"351","","bandit","32","234356","0.0-19.0-12.0","29096264","wem/bandit_either","A1OZPLHNIU1519","either","3","","","","","","","74","J","0","img/none_selected_demo.jpg","0","1","0","","0.8","true","0","","0.8","80_20_practice","0.5","0.2","0.5","","","","","","","","","","","","",""
"285","","bandit","33","236182","0.0-19.0-13.0","29096264","wem/bandit_either","A1OZPLHNIU1519","either","3","","","","","","","74","J","0","img/none_selected_demo.jpg","1","0","0","0.8","","true","0","0.8","","80_20_practice","0.5","","0.5","0.2","","","","","","","","","","","",""
"317","","bandit","34","238052","0.0-19.0-14.0","29096264","wem/bandit_either","A1OZPLHNIU1519","either","3","","","","","","","74","J","0","img/none_selected_demo.jpg","1","0","0","0.8","","true","0","0.8","","80_20_practice","0.5","","0.5","0.2","","","","","","","","","","","",""
"322","","bandit","35","239951","0.0-19.0-15.0","29096264","wem/bandit_either","A1OZPLHNIU1519","either","3","","","","","","","74","J","0","img/none_selected_demo.jpg","0","1","0","","0.8","true","0","","0.8","80_20_practice","0.5","0.2","0.5","","","","","","","","","","","","",""
"354","","bandit","36","241844","0.0-19.0-16.0","29096264","wem/bandit_either","A1OZPLHNIU1519","either","3","","","","","","","74","J","0","img/none_selected_demo.jpg","0","1","0","","0.8","true","0","","0.8","80_20_practice","0.5","0.2","0.5","","","","","","","","","","","","",""
"371","","bandit","37","243779","0.0-19.0-17.0","29096264","wem/bandit_either","A1OZPLHNIU1519","either","3","","","","","","","74","J","0","img/none_selected_demo.jpg","1","0","0","0.8","","true","0","0.8","","80_20_practice","0.5","","0.5","0.2","","","","","","","","","","","",""
"324","","bandit","38","245665","0.0-19.0-18.0","29096264","wem/bandit_either","A1OZPLHNIU1519","either","3","","","","","","","74","J","0","img/none_selected_demo.jpg","0","0","1","","0.8","true","0","","0.8","80_20_practice","0.5","0.2","0.5","","","","","","","","","","","","",""
"346","","bandit","39","247569","0.0-19.0-19.0","29096264","wem/bandit_either","A1OZPLHNIU1519","either","3","","","","","","","74","J","0","img/none_selected_demo.jpg","0","1","0","","0.8","true","0","","0.8","80_20_practice","0.5","0.2","0.5","","","","","","","","","","","","",""
"3629","","text","40","251209","0.0-20.0","29096264","wem/bandit_either","A1OZPLHNIU1519","either","3","32","","","","","","","","","","","","","","","","","","","","","","","","","","","","","","","","","","",""
"1726","","bandit","41","254498","0.0-21.0-0.0","29096264","wem/bandit_either","A1OZPLHNIU1519","either","3","","","","","","","74","J","0","img/none_selected_demo.jpg","1","0","0","1","0","true","0","1","0","","","1","","0","","","","","","","","","","","",""
"6023","","text","42","260533","0.0-22.0","29096264","wem/bandit_either","A1OZPLHNIU1519","either","3","32","","","","","","","","","","","","","","","","","","","","","","","","","","","","","","","","","","",""
"5583","","text","43","266129","0.0-23.0","29096264","wem/bandit_either","A1OZPLHNIU1519","either","3","32","","","","","","","","","","","","","","","","","","","","","","","","","","","","","","","","","","",""
"2852","","text","44","269006","0.0-24.0","29096264","wem/bandit_either","A1OZPLHNIU1519","either","3","32","","","","","","","","","","","","","","","","","","","","","","","","","","","","","","","","","","",""
"3403","","text","45","272427","0.0-25.0","29096264","wem/bandit_either","A1OZPLHNIU1519","either","3","32","","","","","","","","","","","","","","","","","","","","","","","","","","","","","","","","","","",""
"10399","","text","46","282840","0.0-26.0","29096264","wem/bandit_either","A1OZPLHNIU1519","either","3","32","","","","","","","","","","","","","","","","","","","","","","","","","","","","","","","","","","",""
"2898","","text","47","285750","0.0-27.0","29096264","wem/bandit_either","A1OZPLHNIU1519","either","3","32","","","","","","","","","","","","","","","","","","","","","","","","","","","","","","","","","","",""
"4596","","text","48","290361","0.0-28.0","29096264","wem/bandit_either","A1OZPLHNIU1519","either","3","32","","","","","","","","","","","","","","","","","","","","","","","","","","","","","","","","","","",""
"3200","","text","49","293573","0.0-29.0","29096264","wem/bandit_either","A1OZPLHNIU1519","either","3","32","","","","","","","","","","","","","","","","","","","","","","","","","","","","","","","","","","",""
"4936","","text","50","298522","0.0-30.0","29096264","wem/bandit_either","A1OZPLHNIU1519","either","3","32","","","","","","","","","","","","","","","","","","","","","","","","","","","","","","","","","","",""
"2141","","text","51","300689","0.0-31.0","29096264","wem/bandit_either","A1OZPLHNIU1519","either","3","32","","","","","","","","","","","","","","","","","","","","","","","","","","","","","","","","","","",""
"4889","","text","52","305596","0.0-32.0","29096264","wem/bandit_either","A1OZPLHNIU1519","either","3","32","","","","","","","","","","","","","","","","","","","","","","","","","","","","","","","","","","",""
"811","","bandit","53","307975","0.0-33.0-0.0","29096264","wem/bandit_either","A1OZPLHNIU1519","either","3","","","","","","","72","H","0","img/none_selected.jpg","1","0","0","0.8","","true","0","0.8","","full_practice","0.5","","0.5","0.2","0.6","0.5","0.2","0.5","","","","","","","",""
"612","","bandit","54","310142","0.0-33.0-1.0","29096264","wem/bandit_either","A1OZPLHNIU1519","either","3","","","","","","","72","H","0","img/none_selected.jpg","0","0","1","","0.8","true","0","","0.8","full_practice","0.5","0.2","0.5","","","0.5","","0.5","0.6","0.2","","","","","",""
"434","","bandit","55","312139","0.0-33.0-2.0","29096264","wem/bandit_either","A1OZPLHNIU1519","either","3","","","","","","","74","J","1","","0","0","1","","0.2","true","0","","0.8","full_practice","0.5","0.2","0.5","","","0.5","","0.5","0.6","0.2","","","","","",""
"396","","bandit","56","314089","0.0-33.0-3.0","29096264","wem/bandit_either","A1OZPLHNIU1519","either","3","","","","","","","75","K","2","","0","1","0","","0.6","true","0","","0.8","full_practice","0.5","0.2","0.5","","","0.5","","0.5","0.6","0.2","","","","","",""
"329","","bandit","57","315978","0.0-33.0-4.0","29096264","wem/bandit_either","A1OZPLHNIU1519","either","3","","","","","","","75","K","2","","0","0","1","0.6","","true","0","0.8","","full_practice","0.5","","0.5","0.2","0.6","0.5","0.2","0.5","","","","","","","",""
"434","","bandit","58","317995","0.0-33.0-5.0","29096264","wem/bandit_either","A1OZPLHNIU1519","either","3","","","","","","","76","L","3","","0","0","1","0.2","","true","0","0.8","","full_practice","0.5","","0.5","0.2","0.6","0.5","0.2","0.5","","","","","","","",""
"475","","bandit","59","320174","0.0-33.0-6.0","29096264","wem/bandit_either","A1OZPLHNIU1519","either","3","","","","","","","72","H","0","img/none_selected.jpg","0","1","0","","0.8","true","0","","0.8","full_practice","0.5","0.2","0.5","","","0.5","","0.5","0.6","0.2","","","","","",""
"461","","bandit","60","322221","0.0-33.0-7.0","29096264","wem/bandit_either","A1OZPLHNIU1519","either","3","","","","","","","72","H","0","img/none_selected.jpg","0","1","0","","0.8","true","0","","0.8","full_practice","0.5","0.2","0.5","","","0.5","","0.5","0.6","0.2","","","","","",""
"528","","bandit","61","324305","0.0-33.0-8.0","29096264","wem/bandit_either","A1OZPLHNIU1519","either","3","","","","","","","72","H","0","img/none_selected.jpg","1","0","0","0.8","","true","0","0.8","","full_practice","0.5","","0.5","0.2","0.6","0.5","0.2","0.5","","","","","","","",""
"483","","bandit","62","326350","0.0-33.0-9.0","29096264","wem/bandit_either","A1OZPLHNIU1519","either","3","","","","","","","72","H","0","img/none_selected.jpg","0","0","1","","0.8","true","0","","0.8","full_practice","0.5","0.2","0.5","","","0.5","","0.5","0.6","0.2","","","","","",""
"802","","bandit","63","328723","0.0-33.0-10.0","29096264","wem/bandit_either","A1OZPLHNIU1519","either","3","","","","","","","75","K","2","","1","0","0","0.6","","true","0","0.8","","full_practice","0.5","","0.5","0.2","0.6","0.5","0.2","0.5","","","","","","","",""
"342","","bandit","64","330633","0.0-33.0-11.0","29096264","wem/bandit_either","A1OZPLHNIU1519","either","3","","","","","","","75","K","2","","0","1","0","","0.6","true","0","","0.8","full_practice","0.5","0.2","0.5","","","0.5","","0.5","0.6","0.2","","","","","",""
"385","","bandit","65","332578","0.0-33.0-12.0","29096264","wem/bandit_either","A1OZPLHNIU1519","either","3","","","","","","","75","K","2","","1","0","0","0.6","","true","0","0.8","","full_practice","0.5","","0.5","0.2","0.6","0.5","0.2","0.5","","","","","","","",""
"429","","bandit","66","334572","0.0-33.0-13.0","29096264","wem/bandit_either","A1OZPLHNIU1519","either","3","","","","","","","75","K","2","","0","0","1","0.6","","true","0","0.8","","full_practice","0.5","","0.5","0.2","0.6","0.5","0.2","0.5","","","","","","","",""
"502","","bandit","67","336630","0.0-33.0-14.0","29096264","wem/bandit_either","A1OZPLHNIU1519","either","3","","","","","","","72","H","0","img/none_selected.jpg","0","1","0","","0.8","true","0","","0.8","full_practice","0.5","0.2","0.5","","","0.5","","0.5","0.6","0.2","","","","","",""
"403","","bandit","68","338589","0.0-33.0-15.0","29096264","wem/bandit_either","A1OZPLHNIU1519","either","3","","","","","","","72","H","0","img/none_selected.jpg","0","1","0","","0.8","true","0","","0.8","full_practice","0.5","0.2","0.5","","","0.5","","0.5","0.6","0.2","","","","","",""
"429","","bandit","69","340578","0.0-33.0-16.0","29096264","wem/bandit_either","A1OZPLHNIU1519","either","3","","","","","","","72","H","0","img/none_selected.jpg","0","1","0","","0.8","true","0","","0.8","full_practice","0.5","0.2","0.5","","","0.5","","0.5","0.6","0.2","","","","","",""
"468","","bandit","70","342621","0.0-33.0-17.0","29096264","wem/bandit_either","A1OZPLHNIU1519","either","3","","","","","","","72","H","0","img/none_selected.jpg","0","1","0","","0.8","true","0","","0.8","full_practice","0.5","0.2","0.5","","","0.5","","0.5","0.6","0.2","","","","","",""
"399","","bandit","71","344571","0.0-33.0-18.0","29096264","wem/bandit_either","A1OZPLHNIU1519","either","3","","","","","","","72","H","0","img/none_selected.jpg","1","0","0","0.8","","true","0","0.8","","full_practice","0.5","","0.5","0.2","0.6","0.5","0.2","0.5","","","","","","","",""
"354","","bandit","72","346473","0.0-33.0-19.0","29096264","wem/bandit_either","A1OZPLHNIU1519","either","3","","","","","","","72","H","0","img/none_selected.jpg","0","0","1","","0.8","true","0","","0.8","full_practice","0.5","0.2","0.5","","","0.5","","0.5","0.6","0.2","","","","","",""
"3773","","text","73","350279","0.0-34.0","29096264","wem/bandit_either","A1OZPLHNIU1519","either","3","32","","","","","","","","","","","","","","","","","","","","","","","","","","","","","","","","","","",""
"11449","","text","74","362745","0.0-35.0","29096264","wem/bandit_either","A1OZPLHNIU1519","either","3","32","","","","","","","","","","","","","","","","","","","","","","","","","","","","","","","","","","",""
"9436","","text","75","372212","0.0-36.0","29096264","wem/bandit_either","A1OZPLHNIU1519","either","3","32","","","","","","","","","","","","","","","","","","","","","","","","","","","","","","","","","","",""
"4448","","text","76","376682","0.0-37.0","29096264","wem/bandit_either","A1OZPLHNIU1519","either","3","32","","","","","","","","","","","","","","","","","","","","","","","","","","","","","","","","","","",""
"5255","","text","77","381958","0.0-38.0","29096264","wem/bandit_either","A1OZPLHNIU1519","either","3","32","","","","","","","","","","","","","","","","","","","","","","","","","","","","","","","","","","",""
"5863","","text","78","387844","0.0-39.0","29096264","wem/bandit_either","A1OZPLHNIU1519","either","3","32","","","","","","","","","","","","","","","","","","","","","","","","","","","","","","","","","","",""
"1168","","bandit","79","390599","0.0-40.0-0.0","29096264","wem/bandit_either","A1OZPLHNIU1519","either","3","","","","","","","72","H","0","img/none_selected.jpg","0","0","1","0.1426046982","","","1","0.1426046982","","main_expt","0.6","","0.4","0.4870892339","0.07685641067","0.2","0.1646489015","0.8","","","","","","","",""
"475","","bandit","80","392651","0.0-41.0-0.0","29096264","wem/bandit_either","A1OZPLHNIU1519","either","3","","","","","","","74","J","1","","0","1","0","","0.4875162112","","2","","0.1597004976","main_expt","0.6","0.4875162112","0.4","","","0.2","","0.8","0.08388143876","0.2180431119","","","","","",""
"347","","bandit","81","394554","0.0-42.0-0.0","29096264","wem/bandit_either","A1OZPLHNIU1519","either","3","","","","","","","74","J","1","","0","0","1","","0.4909945117","","3","","0.1381850853","main_expt","0.6","0.4909945117","0.4","","","0.2","","0.8","0.06528774038","0.2294217256","","","","","",""
"324","","bandit","82","396442","0.0-43.0-0.0","29096264","wem/bandit_either","A1OZPLHNIU1519","either","3","","","","","","","74","J","1","","0","1","0","","0.482579304","","4","","0.1787932262","main_expt","0.6","0.482579304","0.4","","","0.2","","0.8","0.07987899881","0.2162119515","","","","","",""
"396","","bandit","83","398391","0.0-44.0-0.0","29096264","wem/bandit_either","A1OZPLHNIU1519","either","3","","","","","","","74","J","1","","0","0","1","0.4887913002","","","5","0.1795032464","","main_expt","0.6","","0.4","0.4887913002","0.0432391811","0.2","0.2246316054","0.8","","","","","","","",""
"319","","bandit","84","400264","0.0-45.0-0.0","29096264","wem/bandit_either","A1OZPLHNIU1519","either","3","","","","","","","75","K","2","","0","0","1","","0.03467601655","","6","","0.164375756","main_expt","0.6","0.4887860333","0.4","","","0.2","","0.8","0.03467601655","0.2061018479","","","","","",""
"874","","bandit","85","402683","0.0-46.0-0.0","29096264","wem/bandit_either","A1OZPLHNIU1519","either","3","","","","","","","76","L","3","","0","0","1","","0.1795347326","","7","","0.204957223","main_expt","0.6","0.4901971563","0.4","","","0.2","","0.8","0.05033951668","0.1795347326","","","","","",""
"345","","bandit","86","404584","0.0-47.0-0.0","29096264","wem/bandit_either","A1OZPLHNIU1519","either","3","","","","","","","74","J","1","","0","0","1","0.4862230721","","","8","0.2162036531","","main_expt","0.6","","0.4","0.4862230721","0.07676355645","0.2","0.1290452752","0.8","","","","","","","",""
"268","","bandit","87","406394","0.0-48.0-0.0","29096264","wem/bandit_either","A1OZPLHNIU1519","either","3","","","","","","","74","J","1","","0","0","1","0.4759730645","","","9","0.2167418122","","main_expt","0.6","","0.4","0.4759730645","0.08620859221","0.2","0.1559184374","0.8","","","","","","","",""
"366","","bandit","88","408320","0.0-49.0-0.0","29096264","wem/bandit_either","A1OZPLHNIU1519","either","3","","","","","","","72","H","0","img/none_selected.jpg","0","1","0","","0.1607923637","","10","","0.1607923637","main_expt","0.6","0.4560980466","0.4","","","0.2","","0.8","0.1103839657","0.1381514788","","","","","",""
"477","","bandit","89","410379","0.0-50.0-0.0","29096264","wem/bandit_either","A1OZPLHNIU1519","either","3","","","","","","","72","H","0","img/none_selected.jpg","0","0","1","","0.1386410957","","11","","0.1386410957","main_expt","0.6","0.4775116046","0.4","","","0.2","","0.8","0.1334948588","0.1271140015","","","","","",""
"418","","bandit","90","412608","0.0-51.0-0.0","29096264","wem/bandit_either","A1OZPLHNIU1519","either","3","","","","","","","72","H","0","img/none_selected.jpg","1","0","0","0.1718380738","","","12","0.1718380738","","main_expt","0.6","","0.4","0.4705073552","0.1535602519","0.2","0.1854664659","0.8","","","","","","","",""
"428","","bandit","91","414621","0.0-52.0-0.0","29096264","wem/bandit_either","A1OZPLHNIU1519","either","3","","","","","","","72","H","0","img/none_selected.jpg","0","0","1","0.1686303413","","","13","0.1686303413","","main_expt","0.6","","0.4","0.4851887342","0.127854239","0.2","0.1869952656","0.8","","","","","","","",""
"322","","bandit","92","416503","0.0-53.0-0.0","29096264","wem/bandit_either","A1OZPLHNIU1519","either","3","","","","","","","75","K","2","","0","0","1","","0.1507911491","","14","","0.1460019496","main_expt","0.6","0.4731273917","0.4","","","0.2","","0.8","0.1507911491","0.2035171393","","","","","",""
"281","","bandit","93","418330","0.0-54.0-0.0","29096264","wem/bandit_either","A1OZPLHNIU1519","either","3","","","","","","","75","K","2","","0","0","1","","0.1741212098","","15","","0.1667614464","main_expt","0.6","0.4585867004","0.4","","","0.2","","0.8","0.1741212098","0.2800299461","","","","","",""
"326","","bandit","94","420231","0.0-55.0-0.0","29096264","wem/bandit_either","A1OZPLHNIU1519","either","3","","","","","","","76","L","3","","0","0","1","0.2725454461","","","16","0.1973644546","","main_expt","0.6","","0.4","0.4366533258","0.1918308831","0.2","0.2725454461","0.8","","","","","","","",""
"320","","bandit","95","422104","0.0-56.0-0.0","29096264","wem/bandit_either","A1OZPLHNIU1519","either","3","","","","","","","76","L","3","","1","0","0","0.1570621471","","","17","0.1873415792","","main_expt","0.6","","0.4","0.4405228744","0.1950212473","0.2","0.1570621471","0.8","","","","","","","",""
"360","","bandit","96","424022","0.0-57.0-0.0","29096264","wem/bandit_either","A1OZPLHNIU1519","either","3","","","","","","","76","L","3","","0","0","1","0.1968188506","","","18","0.1875860444","","main_expt","0.6","","0.4","0.4678551263","0.2094813194","0.2","0.1968188506","0.8","","","","","","","",""
"320","","bandit","97","425895","0.0-58.0-0.0","29096264","wem/bandit_either","A1OZPLHNIU1519","either","3","","","","","","","76","L","3","","0","0","1","0.2439518204","","","19","0.1988439388","","main_expt","0.6","","0.4","0.466140525","0.2628959394","0.2","0.2439518204","0.8","","","","","","","",""
"364","","bandit","98","427812","0.0-59.0-0.0","29096264","wem/bandit_either","A1OZPLHNIU1519","either","3","","","","","","","72","H","0","img/none_selected.jpg","0","1","0","","0.1813993393","","20","","0.1813993393","main_expt","0.6","0.4094087999","0.4","","","0.2","","0.8","0.2116504525","0.2806117898","","","","","",""
"361","","bandit","99","429717","0.0-60.0-0.0","29096264","wem/bandit_either","A1OZPLHNIU1519","either","3","","","","","","","72","H","0","img/none_selected.jpg","0","0","1","0.2012004452","","","21","0.2012004452","","main_expt","0.6","","0.4","0.4386974508","0.1904426465","0.2","0.2658005831","0.8","","","","","","","",""
"529","","bandit","100","431809","0.0-61.0-0.0","29096264","wem/bandit_either","A1OZPLHNIU1519","either","3","","","","","","","74","J","1","","0","0","1","0.4505723784","","","22","0.1958646163","","main_expt","0.6","","0.4","0.4505723784","0.1581796968","0.2","0.2774390086","0.8","","","","","","","",""
"336","","bandit","101","433725","0.0-62.0-0.0","29096264","wem/bandit_either","A1OZPLHNIU1519","either","3","","","","","","","72","H","0","img/none_selected.jpg","0","0","1","","0.2626819079","","23","","0.2626819079","main_expt","0.6","0.4568000239","0.4","","","0.2","","0.8","0.2039009352","0.2795917474","","","","","",""
"330","","bandit","102","435613","0.0-63.0-0.0","29096264","wem/bandit_either","A1OZPLHNIU1519","either","3","","","","","","","72","H","0","img/none_selected.jpg","0","0","1","0.2906682881","","","24","0.2906682881","","main_expt","0.6","","0.4","0.4518339256","0.228339491","0.2","0.2981059477","0.8","","","","","","","",""
"353","","bandit","103","437531","0.0-64.0-0.0","29096264","wem/bandit_either","A1OZPLHNIU1519","either","3","","","","","","","76","L","3","","1","0","0","0.3272059922","","","25","0.3270173502","","main_expt","0.6","","0.4","0.4120159309","0.2602465224","0.2","0.3272059922","0.8","","","","","","","",""
"393","","bandit","104","439481","0.0-65.0-0.0","29096264","wem/bandit_either","A1OZPLHNIU1519","either","3","","","","","","","76","L","3","","1","0","0","0.3369826645","","","26","0.2951289915","","main_expt","0.6","","0.4","0.4134154185","0.1939420306","0.2","0.3369826645","0.8","","","","","","","",""
"426","","bandit","105","441462","0.0-66.0-0.0","29096264","wem/bandit_either","A1OZPLHNIU1519","either","3","","","","","","","76","L","3","","1","0","0","0.2531212506","","","27","0.3520126272","","main_expt","0.6","","0.4","0.4031068294","0.2387331149","0.2","0.2531212506","0.8","","","","","","","",""
"369","","bandit","106","443381","0.0-67.0-0.0","29096264","wem/bandit_either","A1OZPLHNIU1519","either","3","","","","","","","76","L","3","","0","0","1","0.2170461037","","","28","0.3369287003","","main_expt","0.6","","0.4","0.4305883772","0.2183458617","0.2","0.2170461037","0.8","","","","","","","",""
"324","","bandit","107","445285","0.0-68.0-0.0","29096264","wem/bandit_either","A1OZPLHNIU1519","either","3","","","","","","","76","L","3","","0","0","1","0.2346211465","","","29","0.3591799128","","main_expt","0.6","","0.4","0.4383329838","0.2151501268","0.2","0.2346211465","0.8","","","","","","","",""
"335","","bandit","108","447197","0.0-69.0-0.0","29096264","wem/bandit_either","A1OZPLHNIU1519","either","3","","","","","","","75","K","2","","0","0","1","","0.2267233056","","30","","0.3324285477","main_expt","0.6","0.4233276099","0.4","","","0.2","","0.8","0.2267233056","0.2450860663","","","","","",""
"307","","bandit","109","449096","0.0-70.0-0.0","29096264","wem/bandit_either","A1OZPLHNIU1519","either","3","","","","","","","75","K","2","","0","0","1","","0.2663701676","","31","","0.327032362","main_expt","0.6","0.4016185005","0.4","","","0.2","","0.8","0.2663701676","0.2141169407","","","","","",""
"445","","bandit","110","451104","0.0-71.0-0.0","29096264","wem/bandit_either","A1OZPLHNIU1519","either","3","","","","","","","74","J","1","","0","0","1","0.4134940178","","","32","0.3230905041","","main_expt","0.6","","0.4","0.4134940178","0.275969473","0.2","0.2347854155","0.8","","","","","","","",""
"487","","bandit","111","453164","0.0-72.0-0.0","29096264","wem/bandit_either","A1OZPLHNIU1519","either","3","","","","","","","72","H","0","img/none_selected.jpg","1","0","0","0.2969008969","","","33","0.2969008969","","main_expt","0.6","","0.4","0.4331174495","0.3365270118","0.2","0.246596708","0.8","","","","","","","",""
"446","","bandit","112","455222","0.0-73.0-0.0","29096264","wem/bandit_either","A1OZPLHNIU1519","either","3","","","","","","","72","H","0","img/none_selected.jpg","0","0","1","0.2536392951","","","34","0.2536392951","","main_expt","0.6","","0.4","0.4454497031","0.2916301021","0.2","0.1914370393","0.8","","","","","","","",""
"446","","bandit","113","457221","0.0-74.0-0.0","29096264","wem/bandit_either","A1OZPLHNIU1519","either","3","","","","","","","76","L","3","","0","0","1","0.1408207185","","","35","0.2336030597","","main_expt","0.6","","0.4","0.4419706984","0.3236538836","0.2","0.1408207185","0.8","","","","","","","",""
"386","","bandit","114","459169","0.0-75.0-0.0","29096264","wem/bandit_either","A1OZPLHNIU1519","either","3","","","","","","","72","H","0","img/none_selected.jpg","0","0","1","0.3110392291","","","36","0.3110392291","","main_expt","0.6","","0.4","0.4205940312","0.3317439785","0.2","0.09539735145","0.8","","","","","","","",""
"431","","bandit","115","461198","0.0-76.0-0.0","29096264","wem/bandit_either","A1OZPLHNIU1519","either","3","","","","","","","74","J","1","","1","0","0","0.4227305347","","","37","0.3354302382","","main_expt","0.6","","0.4","0.4227305347","0.3620900841","0.2","0.08867332122","0.8","","","","","","","",""
"333","","bandit","116","463069","0.0-77.0-0.0","29096264","wem/bandit_either","A1OZPLHNIU1519","either","3","","","","","","","74","J","1","","0","0","1","0.3904174821","","","38","0.3359947902","","main_expt","0.6","","0.4","0.3904174821","0.3649119955","0.2","0.0804097964","0.8","","","","","","","",""
"412","","bandit","117","465094","0.0-78.0-0.0","29096264","wem/bandit_either","A1OZPLHNIU1519","either","3","","","","","","","74","J","1","","0","0","1","0.3704092514","","","39","0.3719467902","","main_expt","0.6","","0.4","0.3704092514","0.3993258453","0.2","0.1092906338","0.8","","","","","","","",""
"408","","bandit","118","467141","0.0-79.0-0.0","29096264","wem/bandit_either","A1OZPLHNIU1519","either","3","","","","","","","75","K","2","","0","1","0","","0.43145226","","40","","0.37180955","main_expt","0.6","0.3250394812","0.4","","","0.2","","0.8","0.43145226","0.08771014895","","","","","",""
"347","","bandit","119","469106","0.0-80.0-0.0","29096264","wem/bandit_either","A1OZPLHNIU1519","either","3","","","","","","","75","K","2","","0","1","0","","0.3925837484","","41","","0.3972707938","main_expt","0.6","0.3633775572","0.4","","","0.2","","0.8","0.3925837484","0.1065106481","","","","","",""
"486","","bandit","120","471181","0.0-81.0-0.0","29096264","wem/bandit_either","A1OZPLHNIU1519","either","3","","","","","","","75","K","2","","0","1","0","","0.4020613291","","42","","0.3981555674","main_expt","0.6","0.3708570881","0.4","","","0.2","","0.8","0.4020613291","0.0926848955","","","","","",""
"431","","bandit","121","473179","0.0-82.0-0.0","29096264","wem/bandit_either","A1OZPLHNIU1519","either","3","","","","","","","75","K","2","","0","0","1","","0.4199094288","","43","","0.3698022864","main_expt","0.6","0.3852030547","0.4","","","0.2","","0.8","0.4199094288","0.09213729174","","","","","",""
"374","","bandit","122","475115","0.0-83.0-0.0","29096264","wem/bandit_either","A1OZPLHNIU1519","either","3","","","","","","","75","K","2","","0","0","1","","0.4362917367","","44","","0.3278340923","main_expt","0.6","0.3653477133","0.4","","","0.2","","0.8","0.4362917367","0.0950319608","","","","","",""
"368","","bandit","123","477077","0.0-84.0-0.0","29096264","wem/bandit_either","A1OZPLHNIU1519","either","3","","","","","","","74","J","1","","0","0","1","","0.3423722135","","45","","0.4004869948","main_expt","0.6","0.3423722135","0.4","","","0.2","","0.8","0.4310393502","0.07917944011","","","","","",""
"632","","bandit","124","479307","0.0-85.0-0.0","29096264","wem/bandit_either","A1OZPLHNIU1519","either","3","","","","","","","76","L","3","","0","0","1","0.08528552535","","","46","0.4389658195","","main_expt","0.6","","0.4","0.2713785315","0.4301719659","0.2","0.08528552535","0.8","","","","","","","",""
"479","","bandit","125","481369","0.0-86.0-0.0","29096264","wem/bandit_either","A1OZPLHNIU1519","either","3","","","","","","","76","L","3","","0","0","1","0.08303267599","","","47","0.4294918489","","main_expt","0.6","","0.4","0.2675382036","0.4274268526","0.2","0.08303267599","0.8","","","","","","","",""
"622","","bandit","126","483552","0.0-87.0-0.0","29096264","wem/bandit_either","A1OZPLHNIU1519","either","3","","","","","","","72","H","0","img/none_selected.jpg","0","0","1","","0.3948346084","","48","","0.3948346084","main_expt","0.6","0.3006553151","0.4","","","0.2","","0.8","0.4559220927","0.1183490009","","","","","",""
"420","","bandit","127","485549","0.0-88.0-0.0","29096264","wem/bandit_either","A1OZPLHNIU1519","either","3","","","","","","","74","J","1","","1","0","0","0.2865645246","","","49","0.4226663974","","main_expt","0.6","","0.4","0.2865645246","0.4362936898","0.2","0.09831357925","0.8","","","","","","","",""
"450","","bandit","128","487572","0.0-89.0-0.0","29096264","wem/bandit_either","A1OZPLHNIU1519","either","3","","","","","","","74","J","1","","0","0","1","0.2842330123","","","50","0.3943232949","","main_expt","0.6","","0.4","0.2842330123","0.4001593617","0.2","0.0896163698","0.8","","","","","","","",""
"568","","bandit","129","489699","0.0-90.0-0.0","29096264","wem/bandit_either","A1OZPLHNIU1519","either","3","","","","","","","74","J","1","","1","0","0","0.2933637591","","","51","0.3911898034","","main_expt","0.6","","0.4","0.2933637591","0.3737598101","0.2","0.08239790895","0.8","","","","","","","",""
"622","","bandit","130","491883","0.0-91.0-0.0","29096264","wem/bandit_either","A1OZPLHNIU1519","either","3","","","","","","","74","J","1","","1","0","0","0.2802127762","","","52","0.3897106723","","main_expt","0.6","","0.4","0.2802127762","0.3490564905","0.2","0.06509061927","0.8","","","","","","","",""
"605","","bandit","131","494051","0.0-92.0-0.0","29096264","wem/bandit_either","A1OZPLHNIU1519","either","3","","","","","","","74","J","1","","0","0","1","","0.2567133084","","53","","0.3977919118","main_expt","0.6","0.2567133084","0.4","","","0.2","","0.8","0.3606416198","0.05503049918","","","","","",""
"535","","bandit","132","496142","0.0-93.0-0.0","29096264","wem/bandit_either","A1OZPLHNIU1519","either","3","","","","","","","74","J","1","","0","0","1","","0.304436262","","54","","0.3803623479","main_expt","0.6","0.304436262","0.4","","","0.2","","0.8","0.3920172378","0.06606451817","","","","","",""
"362","","bandit","133","498080","0.0-94.0-0.0","29096264","wem/bandit_either","A1OZPLHNIU1519","either","3","","","","","","","75","K","2","","0","0","1","","0.3841867886","","55","","0.3898030924","main_expt","0.6","0.3050376594","0.4","","","0.2","","0.8","0.3841867886","0.0812436444","","","","","",""
"379","","bandit","134","500078","0.0-95.0-0.0","29096264","wem/bandit_either","A1OZPLHNIU1519","either","3","","","","","","","76","L","3","","0","0","1","0.05752214818","","","56","0.4332266089","","main_expt","0.6","","0.4","0.2874076515","0.3752679739","0.2","0.05752214818","0.8","","","","","","","",""
"553","","bandit","135","502210","0.0-96.0-0.0","29096264","wem/bandit_either","A1OZPLHNIU1519","either","3","","","","","","","72","H","0","img/none_selected.jpg","0","1","0","","0.4598680415","","57","","0.4598680415","main_expt","0.6","0.2633226407","0.4","","","0.2","","0.8","0.3595388075","0.05957573693","","","","","",""
"809","","bandit","136","504664","0.0-97.0-0.0","29096264","wem/bandit_either","A1OZPLHNIU1519","either","3","","","","","","","72","H","0","img/none_selected.jpg","0","0","1","","0.4510058242","","58","","0.4510058242","main_expt","0.6","0.282557186","0.4","","","0.2","","0.8","0.2926617498","0.08347810371","","","","","",""
"620","","bandit","137","506880","0.0-98.0-0.0","29096264","wem/bandit_either","A1OZPLHNIU1519","either","3","","","","","","","72","H","0","img/none_selected.jpg","1","0","0","0.4587464736","","","59","0.4587464736","","main_expt","0.6","","0.4","0.2675679041","0.2854140482","0.2","0.1166757522","0.8","","","","","","","",""
"740","","bandit","138","509185","0.0-99.0-0.0","29096264","wem/bandit_either","A1OZPLHNIU1519","either","3","","","","","","","72","H","0","img/none_selected.jpg","0","0","1","","0.4534111386","","60","","0.4534111386","main_expt","0.6","0.2654645802","0.4","","","0.2","","0.8","0.2767785787","0.1223048521","","","","","",""
"369","","bandit","139","511118","0.0-100.0-0.0","29096264","wem/bandit_either","A1OZPLHNIU1519","either","3","","","","","","","76","L","3","","0","0","1","0.1341525672","","","61","0.4581751116","","main_expt","0.6","","0.4","0.2326588137","0.3110110239","0.2","0.1341525672","0.8","","","","","","","",""
"898","","bandit","140","513582","0.0-101.0-0.0","29096264","wem/bandit_either","A1OZPLHNIU1519","either","3","","","","","","","74","J","1","","0","0","1","","0.2430345153","","62","","0.4447189615","main_expt","0.6","0.2430345153","0.4","","","0.2","","0.8","0.2739379344","0.1748443247","","","","","",""
"347","","bandit","141","515501","0.0-102.0-0.0","29096264","wem/bandit_either","A1OZPLHNIU1519","either","3","","","","","","","75","K","2","","0","0","1","","0.2518438402","","63","","0.4351057758","main_expt","0.6","0.2682261916","0.4","","","0.2","","0.8","0.2518438402","0.1872250423","","","","","",""
"488","","bandit","142","517564","0.0-103.0-0.0","29096264","wem/bandit_either","A1OZPLHNIU1519","either","3","","","","","","","75","K","2","","0","0","1","","0.216118181","","64","","0.4559228662","main_expt","0.6","0.3136585585","0.4","","","0.2","","0.8","0.216118181","0.1592276408","","","","","",""
"495","","bandit","143","519642","0.0-104.0-0.0","29096264","wem/bandit_either","A1OZPLHNIU1519","either","3","","","","","","","72","H","0","img/none_selected.jpg","0","0","1","0.4526438492","","","65","0.4526438492","","main_expt","0.6","","0.4","0.3208042698","0.1961712117","0.2","0.1881419285","0.8","","","","","","","",""
"571","","bandit","144","521820","0.0-105.0-0.0","29096264","wem/bandit_either","A1OZPLHNIU1519","either","3","","","","","","","76","L","3","","0","0","1","0.2075830042","","","66","0.4604690516","","main_expt","0.6","","0.4","0.3550213758","0.1821057022","0.2","0.2075830042","0.8","","","","","","","",""
"643","","bandit","145","524039","0.0-106.0-0.0","29096264","wem/bandit_either","A1OZPLHNIU1519","either","3","","","","","","","76","L","3","","0","0","1","0.210321401","","","67","0.4479534522","","main_expt","0.6","","0.4","0.2883445083","0.2221692745","0.2","0.210321401","0.8","","","","","","","",""
"542","","bandit","146","526178","0.0-107.0-0.0","29096264","wem/bandit_either","A1OZPLHNIU1519","either","3","","","","","","","74","J","1","","0","0","1","","0.2492112051","","68","","0.4420076102","main_expt","0.6","0.2492112051","0.4","","","0.2","","0.8","0.2385328342","0.1740681144","","","","","",""
"577","","bandit","147","528333","0.0-108.0-0.0","29096264","wem/bandit_either","A1OZPLHNIU1519","either","3","","","","","","","74","J","1","","0","0","1","","0.1725364023","","69","","0.3840886122","main_expt","0.6","0.1725364023","0.4","","","0.2","","0.8","0.2693988132","0.1495678232","","","","","",""
"352","","bandit","148","530260","0.0-109.0-0.0","29096264","wem/bandit_either","A1OZPLHNIU1519","either","3","","","","","","","75","K","2","","0","0","1","","0.2633889128","","70","","0.3764426572","main_expt","0.6","0.2081322216","0.4","","","0.2","","0.8","0.2633889128","0.1594524764","","","","","",""
"383","","bandit","149","532226","0.0-110.0-0.0","29096264","wem/bandit_either","A1OZPLHNIU1519","either","3","","","","","","","72","H","0","img/none_selected.jpg","0","0","1","0.3925575972","","","71","0.3925575972","","main_expt","0.6","","0.4","0.2222096595","0.2881785301","0.2","0.1308665948","0.8","","","","","","","",""
"389","","bandit","150","534176","0.0-111.0-0.0","29096264","wem/bandit_either","A1OZPLHNIU1519","either","3","","","","","","","72","H","0","img/none_selected.jpg","1","0","0","0.4055717031","","","72","0.4055717031","","main_expt","0.6","","0.4","0.2276413934","0.3496752211","0.2","0.1413665491","0.8","","","","","","","",""
"508","","bandit","151","536249","0.0-112.0-0.0","29096264","wem/bandit_either","A1OZPLHNIU1519","either","3","","","","","","","72","H","0","img/none_selected.jpg","0","1","0","","0.4313753627","","73","","0.4313753627","main_expt","0.6","0.202726327","0.4","","","0.2","","0.8","0.3662649551","0.1562096843","","","","","",""
"647","","bandit","152","538505","0.0-113.0-0.0","29096264","wem/bandit_either","A1OZPLHNIU1519","either","3","","","","","","","72","H","0","img/none_selected.jpg","1","0","0","0.4294283137","","","74","0.4294283137","","main_expt","0.6","","0.4","0.2465356434","0.3318597218","0.2","0.1601549975","0.8","","","","","","","",""
"584","","bandit","153","540718","0.0-114.0-0.0","29096264","wem/bandit_either","A1OZPLHNIU1519","either","3","","","","","","","72","H","0","img/none_selected.jpg","0","0","1","0.4114775526","","","75","0.4114775526","","main_expt","0.6","","0.4","0.2780880013","0.3129946244","0.2","0.1962365409","0.8","","","","","","","",""
"460","","bandit","154","542755","0.0-115.0-0.0","29096264","wem/bandit_either","A1OZPLHNIU1519","either","3","","","","","","","76","L","3","","0","0","1","0.2315068675","","","76","0.4038916894","","main_expt","0.6","","0.4","0.230570622","0.3299880354","0.2","0.2315068675","0.8","","","","","","","",""
"564","","bandit","155","544876","0.0-116.0-0.0","29096264","wem/bandit_either","A1OZPLHNIU1519","either","3","","","","","","","72","H","0","img/none_selected.jpg","1","0","0","0.4028298088","","","77","0.4028298088","","main_expt","0.6","","0.4","0.1747897532","0.2704336052","0.2","0.1749603823","0.8","","","","","","","",""
"616","","bandit","156","547106","0.0-117.0-0.0","29096264","wem/bandit_either","A1OZPLHNIU1519","either","3","","","","","","","72","H","0","img/none_selected.jpg","1","0","0","0.4004321452","","","78","0.4004321452","","main_expt","0.6","","0.4","0.2009150394","0.2489008917","0.2","0.2091975686","0.8","","","","","","","",""
"739","","bandit","157","549416","0.0-118.0-0.0","29096264","wem/bandit_either","A1OZPLHNIU1519","either","3","","","","","","","72","H","0","img/none_selected.jpg","0","0","1","0.3909827091","","","79","0.3909827091","","main_expt","0.6","","0.4","0.2090883318","0.2182462247","0.2","0.2699334682","0.8","","","","","","","",""
"455","","bandit","158","551429","0.0-119.0-0.0","29096264","wem/bandit_either","A1OZPLHNIU1519","either","3","","","","","","","76","L","3","","0","0","1","0.2712134299","","","80","0.4289339141","","main_expt","0.6","","0.4","0.215522018","0.1591694045","0.2","0.2712134299","0.8","","","","","","","",""
"743","","bandit","159","553770","0.0-120.0-0.0","29096264","wem/bandit_either","A1OZPLHNIU1519","either","3","","","","","","","72","H","0","img/none_selected.jpg","0","0","1","0.4256341571","","","81","0.4256341571","","main_expt","0.6","","0.4","0.2655955182","0.1661146317","0.2","0.2563236188","0.8","","","","","","","",""
"451","","bandit","160","555797","0.0-121.0-0.0","29096264","wem/bandit_either","A1OZPLHNIU1519","either","3","","","","","","","75","K","2","","0","0","1","","0.2249160828","","82","","0.4153375647","main_expt","0.6","0.2642342948","0.4","","","0.2","","0.8","0.2249160828","0.2474856626","","","","","",""
"643","","bandit","161","558012","0.0-122.0-0.0","29096264","wem/bandit_either","A1OZPLHNIU1519","either","3","","","","","","","74","J","1","","0","0","1","0.2615040017","","","83","0.4239102097","","main_expt","0.6","","0.4","0.2615040017","0.2194800234","0.2","0.2338037125","0.8","","","","","","","",""
"672","","bandit","162","560261","0.0-123.0-0.0","29096264","wem/bandit_either","A1OZPLHNIU1519","either","3","","","","","","","72","H","0","img/none_selected.jpg","0","0","1","","0.4021041833","","84","","0.4021041833","main_expt","0.6","0.3136368113","0.4","","","0.2","","0.8","0.2020024956","0.2929655049","","","","","",""
"540","","bandit","163","562394","0.0-124.0-0.0","29096264","wem/bandit_either","A1OZPLHNIU1519","either","3","","","","","","","72","H","0","img/none_selected.jpg","0","0","1","0.4322374594","","","85","0.4322374594","","main_expt","0.6","","0.4","0.2433538552","0.1639230135","0.2","0.2755572306","0.8","","","","","","","",""
"470","","bandit","164","564425","0.0-125.0-0.0","29096264","wem/bandit_either","A1OZPLHNIU1519","either","3","","","","","","","76","L","3","","0","0","1","0.2706615249","","","86","0.4247618508","","main_expt","0.6","","0.4","0.2583740773","0.1423092638","0.2","0.2706615249","0.8","","","","","","","",""
"486","","bandit","165","566513","0.0-126.0-0.0","29096264","wem/bandit_either","A1OZPLHNIU1519","either","3","","","","","","","75","K","2","","0","0","1","0.1623313408","","","87","0.4130492334","","main_expt","0.6","","0.4","0.2656778135","0.1623313408","0.2","0.3259805539","0.8","","","","","","","",""
"427","","bandit","166","569310","0.0-127.0-0.0","29096264","wem/bandit_either","A1OZPLHNIU1519","either","3","","","","","","","75","K","2","","0","0","1","","0.1459946163","","88","","0.3883747858","main_expt","0.6","0.2565525481","0.4","","","0.2","","0.8","0.1459946163","0.3471137027","","","","","",""
"505","","bandit","167","571449","0.0-128.0-0.0","29096264","wem/bandit_either","A1OZPLHNIU1519","either","3","","","","","","","74","J","1","","0","0","1","0.2471999074","","","89","0.3950807547","","main_expt","0.6","","0.4","0.2471999074","0.1684807643","0.2","0.3715311126","0.8","","","","","","","",""
"463","","bandit","168","573527","0.0-129.0-0.0","29096264","wem/bandit_either","A1OZPLHNIU1519","either","3","","","","","","","74","J","1","","0","1","0","","0.2204199549","","90","","0.420982679","main_expt","0.6","0.2204199549","0.4","","","0.2","","0.8","0.1937692241","0.3571728809","","","","","",""
"461","","bandit","169","575562","0.0-130.0-0.0","29096264","wem/bandit_either","A1OZPLHNIU1519","either","3","","","","","","","74","J","1","","0","0","1","0.2013548925","","","91","0.4012606491","","main_expt","0.6","","0.4","0.2013548925","0.1670397906","0.2","0.3348642023","0.8","","","","","","","",""
"541","","bandit","170","577692","0.0-131.0-0.0","29096264","wem/bandit_either","A1OZPLHNIU1519","either","3","","","","","","","74","J","1","","0","0","1","","0.174921714","","92","","0.3950870333","main_expt","0.6","0.174921714","0.4","","","0.2","","0.8","0.1936095216","0.3551195155","","","","","",""
"426","","bandit","171","579683","0.0-132.0-0.0","29096264","wem/bandit_either","A1OZPLHNIU1519","either","3","","","","","","","74","J","1","","0","0","1","","0.1972058505","","93","","0.3797372222","main_expt","0.6","0.1972058505","0.4","","","0.2","","0.8","0.2399824117","0.3494458231","","","","","",""
"508","","bandit","172","581770","0.0-133.0-0.0","29096264","wem/bandit_either","A1OZPLHNIU1519","either","3","","","","","","","72","H","0","img/none_selected.jpg","0","0","1","","0.3346339076","","94","","0.3346339076","main_expt","0.6","0.2144007407","0.4","","","0.2","","0.8","0.242536602","0.3759818745","","","","","",""
"399","","bandit","173","583739","0.0-134.0-0.0","29096264","wem/bandit_either","A1OZPLHNIU1519","either","3","","","","","","","76","L","3","","0","1","0","","0.3467088588","","95","","0.3433005441","main_expt","0.6","0.2025691914","0.4","","","0.2","","0.8","0.3081296623","0.3467088588","","","","","",""
"586","","bandit","174","585872","0.0-135.0-0.0","29096264","wem/bandit_either","A1OZPLHNIU1519","either","3","","","","","","","76","L","3","","1","0","0","0.3520186383","","","96","0.2900415689","","main_expt","0.6","","0.4","0.1750118246","0.371766452","0.2","0.3520186383","0.8","","","","","","","",""
"682","","bandit","175","588121","0.0-136.0-0.0","29096264","wem/bandit_either","A1OZPLHNIU1519","either","3","","","","","","","76","L","3","","0","0","1","0.342216001","","","97","0.3136050561","","main_expt","0.6","","0.4","0.2433812568","0.3737721809","0.2","0.342216001","0.8","","","","","","","",""
"428","","bandit","176","590133","0.0-137.0-0.0","29096264","wem/bandit_either","A1OZPLHNIU1519","either","3","","","","","","","76","L","3","","0","0","1","0.3775958225","","","98","0.3236610102","","main_expt","0.6","","0.4","0.1834100281","0.3662625892","0.2","0.3775958225","0.8","","","","","","","",""
"674","","bandit","177","592393","0.0-138.0-0.0","29096264","wem/bandit_either","A1OZPLHNIU1519","either","3","","","","","","","74","J","1","","0","0","1","","0.146161558","","99","","0.3116662608","main_expt","0.6","0.146161558","0.4","","","0.2","","0.8","0.3912879072","0.3490624926","","","","","",""
"600","","bandit","178","594562","0.0-139.0-0.0","29096264","wem/bandit_either","A1OZPLHNIU1519","either","3","","","","","","","74","J","1","","0","0","1","","0.1186266926","","100","","0.3806420769","main_expt","0.6","0.1186266926","0.4","","","0.2","","0.8","0.3916888764","0.3418910903","","","","","",""
"554","","bandit","179","596683","0.0-140.0-0.0","29096264","wem/bandit_either","A1OZPLHNIU1519","either","3","","","","","","","72","H","0","img/none_selected.jpg","0","0","1","0.3825052475","","","101","0.3825052475","","main_expt","0.6","","0.4","0.1467879228","0.3803758031","0.2","0.3544055354","0.8","","","","","","","",""
"493","","bandit","180","598745","0.0-141.0-0.0","29096264","wem/bandit_either","A1OZPLHNIU1519","either","3","","","","","","","72","H","0","img/none_selected.jpg","0","0","1","0.3799327693","","","102","0.3799327693","","main_expt","0.6","","0.4","0.1336514036","0.3685266224","0.2","0.3580864163","0.8","","","","","","","",""
"559","","bandit","181","600895","0.0-142.0-0.0","29096264","wem/bandit_either","A1OZPLHNIU1519","either","3","","","","","","","76","L","3","","0","0","1","0.336528594","","","103","0.3502018886","","main_expt","0.6","","0.4","0.1325092095","0.3754978655","0.2","0.336528594","0.8","","","","","","","",""
"444","","bandit","182","602909","0.0-143.0-0.0","29096264","wem/bandit_either","A1OZPLHNIU1519","either","3","","","","","","","75","K","2","","1","0","0","0.4033056484","","","104","0.3443431466","","main_expt","0.6","","0.4","0.1162839287","0.4033056484","0.2","0.3190078166","0.8","","","","","","","",""
"672","","bandit","183","605171","0.0-144.0-0.0","29096264","wem/bandit_either","A1OZPLHNIU1519","either","3","","","","","","","75","K","2","","0","0","1","0.3617388181","","","105","0.3551378046","","main_expt","0.6","","0.4","0.115620258","0.3617388181","0.2","0.3100940773","0.8","","","","","","","",""
"709","","bandit","184","607448","0.0-145.0-0.0","29096264","wem/bandit_either","A1OZPLHNIU1519","either","3","","","","","","","75","K","2","","0","1","0","","0.3656875331","","106","","0.3177956882","main_expt","0.6","0.1102569517","0.4","","","0.2","","0.8","0.3656875331","0.2964842485","","","","","",""
"713","","bandit","185","609741","0.0-146.0-0.0","29096264","wem/bandit_either","A1OZPLHNIU1519","either","3","","","","","","","75","K","2","","0","0","1","","0.3478183852","","107","","0.3463124521","main_expt","0.6","0.110599846","0.4","","","0.2","","0.8","0.3478183852","0.3224579283","","","","","",""
"486","","bandit","186","611806","0.0-147.0-0.0","29096264","wem/bandit_either","A1OZPLHNIU1519","either","3","","","","","","","75","K","2","","0","0","1","","0.3715517583","","108","","0.330790185","main_expt","0.6","0.1647947233","0.4","","","0.2","","0.8","0.3715517583","0.3365568187","","","","","",""
"631","","bandit","187","614038","0.0-148.0-0.0","29096264","wem/bandit_either","A1OZPLHNIU1519","either","3","","","","","","","74","J","1","","1","0","0","0.146095753","","","109","0.3259779601","","main_expt","0.6","","0.4","0.146095753","0.3713851569","0.2","0.3200824859","0.8","","","","","","","",""
"1029","","bandit","188","616657","0.0-149.0-0.0","29096264","wem/bandit_either","A1OZPLHNIU1519","either","3","","","","","","","74","J","1","","0","0","1","","0.1691954855","","110","","0.3169053314","main_expt","0.6","0.1691954855","0.4","","","0.2","","0.8","0.3401672382","0.3179471713","","","","","",""
"636","","bandit","189","618887","0.0-150.0-0.0","29096264","wem/bandit_either","A1OZPLHNIU1519","either","3","","","","","","","74","J","1","","0","0","1","0.1690298198","","","111","0.342138516","","main_expt","0.6","","0.4","0.1690298198","0.3242328008","0.2","0.3168158386","0.8","","","","","","","",""
"522","","bandit","190","620989","0.0-151.0-0.0","29096264","wem/bandit_either","A1OZPLHNIU1519","either","3","","","","","","","74","J","1","","1","0","0","0.2196992501","","","112","0.3597886873","","main_expt","0.6","","0.4","0.2196992501","0.2991119965","0.2","0.3551606626","0.8","","","","","","","",""
"673","","bandit","191","623242","0.0-152.0-0.0","29096264","wem/bandit_either","A1OZPLHNIU1519","either","3","","","","","","","74","J","1","","0","1","0","","0.2723467559","","113","","0.3580549124","main_expt","0.6","0.2723467559","0.4","","","0.2","","0.8","0.3364281798","0.3615444015","","","","","",""
"653","","bandit","192","625465","0.0-153.0-0.0","29096264","wem/bandit_either","A1OZPLHNIU1519","either","3","","","","","","","74","J","1","","0","0","1","","0.2470985199","","114","","0.3556181037","main_expt","0.6","0.2470985199","0.4","","","0.2","","0.8","0.3495122724","0.4043222556","","","","","",""
"485","","bandit","193","627526","0.0-154.0-0.0","29096264","wem/bandit_either","A1OZPLHNIU1519","either","3","","","","","","","74","J","1","","0","0","1","0.2482590513","","","115","0.3489042174","","main_expt","0.6","","0.4","0.2482590513","0.324938203","0.2","0.4179696435","0.8","","","","","","","",""
"498","","bandit","194","629607","0.0-155.0-0.0","29096264","wem/bandit_either","A1OZPLHNIU1519","either","3","","","","","","","76","L","3","","1","0","0","0.4324393975","","","116","0.3466245191","","main_expt","0.6","","0.4","0.1992012358","0.3227512736","0.2","0.4324393975","0.8","","","","","","","",""
"780","","bandit","195","632011","0.0-156.0-0.0","29096264","wem/bandit_either","A1OZPLHNIU1519","either","3","","","","","","","76","L","3","","0","0","1","0.4290779421","","","117","0.3581754781","","main_expt","0.6","","0.4","0.216355905","0.2585209305","0.2","0.4290779421","0.8","","","","","","","",""
"653","","bandit","196","634250","0.0-157.0-0.0","29096264","wem/bandit_either","A1OZPLHNIU1519","either","3","","","","","","","76","L","3","","1","0","0","0.4459264202","","","118","0.283939031","","main_expt","0.6","","0.4","0.1715453935","0.2817260076","0.2","0.4459264202","0.8","","","","","","","",""
"662","","bandit","197","636606","0.0-158.0-0.0","29096264","wem/bandit_either","A1OZPLHNIU1519","either","3","","","","","","","76","L","3","","0","1","0","","0.436995295","","119","","0.2992634423","main_expt","0.6","0.1843456939","0.4","","","0.2","","0.8","0.328214026","0.436995295","","","","","",""
"570","","bandit","198","638806","0.0-159.0-0.0","29096264","wem/bandit_either","A1OZPLHNIU1519","either","3","","","","","","","76","L","3","","0","0","1","0.4151314625","","","120","0.1878150733","","main_expt","0.6","","0.4","0.1848061615","0.3355603121","0.2","0.4151314625","0.8","","","","","","","",""
"493","","bandit","199","640881","0.0-160.0-0.0","29096264","wem/bandit_either","A1OZPLHNIU1519","either","3","","","","","","","76","L","3","","0","0","1","0.4384064527","","","121","0.1447458933","","main_expt","0.6","","0.4","0.1679578636","0.3829587724","0.2","0.4384064527","0.8","","","","","","","",""
"647","","bandit","200","643111","0.0-161.0-0.0","29096264","wem/bandit_either","A1OZPLHNIU1519","either","3","","","","","","","72","H","0","img/none_selected.jpg","0","0","1","0.1176060398","","","122","0.1176060398","","main_expt","0.6","","0.4","0.197295971","0.3995678287","0.2","0.4417589501","0.8","","","","","","","",""
"452","","bandit","201","645147","0.0-162.0-0.0","29096264","wem/bandit_either","A1OZPLHNIU1519","either","3","","","","","","","72","H","0","img/none_selected.jpg","0","0","1","","0.1097677055","","123","","0.1097677055","main_expt","0.6","0.2184653352","0.4","","","0.2","","0.8","0.3656739583","0.4017154396","","","","","",""
"442","","bandit","202","647166","0.0-163.0-0.0","29096264","wem/bandit_either","A1OZPLHNIU1519","either","3","","","","","","","75","K","2","","0","0","1","","0.3862549257","","124","","0.08048168986","main_expt","0.6","0.2147868977","0.4","","","0.2","","0.8","0.3862549257","0.3619070526","","","","","",""
"369","","bandit","203","649115","0.0-164.0-0.0","29096264","wem/bandit_either","A1OZPLHNIU1519","either","3","","","","","","","75","K","2","","0","0","1","","0.3593796239","","125","","0.07842900555","main_expt","0.6","0.1667936559","0.4","","","0.2","","0.8","0.3593796239","0.3567490645","","","","","",""
"500","","bandit","204","651254","0.0-165.0-0.0","29096264","wem/bandit_either","A1OZPLHNIU1519","either","3","","","","","","","74","J","1","","0","0","1","","0.1453295256","","126","","0.08318363027","main_expt","0.6","0.1453295256","0.4","","","0.2","","0.8","0.3413194209","0.3558473019","","","","","",""
"418","","bandit","205","653296","0.0-166.0-0.0","29096264","wem/bandit_either","A1OZPLHNIU1519","either","3","","","","","","","76","L","3","","1","0","0","0.3543069734","","","127","0.06812438963","","main_expt","0.6","","0.4","0.1635755653","0.3369929262","0.2","0.3543069734","0.8","","","","","","","",""
"697","","bandit","206","655605","0.0-167.0-0.0","29096264","wem/bandit_either","A1OZPLHNIU1519","either","3","","","","","","","76","L","3","","0","0","1","","0.3328374851","","128","","0.08303766286","main_expt","0.6","0.1872639566","0.4","","","0.2","","0.8","0.2922989636","0.3328374851","","","","","",""
"605","","bandit","207","657774","0.0-168.0-0.0","29096264","wem/bandit_either","A1OZPLHNIU1519","either","3","","","","","","","76","L","3","","1","0","0","0.3238683282","","","129","0.09047360051","","main_expt","0.6","","0.4","0.2032718864","0.3095146075","0.2","0.3238683282","0.8","","","","","","","",""
"599","","bandit","208","660635","0.0-169.0-0.0","29096264","wem/bandit_either","A1OZPLHNIU1519","either","3","","","","","","","76","L","3","","0","0","1","0.2750329062","","","130","0.131542256","","main_expt","0.6","","0.4","0.2025864764","0.3068425872","0.2","0.2750329062","0.8","","","","","","","",""
"616","","bandit","209","662851","0.0-170.0-0.0","29096264","wem/bandit_either","A1OZPLHNIU1519","either","3","","","","","","","76","L","3","","0","0","1","0.2751886228","","","131","0.1492019489","","main_expt","0.6","","0.4","0.2158584071","0.3112504131","0.2","0.2751886228","0.8","","","","","","","",""
"473","","bandit","210","664903","0.0-171.0-0.0","29096264","wem/bandit_either","A1OZPLHNIU1519","either","3","","","","","","","76","L","3","","0","1","0","","0.2729729886","","132","","0.1571188116","main_expt","0.6","0.2105840197","0.4","","","0.2","","0.8","0.3595653039","0.2729729886","","","","","",""
"612","","bandit","211","667102","0.0-172.0-0.0","29096264","wem/bandit_either","A1OZPLHNIU1519","either","3","","","","","","","76","L","3","","0","0","1","0.3248088544","","","133","0.2021073832","","main_expt","0.6","","0.4","0.2328486735","0.3873527377","0.2","0.3248088544","0.8","","","","","","","",""
"561","","bandit","212","669248","0.0-173.0-0.0","29096264","wem/bandit_either","A1OZPLHNIU1519","either","3","","","","","","","76","L","3","","0","0","1","0.3596446835","","","134","0.2693148074","","main_expt","0.6","","0.4","0.2589092944","0.3973884711","0.2","0.3596446835","0.8","","","","","","","",""
"487","","bandit","213","671315","0.0-174.0-0.0","29096264","wem/bandit_either","A1OZPLHNIU1519","either","3","","","","","","","76","L","3","","1","0","0","0.318377279","","","135","0.2625780805","","main_expt","0.6","","0.4","0.2637326353","0.4080523157","0.2","0.318377279","0.8","","","","","","","",""
"744","","bandit","214","673639","0.0-175.0-0.0","29096264","wem/bandit_either","A1OZPLHNIU1519","either","3","","","","","","","76","L","3","","0","0","1","0.3160887017","","","136","0.2981707722","","main_expt","0.6","","0.4","0.2718680576","0.4176503084","0.2","0.3160887017","0.8","","","","","","","",""
"448","","bandit","215","675667","0.0-176.0-0.0","29096264","wem/bandit_either","A1OZPLHNIU1519","either","3","","","","","","","76","L","3","","0","0","1","0.2883225013","","","137","0.3148158286","","main_expt","0.6","","0.4","0.2919957672","0.3859803947","0.2","0.2883225013","0.8","","","","","","","",""
"612","","bandit","216","677882","0.0-177.0-0.0","29096264","wem/bandit_either","A1OZPLHNIU1519","either","3","","","","","","","72","H","0","img/none_selected.jpg","0","0","1","","0.3111523267","","138","","0.3111523267","main_expt","0.6","0.3193993407","0.4","","","0.2","","0.8","0.358492916","0.3009152141","","","","","",""
"406","","bandit","217","679848","0.0-178.0-0.0","29096264","wem/bandit_either","A1OZPLHNIU1519","either","3","","","","","","","72","H","0","img/none_selected.jpg","1","0","0","0.3034593298","","","139","0.3034593298","","main_expt","0.6","","0.4","0.3404434035","0.3608756281","0.2","0.293720077","0.8","","","","","","","",""
"651","","bandit","218","682080","0.0-179.0-0.0","29096264","wem/bandit_either","A1OZPLHNIU1519","either","3","","","","","","","72","H","0","img/none_selected.jpg","0","0","1","","0.2507495005","","140","","0.2507495005","main_expt","0.6","0.3278052243","0.4","","","0.2","","0.8","0.3421836092","0.286059761","","","","","",""
"480","","bandit","219","684153","0.0-180.0-0.0","29096264","wem/bandit_either","A1OZPLHNIU1519","either","3","","","","","","","74","J","1","","0","1","0","","0.3038906839","","141","","0.2220694513","main_expt","0.6","0.3038906839","0.4","","","0.2","","0.8","0.3737340371","0.2931724706","","","","","",""
"574","","bandit","220","686290","0.0-181.0-0.0","29096264","wem/bandit_either","A1OZPLHNIU1519","either","3","","","","","","","74","J","1","","0","0","1","0.2924195757","","","142","0.2119249064","","main_expt","0.6","","0.4","0.2924195757","0.3461121542","0.2","0.2182180164","0.8","","","","","","","",""
"472","","bandit","221","688320","0.0-182.0-0.0","29096264","wem/bandit_either","A1OZPLHNIU1519","either","3","","","","","","","74","J","1","","0","0","1","","0.2816149275","","143","","0.2665135591","main_expt","0.6","0.2816149275","0.4","","","0.2","","0.8","0.3305931074","0.2015475508","","","","","",""
"379","","bandit","222","690269","0.0-183.0-0.0","29096264","wem/bandit_either","A1OZPLHNIU1519","either","3","","","","","","","74","J","1","","0","0","1","","0.2355525614","","144","","0.2854155153","main_expt","0.6","0.2355525614","0.4","","","0.2","","0.8","0.3561039987","0.2074070562","","","","","",""
"504","","bandit","223","692343","0.0-184.0-0.0","29096264","wem/bandit_either","A1OZPLHNIU1519","either","3","","","","","","","75","K","2","","1","0","0","0.3648023512","","","145","0.2521048148","","main_expt","0.6","","0.4","0.2185662272","0.3648023512","0.2","0.1415368311","0.8","","","","","","","",""
"580","","bandit","224","694497","0.0-185.0-0.0","29096264","wem/bandit_either","A1OZPLHNIU1519","either","3","","","","","","","75","K","2","","0","0","1","0.3450315","","","146","0.2321266643","","main_expt","0.6","","0.4","0.2209315791","0.3450315","0.2","0.1549520657","0.8","","","","","","","",""
"527","","bandit","225","696617","0.0-186.0-0.0","29096264","wem/bandit_either","A1OZPLHNIU1519","either","3","","","","","","","75","K","2","","0","1","0","","0.2720321141","","147","","0.3159383216","main_expt","0.6","0.2889766311","0.4","","","0.2","","0.8","0.2720321141","0.1469310363","","","","","",""
"482","","bandit","226","698678","0.0-187.0-0.0","29096264","wem/bandit_either","A1OZPLHNIU1519","either","3","","","","","","","75","K","2","","0","0","1","","0.2598972664","","148","","0.2673485129","main_expt","0.6","0.2859466156","0.4","","","0.2","","0.8","0.2598972664","0.1332828417","","","","","",""
"419","","bandit","227","700673","0.0-188.0-0.0","29096264","wem/bandit_either","A1OZPLHNIU1519","either","3","","","","","","","75","K","2","","0","0","1","","0.2343157719","","149","","0.3348600541","main_expt","0.6","0.2588478233","0.4","","","0.2","","0.8","0.2343157719","0.1102010463","","","","","",""
"417","","bandit","228","702671","0.0-189.0-0.0","29096264","wem/bandit_either","A1OZPLHNIU1519","either","3","","","","","","","72","H","0","img/none_selected.jpg","1","0","0","0.3659656834","","","150","0.3659656834","","main_expt","0.6","","0.4","0.2224653457","0.2451363599","0.2","0.1356103494","0.8","","","","","","","",""
"567","","bandit","229","704808","0.0-190.0-0.0","29096264","wem/bandit_either","A1OZPLHNIU1519","either","3","","","","","","","72","H","0","img/none_selected.jpg","0","0","1","0.36397653","","","151","0.36397653","","main_expt","0.6","","0.4","0.2387237716","0.2053737132","0.2","0.1621229287","0.8","","","","","","","",""
"480","","bandit","230","706867","0.0-191.0-0.0","29096264","wem/bandit_either","A1OZPLHNIU1519","either","3","","","","","","","72","H","0","img/none_selected.jpg","0","0","1","0.3710672623","","","152","0.3710672623","","main_expt","0.6","","0.4","0.2519133504","0.2396242378","0.2","0.1412745606","0.8","","","","","","","",""
"406","","bandit","231","708833","0.0-192.0-0.0","29096264","wem/bandit_either","A1OZPLHNIU1519","either","3","","","","","","","76","L","3","","1","0","0","0.1707580034","","","153","0.3828607765","","main_expt","0.6","","0.4","0.3078499427","0.2923277395","0.2","0.1707580034","0.8","","","","","","","",""
"599","","bandit","232","711018","0.0-193.0-0.0","29096264","wem/bandit_either","A1OZPLHNIU1519","either","3","","","","","","","76","L","3","","0","0","1","0.1717455462","","","154","0.3526468527","","main_expt","0.6","","0.4","0.3283820497","0.3166515581","0.2","0.1717455462","0.8","","","","","","","",""
"490","","bandit","233","713075","0.0-194.0-0.0","29096264","wem/bandit_either","A1OZPLHNIU1519","either","3","","","","","","","76","L","3","","0","0","1","","0.1785539081","","155","","0.3865981945","main_expt","0.6","0.3303057687","0.4","","","0.2","","0.8","0.3194616596","0.1785539081","","","","","",""
"397","","bandit","234","715043","0.0-195.0-0.0","29096264","wem/bandit_either","A1OZPLHNIU1519","either","3","","","","","","","74","J","1","","0","0","1","","0.3178912443","","156","","0.4328422877","main_expt","0.6","0.3178912443","0.4","","","0.2","","0.8","0.3767011333","0.2175815231","","","","","",""
"508","","bandit","235","717131","0.0-196.0-0.0","29096264","wem/bandit_either","A1OZPLHNIU1519","either","3","","","","","","","75","K","2","","0","0","1","","0.3853144204","","157","","0.4224906378","main_expt","0.6","0.3236874272","0.4","","","0.2","","0.8","0.3853144204","0.216674397","","","","","",""
"400","","bandit","236","719100","0.0-197.0-0.0","29096264","wem/bandit_either","A1OZPLHNIU1519","either","3","","","","","","","72","H","0","img/none_selected.jpg","0","0","1","0.4428847078","","","158","0.4428847078","","main_expt","0.6","","0.4","0.3731337511","0.3519128793","0.2","0.2184316938","0.8","","","","","","","",""
"579","","bandit","237","721272","0.0-198.0-0.0","29096264","wem/bandit_either","A1OZPLHNIU1519","either","3","","","","","","","76","L","3","","0","0","1","0.2603966468","","","159","0.4498083842","","main_expt","0.6","","0.4","0.3758107074","0.3255157266","0.2","0.2603966468","0.8","","","","","","","",""
"479","","bandit","238","723362","0.0-199.0-0.0","29096264","wem/bandit_either","A1OZPLHNIU1519","either","3","","","","","","","72","H","0","img/none_selected.jpg","0","0","1","","0.4319550234","","160","","0.4319550234","main_expt","0.6","0.3494215766","0.4","","","0.2","","0.8","0.379238532","0.2242017374","","","","","",""
"442","","bandit","239","725415","0.0-200.0-0.0","29096264","wem/bandit_either","A1OZPLHNIU1519","either","3","","","","","","","72","H","0","img/none_selected.jpg","1","0","0","0.4417514389","","","161","0.4417514389","","main_expt","0.6","","0.4","0.3327111917","0.3776335756","0.2","0.2014027125","0.8","","","","","","","",""
"474","","bandit","240","727527","0.0-201.0-0.0","29096264","wem/bandit_either","A1OZPLHNIU1519","either","3","","","","","","","72","H","0","img/none_selected.jpg","0","1","0","","0.4081293495","","162","","0.4081293495","main_expt","0.6","0.3171011618","0.4","","","0.2","","0.8","0.2955751891","0.2038621466","","","","","",""
"456","","bandit","241","729622","0.0-202.0-0.0","29096264","wem/bandit_either","A1OZPLHNIU1519","either","3","","","","","","","72","H","0","img/none_selected.jpg","0","0","1","","0.4265776113","","163","","0.4265776113","main_expt","0.6","0.364183239","0.4","","","0.2","","0.8","0.30851492","0.1238136799","","","","","",""
"518","","bandit","242","731719","0.0-203.0-0.0","29096264","wem/bandit_either","A1OZPLHNIU1519","either","3","","","","","","","72","H","0","img/none_selected.jpg","0","0","1","0.427472809","","","164","0.427472809","","main_expt","0.6","","0.4","0.3917374524","0.3074756362","0.2","0.1104941302","0.8","","","","","","","",""
"523","","bandit","243","733865","0.0-204.0-0.0","29096264","wem/bandit_either","A1OZPLHNIU1519","either","3","","","","","","","72","H","0","img/none_selected.jpg","0","0","1","0.4016343469","","","165","0.4016343469","","main_expt","0.6","","0.4","0.3629360172","0.2743039079","0.2","0.1099358877","0.8","","","","","","","",""
"435","","bandit","244","735910","0.0-205.0-0.0","29096264","wem/bandit_either","A1OZPLHNIU1519","either","3","","","","","","","72","H","0","img/none_selected.jpg","0","0","1","","0.3578169927","","166","","0.3578169927","main_expt","0.6","0.3697042915","0.4","","","0.2","","0.8","0.2900226329","0.08082918558","","","","","",""
"363","","bandit","245","737880","0.0-206.0-0.0","29096264","wem/bandit_either","A1OZPLHNIU1519","either","3","","","","","","","74","J","1","","0","1","0","","0.3626443337","","167","","0.3346076013","main_expt","0.6","0.3626443337","0.4","","","0.2","","0.8","0.3444017494","0.08539074978","","","","","",""
"619","","bandit","246","740080","0.0-207.0-0.0","29096264","wem/bandit_either","A1OZPLHNIU1519","either","3","","","","","","","74","J","1","","0","1","0","","0.3488380128","","168","","0.36326211","main_expt","0.6","0.3488380128","0.4","","","0.2","","0.8","0.3934904689","0.1307687804","","","","","",""
"603","","bandit","247","742265","0.0-208.0-0.0","29096264","wem/bandit_either","A1OZPLHNIU1519","either","3","","","","","","","74","J","1","","0","0","1","","0.3338465455","","169","","0.3389060657","main_expt","0.6","0.3338465455","0.4","","","0.2","","0.8","0.3712778229","0.09435724838","","","","","",""
"534","","bandit","248","744402","0.0-209.0-0.0","29096264","wem/bandit_either","A1OZPLHNIU1519","either","3","","","","","","","74","J","1","","1","0","0","0.3675902536","","","170","0.3820287301","","main_expt","0.6","","0.4","0.3675902536","0.3348119161","0.2","0.09371103674","0.8","","","","","","","",""
"839","","bandit","249","746819","0.0-210.0-0.0","29096264","wem/bandit_either","A1OZPLHNIU1519","either","3","","","","","","","74","J","1","","1","0","0","0.3663425941","","","171","0.3738350687","","main_expt","0.6","","0.4","0.3663425941","0.3697689907","0.2","0.0912992704","0.8","","","","","","","",""
"652","","bandit","250","749080","0.0-211.0-0.0","29096264","wem/bandit_either","A1OZPLHNIU1519","either","3","","","","","","","74","J","1","","1","0","0","0.3571019768","","","172","0.3449486646","","main_expt","0.6","","0.4","0.3571019768","0.3438364448","0.2","0.1053216192","0.8","","","","","","","",""
"572","","bandit","251","752082","0.0-212.0-0.0","29096264","wem/bandit_either","A1OZPLHNIU1519","either","3","","","","","","","74","J","1","","0","0","1","","0.383943734","","173","","0.3754463001","main_expt","0.6","0.383943734","0.4","","","0.2","","0.8","0.4064517123","0.1119971747","","","","","",""
"630","","bandit","252","754330","0.0-213.0-0.0","29096264","wem/bandit_either","A1OZPLHNIU1519","either","3","","","","","","","74","J","1","","1","0","0","0.378453819","","","174","0.3983783957","","main_expt","0.6","","0.4","0.378453819","0.4266345201","0.2","0.1049574405","0.8","","","","","","","",""
"891","","bandit","253","756820","0.0-214.0-0.0","29096264","wem/bandit_either","A1OZPLHNIU1519","either","3","","","","","","","74","J","1","","1","0","0","0.3577460836","","","175","0.4176958341","","main_expt","0.6","","0.4","0.3577460836","0.4413212306","0.2","0.07351671593","0.8","","","","","","","",""
"618","","bandit","254","759034","0.0-215.0-0.0","29096264","wem/bandit_either","A1OZPLHNIU1519","either","3","","","","","","","74","J","1","","0","0","1","0.3346789668","","","176","0.4336280271","","main_expt","0.6","","0.4","0.3346789668","0.438548454","0.2","0.06097876817","0.8","","","","","","","",""
"474","","bandit","255","761093","0.0-216.0-0.0","29096264","wem/bandit_either","A1OZPLHNIU1519","either","3","","","","","","","74","J","1","","0","1","0","","0.3720341948","","177","","0.3863917124","main_expt","0.6","0.3720341948","0.4","","","0.2","","0.8","0.4350726265","0.05873143133","","","","","",""
"533","","bandit","256","763217","0.0-217.0-0.0","29096264","wem/bandit_either","A1OZPLHNIU1519","either","3","","","","","","","74","J","1","","0","0","1","","0.4243236705","","178","","0.3826512014","main_expt","0.6","0.4243236705","0.4","","","0.2","","0.8","0.4029859975","0.07829718294","","","","","",""
"399","","bandit","257","765197","0.0-218.0-0.0","29096264","wem/bandit_either","A1OZPLHNIU1519","either","3","","","","","","","74","J","1","","1","0","0","0.4396564102","","","179","0.3681046487","","main_expt","0.6","","0.4","0.4396564102","0.3738585124","0.2","0.05868413977","0.8","","","","","","","",""
"517","","bandit","258","767302","0.0-219.0-0.0","29096264","wem/bandit_either","A1OZPLHNIU1519","either","3","","","","","","","74","J","1","","0","0","1","","0.4501825932","","180","","0.374340785","main_expt","0.6","0.4501825932","0.4","","","0.2","","0.8","0.3884150149","0.04540529238","","","","","",""
"390","","bandit","259","769283","0.0-220.0-0.0","29096264","wem/bandit_either","A1OZPLHNIU1519","either","3","","","","","","","74","J","1","","0","1","0","","0.4527537228","","181","","0.3844034803","main_expt","0.6","0.4527537228","0.4","","","0.2","","0.8","0.3977335033","0.04810206047","","","","","",""
"557","","bandit","260","771405","0.0-221.0-0.0","29096264","wem/bandit_either","A1OZPLHNIU1519","either","3","","","","","","","74","J","1","","0","0","1","","0.4733821952","","182","","0.3569363444","main_expt","0.6","0.4733821952","0.4","","","0.2","","0.8","0.4194204302","0.0564969073","","","","","",""
"401","","bandit","261","773387","0.0-222.0-0.0","29096264","wem/bandit_either","A1OZPLHNIU1519","either","3","","","","","","","74","J","1","","0","0","1","0.4741352064","","","183","0.3930074682","","main_expt","0.6","","0.4","0.4741352064","0.4050300101","0.2","0.06674959941","0.8","","","","","","","",""
"436","","bandit","262","775429","0.0-223.0-0.0","29096264","wem/bandit_either","A1OZPLHNIU1519","either","3","","","","","","","74","J","1","","1","0","0","0.4835015011","","","184","0.4105724965","","main_expt","0.6","","0.4","0.4835015011","0.4272992256","0.2","0.05730522946","0.8","","","","","","","",""
"539","","bandit","263","777552","0.0-224.0-0.0","29096264","wem/bandit_either","A1OZPLHNIU1519","either","3","","","","","","","75","K","2","","0","1","0","","0.4213026748","","185","","0.4230276401","main_expt","0.6","0.4907566516","0.4","","","0.2","","0.8","0.4213026748","0.0759668512","","","","","",""
"580","","bandit","264","779722","0.0-225.0-0.0","29096264","wem/bandit_either","A1OZPLHNIU1519","either","3","","","","","","","75","K","2","","0","0","1","","0.3729626057","","186","","0.4243078066","main_expt","0.6","0.4777100538","0.4","","","0.2","","0.8","0.3729626057","0.0736669194","","","","","",""
"467","","bandit","265","781748","0.0-226.0-0.0","29096264","wem/bandit_either","A1OZPLHNIU1519","either","3","","","","","","","74","J","1","","0","0","1","0.4751658893","","","187","0.419104652","","main_expt","0.6","","0.4","0.4751658893","0.4022080601","0.2","0.1020870739","0.8","","","","","","","",""
"424","","bandit","266","783772","0.0-227.0-0.0","29096264","wem/bandit_either","A1OZPLHNIU1519","either","3","","","","","","","74","J","1","","0","0","1","","0.4711403756","","188","","0.3917910895","main_expt","0.6","0.4711403756","0.4","","","0.2","","0.8","0.4218987807","0.110066606","","","","","",""
"395","","bandit","267","785757","0.0-228.0-0.0","29096264","wem/bandit_either","A1OZPLHNIU1519","either","3","","","","","","","75","K","2","","0","0","1","","0.4284519853","","189","","0.3696037293","main_expt","0.6","0.4848283219","0.4","","","0.2","","0.8","0.4284519853","0.1616324423","","","","","",""
"443","","bandit","268","787800","0.0-229.0-0.0","29096264","wem/bandit_either","A1OZPLHNIU1519","either","3","","","","","","","75","K","2","","0","0","1","","0.4104863902","","190","","0.3722688899","main_expt","0.6","0.4906713727","0.4","","","0.2","","0.8","0.4104863902","0.1401199573","","","","","",""
"404","","bandit","269","789782","0.0-230.0-0.0","29096264","wem/bandit_either","A1OZPLHNIU1519","either","3","","","","","","","72","H","0","img/none_selected.jpg","0","0","1","0.3956575009","","","191","0.3956575009","","main_expt","0.6","","0.4","0.4944082075","0.4071825693","0.2","0.1782786715","0.8","","","","","","","",""
"361","","bandit","270","791732","0.0-231.0-0.0","29096264","wem/bandit_either","A1OZPLHNIU1519","either","3","","","","","","","76","L","3","","0","0","1","0.203517815","","","192","0.3843500594","","main_expt","0.6","","0.4","0.4922337742","0.4172763132","0.2","0.203517815","0.8","","","","","","","",""
"416","","bandit","271","793729","0.0-232.0-0.0","29096264","wem/bandit_either","A1OZPLHNIU1519","either","3","","","","","","","76","L","3","","0","0","1","0.172030281","","","193","0.3801723293","","main_expt","0.6","","0.4","0.4887356563","0.3965334946","0.2","0.172030281","0.8","","","","","","","",""
"413","","bandit","272","795711","0.0-233.0-0.0","29096264","wem/bandit_either","A1OZPLHNIU1519","either","3","","","","","","","72","H","0","img/none_selected.jpg","0","0","1","0.3871645121","","","194","0.3871645121","","main_expt","0.6","","0.4","0.4850955297","0.383316574","0.2","0.1813301739","0.8","","","","","","","",""
"351","","bandit","273","797646","0.0-234.0-0.0","29096264","wem/bandit_either","A1OZPLHNIU1519","either","3","","","","","","","72","H","0","img/none_selected.jpg","1","0","0","0.3633903175","","","195","0.3633903175","","main_expt","0.6","","0.4","0.4848341758","0.3965345796","0.2","0.2284295163","0.8","","","","","","","",""
"517","","bandit","274","799751","0.0-235.0-0.0","29096264","wem/bandit_either","A1OZPLHNIU1519","either","3","","","","","","","72","H","0","img/none_selected.jpg","1","0","0","0.3811675741","","","196","0.3811675741","","main_expt","0.6","","0.4","0.490049139","0.3978469093","0.2","0.2501246714","0.8","","","","","","","",""
"608","","bandit","275","801950","0.0-236.0-0.0","29096264","wem/bandit_either","A1OZPLHNIU1519","either","3","","","","","","","72","H","0","img/none_selected.jpg","0","0","1","","0.3487868089","","197","","0.3487868089","main_expt","0.6","0.4912643012","0.4","","","0.2","","0.8","0.3172926233","0.3150809007","","","","","",""
"480","","bandit","276","804009","0.0-237.0-0.0","29096264","wem/bandit_either","A1OZPLHNIU1519","either","3","","","","","","","72","H","0","img/none_selected.jpg","0","0","1","0.2986771554","","","198","0.2986771554","","main_expt","0.6","","0.4","0.4793615714","0.3113170709","0.2","0.3442077965","0.8","","","","","","","",""
"441","","bandit","277","806039","0.0-238.0-0.0","29096264","wem/bandit_either","A1OZPLHNIU1519","either","3","","","","","","","74","J","1","","0","1","0","","0.4661622676","","199","","0.3481418533","main_expt","0.6","0.4661622676","0.4","","","0.2","","0.8","0.3066116159","0.3675051223","","","","","",""
"641","","bandit","278","808268","0.0-239.0-0.0","29096264","wem/bandit_either","A1OZPLHNIU1519","either","3","","","","","","","74","J","1","","0","0","1","","0.4479238565","","200","","0.353319573","main_expt","0.6","0.4479238565","0.4","","","0.2","","0.8","0.2521122026","0.3044821291","","","","","",""
"508","","bandit","279","810343","0.0-240.0-0.0","29096264","wem/bandit_either","A1OZPLHNIU1519","either","3","","","","","","","74","J","1","","0","0","1","0.4429166455","","","201","0.3676338631","","main_expt","0.6","","0.4","0.4429166455","0.2679963248","0.2","0.3013824411","0.8","","","","","","","",""
"487","","bandit","280","812422","0.0-241.0-0.0","29096264","wem/bandit_either","A1OZPLHNIU1519","either","3","","","","","","","75","K","2","","0","0","1","","0.2076546236","","202","","0.311657493","main_expt","0.6","0.442820363","0.4","","","0.2","","0.8","0.2076546236","0.3001954661","","","","","",""
"387","","bandit","281","814438","0.0-242.0-0.0","29096264","wem/bandit_either","A1OZPLHNIU1519","either","3","","","","","","","75","K","2","","0","0","1","","0.1881707852","","203","","0.3364041998","main_expt","0.6","0.4539008368","0.4","","","0.2","","0.8","0.1881707852","0.3189156814","","","","","",""
"378","","bandit","282","816443","0.0-243.0-0.0","29096264","wem/bandit_either","A1OZPLHNIU1519","either","3","","","","","","","74","J","1","","0","0","1","","0.4163307037","","204","","0.3148670147","main_expt","0.6","0.4163307037","0.4","","","0.2","","0.8","0.2057853427","0.3162062407","","","","","",""
"369","","bandit","283","818414","0.0-244.0-0.0","29096264","wem/bandit_either","A1OZPLHNIU1519","either","3","","","","","","","74","J","1","","0","1","0","","0.4045388199","","205","","0.3293187519","main_expt","0.6","0.4045388199","0.4","","","0.2","","0.8","0.2564451259","0.347278619","","","","","",""
"721","","bandit","284","820718","0.0-245.0-0.0","29096264","wem/bandit_either","A1OZPLHNIU1519","either","3","","","","","","","74","J","1","","0","1","0","","0.4083422121","","206","","0.2705077244","main_expt","0.6","0.4083422121","0.4","","","0.2","","0.8","0.3082896296","0.2970129147","","","","","",""
"635","","bandit","285","822960","0.0-246.0-0.0","29096264","wem/bandit_either","A1OZPLHNIU1519","either","3","","","","","","","74","J","1","","1","0","0","0.4033585138","","","207","0.3083591011","","main_expt","0.6","","0.4","0.4033585138","0.3235103938","0.2","0.3331481178","0.8","","","","","","","",""
"623","","bandit","286","825198","0.0-247.0-0.0","29096264","wem/bandit_either","A1OZPLHNIU1519","either","3","","","","","","","74","J","1","","0","1","0","","0.3753320851","","208","","0.2489273718","main_expt","0.6","0.3753320851","0.4","","","0.2","","0.8","0.3563539536","0.3195917859","","","","","",""
"531","","bandit","287","827370","0.0-248.0-0.0","29096264","wem/bandit_either","A1OZPLHNIU1519","either","3","","","","","","","74","J","1","","0","0","1","0.3864970555","","","209","0.2224321457","","main_expt","0.6","","0.4","0.3864970555","0.3821305916","0.2","0.3642345195","0.8","","","","","","","",""
"428","","bandit","288","829376","0.0-249.0-0.0","29096264","wem/bandit_either","A1OZPLHNIU1519","either","3","","","","","","","74","J","1","","1","0","0","0.3894881908","","","210","0.2184729634","","main_expt","0.6","","0.4","0.3894881908","0.4067483812","0.2","0.3518797164","0.8","","","","","","","",""
"711","","bandit","289","831700","0.0-250.0-0.0","29096264","wem/bandit_either","A1OZPLHNIU1519","either","3","","","","","","","74","J","1","","0","0","1","0.4052823736","","","211","0.2178464352","","main_expt","0.6","","0.4","0.4052823736","0.376825818","0.2","0.3781537602","0.8","","","","","","","",""
"470","","bandit","290","833744","0.0-251.0-0.0","29096264","wem/bandit_either","A1OZPLHNIU1519","either","3","","","","","","","74","J","1","","1","0","0","0.3783189977","","","212","0.1644702768","","main_expt","0.6","","0.4","0.3783189977","0.3481764155","0.2","0.3773353051","0.8","","","","","","","",""
"523","","bandit","291","835881","0.0-252.0-0.0","29096264","wem/bandit_either","A1OZPLHNIU1519","either","3","","","","","","","74","J","1","","0","0","1","","0.3804187243","","213","","0.1271660564","main_expt","0.6","0.3804187243","0.4","","","0.2","","0.8","0.3239198888","0.3448860985","","","","","",""
"441","","bandit","292","837909","0.0-253.0-0.0","29096264","wem/bandit_either","A1OZPLHNIU1519","either","3","","","","","","","74","J","1","","1","0","0","0.3964056757","","","214","0.1368129038","","main_expt","0.6","","0.4","0.3964056757","0.3592643085","0.2","0.3622000499","0.8","","","","","","","",""
"566","","bandit","293","840062","0.0-254.0-0.0","29096264","wem/bandit_either","A1OZPLHNIU1519","either","3","","","","","","","74","J","1","","0","0","1","","0.3939862607","","215","","0.07615368859","main_expt","0.6","0.3939862607","0.4","","","0.2","","0.8","0.3482739819","0.3408682726","","","","","",""
"409","","bandit","294","842849","0.0-255.0-0.0","29096264","wem/bandit_either","A1OZPLHNIU1519","either","3","","","","","","","76","L","3","","1","0","0","0.328819006","","","216","0.07711559412","","main_expt","0.6","","0.4","0.4062496234","0.2972527025","0.2","0.328819006","0.8","","","","","","","",""
"879","","bandit","295","845341","0.0-256.0-0.0","29096264","wem/bandit_either","A1OZPLHNIU1519","either","3","","","","","","","76","L","3","","0","0","1","0.3229374792","","","217","0.07728173513","","main_expt","0.6","","0.4","0.3440498305","0.2850944341","0.2","0.3229374792","0.8","","","","","","","",""
"613","","bandit","296","847581","0.0-257.0-0.0","29096264","wem/bandit_either","A1OZPLHNIU1519","either","3","","","","","","","76","L","3","","1","0","0","0.3616220652","","","218","0.07919919155","","main_expt","0.6","","0.4","0.3198020565","0.2483413171","0.2","0.3616220652","0.8","","","","","","","",""
"771","","bandit","297","849941","0.0-258.0-0.0","29096264","wem/bandit_either","A1OZPLHNIU1519","either","3","","","","","","","76","L","3","","0","0","1","0.3591176528","","","219","0.1270410367","","main_expt","0.6","","0.4","0.3078290176","0.2680513607","0.2","0.3591176528","0.8","","","","","","","",""
"479","","bandit","298","852049","0.0-259.0-0.0","29096264","wem/bandit_either","A1OZPLHNIU1519","either","3","","","","","","","76","L","3","","0","0","1","0.2758994579","","","220","0.1117499599","","main_expt","0.6","","0.4","0.2961895162","0.304668496","0.2","0.2758994579","0.8","","","","","","","",""
"501","","bandit","299","854180","0.0-260.0-0.0","29096264","wem/bandit_either","A1OZPLHNIU1519","either","3","","","","","","","72","H","0","img/none_selected.jpg","0","0","1","","0.1186324211","","221","","0.1186324211","main_expt","0.6","0.2658603678","0.4","","","0.2","","0.8","0.2773284289","0.3119987931","","","","","",""
"467","","bandit","300","856306","0.0-261.0-0.0","29096264","wem/bandit_either","A1OZPLHNIU1519","either","3","","","","","","","72","H","0","img/none_selected.jpg","0","0","1","0.1141050397","","","222","0.1141050397","","main_expt","0.6","","0.4","0.274695037","0.2152506718","0.2","0.3106374463","0.8","","","","","","","",""
"722","","bandit","301","858646","0.0-262.0-0.0","29096264","wem/bandit_either","A1OZPLHNIU1519","either","3","","","","","","","75","K","2","","0","0","1","","0.2445797097","","223","","0.1007228699","main_expt","0.6","0.2210940289","0.4","","","0.2","","0.8","0.2445797097","0.3131570504","","","","","",""
"426","","bandit","302","860669","0.0-263.0-0.0","29096264","wem/bandit_either","A1OZPLHNIU1519","either","3","","","","","","","75","K","2","","0","0","1","","0.2559263424","","224","","0.1380584308","main_expt","0.6","0.1843933297","0.4","","","0.2","","0.8","0.2559263424","0.3025994915","","","","","",""
"466","","bandit","303","862730","0.0-264.0-0.0","29096264","wem/bandit_either","A1OZPLHNIU1519","either","3","","","","","","","74","J","1","","0","0","1","0.212211923","","","225","0.1393521225","","main_expt","0.6","","0.4","0.212211923","0.2702522324","0.2","0.2994132709","0.8","","","","","","","",""
"346","","bandit","304","864679","0.0-265.0-0.0","29096264","wem/bandit_either","A1OZPLHNIU1519","either","3","","","","","","","76","L","3","","0","0","1","0.2866794375","","","226","0.2094269877","","main_expt","0.6","","0.4","0.2315036379","0.2646860425","0.2","0.2866794375","0.8","","","","","","","",""
"413","","bandit","305","866691","0.0-266.0-0.0","29096264","wem/bandit_either","A1OZPLHNIU1519","either","3","","","","","","","74","J","1","","0","0","1","","0.2646353212","","227","","0.2959232149","main_expt","0.6","0.2646353212","0.4","","","0.2","","0.8","0.269556559","0.2299222882","","","","","",""
"403","","bandit","306","868698","0.0-267.0-0.0","29096264","wem/bandit_either","A1OZPLHNIU1519","either","3","","","","","","","72","H","0","img/none_selected.jpg","0","0","1","","0.374355758","","228","","0.374355758","main_expt","0.6","0.2443517867","0.4","","","0.2","","0.8","0.2498152532","0.2991813551","","","","","",""
"481","","bandit","307","870763","0.0-268.0-0.0","29096264","wem/bandit_either","A1OZPLHNIU1519","either","3","","","","","","","72","H","0","img/none_selected.jpg","1","0","0","0.3876740502","","","229","0.3876740502","","main_expt","0.6","","0.4","0.2569692975","0.2495566458","0.2","0.3295538921","0.8","","","","","","","",""
"491","","bandit","308","872846","0.0-269.0-0.0","29096264","wem/bandit_either","A1OZPLHNIU1519","either","3","","","","","","","72","H","0","img/none_selected.jpg","0","0","1","","0.3341674595","","230","","0.3341674595","main_expt","0.6","0.2490290172","0.4","","","0.2","","0.8","0.2134382902","0.2713593359","","","","","",""
"472","","bandit","309","874911","0.0-270.0-0.0","29096264","wem/bandit_either","A1OZPLHNIU1519","either","3","","","","","","","72","H","0","img/none_selected.jpg","0","0","1","0.3558281537","","","231","0.3558281537","","main_expt","0.6","","0.4","0.2368643707","0.2099205747","0.2","0.2746975787","0.8","","","","","","","",""
"539","","bandit","310","877038","0.0-271.0-0.0","29096264","wem/bandit_either","A1OZPLHNIU1519","either","3","","","","","","","75","K","2","","0","0","1","","0.1598609145","","232","","0.3293076861","main_expt","0.6","0.2857324616","0.4","","","0.2","","0.8","0.1598609145","0.2817934899","","","","","",""
"545","","bandit","311","879209","0.0-272.0-0.0","29096264","wem/bandit_either","A1OZPLHNIU1519","either","3","","","","","","","75","K","2","","0","1","0","","0.1472569172","","233","","0.3271309306","main_expt","0.6","0.226619475","0.4","","","0.2","","0.8","0.1472569172","0.3139736629","","","","","",""
"560","","bandit","312","881399","0.0-273.0-0.0","29096264","wem/bandit_either","A1OZPLHNIU1519","either","3","","","","","","","75","K","2","","0","0","1","","0.1123375355","","234","","0.3510228885","main_expt","0.6","0.2448251662","0.4","","","0.2","","0.8","0.1123375355","0.3332560948","","","","","",""
"524","","bandit","313","883542","0.0-274.0-0.0","29096264","wem/bandit_either","A1OZPLHNIU1519","either","3","","","","","","","75","K","2","","0","0","1","","0.1562424728","","235","","0.3346663699","main_expt","0.6","0.2996798263","0.4","","","0.2","","0.8","0.1562424728","0.3475281657","","","","","",""
"365","","bandit","314","885526","0.0-275.0-0.0","29096264","wem/bandit_either","A1OZPLHNIU1519","either","3","","","","","","","75","K","2","","0","0","1","0.1623269298","","","236","0.332043614","","main_expt","0.6","","0.4","0.3220329496","0.1623269298","0.2","0.3170984437","0.8","","","","","","","",""
"562","","bandit","315","887688","0.0-276.0-0.0","29096264","wem/bandit_either","A1OZPLHNIU1519","either","3","","","","","","","74","J","1","","0","0","1","","0.3672390457","","237","","0.2780661838","main_expt","0.6","0.3672390457","0.4","","","0.2","","0.8","0.1362759337","0.3611259067","","","","","",""
"451","","bandit","316","889732","0.0-277.0-0.0","29096264","wem/bandit_either","A1OZPLHNIU1519","either","3","","","","","","","74","J","1","","0","0","1","","0.3702030288","","238","","0.3071002506","main_expt","0.6","0.3702030288","0.4","","","0.2","","0.8","0.1282223372","0.3449339383","","","","","",""
"462","","bandit","317","891791","0.0-278.0-0.0","29096264","wem/bandit_either","A1OZPLHNIU1519","either","3","","","","","","","76","L","3","","0","1","0","","0.3006984684","","239","","0.3101279526","main_expt","0.6","0.3486367063","0.4","","","0.2","","0.8","0.08262393641","0.3006984684","","","","","",""
"508","","bandit","318","893913","0.0-279.0-0.0","29096264","wem/bandit_either","A1OZPLHNIU1519","either","3","","","","","","","76","L","3","","0","0","1","0.3355390738","","","240","0.3071576631","","main_expt","0.6","","0.4","0.3422639114","0.09366491666","0.2","0.3355390738","0.8","","","","","","","",""
"566","","bandit","319","896081","0.0-280.0-0.0","29096264","wem/bandit_either","A1OZPLHNIU1519","either","3","","","","","","","76","L","3","","0","1","0","","0.3513118525","","241","","0.3213727252","main_expt","0.6","0.3703795114","0.4","","","0.2","","0.8","0.09778426954","0.3513118525","","","","","",""
"547","","bandit","320","898221","0.0-281.0-0.0","29096264","wem/bandit_either","A1OZPLHNIU1519","either","3","","","","","","","76","L","3","","0","0","1","0.2871404103","","","242","0.3303042821","","main_expt","0.6","","0.4","0.3362310887","0.0684580113","0.2","0.2871404103","0.8","","","","","","","",""
"471","","bandit","321","900279","0.0-282.0-0.0","29096264","wem/bandit_either","A1OZPLHNIU1519","either","3","","","","","","","76","L","3","","1","0","0","0.2582353252","","","243","0.386578507","","main_expt","0.6","","0.4","0.3855302341","0.05756719403","0.2","0.2582353252","0.8","","","","","","","",""
"486","","bandit","322","902352","0.0-283.0-0.0","29096264","wem/bandit_either","A1OZPLHNIU1519","either","3","","","","","","","76","L","3","","0","0","1","","0.2108553612","","244","","0.3582196724","main_expt","0.6","0.3504604058","0.4","","","0.2","","0.8","0.07954378931","0.2108553612","","","","","",""
"499","","bandit","323","904449","0.0-284.0-0.0","29096264","wem/bandit_either","A1OZPLHNIU1519","either","3","","","","","","","76","L","3","","0","0","1","0.190308294","","","245","0.3626170977","","main_expt","0.6","","0.4","0.3586275713","0.07668718344","0.2","0.190308294","0.8","","","","","","","",""
"515","","bandit","324","906586","0.0-285.0-0.0","29096264","wem/bandit_either","A1OZPLHNIU1519","either","3","","","","","","","76","L","3","","0","0","1","0.2079876503","","","246","0.2778980274","","main_expt","0.6","","0.4","0.3202710015","0.08627194322","0.2","0.2079876503","0.8","","","","","","","",""
"489","","bandit","325","908688","0.0-286.0-0.0","29096264","wem/bandit_either","A1OZPLHNIU1519","either","3","","","","","","","72","H","0","img/none_selected.jpg","1","0","0","0.2864864277","","","247","0.2864864277","","main_expt","0.6","","0.4","0.2874587678","0.1009858539","0.2","0.2053262284","0.8","","","","","","","",""
"697","","bandit","326","911012","0.0-287.0-0.0","29096264","wem/bandit_either","A1OZPLHNIU1519","either","3","","","","","","","72","H","0","img/none_selected.jpg","0","0","1","","0.2883304048","","248","","0.2883304048","main_expt","0.6","0.2703076155","0.4","","","0.2","","0.8","0.1044033157","0.2699327364","","","","","",""
"427","","bandit","327","913061","0.0-288.0-0.0","29096264","wem/bandit_either","A1OZPLHNIU1519","either","3","","","","","","","72","H","0","img/none_selected.jpg","1","0","0","0.3034325887","","","249","0.3034325887","","main_expt","0.6","","0.4","0.2212833967","0.07254640656","0.2","0.2917851334","0.8","","","","","","","",""
"454","","bandit","328","915117","0.0-289.0-0.0","29096264","wem/bandit_either","A1OZPLHNIU1519","either","3","","","","","","","72","H","0","img/none_selected.jpg","0","0","1","0.2582013927","","","250","0.2582013927","","main_expt","0.6","","0.4","0.2174917034","0.09512939239","0.2","0.2530543584","0.8","","","","","","","",""
"396","","bandit","329","917111","0.0-290.0-0.0","29096264","wem/bandit_either","A1OZPLHNIU1519","either","3","","","","","","","74","J","1","","0","0","1","0.2008338107","","","251","0.2337836179","","main_expt","0.6","","0.4","0.2008338107","0.06759478125","0.2","0.2345859063","0.8","","","","","","","",""
"518","","bandit","330","919258","0.0-291.0-0.0","29096264","wem/bandit_either","A1OZPLHNIU1519","either","3","","","","","","","75","K","2","","0","0","1","","0.05682902113","","252","","0.2477033955","main_expt","0.6","0.2294508047","0.4","","","0.2","","0.8","0.05682902113","0.2407419433","","","","","",""
"402","","bandit","331","921289","0.0-292.0-0.0","29096264","wem/bandit_either","A1OZPLHNIU1519","either","3","","","","","","","72","H","0","img/none_selected.jpg","0","0","1","0.2187012899","","","253","0.2187012899","","main_expt","0.6","","0.4","0.2678406235","0.04662337877","0.2","0.2016139721","0.8","","","","","","","",""
