"rt","responses","trial_type","trial_index","time_elapsed","internal_node_id","subjID","study","MID","cond","drift","key_press","expt_phase","target","like","value","connected","gems","bombs","no_reward","GemPrChosen","BombPrChosen","GainOverPainPr_0","GainOverPainPr_1","GainOverPainPr_2","GainOverPainPr_3","LosePr_0","LosePr_1","LosePr_2","LosePr_3","WinPr_0","WinPr_1","WinPr_2","WinPr_3","Q0","Q1","Q2","gender","age","ethnicity","respCharCode","respKey","respChoiceNum","respChoice","practice","trial_counter","trial_label"
"16277","{""Q0"":""A2I960JYUZ8KAV""}","survey-text","0","16283","0.0-0.0","31711383","wem/bandit_either","A2I960JYUZ8KAV","either","1","","","","","","","","","","","","","","","","","","","","","","","","","","","","","","","","","","","",""
"13904","","text","1","31191","0.0-1.0","31711383","wem/bandit_either","A2I960JYUZ8KAV","either","1","32","","","","","","","","","","","","","","","","","","","","","","","","","","","","","","","","","","",""
"12640","","text","2","43831","0.0-2.0","31711383","wem/bandit_either","A2I960JYUZ8KAV","either","1","32","","","","","","","","","","","","","","","","","","","","","","","","","","","","","","","","","","",""
"20979","","text","3","64812","0.0-3.0","31711383","wem/bandit_either","A2I960JYUZ8KAV","either","1","32","","","","","","","","","","","","","","","","","","","","","","","","","","","","","","","","","","",""
"17036","","text","4","81848","0.0-4.0","31711383","wem/bandit_either","A2I960JYUZ8KAV","either","1","32","","","","","","","","","","","","","","","","","","","","","","","","","","","","","","","","","","",""
"19308","","text","5","101158","0.0-5.0","31711383","wem/bandit_either","A2I960JYUZ8KAV","either","1","32","","","","","","","","","","","","","","","","","","","","","","","","","","","","","","","","","","",""
"6267","","text","6","107427","0.0-6.0","31711383","wem/bandit_either","A2I960JYUZ8KAV","either","1","32","","","","","","","","","","","","","","","","","","","","","","","","","","","","","","","","","","",""
"5465","","text","7","112893","0.0-7.0","31711383","wem/bandit_either","A2I960JYUZ8KAV","either","1","32","","","","","","","","","","","","","","","","","","","","","","","","","","","","","","","","","","",""
"6979","","identification","8","119887","0.0-8.0-0.0","31711383","wem/bandit_either","A2I960JYUZ8KAV","either","1","","identification_pre","the village of Zur","","","","","","","","","","","","","","","","","","","","","","","","","","","","","","","","",""
"2802","","identification","9","123715","0.0-8.0-1.0","31711383","wem/bandit_either","A2I960JYUZ8KAV","either","1","","identification_pre","the village of Nyx","","","","","","","","","","","","","","","","","","","","","","","","","","","","","","","","",""
"6127","","text","10","130858","0.0-9.0","31711383","wem/bandit_either","A2I960JYUZ8KAV","either","1","32","","","","","","","","","","","","","","","","","","","","","","","","","","","","","","","","","","",""
"3142","","text","11","134001","0.0-10.0","31711383","wem/bandit_either","A2I960JYUZ8KAV","either","1","32","","","","","","","","","","","","","","","","","","","","","","","","","","","","","","","","","","",""
"1717","","text","12","135719","0.0-11.0","31711383","wem/bandit_either","A2I960JYUZ8KAV","either","1","32","","","","","","","","","","","","","","","","","","","","","","","","","","","","","","","","","","",""
"4993","","text","13","140714","0.0-12.0","31711383","wem/bandit_either","A2I960JYUZ8KAV","either","1","32","","","","","","","","","","","","","","","","","","","","","","","","","","","","","","","","","","",""
"2365","","bandit","14","144599","0.0-13.0-0.0","31711383","wem/bandit_either","A2I960JYUZ8KAV","either","1","","","","","","","0","0","1","0","0","","","","","0","","","","0","","","","","","","","","","74","J","0","img/none_selected_demo.jpg","true","0",""
"1004","","bandit","15","147116","0.0-14.0-0.0","31711383","wem/bandit_either","A2I960JYUZ8KAV","either","1","","","","","","","0","0","1","0","0","","","","","0","","","","0","","","","","","","","","","75","K","0","img/none_selected_demo.jpg","true","0",""
"10400","","text","16","157517","0.0-15.0","31711383","wem/bandit_either","A2I960JYUZ8KAV","either","1","32","","","","","","","","","","","","","","","","","","","","","","","","","","","","","","","","","","",""
"9874","","text","17","167393","0.0-16.0","31711383","wem/bandit_either","A2I960JYUZ8KAV","either","1","32","","","","","","","","","","","","","","","","","","","","","","","","","","","","","","","","","","",""
"8163","","text","18","175557","0.0-17.0","31711383","wem/bandit_either","A2I960JYUZ8KAV","either","1","32","","","","","","","","","","","","","","","","","","","","","","","","","","","","","","","","","","",""
"5470","","text","19","181028","0.0-18.0","31711383","wem/bandit_either","A2I960JYUZ8KAV","either","1","32","","","","","","","","","","","","","","","","","","","","","","","","","","","","","","","","","","",""
"636","","bandit","20","183191","0.0-19.0-0.0","31711383","wem/bandit_either","A2I960JYUZ8KAV","either","1","","","","","","","1","0","0","0.8","","0.5","0.5","","","","","","","0.8","0.2","","","","","","","","","74","J","0","img/none_selected_demo.jpg","true","0","80_20_practice"
"606","","bandit","21","185301","0.0-19.0-1.0","31711383","wem/bandit_either","A2I960JYUZ8KAV","either","1","","","","","","","0","1","0","","0.8","0.5","0.5","","","0.8","0.2","","","","","","","","","","","","","74","J","0","img/none_selected_demo.jpg","true","0","80_20_practice"
"709","","bandit","22","187534","0.0-19.0-2.0","31711383","wem/bandit_either","A2I960JYUZ8KAV","either","1","","","","","","","0","1","0","","0.8","0.5","0.5","","","0.8","0.2","","","","","","","","","","","","","74","J","0","img/none_selected_demo.jpg","true","0","80_20_practice"
"561","","bandit","23","189607","0.0-19.0-3.0","31711383","wem/bandit_either","A2I960JYUZ8KAV","either","1","","","","","","","1","0","0","0.8","","0.5","0.5","","","","","","","0.8","0.2","","","","","","","","","74","J","0","img/none_selected_demo.jpg","true","0","80_20_practice"
"744","","bandit","24","191874","0.0-19.0-4.0","31711383","wem/bandit_either","A2I960JYUZ8KAV","either","1","","","","","","","0","1","0","","0.2","0.5","0.5","","","0.8","0.2","","","","","","","","","","","","","75","K","1","","true","0","80_20_practice"
"14","","bandit","25","193399","0.0-19.0-5.0","31711383","wem/bandit_either","A2I960JYUZ8KAV","either","1","","","","","","","0","1","0","","0.8","0.5","0.5","","","0.8","0.2","","","","","","","","","","","","","74","J","0","img/none_selected_demo.jpg","true","0","80_20_practice"
"143","","bandit","26","195050","0.0-19.0-6.0","31711383","wem/bandit_either","A2I960JYUZ8KAV","either","1","","","","","","","0","1","0","","0.8","0.5","0.5","","","0.8","0.2","","","","","","","","","","","","","74","J","0","img/none_selected_demo.jpg","true","0","80_20_practice"
"228","","bandit","27","196805","0.0-19.0-7.0","31711383","wem/bandit_either","A2I960JYUZ8KAV","either","1","","","","","","","0","0","1","0.2","","0.5","0.5","","","","","","","0.8","0.2","","","","","","","","","75","K","1","","true","0","80_20_practice"
"128","","bandit","28","198443","0.0-19.0-8.0","31711383","wem/bandit_either","A2I960JYUZ8KAV","either","1","","","","","","","0","1","0","","0.8","0.5","0.5","","","0.8","0.2","","","","","","","","","","","","","74","J","0","img/none_selected_demo.jpg","true","0","80_20_practice"
"14","","bandit","29","199976","0.0-19.0-9.0","31711383","wem/bandit_either","A2I960JYUZ8KAV","either","1","","","","","","","0","1","0","","0.8","0.5","0.5","","","0.8","0.2","","","","","","","","","","","","","74","J","0","img/none_selected_demo.jpg","true","0","80_20_practice"
"446","","bandit","30","201945","0.0-19.0-10.0","31711383","wem/bandit_either","A2I960JYUZ8KAV","either","1","","","","","","","1","0","0","0.8","","0.5","0.5","","","","","","","0.8","0.2","","","","","","","","","74","J","0","img/none_selected_demo.jpg","true","0","80_20_practice"
"228","","bandit","31","203683","0.0-19.0-11.0","31711383","wem/bandit_either","A2I960JYUZ8KAV","either","1","","","","","","","1","0","0","0.8","","0.5","0.5","","","","","","","0.8","0.2","","","","","","","","","74","J","0","img/none_selected_demo.jpg","true","0","80_20_practice"
"349","","bandit","32","205549","0.0-19.0-12.0","31711383","wem/bandit_either","A2I960JYUZ8KAV","either","1","","","","","","","0","1","0","","0.8","0.5","0.5","","","0.8","0.2","","","","","","","","","","","","","74","J","0","img/none_selected_demo.jpg","true","0","80_20_practice"
"73","","bandit","33","207136","0.0-19.0-13.0","31711383","wem/bandit_either","A2I960JYUZ8KAV","either","1","","","","","","","0","0","1","","0.8","0.5","0.5","","","0.8","0.2","","","","","","","","","","","","","74","J","0","img/none_selected_demo.jpg","true","0","80_20_practice"
"2478","","bandit","34","211122","0.0-19.0-14.0","31711383","wem/bandit_either","A2I960JYUZ8KAV","either","1","","","","","","","0","0","1","","0.2","0.5","0.5","","","0.8","0.2","","","","","","","","","","","","","75","K","1","","true","0","80_20_practice"
"115","","bandit","35","212741","0.0-19.0-15.0","31711383","wem/bandit_either","A2I960JYUZ8KAV","either","1","","","","","","","0","0","1","","0.8","0.5","0.5","","","0.8","0.2","","","","","","","","","","","","","74","J","0","img/none_selected_demo.jpg","true","0","80_20_practice"
"55","","bandit","36","214301","0.0-19.0-16.0","31711383","wem/bandit_either","A2I960JYUZ8KAV","either","1","","","","","","","0","0","1","0.8","","0.5","0.5","","","","","","","0.8","0.2","","","","","","","","","74","J","0","img/none_selected_demo.jpg","true","0","80_20_practice"
"572","","bandit","37","216397","0.0-19.0-17.0","31711383","wem/bandit_either","A2I960JYUZ8KAV","either","1","","","","","","","0","1","0","","0.8","0.5","0.5","","","0.8","0.2","","","","","","","","","","","","","74","J","0","img/none_selected_demo.jpg","true","0","80_20_practice"
"224","","bandit","38","218126","0.0-19.0-18.0","31711383","wem/bandit_either","A2I960JYUZ8KAV","either","1","","","","","","","0","1","0","","0.2","0.5","0.5","","","0.8","0.2","","","","","","","","","","","","","75","K","1","","true","0","80_20_practice"
"166","","bandit","39","219801","0.0-19.0-19.0","31711383","wem/bandit_either","A2I960JYUZ8KAV","either","1","","","","","","","0","1","0","","0.8","0.5","0.5","","","0.8","0.2","","","","","","","","","","","","","74","J","0","img/none_selected_demo.jpg","true","0","80_20_practice"
"5552","","text","40","225355","0.0-20.0","31711383","wem/bandit_either","A2I960JYUZ8KAV","either","1","32","","","","","","","","","","","","","","","","","","","","","","","","","","","","","","","","","","",""
"1380","","bandit","41","228241","0.0-21.0-0.0","31711383","wem/bandit_either","A2I960JYUZ8KAV","either","1","","","","","","","1","0","0","1","0","","","","","0","1","","","1","0","","","","","","","","","74","J","0","img/none_selected_demo.jpg","true","0",""
"7692","","text","42","235936","0.0-22.0","31711383","wem/bandit_either","A2I960JYUZ8KAV","either","1","32","","","","","","","","","","","","","","","","","","","","","","","","","","","","","","","","","","",""
"3489","","text","43","239427","0.0-23.0","31711383","wem/bandit_either","A2I960JYUZ8KAV","either","1","32","","","","","","","","","","","","","","","","","","","","","","","","","","","","","","","","","","",""
"3194","","text","44","242623","0.0-24.0","31711383","wem/bandit_either","A2I960JYUZ8KAV","either","1","32","","","","","","","","","","","","","","","","","","","","","","","","","","","","","","","","","","",""
"3527","","text","45","246152","0.0-25.0","31711383","wem/bandit_either","A2I960JYUZ8KAV","either","1","32","","","","","","","","","","","","","","","","","","","","","","","","","","","","","","","","","","",""
"10744","","text","46","256898","0.0-26.0","31711383","wem/bandit_either","A2I960JYUZ8KAV","either","1","32","","","","","","","","","","","","","","","","","","","","","","","","","","","","","","","","","","",""
"1786","","text","47","258685","0.0-27.0","31711383","wem/bandit_either","A2I960JYUZ8KAV","either","1","32","","","","","","","","","","","","","","","","","","","","","","","","","","","","","","","","","","",""
"5890","","text","48","264577","0.0-28.0","31711383","wem/bandit_either","A2I960JYUZ8KAV","either","1","32","","","","","","","","","","","","","","","","","","","","","","","","","","","","","","","","","","",""
"7239","","text","49","271817","0.0-29.0","31711383","wem/bandit_either","A2I960JYUZ8KAV","either","1","32","","","","","","","","","","","","","","","","","","","","","","","","","","","","","","","","","","",""
"6630","","text","50","278449","0.0-30.0","31711383","wem/bandit_either","A2I960JYUZ8KAV","either","1","32","","","","","","","","","","","","","","","","","","","","","","","","","","","","","","","","","","",""
"2619","","text","51","281070","0.0-31.0","31711383","wem/bandit_either","A2I960JYUZ8KAV","either","1","32","","","","","","","","","","","","","","","","","","","","","","","","","","","","","","","","","","",""
"3365","","text","52","284437","0.0-32.0","31711383","wem/bandit_either","A2I960JYUZ8KAV","either","1","32","","","","","","","","","","","","","","","","","","","","","","","","","","","","","","","","","","",""
"471","","bandit","53","286415","0.0-33.0-0.0","31711383","wem/bandit_either","A2I960JYUZ8KAV","either","1","","","","","","","0","0","1","","0.8","0.5","0.5","0.5","0.5","0.8","0.2","0.6","0.2","","","","","","","","","","","72","H","0","img/none_selected.jpg","true","0","full_practice"
"531","","bandit","54","288460","0.0-33.0-1.0","31711383","wem/bandit_either","A2I960JYUZ8KAV","either","1","","","","","","","0","0","1","","0.2","0.5","0.5","0.5","0.5","0.8","0.2","0.6","0.2","","","","","","","","","","","74","J","1","","true","0","full_practice"
"117","","bandit","55","290087","0.0-33.0-2.0","31711383","wem/bandit_either","A2I960JYUZ8KAV","either","1","","","","","","","0","0","1","0.6","","0.5","0.5","0.5","0.5","","","","","0.8","0.2","0.6","0.2","","","","","","","75","K","2","","true","0","full_practice"
"277","","bandit","56","291884","0.0-33.0-3.0","31711383","wem/bandit_either","A2I960JYUZ8KAV","either","1","","","","","","","0","0","1","","0.2","0.5","0.5","0.5","0.5","0.8","0.2","0.6","0.2","","","","","","","","","","","76","L","3","","true","0","full_practice"
"382","","bandit","57","293787","0.0-33.0-4.0","31711383","wem/bandit_either","A2I960JYUZ8KAV","either","1","","","","","","","0","1","0","","0.8","0.5","0.5","0.5","0.5","0.8","0.2","0.6","0.2","","","","","","","","","","","72","H","0","img/none_selected.jpg","true","0","full_practice"
"204","","bandit","58","295505","0.0-33.0-5.0","31711383","wem/bandit_either","A2I960JYUZ8KAV","either","1","","","","","","","1","0","0","0.8","","0.5","0.5","0.5","0.5","","","","","0.8","0.2","0.6","0.2","","","","","","","72","H","0","img/none_selected.jpg","true","0","full_practice"
"280","","bandit","59","297306","0.0-33.0-6.0","31711383","wem/bandit_either","A2I960JYUZ8KAV","either","1","","","","","","","1","0","0","0.2","","0.5","0.5","0.5","0.5","","","","","0.8","0.2","0.6","0.2","","","","","","","74","J","1","","true","0","full_practice"
"261","","bandit","60","299077","0.0-33.0-7.0","31711383","wem/bandit_either","A2I960JYUZ8KAV","either","1","","","","","","","1","0","0","0.8","","0.5","0.5","0.5","0.5","","","","","0.8","0.2","0.6","0.2","","","","","","","72","H","0","img/none_selected.jpg","true","0","full_practice"
"195","","bandit","61","300788","0.0-33.0-8.0","31711383","wem/bandit_either","A2I960JYUZ8KAV","either","1","","","","","","","0","0","1","","0.2","0.5","0.5","0.5","0.5","0.8","0.2","0.6","0.2","","","","","","","","","","","74","J","1","","true","0","full_practice"
"179","","bandit","62","302477","0.0-33.0-9.0","31711383","wem/bandit_either","A2I960JYUZ8KAV","either","1","","","","","","","0","1","0","","0.6","0.5","0.5","0.5","0.5","0.8","0.2","0.6","0.2","","","","","","","","","","","75","K","2","","true","0","full_practice"
"124","","bandit","63","304132","0.0-33.0-10.0","31711383","wem/bandit_either","A2I960JYUZ8KAV","either","1","","","","","","","0","0","1","","0.8","0.5","0.5","0.5","0.5","0.8","0.2","0.6","0.2","","","","","","","","","","","72","H","0","img/none_selected.jpg","true","0","full_practice"
"88","","bandit","64","305747","0.0-33.0-11.0","31711383","wem/bandit_either","A2I960JYUZ8KAV","either","1","","","","","","","0","1","0","","0.6","0.5","0.5","0.5","0.5","0.8","0.2","0.6","0.2","","","","","","","","","","","75","K","2","","true","0","full_practice"
"42","","bandit","65","307302","0.0-33.0-12.0","31711383","wem/bandit_either","A2I960JYUZ8KAV","either","1","","","","","","","1","0","0","0.6","","0.5","0.5","0.5","0.5","","","","","0.8","0.2","0.6","0.2","","","","","","","75","K","2","","true","0","full_practice"
"59","","bandit","66","308884","0.0-33.0-13.0","31711383","wem/bandit_either","A2I960JYUZ8KAV","either","1","","","","","","","1","0","0","0.6","","0.5","0.5","0.5","0.5","","","","","0.8","0.2","0.6","0.2","","","","","","","75","K","2","","true","0","full_practice"
"9","","bandit","67","310414","0.0-33.0-14.0","31711383","wem/bandit_either","A2I960JYUZ8KAV","either","1","","","","","","","0","0","1","","0.6","0.5","0.5","0.5","0.5","0.8","0.2","0.6","0.2","","","","","","","","","","","75","K","2","","true","0","full_practice"
"258","","bandit","68","312188","0.0-33.0-15.0","31711383","wem/bandit_either","A2I960JYUZ8KAV","either","1","","","","","","","0","0","1","0.2","","0.5","0.5","0.5","0.5","","","","","0.8","0.2","0.6","0.2","","","","","","","76","L","3","","true","0","full_practice"
"106","","bandit","69","313800","0.0-33.0-16.0","31711383","wem/bandit_either","A2I960JYUZ8KAV","either","1","","","","","","","1","0","0","0.8","","0.5","0.5","0.5","0.5","","","","","0.8","0.2","0.6","0.2","","","","","","","72","H","0","img/none_selected.jpg","true","0","full_practice"
"123","","bandit","70","315430","0.0-33.0-17.0","31711383","wem/bandit_either","A2I960JYUZ8KAV","either","1","","","","","","","0","0","1","","0.8","0.5","0.5","0.5","0.5","0.8","0.2","0.6","0.2","","","","","","","","","","","72","H","0","img/none_selected.jpg","true","0","full_practice"
"25","","bandit","71","316974","0.0-33.0-18.0","31711383","wem/bandit_either","A2I960JYUZ8KAV","either","1","","","","","","","0","0","1","","0.2","0.5","0.5","0.5","0.5","0.8","0.2","0.6","0.2","","","","","","","","","","","74","J","1","","true","0","full_practice"
"316","","bandit","72","318796","0.0-33.0-19.0","31711383","wem/bandit_either","A2I960JYUZ8KAV","either","1","","","","","","","0","1","0","","0.6","0.5","0.5","0.5","0.5","0.8","0.2","0.6","0.2","","","","","","","","","","","75","K","2","","true","0","full_practice"
"3154","","text","73","321955","0.0-34.0","31711383","wem/bandit_either","A2I960JYUZ8KAV","either","1","32","","","","","","","","","","","","","","","","","","","","","","","","","","","","","","","","","","",""
"12721","","text","74","335684","0.0-35.0","31711383","wem/bandit_either","A2I960JYUZ8KAV","either","1","32","","","","","","","","","","","","","","","","","","","","","","","","","","","","","","","","","","",""
"14223","","text","75","349911","0.0-36.0","31711383","wem/bandit_either","A2I960JYUZ8KAV","either","1","32","","","","","","","","","","","","","","","","","","","","","","","","","","","","","","","","","","",""
"8998","","text","76","358912","0.0-37.0","31711383","wem/bandit_either","A2I960JYUZ8KAV","either","1","32","","","","","","","","","","","","","","","","","","","","","","","","","","","","","","","","","","",""
"7647","","text","77","366560","0.0-38.0","31711383","wem/bandit_either","A2I960JYUZ8KAV","either","1","32","","","","","","","","","","","","","","","","","","","","","","","","","","","","","","","","","","",""
"9376","","text","78","375939","0.0-39.0","31711383","wem/bandit_either","A2I960JYUZ8KAV","either","1","32","","","","","","","","","","","","","","","","","","","","","","","","","","","","","","","","","","",""
"751","","bandit","79","378210","0.0-40.0-0.0","31711383","wem/bandit_either","A2I960JYUZ8KAV","either","1","","","","","","","0","0","1","0.3592836462","","0.2","0.6","0.8","0.4","","","","","0.3592836462","0.02943109976","0.4269289603","0.0798457429","","","","","","","72","H","0","img/none_selected.jpg","","1","main_expt"
"15","","bandit","80","379731","0.0-41.0-0.0","31711383","wem/bandit_either","A2I960JYUZ8KAV","either","1","","","","","","","0","0","1","0.06336112212","","0.2","0.6","0.8","0.4","","","","","0.3454903542","0.06336112212","0.4660243271","0.07621336767","","","","","","","74","J","1","","","2","main_expt"
"77","","bandit","81","381320","0.0-42.0-0.0","31711383","wem/bandit_either","A2I960JYUZ8KAV","either","1","","","","","","","1","0","0","0.4738503749","","0.2","0.6","0.8","0.4","","","","","0.2941512374","0.07335687118","0.4738503749","0.07476295528","","","","","","","75","K","2","","","3","main_expt"
"98","","bandit","82","382936","0.0-43.0-0.0","31711383","wem/bandit_either","A2I960JYUZ8KAV","either","1","","","","","","","0","0","1","","0.4618500418","0.2","0.6","0.8","0.4","0.2851241965","0.06156305515","0.4618500418","0.06526985361","","","","","","","","","","","75","K","2","","","4","main_expt"
"65","","bandit","83","384509","0.0-44.0-0.0","31711383","wem/bandit_either","A2I960JYUZ8KAV","either","1","","","","","","","0","0","1","0.4488935273","","0.2","0.6","0.8","0.4","","","","","0.3172925843","0.08141194251","0.4488935273","0.05487735528","","","","","","","75","K","2","","","5","main_expt"
"101","","bandit","84","386131","0.0-45.0-0.0","31711383","wem/bandit_either","A2I960JYUZ8KAV","either","1","","","","","","","0","0","1","","0.04340015571","0.2","0.6","0.8","0.4","0.3319153021","0.1104821702","0.4437832297","0.04340015571","","","","","","","","","","","76","L","3","","","6","main_expt"
"464","","bandit","85","388118","0.0-46.0-0.0","31711383","wem/bandit_either","A2I960JYUZ8KAV","either","1","","","","","","","0","1","0","","0.3553039772","0.2","0.6","0.8","0.4","0.3553039772","0.1191408541","0.4310077805","0.04575060371","","","","","","","","","","","72","H","0","img/none_selected.jpg","","7","main_expt"
"151","","bandit","86","389789","0.0-47.0-0.0","31711383","wem/bandit_either","A2I960JYUZ8KAV","either","1","","","","","","","0","0","1","","0.3868093767","0.2","0.6","0.8","0.4","0.3868093767","0.1517570037","0.4480386191","0.06112087539","","","","","","","","","","","72","H","0","img/none_selected.jpg","","8","main_expt"
"40","","bandit","87","391344","0.0-48.0-0.0","31711383","wem/bandit_either","A2I960JYUZ8KAV","either","1","","","","","","","0","0","1","","0.3754406694","0.2","0.6","0.8","0.4","0.3754406694","0.1738087075","0.4460224538","0.07854191076","","","","","","","","","","","72","H","0","img/none_selected.jpg","","9","main_expt"
"81","","bandit","88","392950","0.0-49.0-0.0","31711383","wem/bandit_either","A2I960JYUZ8KAV","either","1","","","","","","","0","0","1","0.2033535465","","0.2","0.6","0.8","0.4","","","","","0.3537433427","0.2033535465","0.3954493452","0.06865483858","","","","","","","74","J","1","","","10","main_expt"
"86","","bandit","89","394549","0.0-50.0-0.0","31711383","wem/bandit_either","A2I960JYUZ8KAV","either","1","","","","","","","1","0","0","0.4064238371","","0.2","0.6","0.8","0.4","","","","","0.3793358735","0.1751631116","0.4064238371","0.05083805298","","","","","","","75","K","2","","","11","main_expt"
"127","","bandit","90","396194","0.0-51.0-0.0","31711383","wem/bandit_either","A2I960JYUZ8KAV","either","1","","","","","","","0","0","1","0.3800839449","","0.2","0.6","0.8","0.4","","","","","0.3800428212","0.1787487179","0.3800839449","0.1038792476","","","","","","","75","K","2","","","12","main_expt"
"162","","bandit","91","397871","0.0-52.0-0.0","31711383","wem/bandit_either","A2I960JYUZ8KAV","either","1","","","","","","","1","0","0","0.3866628193","","0.2","0.6","0.8","0.4","","","","","0.3647981021","0.1794712961","0.3866628193","0.1197284353","","","","","","","75","K","2","","","13","main_expt"
"171","","bandit","92","399553","0.0-53.0-0.0","31711383","wem/bandit_either","A2I960JYUZ8KAV","either","1","","","","","","","0","0","1","0.326509825","","0.2","0.6","0.8","0.4","","","","","0.3646471907","0.2482140722","0.326509825","0.135681701","","","","","","","75","K","2","","","14","main_expt"
"112","","bandit","93","401193","0.0-54.0-0.0","31711383","wem/bandit_either","A2I960JYUZ8KAV","either","1","","","","","","","0","0","1","0.2428529647","","0.2","0.6","0.8","0.4","","","","","0.3549291363","0.2859415589","0.2428529647","0.125153919","","","","","","","75","K","2","","","15","main_expt"
"30","","bandit","94","402738","0.0-55.0-0.0","31711383","wem/bandit_either","A2I960JYUZ8KAV","either","1","","","","","","","0","0","1","0.3727350689","","0.2","0.6","0.8","0.4","","","","","0.3727350689","0.26587149","0.2332962783","0.1096891688","","","","","","","72","H","0","img/none_selected.jpg","","16","main_expt"
"67","","bandit","95","404310","0.0-56.0-0.0","31711383","wem/bandit_either","A2I960JYUZ8KAV","either","1","","","","","","","0","0","1","","0.1051581447","0.2","0.6","0.8","0.4","0.3112083829","0.2776265896","0.2271032234","0.1051581447","","","","","","","","","","","76","L","3","","","17","main_expt"
"345","","bandit","96","406184","0.0-57.0-0.0","31711383","wem/bandit_either","A2I960JYUZ8KAV","either","1","","","","","","","0","1","0","","0.3223387563","0.2","0.6","0.8","0.4","0.2403081055","0.3223387563","0.1701710303","0.1437943492","","","","","","","","","","","74","J","1","","","18","main_expt"
"112","","bandit","97","407803","0.0-58.0-0.0","31711383","wem/bandit_either","A2I960JYUZ8KAV","either","1","","","","","","","0","0","1","0.3192918255","","0.2","0.6","0.8","0.4","","","","","0.2377482675","0.3192918255","0.2070198111","0.1405615485","","","","","","","74","J","1","","","19","main_expt"
"11","","bandit","98","409322","0.0-59.0-0.0","31711383","wem/bandit_either","A2I960JYUZ8KAV","either","1","","","","","","","1","0","0","0.2412547966","","0.2","0.6","0.8","0.4","","","","","0.2607530295","0.2739159796","0.2412547966","0.1063334751","","","","","","","75","K","2","","","20","main_expt"
"187","","bandit","99","411016","0.0-60.0-0.0","31711383","wem/bandit_either","A2I960JYUZ8KAV","either","1","","","","","","","0","0","1","0.2184758186","","0.2","0.6","0.8","0.4","","","","","0.2919400674","0.2454385858","0.2184758186","0.07848250716","","","","","","","75","K","2","","","21","main_expt"
"78","","bandit","100","412604","0.0-61.0-0.0","31711383","wem/bandit_either","A2I960JYUZ8KAV","either","1","","","","","","","0","0","1","0.1849325376","","0.2","0.6","0.8","0.4","","","","","0.2995681058","0.2340842041","0.1849325376","0.1005082742","","","","","","","75","K","2","","","22","main_expt"
"469","","bandit","101","414585","0.0-62.0-0.0","31711383","wem/bandit_either","A2I960JYUZ8KAV","either","1","","","","","","","0","0","1","","0.1840173947","0.2","0.6","0.8","0.4","0.292554742","0.1840173947","0.1521197653","0.0792694407","","","","","","","","","","","74","J","1","","","23","main_expt"
"255","","bandit","102","416354","0.0-63.0-0.0","31711383","wem/bandit_either","A2I960JYUZ8KAV","either","1","","","","","","","0","0","1","","0.3616894364","0.2","0.6","0.8","0.4","0.3616894364","0.1745529383","0.1759403195","0.07358699385","","","","","","","","","","","72","H","0","img/none_selected.jpg","","24","main_expt"
"124","","bandit","103","417998","0.0-64.0-0.0","31711383","wem/bandit_either","A2I960JYUZ8KAV","either","1","","","","","","","0","0","1","0.09479311865","","0.2","0.6","0.8","0.4","","","","","0.3575757263","0.1756582033","0.09479311865","0.142208116","","","","","","","75","K","2","","","25","main_expt"
"23","","bandit","104","419527","0.0-65.0-0.0","31711383","wem/bandit_either","A2I960JYUZ8KAV","either","1","","","","","","","0","0","1","0.08156123497","","0.2","0.6","0.8","0.4","","","","","0.3635346368","0.2086365416","0.08156123497","0.1245113583","","","","","","","75","K","2","","","26","main_expt"
"363","","bandit","105","421402","0.0-66.0-0.0","31711383","wem/bandit_either","A2I960JYUZ8KAV","either","1","","","","","","","0","0","1","","0.118364605","0.2","0.6","0.8","0.4","0.4109801844","0.2139763749","0.1102307873","0.118364605","","","","","","","","","","","76","L","3","","","27","main_expt"
"30","","bandit","106","422951","0.0-67.0-0.0","31711383","wem/bandit_either","A2I960JYUZ8KAV","either","1","","","","","","","0","0","1","0.1105930361","","0.2","0.6","0.8","0.4","","","","","0.3772962545","0.1613483267","0.08274430796","0.1105930361","","","","","","","76","L","3","","","28","main_expt"
"258","","bandit","107","424736","0.0-68.0-0.0","31711383","wem/bandit_either","A2I960JYUZ8KAV","either","1","","","","","","","0","0","1","","0.3875745016","0.2","0.6","0.8","0.4","0.3875745016","0.1712488152","0.1086911099","0.1118713044","","","","","","","","","","","72","H","0","img/none_selected.jpg","","29","main_expt"
"145","","bandit","108","426401","0.0-69.0-0.0","31711383","wem/bandit_either","A2I960JYUZ8KAV","either","1","","","","","","","0","0","1","","0.1675524316","0.2","0.6","0.8","0.4","0.3780019893","0.1675524316","0.1116575632","0.1914750456","","","","","","","","","","","74","J","1","","","30","main_expt"
"93","","bandit","109","428016","0.0-70.0-0.0","31711383","wem/bandit_either","A2I960JYUZ8KAV","either","1","","","","","","","0","0","1","0.07828091442","","0.2","0.6","0.8","0.4","","","","","0.416860241","0.140325158","0.07828091442","0.2367730164","","","","","","","75","K","2","","","31","main_expt"
"134","","bandit","110","429665","0.0-71.0-0.0","31711383","wem/bandit_either","A2I960JYUZ8KAV","either","1","","","","","","","0","1","0","","0.2109574779","0.2","0.6","0.8","0.4","0.4242573056","0.1553940025","0.07550395781","0.2109574779","","","","","","","","","","","76","L","3","","","32","main_expt"
"128","","bandit","111","431306","0.0-72.0-0.0","31711383","wem/bandit_either","A2I960JYUZ8KAV","either","1","","","","","","","0","0","1","","0.2005542758","0.2","0.6","0.8","0.4","0.4185546122","0.1925614924","0.1445529326","0.2005542758","","","","","","","","","","","76","L","3","","","33","main_expt"
"104","","bandit","112","432931","0.0-73.0-0.0","31711383","wem/bandit_either","A2I960JYUZ8KAV","either","1","","","","","","","0","0","1","0.1091775744","","0.2","0.6","0.8","0.4","","","","","0.4268308419","0.2150530123","0.1091775744","0.180377021","","","","","","","75","K","2","","","34","main_expt"
"29","","bandit","113","434477","0.0-74.0-0.0","31711383","wem/bandit_either","A2I960JYUZ8KAV","either","1","","","","","","","0","0","1","","0.2688968874","0.2","0.6","0.8","0.4","0.4265642185","0.2688968874","0.1297995116","0.2111187229","","","","","","","","","","","74","J","1","","","35","main_expt"
"60","","bandit","114","436054","0.0-75.0-0.0","31711383","wem/bandit_either","A2I960JYUZ8KAV","either","1","","","","","","","0","0","1","","0.4066287969","0.2","0.6","0.8","0.4","0.4066287969","0.2977459964","0.09468550628","0.2119332756","","","","","","","","","","","72","H","0","img/none_selected.jpg","","36","main_expt"
"398","","bandit","115","437977","0.0-76.0-0.0","31711383","wem/bandit_either","A2I960JYUZ8KAV","either","1","","","","","","","0","0","1","","0.09396978408","0.2","0.6","0.8","0.4","0.4611471687","0.2684429955","0.09396978408","0.2256131965","","","","","","","","","","","75","K","2","","","37","main_expt"
"8","","bandit","116","439505","0.0-77.0-0.0","31711383","wem/bandit_either","A2I960JYUZ8KAV","either","1","","","","","","","0","0","1","","0.1062257399","0.2","0.6","0.8","0.4","0.4482708269","0.2490186117","0.1062257399","0.1975147253","","","","","","","","","","","75","K","2","","","38","main_expt"
"289","","bandit","117","441300","0.0-78.0-0.0","31711383","wem/bandit_either","A2I960JYUZ8KAV","either","1","","","","","","","0","0","1","","0.1595648847","0.2","0.6","0.8","0.4","0.4402774387","0.2548033483","0.09676453159","0.1595648847","","","","","","","","","","","76","L","3","","","39","main_expt"
"127","","bandit","118","442947","0.0-79.0-0.0","31711383","wem/bandit_either","A2I960JYUZ8KAV","either","1","","","","","","","0","0","1","0.08197179495","","0.2","0.6","0.8","0.4","","","","","0.4385128538","0.2688720753","0.08197179495","0.1626610004","","","","","","","75","K","2","","","40","main_expt"
"159","","bandit","119","444618","0.0-80.0-0.0","31711383","wem/bandit_either","A2I960JYUZ8KAV","either","1","","","","","","","0","1","0","","0.1982402655","0.2","0.6","0.8","0.4","0.4380640779","0.297778532","0.14416382","0.1982402655","","","","","","","","","","","76","L","3","","","41","main_expt"
"256","","bandit","120","446401","0.0-81.0-0.0","31711383","wem/bandit_either","A2I960JYUZ8KAV","either","1","","","","","","","0","0","1","","0.1863610343","0.2","0.6","0.8","0.4","0.4265224768","0.2449207522","0.1070927036","0.1863610343","","","","","","","","","","","76","L","3","","","42","main_expt"
"88","","bandit","121","448023","0.0-82.0-0.0","31711383","wem/bandit_either","A2I960JYUZ8KAV","either","1","","","","","","","1","0","0","0.2457567503","","0.2","0.6","0.8","0.4","","","","","0.435880106","0.2457567503","0.1214526226","0.2418389683","","","","","","","74","J","1","","","43","main_expt"
"125","","bandit","122","449678","0.0-83.0-0.0","31711383","wem/bandit_either","A2I960JYUZ8KAV","either","1","","","","","","","1","0","0","0.2432732657","","0.2","0.6","0.8","0.4","","","","","0.4450576882","0.2432732657","0.1450738833","0.1943491227","","","","","","","74","J","1","","","44","main_expt"
"224","","bandit","123","451413","0.0-84.0-0.0","31711383","wem/bandit_either","A2I960JYUZ8KAV","either","1","","","","","","","0","0","1","0.2656772236","","0.2","0.6","0.8","0.4","","","","","0.4382030275","0.2656772236","0.09632230927","0.1543250971","","","","","","","74","J","1","","","45","main_expt"
"160","","bandit","124","453085","0.0-85.0-0.0","31711383","wem/bandit_either","A2I960JYUZ8KAV","either","1","","","","","","","0","0","1","","0.103211431","0.2","0.6","0.8","0.4","0.4412369426","0.2432112423","0.103211431","0.09719433791","","","","","","","","","","","75","K","2","","","46","main_expt"
"115","","bandit","125","454731","0.0-86.0-0.0","31711383","wem/bandit_either","A2I960JYUZ8KAV","either","1","","","","","","","0","0","1","0.2992745976","","0.2","0.6","0.8","0.4","","","","","0.4588863431","0.2992745976","0.09916324924","0.1228880329","","","","","","","74","J","1","","","47","main_expt"
"16","","bandit","126","456254","0.0-87.0-0.0","31711383","wem/bandit_either","A2I960JYUZ8KAV","either","1","","","","","","","0","0","1","0.4408788818","","0.2","0.6","0.8","0.4","","","","","0.4408788818","0.2594611615","0.1090242341","0.1068532567","","","","","","","72","H","0","img/none_selected.jpg","","48","main_expt"
"423","","bandit","127","458187","0.0-88.0-0.0","31711383","wem/bandit_either","A2I960JYUZ8KAV","either","1","","","","","","","1","0","0","0.2767916858","","0.2","0.6","0.8","0.4","","","","","0.4232064109","0.2767916858","0.1265186769","0.1044048509","","","","","","","74","J","1","","","49","main_expt"
"133","","bandit","128","459838","0.0-89.0-0.0","31711383","wem/bandit_either","A2I960JYUZ8KAV","either","1","","","","","","","0","0","1","","0.2762534014","0.2","0.6","0.8","0.4","0.4210883962","0.2762534014","0.1397440907","0.1072026782","","","","","","","","","","","74","J","1","","","50","main_expt"
"325","","bandit","129","461684","0.0-90.0-0.0","31711383","wem/bandit_either","A2I960JYUZ8KAV","either","1","","","","","","","0","0","1","0.153600331","","0.2","0.6","0.8","0.4","","","","","0.4225635581","0.3379376541","0.153600331","0.1287882573","","","","","","","75","K","2","","","51","main_expt"
"35","","bandit","130","463225","0.0-91.0-0.0","31711383","wem/bandit_either","A2I960JYUZ8KAV","either","1","","","","","","","0","0","1","0.3395267946","","0.2","0.6","0.8","0.4","","","","","0.4146237098","0.3395267946","0.1718407591","0.1298059469","","","","","","","74","J","1","","","52","main_expt"
"22","","bandit","131","464753","0.0-92.0-0.0","31711383","wem/bandit_either","A2I960JYUZ8KAV","either","1","","","","","","","0","0","1","0.07423060895","","0.2","0.6","0.8","0.4","","","","","0.3763623321","0.29674647","0.1945727614","0.07423060895","","","","","","","76","L","3","","","53","main_expt"
"495","","bandit","132","466758","0.0-93.0-0.0","31711383","wem/bandit_either","A2I960JYUZ8KAV","either","1","","","","","","","1","0","0","0.3372955831","","0.2","0.6","0.8","0.4","","","","","0.3289081181","0.3372955831","0.2450542523","0.08562383645","","","","","","","74","J","1","","","54","main_expt"
"120","","bandit","133","468391","0.0-94.0-0.0","31711383","wem/bandit_either","A2I960JYUZ8KAV","either","1","","","","","","","0","1","0","","0.3506099842","0.2","0.6","0.8","0.4","0.3025984711","0.3506099842","0.2547241938","0.0757818623","","","","","","","","","","","74","J","1","","","55","main_expt"
"122","","bandit","134","470024","0.0-95.0-0.0","31711383","wem/bandit_either","A2I960JYUZ8KAV","either","1","","","","","","","0","1","0","","0.3418029788","0.2","0.6","0.8","0.4","0.2921333137","0.3418029788","0.2595112895","0.09897923035","","","","","","","","","","","74","J","1","","","56","main_expt"
"185","","bandit","135","471728","0.0-96.0-0.0","31711383","wem/bandit_either","A2I960JYUZ8KAV","either","1","","","","","","","0","0","1","0.3162475816","","0.2","0.6","0.8","0.4","","","","","0.3317177772","0.3162475816","0.2610276213","0.1160875525","","","","","","","74","J","1","","","57","main_expt"
"60","","bandit","136","473303","0.0-97.0-0.0","31711383","wem/bandit_either","A2I960JYUZ8KAV","either","1","","","","","","","0","0","1","0.2354201416","","0.2","0.6","0.8","0.4","","","","","0.3240244649","0.3269881105","0.2354201416","0.1134641846","","","","","","","75","K","2","","","58","main_expt"
"119","","bandit","137","474937","0.0-98.0-0.0","31711383","wem/bandit_either","A2I960JYUZ8KAV","either","1","","","","","","","0","0","1","0.2346370837","","0.2","0.6","0.8","0.4","","","","","0.2988076671","0.2901324944","0.2346370837","0.1177083384","","","","","","","75","K","2","","","59","main_expt"
"163","","bandit","138","476615","0.0-99.0-0.0","31711383","wem/bandit_either","A2I960JYUZ8KAV","either","1","","","","","","","0","0","1","0.289588464","","0.2","0.6","0.8","0.4","","","","","0.3096792726","0.289588464","0.2315637733","0.1125723432","","","","","","","74","J","1","","","60","main_expt"
"167","","bandit","139","478287","0.0-100.0-0.0","31711383","wem/bandit_either","A2I960JYUZ8KAV","either","1","","","","","","","0","0","1","0.2782845563","","0.2","0.6","0.8","0.4","","","","","0.2821336973","0.2782845563","0.2599537756","0.09911093426","","","","","","","74","J","1","","","61","main_expt"
"78","","bandit","140","479898","0.0-101.0-0.0","31711383","wem/bandit_either","A2I960JYUZ8KAV","either","1","","","","","","","0","0","1","","0.09440438105","0.2","0.6","0.8","0.4","0.2414244345","0.3165490401","0.2594941563","0.09440438105","","","","","","","","","","","76","L","3","","","62","main_expt"
"414","","bandit","141","481818","0.0-102.0-0.0","31711383","wem/bandit_either","A2I960JYUZ8KAV","either","1","","","","","","","0","0","1","0.2660839385","","0.2","0.6","0.8","0.4","","","","","0.213639373","0.3034564924","0.2660839385","0.1015409351","","","","","","","75","K","2","","","63","main_expt"
"53","","bandit","142","483384","0.0-103.0-0.0","31711383","wem/bandit_either","A2I960JYUZ8KAV","either","1","","","","","","","0","0","1","0.1876308072","","0.2","0.6","0.8","0.4","","","","","0.1876308072","0.2506654962","0.2426585031","0.07049798599","","","","","","","72","H","0","img/none_selected.jpg","","64","main_expt"
"125","","bandit","143","485016","0.0-104.0-0.0","31711383","wem/bandit_either","A2I960JYUZ8KAV","either","1","","","","","","","1","0","0","0.253414466","","0.2","0.6","0.8","0.4","","","","","0.1841803182","0.253414466","0.2581047566","0.05735603507","","","","","","","74","J","1","","","65","main_expt"
"219","","bandit","144","486755","0.0-105.0-0.0","31711383","wem/bandit_either","A2I960JYUZ8KAV","either","1","","","","","","","0","1","0","","0.2836500186","0.2","0.6","0.8","0.4","0.187417598","0.2836500186","0.2872127433","0.0621258055","","","","","","","","","","","74","J","1","","","66","main_expt"
"187","","bandit","145","488463","0.0-106.0-0.0","31711383","wem/bandit_either","A2I960JYUZ8KAV","either","1","","","","","","","0","1","0","","0.3217852231","0.2","0.6","0.8","0.4","0.1395950637","0.3217852231","0.3232337643","0.06966106928","","","","","","","","","","","74","J","1","","","67","main_expt"
"246","","bandit","146","490235","0.0-107.0-0.0","31711383","wem/bandit_either","A2I960JYUZ8KAV","either","1","","","","","","","0","0","1","","0.3574581916","0.2","0.6","0.8","0.4","0.1363519197","0.3574581916","0.3376006622","0.09965709916","","","","","","","","","","","74","J","1","","","68","main_expt"
"152","","bandit","147","491900","0.0-108.0-0.0","31711383","wem/bandit_either","A2I960JYUZ8KAV","either","1","","","","","","","0","0","1","","0.3884563005","0.2","0.6","0.8","0.4","0.1117144852","0.3884563005","0.2917609244","0.1428217854","","","","","","","","","","","74","J","1","","","69","main_expt"
"228","","bandit","148","493638","0.0-109.0-0.0","31711383","wem/bandit_either","A2I960JYUZ8KAV","either","1","","","","","","","0","0","1","0.3920047773","","0.2","0.6","0.8","0.4","","","","","0.09667493602","0.3920047773","0.2218665627","0.1866845388","","","","","","","74","J","1","","","70","main_expt"
"164","","bandit","149","495322","0.0-110.0-0.0","31711383","wem/bandit_either","A2I960JYUZ8KAV","either","1","","","","","","","0","0","1","0.4066376731","","0.2","0.6","0.8","0.4","","","","","0.09186933139","0.4066376731","0.2409383839","0.1702545286","","","","","","","74","J","1","","","71","main_expt"
"126","","bandit","150","496964","0.0-111.0-0.0","31711383","wem/bandit_either","A2I960JYUZ8KAV","either","1","","","","","","","0","1","0","","0.3443789926","0.2","0.6","0.8","0.4","0.09472009463","0.3443789926","0.1920783453","0.1836279043","","","","","","","","","","","74","J","1","","","72","main_expt"
"211","","bandit","151","498696","0.0-112.0-0.0","31711383","wem/bandit_either","A2I960JYUZ8KAV","either","1","","","","","","","0","0","1","0.3227553012","","0.2","0.6","0.8","0.4","","","","","0.1167805336","0.3227553012","0.1905254877","0.1644348242","","","","","","","74","J","1","","","73","main_expt"
"310","","bandit","152","500515","0.0-113.0-0.0","31711383","wem/bandit_either","A2I960JYUZ8KAV","either","1","","","","","","","0","0","1","0.1833421201","","0.2","0.6","0.8","0.4","","","","","0.1465151254","0.3336652139","0.184198213","0.1833421201","","","","","","","76","L","3","","","74","main_expt"
"248","","bandit","153","502272","0.0-114.0-0.0","31711383","wem/bandit_either","A2I960JYUZ8KAV","either","1","","","","","","","0","0","1","","0.2890150868","0.2","0.6","0.8","0.4","0.123285719","0.2890150868","0.1881920243","0.1519653276","","","","","","","","","","","74","J","1","","","75","main_expt"
"84","","bandit","154","503886","0.0-115.0-0.0","31711383","wem/bandit_either","A2I960JYUZ8KAV","either","1","","","","","","","0","0","1","0.2673490463","","0.2","0.6","0.8","0.4","","","","","0.1392606081","0.2673490463","0.1988930589","0.1506622639","","","","","","","74","J","1","","","76","main_expt"
"47","","bandit","155","505448","0.0-116.0-0.0","31711383","wem/bandit_either","A2I960JYUZ8KAV","either","1","","","","","","","0","1","0","","0.2858541315","0.2","0.6","0.8","0.4","0.099337717","0.2858541315","0.2255968657","0.1860897766","","","","","","","","","","","74","J","1","","","77","main_expt"
"47","","bandit","156","507011","0.0-117.0-0.0","31711383","wem/bandit_either","A2I960JYUZ8KAV","either","1","","","","","","","0","0","1","0.1917014014","","0.2","0.6","0.8","0.4","","","","","0.09666605973","0.2639968829","0.1917014014","0.1618556875","","","","","","","75","K","2","","","78","main_expt"
"264","","bandit","157","508783","0.0-118.0-0.0","31711383","wem/bandit_either","A2I960JYUZ8KAV","either","1","","","","","","","0","0","1","0.2304888896","","0.2","0.6","0.8","0.4","","","","","0.09639353985","0.2304888896","0.2092129429","0.1976853889","","","","","","","74","J","1","","","79","main_expt"
"187","","bandit","158","510486","0.0-119.0-0.0","31711383","wem/bandit_either","A2I960JYUZ8KAV","either","1","","","","","","","0","0","1","0.09566996791","","0.2","0.6","0.8","0.4","","","","","0.09566996791","0.1991809665","0.1974306726","0.2198838985","","","","","","","72","H","0","img/none_selected.jpg","","80","main_expt"
"107","","bandit","159","512107","0.0-120.0-0.0","31711383","wem/bandit_either","A2I960JYUZ8KAV","either","1","","","","","","","0","0","1","0.1627434897","","0.2","0.6","0.8","0.4","","","","","0.07958501382","0.1627434897","0.1414754506","0.2167005254","","","","","","","74","J","1","","","81","main_expt"
"80","","bandit","160","513704","0.0-121.0-0.0","31711383","wem/bandit_either","A2I960JYUZ8KAV","either","1","","","","","","","0","0","1","0.1624637972","","0.2","0.6","0.8","0.4","","","","","0.08833774835","0.1624637972","0.1422587364","0.2527486409","","","","","","","74","J","1","","","82","main_expt"
"490","","bandit","161","515722","0.0-122.0-0.0","31711383","wem/bandit_either","A2I960JYUZ8KAV","either","1","","","","","","","1","0","0","0.1900332","","0.2","0.6","0.8","0.4","","","","","0.09109006352","0.1900332","0.1079415531","0.2569721607","","","","","","","74","J","1","","","83","main_expt"
"363","","bandit","162","517593","0.0-123.0-0.0","31711383","wem/bandit_either","A2I960JYUZ8KAV","either","1","","","","","","","0","0","1","","0.1705646391","0.2","0.6","0.8","0.4","0.05321730921","0.1705646391","0.07696487024","0.2535394321","","","","","","","","","","","74","J","1","","","84","main_expt"
"93","","bandit","163","519213","0.0-124.0-0.0","31711383","wem/bandit_either","A2I960JYUZ8KAV","either","1","","","","","","","0","0","1","","0.2053302659","0.2","0.6","0.8","0.4","0.03321009489","0.2053302659","0.08313016423","0.2255799186","","","","","","","","","","","74","J","1","","","85","main_expt"
"122","","bandit","164","520846","0.0-125.0-0.0","31711383","wem/bandit_either","A2I960JYUZ8KAV","either","1","","","","","","","0","0","1","","0.2197080914","0.2","0.6","0.8","0.4","0.04864990798","0.2128685413","0.102083396","0.2197080914","","","","","","","","","","","76","L","3","","","86","main_expt"
"373","","bandit","165","522754","0.0-126.0-0.0","31711383","wem/bandit_either","A2I960JYUZ8KAV","either","1","","","","","","","0","0","1","","0.09067070718","0.2","0.6","0.8","0.4","0.07919268752","0.213778815","0.09067070718","0.2230338057","","","","","","","","","","","75","K","2","","","87","main_expt"
"84","","bandit","166","524354","0.0-127.0-0.0","31711383","wem/bandit_either","A2I960JYUZ8KAV","either","1","","","","","","","1","0","0","0.2102340809","","0.2","0.6","0.8","0.4","","","","","0.05835116993","0.2102340809","0.1421970704","0.2484269739","","","","","","","74","J","1","","","88","main_expt"
"225","","bandit","167","526102","0.0-128.0-0.0","31711383","wem/bandit_either","A2I960JYUZ8KAV","either","1","","","","","","","0","0","1","0.1809358483","","0.2","0.6","0.8","0.4","","","","","0.05115519592","0.1809358483","0.219142046","0.2733562597","","","","","","","74","J","1","","","89","main_expt"
"2","","bandit","168","527625","0.0-129.0-0.0","31711383","wem/bandit_either","A2I960JYUZ8KAV","either","1","","","","","","","0","0","1","0.2806923657","","0.2","0.6","0.8","0.4","","","","","0.07819273649","0.1293356972","0.2806923657","0.2973868449","","","","","","","75","K","2","","","90","main_expt"
"69","","bandit","169","529217","0.0-130.0-0.0","31711383","wem/bandit_either","A2I960JYUZ8KAV","either","1","","","","","","","0","0","1","","0.05564661524","0.2","0.6","0.8","0.4","0.05564661524","0.1136224352","0.2819660137","0.3067689268","","","","","","","","","","","72","H","0","img/none_selected.jpg","","91","main_expt"
"107","","bandit","170","530832","0.0-131.0-0.0","31711383","wem/bandit_either","A2I960JYUZ8KAV","either","1","","","","","","","0","0","1","","0.07539152519","0.2","0.6","0.8","0.4","0.05914103421","0.07539152519","0.3370305887","0.2719776188","","","","","","","","","","","74","J","1","","","92","main_expt"
"275","","bandit","171","532625","0.0-132.0-0.0","31711383","wem/bandit_either","A2I960JYUZ8KAV","either","1","","","","","","","0","0","1","","0.3081791896","0.2","0.6","0.8","0.4","0.03944324463","0.08243558305","0.3722719914","0.3081791896","","","","","","","","","","","76","L","3","","","93","main_expt"
"304","","bandit","172","534437","0.0-133.0-0.0","31711383","wem/bandit_either","A2I960JYUZ8KAV","either","1","","","","","","","1","0","0","0.09807673793","","0.2","0.6","0.8","0.4","","","","","0.05023017475","0.09807673793","0.3840030774","0.356667856","","","","","","","74","J","1","","","94","main_expt"
"140","","bandit","173","536087","0.0-134.0-0.0","31711383","wem/bandit_either","A2I960JYUZ8KAV","either","1","","","","","","","0","0","1","0.09746204728","","0.2","0.6","0.8","0.4","","","","","0.07311956304","0.09746204728","0.4050844552","0.3300765204","","","","","","","74","J","1","","","95","main_expt"
"789","","bandit","174","538385","0.0-135.0-0.0","31711383","wem/bandit_either","A2I960JYUZ8KAV","either","1","","","","","","","0","0","1","0.08559835745","","0.2","0.6","0.8","0.4","","","","","0.09573717159","0.08559835745","0.4081076376","0.3642735905","","","","","","","74","J","1","","","96","main_expt"
"159","","bandit","175","540050","0.0-136.0-0.0","31711383","wem/bandit_either","A2I960JYUZ8KAV","either","1","","","","","","","0","0","1","0.0732645996","","0.2","0.6","0.8","0.4","","","","","0.1235519285","0.0732645996","0.4142780263","0.3885664579","","","","","","","74","J","1","","","97","main_expt"
"2","","bandit","176","541568","0.0-137.0-0.0","31711383","wem/bandit_either","A2I960JYUZ8KAV","either","1","","","","","","","0","0","1","","0.05343209845","0.2","0.6","0.8","0.4","0.1274282425","0.05343209845","0.4131193208","0.4162912028","","","","","","","","","","","74","J","1","","","98","main_expt"
"302","","bandit","177","543397","0.0-138.0-0.0","31711383","wem/bandit_either","A2I960JYUZ8KAV","either","1","","","","","","","0","0","1","0.428944851","","0.2","0.6","0.8","0.4","","","","","0.1457321849","0.05144299931","0.428944851","0.4074153657","","","","","","","75","K","2","","","99","main_expt"
"101","","bandit","178","545031","0.0-139.0-0.0","31711383","wem/bandit_either","A2I960JYUZ8KAV","either","1","","","","","","","0","0","1","","0.03934302155","0.2","0.6","0.8","0.4","0.1492128348","0.03934302155","0.4279797645","0.3349137267","","","","","","","","","","","74","J","1","","","100","main_expt"
"131","","bandit","179","546676","0.0-140.0-0.0","31711383","wem/bandit_either","A2I960JYUZ8KAV","either","1","","","","","","","0","0","1","","0.05783306622","0.2","0.6","0.8","0.4","0.125019219","0.05783306622","0.4189249443","0.2732947861","","","","","","","","","","","74","J","1","","","101","main_expt"
"61","","bandit","180","548245","0.0-141.0-0.0","31711383","wem/bandit_either","A2I960JYUZ8KAV","either","1","","","","","","","0","0","1","0.4279241466","","0.2","0.6","0.8","0.4","","","","","0.1008510245","0.06484492547","0.4279241466","0.2584454073","","","","","","","75","K","2","","","102","main_expt"
"307","","bandit","181","550083","0.0-142.0-0.0","31711383","wem/bandit_either","A2I960JYUZ8KAV","either","1","","","","","","","0","0","1","0.2143891894","","0.2","0.6","0.8","0.4","","","","","0.1087281004","0.0701259157","0.419390052","0.2143891894","","","","","","","76","L","3","","","103","main_expt"
"129","","bandit","182","551731","0.0-143.0-0.0","31711383","wem/bandit_either","A2I960JYUZ8KAV","either","1","","","","","","","0","0","1","0.1354346047","","0.2","0.6","0.8","0.4","","","","","0.143855427","0.06922647753","0.3761202226","0.1354346047","","","","","","","76","L","3","","","104","main_expt"
"108","","bandit","183","553369","0.0-144.0-0.0","31711383","wem/bandit_either","A2I960JYUZ8KAV","either","1","","","","","","","0","0","1","0.1615963473","","0.2","0.6","0.8","0.4","","","","","0.1606853024","0.07802312096","0.4229881466","0.1615963473","","","","","","","76","L","3","","","105","main_expt"
"99","","bandit","184","554994","0.0-145.0-0.0","31711383","wem/bandit_either","A2I960JYUZ8KAV","either","1","","","","","","","0","0","1","0.1738621023","","0.2","0.6","0.8","0.4","","","","","0.1612939645","0.08930313369","0.4110558218","0.1738621023","","","","","","","76","L","3","","","106","main_expt"
"171","","bandit","185","556681","0.0-146.0-0.0","31711383","wem/bandit_either","A2I960JYUZ8KAV","either","1","","","","","","","0","0","1","","0.1799671425","0.2","0.6","0.8","0.4","0.1778053335","0.1397733654","0.4176599015","0.1799671425","","","","","","","","","","","76","L","3","","","107","main_expt"
"111","","bandit","186","558307","0.0-147.0-0.0","31711383","wem/bandit_either","A2I960JYUZ8KAV","either","1","","","","","","","0","0","1","","0.1844274074","0.2","0.6","0.8","0.4","0.1826465361","0.1505899732","0.4210396584","0.1844274074","","","","","","","","","","","76","L","3","","","108","main_expt"
"32","","bandit","187","559861","0.0-148.0-0.0","31711383","wem/bandit_either","A2I960JYUZ8KAV","either","1","","","","","","","0","0","1","0.4328015469","","0.2","0.6","0.8","0.4","","","","","0.1737022726","0.1162436109","0.4328015469","0.1702708828","","","","","","","75","K","2","","","109","main_expt"
"36","","bandit","188","561417","0.0-149.0-0.0","31711383","wem/bandit_either","A2I960JYUZ8KAV","either","1","","","","","","","1","0","0","0.4495585744","","0.2","0.6","0.8","0.4","","","","","0.1658344406","0.08267976014","0.4495585744","0.1964407335","","","","","","","75","K","2","","","110","main_expt"
"192","","bandit","189","563134","0.0-150.0-0.0","31711383","wem/bandit_either","A2I960JYUZ8KAV","either","1","","","","","","","1","0","0","0.4237631325","","0.2","0.6","0.8","0.4","","","","","0.240619448","0.09389793805","0.4237631325","0.1777579569","","","","","","","75","K","2","","","111","main_expt"
"189","","bandit","190","564838","0.0-151.0-0.0","31711383","wem/bandit_either","A2I960JYUZ8KAV","either","1","","","","","","","0","0","1","0.4521571561","","0.2","0.6","0.8","0.4","","","","","0.1927397719","0.07903418564","0.4521571561","0.1395994444","","","","","","","75","K","2","","","112","main_expt"
"32","","bandit","191","566385","0.0-152.0-0.0","31711383","wem/bandit_either","A2I960JYUZ8KAV","either","1","","","","","","","0","0","1","0.4350762846","","0.2","0.6","0.8","0.4","","","","","0.234725565","0.05501139052","0.4350762846","0.1205999431","","","","","","","75","K","2","","","113","main_expt"
"179","","bandit","192","568094","0.0-153.0-0.0","31711383","wem/bandit_either","A2I960JYUZ8KAV","either","1","","","","","","","0","0","1","","0.4315824664","0.2","0.6","0.8","0.4","0.1950215869","0.07627702456","0.4315824664","0.09123355482","","","","","","","","","","","75","K","2","","","114","main_expt"
"133","","bandit","193","569747","0.0-154.0-0.0","31711383","wem/bandit_either","A2I960JYUZ8KAV","either","1","","","","","","","0","1","0","","0.4127349624","0.2","0.6","0.8","0.4","0.2575833325","0.03985247356","0.4127349624","0.09554471192","","","","","","","","","","","75","K","2","","","115","main_expt"
"170","","bandit","194","571432","0.0-155.0-0.0","31711383","wem/bandit_either","A2I960JYUZ8KAV","either","1","","","","","","","0","0","1","","0.4468356006","0.2","0.6","0.8","0.4","0.2296468005","0.0683792979","0.4468356006","0.1942182492","","","","","","","","","","","75","K","2","","","116","main_expt"
"379","","bandit","195","573319","0.0-156.0-0.0","31711383","wem/bandit_either","A2I960JYUZ8KAV","either","1","","","","","","","0","0","1","0.4458703805","","0.2","0.6","0.8","0.4","","","","","0.2816483341","0.03956212276","0.4458703805","0.2208250117","","","","","","","75","K","2","","","117","main_expt"
"181","","bandit","196","575013","0.0-157.0-0.0","31711383","wem/bandit_either","A2I960JYUZ8KAV","either","1","","","","","","","1","0","0","0.4500370674","","0.2","0.6","0.8","0.4","","","","","0.2626769985","0.04459229253","0.4500370674","0.1687975443","","","","","","","75","K","2","","","118","main_expt"
"135","","bandit","197","576668","0.0-158.0-0.0","31711383","wem/bandit_either","A2I960JYUZ8KAV","either","1","","","","","","","1","0","0","0.4704359259","","0.2","0.6","0.8","0.4","","","","","0.2418090277","0.03386957434","0.4704359259","0.1546105485","","","","","","","75","K","2","","","119","main_expt"
"127","","bandit","198","578320","0.0-159.0-0.0","31711383","wem/bandit_either","A2I960JYUZ8KAV","either","1","","","","","","","0","0","1","0.4578798539","","0.2","0.6","0.8","0.4","","","","","0.2603236095","0.03305427522","0.4578798539","0.143668411","","","","","","","75","K","2","","","120","main_expt"
"146","","bandit","199","579983","0.0-160.0-0.0","31711383","wem/bandit_either","A2I960JYUZ8KAV","either","1","","","","","","","0","0","1","0.4591190262","","0.2","0.6","0.8","0.4","","","","","0.2381785671","0.03146098963","0.4591190262","0.1098317425","","","","","","","75","K","2","","","121","main_expt"
"57","","bandit","200","581553","0.0-161.0-0.0","31711383","wem/bandit_either","A2I960JYUZ8KAV","either","1","","","","","","","0","0","1","","0.4643737298","0.2","0.6","0.8","0.4","0.2388462554","0.02311797033","0.4643737298","0.1097832873","","","","","","","","","","","75","K","2","","","122","main_expt"
"42","","bandit","201","583118","0.0-162.0-0.0","31711383","wem/bandit_either","A2I960JYUZ8KAV","either","1","","","","","","","0","0","1","0.451586091","","0.2","0.6","0.8","0.4","","","","","0.2079929623","0.0171261738","0.451586091","0.1145900252","","","","","","","75","K","2","","","123","main_expt"
"74","","bandit","202","584718","0.0-163.0-0.0","31711383","wem/bandit_either","A2I960JYUZ8KAV","either","1","","","","","","","0","0","1","","0.2148400852","0.2","0.6","0.8","0.4","0.2148400852","0.03468299263","0.4456906556","0.1137783892","","","","","","","","","","","72","H","0","img/none_selected.jpg","","124","main_expt"
"3","","bandit","203","586229","0.0-164.0-0.0","31711383","wem/bandit_either","A2I960JYUZ8KAV","either","1","","","","","","","0","0","1","","0.2185056602","0.2","0.6","0.8","0.4","0.2185056602","0.02544516396","0.4240876494","0.145605256","","","","","","","","","","","72","H","0","img/none_selected.jpg","","125","main_expt"
"319","","bandit","204","588079","0.0-165.0-0.0","31711383","wem/bandit_either","A2I960JYUZ8KAV","either","1","","","","","","","0","0","1","","0.2152323899","0.2","0.6","0.8","0.4","0.2152323899","0.03059506073","0.4008501573","0.1443839055","","","","","","","","","","","72","H","0","img/none_selected.jpg","","126","main_expt"
"18","","bandit","205","589615","0.0-166.0-0.0","31711383","wem/bandit_either","A2I960JYUZ8KAV","either","1","","","","","","","0","0","1","","0.1699446714","0.2","0.6","0.8","0.4","0.1699446714","0.0339638967","0.4066073101","0.1434222382","","","","","","","","","","","72","H","0","img/none_selected.jpg","","127","main_expt"
"124","","bandit","206","591247","0.0-167.0-0.0","31711383","wem/bandit_either","A2I960JYUZ8KAV","either","1","","","","","","","0","0","1","0.1299446217","","0.2","0.6","0.8","0.4","","","","","0.1299446217","0.02632978063","0.4270302575","0.1412168693","","","","","","","72","H","0","img/none_selected.jpg","","128","main_expt"
"71","","bandit","207","592839","0.0-168.0-0.0","31711383","wem/bandit_either","A2I960JYUZ8KAV","either","1","","","","","","","0","0","1","0.4401824822","","0.2","0.6","0.8","0.4","","","","","0.1299487573","0.02640977482","0.4401824822","0.1086871361","","","","","","","75","K","2","","","129","main_expt"
"67","","bandit","208","594431","0.0-169.0-0.0","31711383","wem/bandit_either","A2I960JYUZ8KAV","either","1","","","","","","","0","0","1","","0.1672766288","0.2","0.6","0.8","0.4","0.1172580566","0.03646961518","0.4160959849","0.1672766288","","","","","","","","","","","76","L","3","","","130","main_expt"
"99","","bandit","209","596043","0.0-170.0-0.0","31711383","wem/bandit_either","A2I960JYUZ8KAV","either","1","","","","","","","0","0","1","","0.157110596","0.2","0.6","0.8","0.4","0.1289979545","0.02171712127","0.4374535298","0.157110596","","","","","","","","","","","76","L","3","","","131","main_expt"
"137","","bandit","210","597702","0.0-171.0-0.0","31711383","wem/bandit_either","A2I960JYUZ8KAV","either","1","","","","","","","0","0","1","","0.1338697581","0.2","0.6","0.8","0.4","0.1243754988","0.01004766493","0.4382483821","0.1338697581","","","","","","","","","","","76","L","3","","","132","main_expt"
"239","","bandit","211","599464","0.0-172.0-0.0","31711383","wem/bandit_either","A2I960JYUZ8KAV","either","1","","","","","","","0","0","1","","0.1101669797","0.2","0.6","0.8","0.4","0.1189203389","0.005153708139","0.3913946914","0.1101669797","","","","","","","","","","","76","L","3","","","133","main_expt"
"37","","bandit","212","601015","0.0-173.0-0.0","31711383","wem/bandit_either","A2I960JYUZ8KAV","either","1","","","","","","","1","0","0","0.4280120537","","0.2","0.6","0.8","0.4","","","","","0.07075860378","0.01308543257","0.4280120537","0.060775537","","","","","","","75","K","2","","","134","main_expt"
"194","","bandit","213","602718","0.0-174.0-0.0","31711383","wem/bandit_either","A2I960JYUZ8KAV","either","1","","","","","","","0","0","1","0.4385213509","","0.2","0.6","0.8","0.4","","","","","0.1073185777","0.02634180281","0.4385213509","0.0714416082","","","","","","","75","K","2","","","135","main_expt"
"121","","bandit","214","604357","0.0-175.0-0.0","31711383","wem/bandit_either","A2I960JYUZ8KAV","either","1","","","","","","","0","0","1","","0.4605212521","0.2","0.6","0.8","0.4","0.1001442491","0.04122629063","0.4605212521","0.1115096907","","","","","","","","","","","75","K","2","","","136","main_expt"
"144","","bandit","215","606019","0.0-176.0-0.0","31711383","wem/bandit_either","A2I960JYUZ8KAV","either","1","","","","","","","1","0","0","0.4729500637","","0.2","0.6","0.8","0.4","","","","","0.1736681681","0.05517648788","0.4729500637","0.1307091067","","","","","","","75","K","2","","","137","main_expt"
"243","","bandit","216","607778","0.0-177.0-0.0","31711383","wem/bandit_either","A2I960JYUZ8KAV","either","1","","","","","","","1","0","0","0.4705425907","","0.2","0.6","0.8","0.4","","","","","0.1839908368","0.05929415862","0.4705425907","0.1289533412","","","","","","","75","K","2","","","138","main_expt"
"64","","bandit","217","609370","0.0-178.0-0.0","31711383","wem/bandit_either","A2I960JYUZ8KAV","either","1","","","","","","","0","0","1","0.465423541","","0.2","0.6","0.8","0.4","","","","","0.1500833973","0.05470710098","0.465423541","0.1215972271","","","","","","","75","K","2","","","139","main_expt"
"214","","bandit","218","611117","0.0-179.0-0.0","31711383","wem/bandit_either","A2I960JYUZ8KAV","either","1","","","","","","","0","0","1","0.4486857012","","0.2","0.6","0.8","0.4","","","","","0.1718879457","0.06062538604","0.4486857012","0.1158179575","","","","","","","75","K","2","","","140","main_expt"
"1673","","bandit","219","614320","0.0-180.0-0.0","31711383","wem/bandit_either","A2I960JYUZ8KAV","either","1","","","","","","","0","0","1","0.4053061298","","0.2","0.6","0.8","0.4","","","","","0.2025036279","0.05819772386","0.4053061298","0.08691297649","","","","","","","75","K","2","","","141","main_expt"
"146","","bandit","220","615994","0.0-181.0-0.0","31711383","wem/bandit_either","A2I960JYUZ8KAV","either","1","","","","","","","0","0","1","0.3989731656","","0.2","0.6","0.8","0.4","","","","","0.1872564568","0.05329701838","0.3989731656","0.1425267255","","","","","","","75","K","2","","","142","main_expt"
"2","","bandit","221","617512","0.0-182.0-0.0","31711383","wem/bandit_either","A2I960JYUZ8KAV","either","1","","","","","","","0","0","1","","0.1425141192","0.2","0.6","0.8","0.4","0.1676641842","0.06209903385","0.3783570596","0.1425141192","","","","","","","","","","","76","L","3","","","143","main_expt"
"92","","bandit","222","619129","0.0-183.0-0.0","31711383","wem/bandit_either","A2I960JYUZ8KAV","either","1","","","","","","","0","1","0","","0.1362652721","0.2","0.6","0.8","0.4","0.1502987652","0.06954729647","0.3485663762","0.1362652721","","","","","","","","","","","76","L","3","","","144","main_expt"
"228","","bandit","223","620885","0.0-184.0-0.0","31711383","wem/bandit_either","A2I960JYUZ8KAV","either","1","","","","","","","0","0","1","0.1335650053","","0.2","0.6","0.8","0.4","","","","","0.1050568962","0.062760129","0.3534190037","0.1335650053","","","","","","","76","L","3","","","145","main_expt"
"79","","bandit","224","622488","0.0-185.0-0.0","31711383","wem/bandit_either","A2I960JYUZ8KAV","either","1","","","","","","","0","0","1","","0.1266784727","0.2","0.6","0.8","0.4","0.1266784727","0.05014677947","0.342282706","0.1392461982","","","","","","","","","","","72","H","0","img/none_selected.jpg","","146","main_expt"
"49","","bandit","225","624059","0.0-186.0-0.0","31711383","wem/bandit_either","A2I960JYUZ8KAV","either","1","","","","","","","0","0","1","","0.1060810453","0.2","0.6","0.8","0.4","0.1121887101","0.04801868921","0.3497384939","0.1060810453","","","","","","","","","","","76","L","3","","","147","main_expt"
"114","","bandit","226","625698","0.0-187.0-0.0","31711383","wem/bandit_either","A2I960JYUZ8KAV","either","1","","","","","","","0","0","1","0.1076054289","","0.2","0.6","0.8","0.4","","","","","0.1050077765","0.05298179562","0.3507348305","0.1076054289","","","","","","","76","L","3","","","148","main_expt"
"524","","bandit","227","627740","0.0-188.0-0.0","31711383","wem/bandit_either","A2I960JYUZ8KAV","either","1","","","","","","","0","0","1","","0.09143227578","0.2","0.6","0.8","0.4","0.08725679698","0.05271587927","0.306786392","0.09143227578","","","","","","","","","","","76","L","3","","","149","main_expt"
"202","","bandit","228","629462","0.0-189.0-0.0","31711383","wem/bandit_either","A2I960JYUZ8KAV","either","1","","","","","","","0","0","1","0.08361181256","","0.2","0.6","0.8","0.4","","","","","0.04813781364","0.06153260368","0.3289077467","0.08361181256","","","","","","","76","L","3","","","150","main_expt"
"168","","bandit","229","631140","0.0-190.0-0.0","31711383","wem/bandit_either","A2I960JYUZ8KAV","either","1","","","","","","","1","0","0","0.2844912386","","0.2","0.6","0.8","0.4","","","","","0.04690393958","0.07716317934","0.2844912386","0.1038450747","","","","","","","75","K","2","","","151","main_expt"
"183","","bandit","230","632854","0.0-191.0-0.0","31711383","wem/bandit_either","A2I960JYUZ8KAV","either","1","","","","","","","0","0","1","0.3221551402","","0.2","0.6","0.8","0.4","","","","","0.05051779207","0.08370894892","0.3221551402","0.1311897928","","","","","","","75","K","2","","","152","main_expt"
"57","","bandit","231","634429","0.0-192.0-0.0","31711383","wem/bandit_either","A2I960JYUZ8KAV","either","1","","","","","","","0","0","1","0.288581716","","0.2","0.6","0.8","0.4","","","","","0.0417019452","0.06235129306","0.288581716","0.1106636196","","","","","","","75","K","2","","","153","main_expt"
"387","","bandit","232","636324","0.0-193.0-0.0","31711383","wem/bandit_either","A2I960JYUZ8KAV","either","1","","","","","","","0","0","1","0.3674714493","","0.2","0.6","0.8","0.4","","","","","0.04565059468","0.08808261531","0.3674714493","0.08044616817","","","","","","","75","K","2","","","154","main_expt"
"379","","bandit","233","638216","0.0-194.0-0.0","31711383","wem/bandit_either","A2I960JYUZ8KAV","either","1","","","","","","","1","0","0","0.3836765626","","0.2","0.6","0.8","0.4","","","","","0.0249337719","0.08415746701","0.3836765626","0.09849608375","","","","","","","75","K","2","","","155","main_expt"
"252","","bandit","234","639990","0.0-195.0-0.0","31711383","wem/bandit_either","A2I960JYUZ8KAV","either","1","","","","","","","1","0","0","0.3499766022","","0.2","0.6","0.8","0.4","","","","","0.0207568711","0.1363215429","0.3499766022","0.0679626842","","","","","","","75","K","2","","","156","main_expt"
"157","","bandit","235","641659","0.0-196.0-0.0","31711383","wem/bandit_either","A2I960JYUZ8KAV","either","1","","","","","","","0","0","1","0.3083455354","","0.2","0.6","0.8","0.4","","","","","0.01044871803","0.176329139","0.3083455354","0.06316877849","","","","","","","75","K","2","","","157","main_expt"
"281","","bandit","236","643452","0.0-197.0-0.0","31711383","wem/bandit_either","A2I960JYUZ8KAV","either","1","","","","","","","0","0","1","0.2780985587","","0.2","0.6","0.8","0.4","","","","","0.008486032171","0.2239815039","0.2780985587","0.06381796224","","","","","","","75","K","2","","","158","main_expt"
"92","","bandit","237","645061","0.0-198.0-0.0","31711383","wem/bandit_either","A2I960JYUZ8KAV","either","1","","","","","","","1","0","0","0.2721424699","","0.2","0.6","0.8","0.4","","","","","0.006770001311","0.1754735631","0.2721424699","0.09986374221","","","","","","","75","K","2","","","159","main_expt"
"180","","bandit","238","646752","0.0-199.0-0.0","31711383","wem/bandit_either","A2I960JYUZ8KAV","either","1","","","","","","","0","0","1","0.3005636977","","0.2","0.6","0.8","0.4","","","","","0.005009972043","0.1820859676","0.3005636977","0.08334790929","","","","","","","75","K","2","","","160","main_expt"
"449","","bandit","239","648721","0.0-200.0-0.0","31711383","wem/bandit_either","A2I960JYUZ8KAV","either","1","","","","","","","0","0","1","0.2481613967","","0.2","0.6","0.8","0.4","","","","","0.003825417776","0.1771527669","0.2481613967","0.1094566723","","","","","","","75","K","2","","","161","main_expt"
"192","","bandit","240","650443","0.0-201.0-0.0","31711383","wem/bandit_either","A2I960JYUZ8KAV","either","1","","","","","","","0","0","1","0.2040880477","","0.2","0.6","0.8","0.4","","","","","0.006458278423","0.209245514","0.2040880477","0.1287108975","","","","","","","75","K","2","","","162","main_expt"
"171","","bandit","241","652148","0.0-202.0-0.0","31711383","wem/bandit_either","A2I960JYUZ8KAV","either","1","","","","","","","1","0","0","0.256608811","","0.2","0.6","0.8","0.4","","","","","0.01344146107","0.1864252411","0.256608811","0.1811808859","","","","","","","75","K","2","","","163","main_expt"
"227","","bandit","242","653887","0.0-203.0-0.0","31711383","wem/bandit_either","A2I960JYUZ8KAV","either","1","","","","","","","0","0","1","0.2798468236","","0.2","0.6","0.8","0.4","","","","","0.004940614731","0.1662237337","0.2798468236","0.1374611454","","","","","","","75","K","2","","","164","main_expt"
"88","","bandit","243","655505","0.0-204.0-0.0","31711383","wem/bandit_either","A2I960JYUZ8KAV","either","1","","","","","","","0","0","1","0.2689568899","","0.2","0.6","0.8","0.4","","","","","0.007349038951","0.1375661656","0.2689568899","0.1640313333","","","","","","","75","K","2","","","165","main_expt"
"187","","bandit","244","657212","0.0-205.0-0.0","31711383","wem/bandit_either","A2I960JYUZ8KAV","either","1","","","","","","","0","0","1","","0.2786045926","0.2","0.6","0.8","0.4","0.005679103294","0.1416727521","0.2786045926","0.20052236","","","","","","","","","","","75","K","2","","","166","main_expt"
"45","","bandit","245","658767","0.0-206.0-0.0","31711383","wem/bandit_either","A2I960JYUZ8KAV","either","1","","","","","","","0","0","1","0.2507583434","","0.2","0.6","0.8","0.4","","","","","0.004037182679","0.1497541138","0.2507583434","0.1945206589","","","","","","","75","K","2","","","167","main_expt"
"124","","bandit","246","660415","0.0-207.0-0.0","31711383","wem/bandit_either","A2I960JYUZ8KAV","either","1","","","","","","","0","0","1","","0.1761460581","0.2","0.6","0.8","0.4","0.007111326723","0.1761460581","0.1827624484","0.1902154162","","","","","","","","","","","74","J","1","","","168","main_expt"
"149","","bandit","247","662089","0.0-208.0-0.0","31711383","wem/bandit_either","A2I960JYUZ8KAV","either","1","","","","","","","0","0","1","0.2248215173","","0.2","0.6","0.8","0.4","","","","","0.01708305062","0.2248215173","0.1558723634","0.1931964682","","","","","","","74","J","1","","","169","main_expt"
"154","","bandit","248","663757","0.0-209.0-0.0","31711383","wem/bandit_either","A2I960JYUZ8KAV","either","1","","","","","","","0","0","1","0.2503105048","","0.2","0.6","0.8","0.4","","","","","0.02105388628","0.2503105048","0.1757164868","0.236179436","","","","","","","74","J","1","","","170","main_expt"
"445","","bandit","249","665718","0.0-210.0-0.0","31711383","wem/bandit_either","A2I960JYUZ8KAV","either","1","","","","","","","0","0","1","","0.2515708499","0.2","0.6","0.8","0.4","0.01477187034","0.2515708499","0.1985597056","0.2229285478","","","","","","","","","","","74","J","1","","","171","main_expt"
"279","","bandit","250","667521","0.0-211.0-0.0","31711383","wem/bandit_either","A2I960JYUZ8KAV","either","1","","","","","","","0","1","0","","0.1805811295","0.2","0.6","0.8","0.4","0.00639283578","0.2601117771","0.1725269859","0.1805811295","","","","","","","","","","","76","L","3","","","172","main_expt"
"254","","bandit","251","669289","0.0-212.0-0.0","31711383","wem/bandit_either","A2I960JYUZ8KAV","either","1","","","","","","","0","0","1","0.2203049146","","0.2","0.6","0.8","0.4","","","","","0.008503536177","0.2277859889","0.1955807132","0.2203049146","","","","","","","76","L","3","","","173","main_expt"
"379","","bandit","252","671199","0.0-213.0-0.0","31711383","wem/bandit_either","A2I960JYUZ8KAV","either","1","","","","","","","0","0","1","0.2079245196","","0.2","0.6","0.8","0.4","","","","","0.01512836446","0.204090619","0.1712969398","0.2079245196","","","","","","","76","L","3","","","174","main_expt"
"347","","bandit","253","673084","0.0-214.0-0.0","31711383","wem/bandit_either","A2I960JYUZ8KAV","either","1","","","","","","","0","0","1","0.1904909119","","0.2","0.6","0.8","0.4","","","","","0.034550241","0.2264282848","0.2145566876","0.1904909119","","","","","","","76","L","3","","","175","main_expt"
"237","","bandit","254","674855","0.0-215.0-0.0","31711383","wem/bandit_either","A2I960JYUZ8KAV","either","1","","","","","","","0","0","1","","0.1611975006","0.2","0.6","0.8","0.4","0.01969997198","0.2263436383","0.1987050603","0.1611975006","","","","","","","","","","","76","L","3","","","176","main_expt"
"284","","bandit","255","676666","0.0-216.0-0.0","31711383","wem/bandit_either","A2I960JYUZ8KAV","either","1","","","","","","","0","0","1","0.1747210449","","0.2","0.6","0.8","0.4","","","","","0.02558747067","0.2449632337","0.2161967517","0.1747210449","","","","","","","76","L","3","","","177","main_expt"
"143","","bandit","256","678323","0.0-217.0-0.0","31711383","wem/bandit_either","A2I960JYUZ8KAV","either","1","","","","","","","0","0","1","0.1923885174","","0.2","0.6","0.8","0.4","","","","","0.02865462312","0.1923885174","0.1790488899","0.1667690144","","","","","","","74","J","1","","","178","main_expt"
"241","","bandit","257","680100","0.0-218.0-0.0","31711383","wem/bandit_either","A2I960JYUZ8KAV","either","1","","","","","","","0","0","1","","0.1791230597","0.2","0.6","0.8","0.4","0.05873937836","0.1791230597","0.1254539317","0.248539666","","","","","","","","","","","74","J","1","","","179","main_expt"
"187","","bandit","258","681812","0.0-219.0-0.0","31711383","wem/bandit_either","A2I960JYUZ8KAV","either","1","","","","","","","0","0","1","0.1641305094","","0.2","0.6","0.8","0.4","","","","","0.04996702027","0.1641305094","0.1761702366","0.2393284063","","","","","","","74","J","1","","","180","main_expt"
"241","","bandit","259","683570","0.0-220.0-0.0","31711383","wem/bandit_either","A2I960JYUZ8KAV","either","1","","","","","","","0","0","1","0.1567194189","","0.2","0.6","0.8","0.4","","","","","0.06192223509","0.1567194189","0.2307221343","0.2450765022","","","","","","","74","J","1","","","181","main_expt"
"236","","bandit","260","685323","0.0-221.0-0.0","31711383","wem/bandit_either","A2I960JYUZ8KAV","either","1","","","","","","","0","0","1","","0.07865608963","0.2","0.6","0.8","0.4","0.07865608963","0.1805899487","0.1656926355","0.2898963007","","","","","","","","","","","72","H","0","img/none_selected.jpg","","182","main_expt"
"121","","bandit","261","686963","0.0-222.0-0.0","31711383","wem/bandit_either","A2I960JYUZ8KAV","either","1","","","","","","","0","0","1","","0.0695036973","0.2","0.6","0.8","0.4","0.0695036973","0.1381226487","0.1997223474","0.337419987","","","","","","","","","","","72","H","0","img/none_selected.jpg","","183","main_expt"
"76","","bandit","262","688560","0.0-223.0-0.0","31711383","wem/bandit_either","A2I960JYUZ8KAV","either","1","","","","","","","0","0","1","","0.09883674892","0.2","0.6","0.8","0.4","0.09883674892","0.1157029232","0.1936006223","0.3334404967","","","","","","","","","","","72","H","0","img/none_selected.jpg","","184","main_expt"
"252","","bandit","263","690339","0.0-224.0-0.0","31711383","wem/bandit_either","A2I960JYUZ8KAV","either","1","","","","","","","0","0","1","","0.1344132801","0.2","0.6","0.8","0.4","0.1344132801","0.09007466759","0.1794548994","0.3049781316","","","","","","","","","","","72","H","0","img/none_selected.jpg","","185","main_expt"
"302","","bandit","264","692175","0.0-225.0-0.0","31711383","wem/bandit_either","A2I960JYUZ8KAV","either","1","","","","","","","0","0","1","0.1194183803","","0.2","0.6","0.8","0.4","","","","","0.1194183803","0.07784091677","0.1679588243","0.322039184","","","","","","","72","H","0","img/none_selected.jpg","","186","main_expt"
"197","","bandit","265","693886","0.0-226.0-0.0","31711383","wem/bandit_either","A2I960JYUZ8KAV","either","1","","","","","","","1","0","0","0.1692259204","","0.2","0.6","0.8","0.4","","","","","0.1456002269","0.1332261693","0.1692259204","0.2898485093","","","","","","","75","K","2","","","187","main_expt"
"274","","bandit","266","695691","0.0-227.0-0.0","31711383","wem/bandit_either","A2I960JYUZ8KAV","either","1","","","","","","","0","0","1","0.1796926114","","0.2","0.6","0.8","0.4","","","","","0.1008589119","0.1302169342","0.1796926114","0.3046836684","","","","","","","75","K","2","","","188","main_expt"
"313","","bandit","267","697520","0.0-228.0-0.0","31711383","wem/bandit_either","A2I960JYUZ8KAV","either","1","","","","","","","0","0","1","0.1463090895","","0.2","0.6","0.8","0.4","","","","","0.09109327247","0.1459867673","0.1463090895","0.3437642557","","","","","","","75","K","2","","","189","main_expt"
"311","","bandit","268","699355","0.0-229.0-0.0","31711383","wem/bandit_either","A2I960JYUZ8KAV","either","1","","","","","","","0","0","1","0.1670442817","","0.2","0.6","0.8","0.4","","","","","0.133333279","0.1930387326","0.1670442817","0.3685715368","","","","","","","75","K","2","","","190","main_expt"
"242","","bandit","269","701116","0.0-230.0-0.0","31711383","wem/bandit_either","A2I960JYUZ8KAV","either","1","","","","","","","0","0","1","0.2148667481","","0.2","0.6","0.8","0.4","","","","","0.1253338948","0.1447045196","0.2148667481","0.4063368095","","","","","","","75","K","2","","","191","main_expt"
"159","","bandit","270","702788","0.0-231.0-0.0","31711383","wem/bandit_either","A2I960JYUZ8KAV","either","1","","","","","","","0","0","1","","0.1521301445","0.2","0.6","0.8","0.4","0.1371372983","0.1521301445","0.1891029698","0.4194789623","","","","","","","","","","","74","J","1","","","192","main_expt"
"193","","bandit","271","704510","0.0-232.0-0.0","31711383","wem/bandit_either","A2I960JYUZ8KAV","either","1","","","","","","","0","0","1","","0.1216552598","0.2","0.6","0.8","0.4","0.1269519223","0.1216552598","0.1818436489","0.3914453041","","","","","","","","","","","74","J","1","","","193","main_expt"
"294","","bandit","272","706322","0.0-233.0-0.0","31711383","wem/bandit_either","A2I960JYUZ8KAV","either","1","","","","","","","0","0","1","","0.07681554104","0.2","0.6","0.8","0.4","0.1253972088","0.07681554104","0.2036833838","0.3988429791","","","","","","","","","","","74","J","1","","","194","main_expt"
"119","","bandit","273","707970","0.0-234.0-0.0","31711383","wem/bandit_either","A2I960JYUZ8KAV","either","1","","","","","","","0","0","1","0.07468822185","","0.2","0.6","0.8","0.4","","","","","0.1231557279","0.07468822185","0.2189502041","0.4212514022","","","","","","","74","J","1","","","195","main_expt"
"265","","bandit","274","709744","0.0-235.0-0.0","31711383","wem/bandit_either","A2I960JYUZ8KAV","either","1","","","","","","","0","1","0","","0.4128950903","0.2","0.6","0.8","0.4","0.2304226507","0.07634526252","0.2011136523","0.4128950903","","","","","","","","","","","76","L","3","","","196","main_expt"
"249","","bandit","275","711507","0.0-236.0-0.0","31711383","wem/bandit_either","A2I960JYUZ8KAV","either","1","","","","","","","1","0","0","0.3979973083","","0.2","0.6","0.8","0.4","","","","","0.3102822931","0.06680697181","0.2295646827","0.3979973083","","","","","","","76","L","3","","","197","main_expt"
"304","","bandit","276","713322","0.0-237.0-0.0","31711383","wem/bandit_either","A2I960JYUZ8KAV","either","1","","","","","","","1","0","0","0.3153467244","","0.2","0.6","0.8","0.4","","","","","0.3222054514","0.05107679344","0.2570874699","0.3153467244","","","","","","","76","L","3","","","198","main_expt"
"284","","bandit","277","715129","0.0-238.0-0.0","31711383","wem/bandit_either","A2I960JYUZ8KAV","either","1","","","","","","","0","0","1","0.3121882746","","0.2","0.6","0.8","0.4","","","","","0.3416159467","0.06140804873","0.2215013189","0.3121882746","","","","","","","76","L","3","","","199","main_expt"
"178","","bandit","278","716819","0.0-239.0-0.0","31711383","wem/bandit_either","A2I960JYUZ8KAV","either","1","","","","","","","0","0","1","","0.3789620948","0.2","0.6","0.8","0.4","0.3826655938","0.05697288244","0.1681318695","0.3789620948","","","","","","","","","","","76","L","3","","","200","main_expt"
"229","","bandit","279","718576","0.0-240.0-0.0","31711383","wem/bandit_either","A2I960JYUZ8KAV","either","1","","","","","","","1","0","0","0.3575696279","","0.2","0.6","0.8","0.4","","","","","0.4117435103","0.04802221103","0.1787039029","0.3575696279","","","","","","","76","L","3","","","201","main_expt"
"154","","bandit","280","720240","0.0-241.0-0.0","31711383","wem/bandit_either","A2I960JYUZ8KAV","either","1","","","","","","","0","1","0","","0.3937046418","0.2","0.6","0.8","0.4","0.4023622846","0.04583536071","0.2180442152","0.3937046418","","","","","","","","","","","76","L","3","","","202","main_expt"
"284","","bandit","281","722055","0.0-242.0-0.0","31711383","wem/bandit_either","A2I960JYUZ8KAV","either","1","","","","","","","0","0","1","0.3901943722","","0.2","0.6","0.8","0.4","","","","","0.4225273878","0.03655969434","0.262784421","0.3901943722","","","","","","","76","L","3","","","203","main_expt"
"253","","bandit","282","723822","0.0-243.0-0.0","31711383","wem/bandit_either","A2I960JYUZ8KAV","either","1","","","","","","","1","0","0","0.4099131859","","0.2","0.6","0.8","0.4","","","","","0.4151046429","0.05773518339","0.2843732649","0.4099131859","","","","","","","76","L","3","","","204","main_expt"
"166","","bandit","283","725505","0.0-244.0-0.0","31711383","wem/bandit_either","A2I960JYUZ8KAV","either","1","","","","","","","1","0","0","0.4238238901","","0.2","0.6","0.8","0.4","","","","","0.4288165897","0.06616346658","0.2549063301","0.4238238901","","","","","","","76","L","3","","","205","main_expt"
"124","","bandit","284","727141","0.0-245.0-0.0","31711383","wem/bandit_either","A2I960JYUZ8KAV","either","1","","","","","","","1","0","0","0.4139837541","","0.2","0.6","0.8","0.4","","","","","0.436745712","0.09055598832","0.2982701688","0.4139837541","","","","","","","76","L","3","","","206","main_expt"
"118","","bandit","285","728773","0.0-246.0-0.0","31711383","wem/bandit_either","A2I960JYUZ8KAV","either","1","","","","","","","0","0","1","0.3544894801","","0.2","0.6","0.8","0.4","","","","","0.4484652972","0.07583085731","0.3423773839","0.3544894801","","","","","","","76","L","3","","","207","main_expt"
"235","","bandit","286","730526","0.0-247.0-0.0","31711383","wem/bandit_either","A2I960JYUZ8KAV","either","1","","","","","","","0","0","1","","0.3703609936","0.2","0.6","0.8","0.4","0.4516947584","0.09768014643","0.3321535101","0.3703609936","","","","","","","","","","","76","L","3","","","208","main_expt"
"54","","bandit","287","732115","0.0-248.0-0.0","31711383","wem/bandit_either","A2I960JYUZ8KAV","either","1","","","","","","","0","0","1","0.3590511704","","0.2","0.6","0.8","0.4","","","","","0.4590139285","0.08389795445","0.3467721984","0.3590511704","","","","","","","76","L","3","","","209","main_expt"
"284","","bandit","288","733914","0.0-249.0-0.0","31711383","wem/bandit_either","A2I960JYUZ8KAV","either","1","","","","","","","0","0","1","","0.3781523972","0.2","0.6","0.8","0.4","0.4378910613","0.07846525543","0.3513447539","0.3781523972","","","","","","","","","","","76","L","3","","","210","main_expt"
"281","","bandit","289","735719","0.0-250.0-0.0","31711383","wem/bandit_either","A2I960JYUZ8KAV","either","1","","","","","","","1","0","0","0.3895188655","","0.2","0.6","0.8","0.4","","","","","0.4139384991","0.05906932722","0.4003692624","0.3895188655","","","","","","","76","L","3","","","211","main_expt"
"294","","bandit","290","737523","0.0-251.0-0.0","31711383","wem/bandit_either","A2I960JYUZ8KAV","either","1","","","","","","","0","1","0","","0.4075098947","0.2","0.6","0.8","0.4","0.3659234609","0.04754192311","0.3949660502","0.4075098947","","","","","","","","","","","76","L","3","","","212","main_expt"
"88","","bandit","291","739127","0.0-252.0-0.0","31711383","wem/bandit_either","A2I960JYUZ8KAV","either","1","","","","","","","1","0","0","0.4191075236","","0.2","0.6","0.8","0.4","","","","","0.3180572988","0.05481920189","0.4233479157","0.4191075236","","","","","","","76","L","3","","","213","main_expt"
"151","","bandit","292","740791","0.0-253.0-0.0","31711383","wem/bandit_either","A2I960JYUZ8KAV","either","1","","","","","","","0","0","1","","0.3799529118","0.2","0.6","0.8","0.4","0.2611162072","0.07954578011","0.4182751871","0.3799529118","","","","","","","","","","","76","L","3","","","214","main_expt"
"331","","bandit","293","742645","0.0-254.0-0.0","31711383","wem/bandit_either","A2I960JYUZ8KAV","either","1","","","","","","","0","1","0","","0.3924699069","0.2","0.6","0.8","0.4","0.2331309726","0.1078137614","0.3745823719","0.3924699069","","","","","","","","","","","76","L","3","","","215","main_expt"
"232","","bandit","294","744398","0.0-255.0-0.0","31711383","wem/bandit_either","A2I960JYUZ8KAV","either","1","","","","","","","0","0","1","","0.3556657658","0.2","0.6","0.8","0.4","0.2428402293","0.1269525553","0.3809837923","0.3556657658","","","","","","","","","","","76","L","3","","","216","main_expt"
"156","","bandit","295","746084","0.0-256.0-0.0","31711383","wem/bandit_either","A2I960JYUZ8KAV","either","1","","","","","","","1","0","0","0.3870416945","","0.2","0.6","0.8","0.4","","","","","0.2317762644","0.1849794572","0.4144294186","0.3870416945","","","","","","","76","L","3","","","217","main_expt"
"209","","bandit","296","747806","0.0-257.0-0.0","31711383","wem/bandit_either","A2I960JYUZ8KAV","either","1","","","","","","","0","0","1","0.3944581396","","0.2","0.6","0.8","0.4","","","","","0.204309912","0.1903787706","0.4090742927","0.3944581396","","","","","","","76","L","3","","","218","main_expt"
"87","","bandit","297","749403","0.0-258.0-0.0","31711383","wem/bandit_either","A2I960JYUZ8KAV","either","1","","","","","","","0","1","0","","0.4256173987","0.2","0.6","0.8","0.4","0.1685596251","0.1768508397","0.3869695378","0.4256173987","","","","","","","","","","","76","L","3","","","219","main_expt"
"232","","bandit","298","751167","0.0-259.0-0.0","31711383","wem/bandit_either","A2I960JYUZ8KAV","either","1","","","","","","","0","0","1","","0.4240862242","0.2","0.6","0.8","0.4","0.2488487331","0.2176561852","0.3814250035","0.4240862242","","","","","","","","","","","76","L","3","","","220","main_expt"
"99","","bandit","299","752777","0.0-260.0-0.0","31711383","wem/bandit_either","A2I960JYUZ8KAV","either","1","","","","","","","0","0","1","0.4364702466","","0.2","0.6","0.8","0.4","","","","","0.2789816034","0.2075488201","0.3560431311","0.4364702466","","","","","","","76","L","3","","","221","main_expt"
"233","","bandit","300","754532","0.0-261.0-0.0","31711383","wem/bandit_either","A2I960JYUZ8KAV","either","1","","","","","","","0","0","1","0.4512924842","","0.2","0.6","0.8","0.4","","","","","0.242729834","0.2260831429","0.3424215647","0.4512924842","","","","","","","76","L","3","","","222","main_expt"
"266","","bandit","301","756307","0.0-262.0-0.0","31711383","wem/bandit_either","A2I960JYUZ8KAV","either","1","","","","","","","0","0","1","0.4649948574","","0.2","0.6","0.8","0.4","","","","","0.196538567","0.2512075751","0.3118962833","0.4649948574","","","","","","","76","L","3","","","223","main_expt"
"25","","bandit","302","757856","0.0-263.0-0.0","31711383","wem/bandit_either","A2I960JYUZ8KAV","either","1","","","","","","","0","0","1","0.261290028","","0.2","0.6","0.8","0.4","","","","","0.2189223785","0.3072691987","0.261290028","0.4692106987","","","","","","","75","K","2","","","224","main_expt"
"132","","bandit","303","759504","0.0-264.0-0.0","31711383","wem/bandit_either","A2I960JYUZ8KAV","either","1","","","","","","","0","0","1","0.2748104332","","0.2","0.6","0.8","0.4","","","","","0.2131207899","0.3358063032","0.2748104332","0.4772226815","","","","","","","75","K","2","","","225","main_expt"
"227","","bandit","304","761242","0.0-265.0-0.0","31711383","wem/bandit_either","A2I960JYUZ8KAV","either","1","","","","","","","0","0","1","0.2112523614","","0.2","0.6","0.8","0.4","","","","","0.187439681","0.2994610032","0.2112523614","0.4828013869","","","","","","","75","K","2","","","226","main_expt"
"51","","bandit","305","762803","0.0-266.0-0.0","31711383","wem/bandit_either","A2I960JYUZ8KAV","either","1","","","","","","","0","0","1","","0.2719992041","0.2","0.6","0.8","0.4","0.1522087394","0.2719992041","0.1879164098","0.4805292857","","","","","","","","","","","74","J","1","","","227","main_expt"
"118","","bandit","306","764442","0.0-267.0-0.0","31711383","wem/bandit_either","A2I960JYUZ8KAV","either","1","","","","","","","1","0","0","0.4770879938","","0.2","0.6","0.8","0.4","","","","","0.1975586059","0.2601066631","0.1857646906","0.4770879938","","","","","","","76","L","3","","","228","main_expt"
"249","","bandit","307","766217","0.0-268.0-0.0","31711383","wem/bandit_either","A2I960JYUZ8KAV","either","1","","","","","","","1","0","0","0.4830225504","","0.2","0.6","0.8","0.4","","","","","0.2280604414","0.2333982712","0.1608888173","0.4830225504","","","","","","","76","L","3","","","229","main_expt"
"160","","bandit","308","767888","0.0-269.0-0.0","31711383","wem/bandit_either","A2I960JYUZ8KAV","either","1","","","","","","","1","0","0","0.4827210916","","0.2","0.6","0.8","0.4","","","","","0.2120359748","0.2179366985","0.1139945837","0.4827210916","","","","","","","76","L","3","","","230","main_expt"
"243","","bandit","309","769656","0.0-270.0-0.0","31711383","wem/bandit_either","A2I960JYUZ8KAV","either","1","","","","","","","1","0","0","0.4764813513","","0.2","0.6","0.8","0.4","","","","","0.2260377558","0.210335649","0.1071229599","0.4764813513","","","","","","","76","L","3","","","231","main_expt"
"31","","bandit","310","771200","0.0-271.0-0.0","31711383","wem/bandit_either","A2I960JYUZ8KAV","either","1","","","","","","","0","1","0","","0.4794978353","0.2","0.6","0.8","0.4","0.2810037348","0.2154905401","0.1250262501","0.4794978353","","","","","","","","","","","76","L","3","","","232","main_expt"
"23","","bandit","311","772733","0.0-272.0-0.0","31711383","wem/bandit_either","A2I960JYUZ8KAV","either","1","","","","","","","1","0","0","0.4717583679","","0.2","0.6","0.8","0.4","","","","","0.3371590923","0.2199054097","0.1262657767","0.4717583679","","","","","","","76","L","3","","","233","main_expt"
"207","","bandit","312","774466","0.0-273.0-0.0","31711383","wem/bandit_either","A2I960JYUZ8KAV","either","1","","","","","","","1","0","0","0.4801470087","","0.2","0.6","0.8","0.4","","","","","0.2614597929","0.2116885818","0.1436583916","0.4801470087","","","","","","","76","L","3","","","234","main_expt"
"208","","bandit","313","776210","0.0-274.0-0.0","31711383","wem/bandit_either","A2I960JYUZ8KAV","either","1","","","","","","","0","0","1","","0.4698449305","0.2","0.6","0.8","0.4","0.2855471023","0.2037112673","0.1776605917","0.4698449305","","","","","","","","","","","76","L","3","","","235","main_expt"
"150","","bandit","314","777872","0.0-275.0-0.0","31711383","wem/bandit_either","A2I960JYUZ8KAV","either","1","","","","","","","0","1","0","","0.4750890902","0.2","0.6","0.8","0.4","0.2806831757","0.2295670059","0.2039581082","0.4750890902","","","","","","","","","","","76","L","3","","","236","main_expt"
"274","","bandit","315","779663","0.0-276.0-0.0","31711383","wem/bandit_either","A2I960JYUZ8KAV","either","1","","","","","","","1","0","0","0.490873849","","0.2","0.6","0.8","0.4","","","","","0.3314479917","0.2602584061","0.1898025468","0.490873849","","","","","","","76","L","3","","","237","main_expt"
"190","","bandit","316","781384","0.0-277.0-0.0","31711383","wem/bandit_either","A2I960JYUZ8KAV","either","1","","","","","","","0","1","0","","0.4658125052","0.2","0.6","0.8","0.4","0.3495093658","0.2505035884","0.20274426","0.4658125052","","","","","","","","","","","76","L","3","","","238","main_expt"
"254","","bandit","317","783149","0.0-278.0-0.0","31711383","wem/bandit_either","A2I960JYUZ8KAV","either","1","","","","","","","0","0","1","0.4717810478","","0.2","0.6","0.8","0.4","","","","","0.3413466471","0.209031891","0.2051086292","0.4717810478","","","","","","","76","L","3","","","239","main_expt"
"184","","bandit","318","784861","0.0-279.0-0.0","31711383","wem/bandit_either","A2I960JYUZ8KAV","either","1","","","","","","","1","0","0","0.4751676635","","0.2","0.6","0.8","0.4","","","","","0.3848911707","0.2203826704","0.1823871945","0.4751676635","","","","","","","76","L","3","","","240","main_expt"
"179","","bandit","319","786564","0.0-280.0-0.0","31711383","wem/bandit_either","A2I960JYUZ8KAV","either","1","","","","","","","1","0","0","0.4782176083","","0.2","0.6","0.8","0.4","","","","","0.3352713547","0.2502218434","0.2206124516","0.4782176083","","","","","","","76","L","3","","","241","main_expt"
"110","","bandit","320","788194","0.0-281.0-0.0","31711383","wem/bandit_either","A2I960JYUZ8KAV","either","1","","","","","","","0","0","1","0.4842593171","","0.2","0.6","0.8","0.4","","","","","0.3898112853","0.2465850657","0.1822231347","0.4842593171","","","","","","","76","L","3","","","242","main_expt"
"228","","bandit","321","789946","0.0-282.0-0.0","31711383","wem/bandit_either","A2I960JYUZ8KAV","either","1","","","","","","","0","0","1","","0.4877308522","0.2","0.6","0.8","0.4","0.3746092993","0.2768687636","0.1782216913","0.4877308522","","","","","","","","","","","76","L","3","","","243","main_expt"
"195","","bandit","322","791650","0.0-283.0-0.0","31711383","wem/bandit_either","A2I960JYUZ8KAV","either","1","","","","","","","0","1","0","","0.4867000748","0.2","0.6","0.8","0.4","0.3551642001","0.3318130554","0.1683297066","0.4867000748","","","","","","","","","","","76","L","3","","","244","main_expt"
"306","","bandit","323","793467","0.0-284.0-0.0","31711383","wem/bandit_either","A2I960JYUZ8KAV","either","1","","","","","","","0","0","1","","0.4779689664","0.2","0.6","0.8","0.4","0.3556023966","0.3549389872","0.2394915997","0.4779689664","","","","","","","","","","","76","L","3","","","245","main_expt"
"2284","","bandit","324","797260","0.0-285.0-0.0","31711383","wem/bandit_either","A2I960JYUZ8KAV","either","1","","","","","","","0","1","0","","0.4691428495","0.2","0.6","0.8","0.4","0.3265039954","0.333301522","0.2279590519","0.4691428495","","","","","","","","","","","76","L","3","","","246","main_expt"
"361","","bandit","325","799144","0.0-286.0-0.0","31711383","wem/bandit_either","A2I960JYUZ8KAV","either","1","","","","","","","0","0","1","","0.4726686318","0.2","0.6","0.8","0.4","0.2868106963","0.3514606933","0.2464238951","0.4726686318","","","","","","","","","","","76","L","3","","","247","main_expt"
"2161","","bandit","326","802817","0.0-287.0-0.0","31711383","wem/bandit_either","A2I960JYUZ8KAV","either","1","","","","","","","0","1","0","","0.4803067915","0.2","0.6","0.8","0.4","0.3185934195","0.3714826816","0.2743013104","0.4803067915","","","","","","","","","","","76","L","3","","","248","main_expt"
"229","","bandit","327","804570","0.0-288.0-0.0","31711383","wem/bandit_either","A2I960JYUZ8KAV","either","1","","","","","","","0","0","1","0.4711679289","","0.2","0.6","0.8","0.4","","","","","0.358181829","0.386783615","0.265015958","0.4711679289","","","","","","","76","L","3","","","249","main_expt"
"508","","bandit","328","806606","0.0-289.0-0.0","31711383","wem/bandit_either","A2I960JYUZ8KAV","either","1","","","","","","","0","0","1","","0.4353456883","0.2","0.6","0.8","0.4","0.3548152509","0.401921917","0.2414596854","0.4353456883","","","","","","","","","","","76","L","3","","","250","main_expt"
"32","","bandit","329","808148","0.0-290.0-0.0","31711383","wem/bandit_either","A2I960JYUZ8KAV","either","1","","","","","","","0","0","1","","0.3481631732","0.2","0.6","0.8","0.4","0.3481631732","0.4214807698","0.2747351927","0.4224206017","","","","","","","","","","","72","H","0","img/none_selected.jpg","","251","main_expt"
"82","","bandit","330","809763","0.0-291.0-0.0","31711383","wem/bandit_either","A2I960JYUZ8KAV","either","1","","","","","","","0","0","1","0.2814651432","","0.2","0.6","0.8","0.4","","","","","0.3357984296","0.3562017588","0.2814651432","0.4171240554","","","","","","","75","K","2","","","252","main_expt"
"400","","bandit","331","811702","0.0-292.0-0.0","31711383","wem/bandit_either","A2I960JYUZ8KAV","either","1","","","","","","","0","0","1","0.2749590952","","0.2","0.6","0.8","0.4","","","","","0.2585495719","0.2749590952","0.2185424791","0.4255780754","","","","","","","74","J","1","","","253","main_expt"
"290","","bandit","332","813519","0.0-293.0-0.0","31711383","wem/bandit_either","A2I960JYUZ8KAV","either","1","","","","","","","0","0","1","0.1714714561","","0.2","0.6","0.8","0.4","","","","","0.2503838878","0.2898909049","0.1714714561","0.4183488494","","","","","","","75","K","2","","","254","main_expt"
"337","","bandit","333","815379","0.0-294.0-0.0","31711383","wem/bandit_either","A2I960JYUZ8KAV","either","1","","","","","","","1","0","0","0.3175460208","","0.2","0.6","0.8","0.4","","","","","0.3011071058","0.3175460208","0.1407879831","0.3767889497","","","","","","","74","J","1","","","255","main_expt"
"271","","bandit","334","817179","0.0-295.0-0.0","31711383","wem/bandit_either","A2I960JYUZ8KAV","either","1","","","","","","","0","0","1","0.2999257585","","0.2","0.6","0.8","0.4","","","","","0.2919540734","0.2999257585","0.1541412264","0.3752598489","","","","","","","74","J","1","","","256","main_expt"
