"rt","responses","trial_type","trial_index","time_elapsed","internal_node_id","subjID","study","MID","cond","drift","key_press","expt_phase","target","like","value","connected","gems","bombs","no_reward","GemPrChosen","BombPrChosen","GainOverPainPr_0","GainOverPainPr_1","GainOverPainPr_2","GainOverPainPr_3","LosePr_0","LosePr_1","LosePr_2","LosePr_3","WinPr_0","WinPr_1","WinPr_2","WinPr_3","Q0","Q1","Q2","gender","age","ethnicity","respCharCode","respKey","respChoiceNum","respChoice","practice","trial_counter","trial_label"
"8820","{""Q0"":""A899L8WYC76AD""}","survey-text","0","8832","0.0-0.0","32770056","wem/bandit_either","A899L8WYC76AD","either","2","","","","","","","","","","","","","","","","","","","","","","","","","","","","","","","","","","","",""
"10716","","text","1","20559","0.0-1.0","32770056","wem/bandit_either","A899L8WYC76AD","either","2","32","","","","","","","","","","","","","","","","","","","","","","","","","","","","","","","","","","",""
"8772","","text","2","29335","0.0-2.0","32770056","wem/bandit_either","A899L8WYC76AD","either","2","32","","","","","","","","","","","","","","","","","","","","","","","","","","","","","","","","","","",""
"21228","","text","3","50567","0.0-3.0","32770056","wem/bandit_either","A899L8WYC76AD","either","2","32","","","","","","","","","","","","","","","","","","","","","","","","","","","","","","","","","","",""
"8949","","text","4","59517","0.0-4.0","32770056","wem/bandit_either","A899L8WYC76AD","either","2","32","","","","","","","","","","","","","","","","","","","","","","","","","","","","","","","","","","",""
"13556","","text","5","73077","0.0-5.0","32770056","wem/bandit_either","A899L8WYC76AD","either","2","32","","","","","","","","","","","","","","","","","","","","","","","","","","","","","","","","","","",""
"7037","","text","6","80117","0.0-6.0","32770056","wem/bandit_either","A899L8WYC76AD","either","2","32","","","","","","","","","","","","","","","","","","","","","","","","","","","","","","","","","","",""
"2938","","text","7","83059","0.0-7.0","32770056","wem/bandit_either","A899L8WYC76AD","either","2","32","","","","","","","","","","","","","","","","","","","","","","","","","","","","","","","","","","",""
"9712","","identification","8","92806","0.0-8.0-0.0","32770056","wem/bandit_either","A899L8WYC76AD","either","2","","identification_pre","the village of Zur","","","","","","","","","","","","","","","","","","","","","","","","","","","","","","","","",""
"4946","","identification","9","98792","0.0-8.0-1.0","32770056","wem/bandit_either","A899L8WYC76AD","either","2","","identification_pre","the village of Nyx","","","","","","","","","","","","","","","","","","","","","","","","","","","","","","","","",""
"6376","","text","10","106172","0.0-9.0","32770056","wem/bandit_either","A899L8WYC76AD","either","2","32","","","","","","","","","","","","","","","","","","","","","","","","","","","","","","","","","","",""
"3312","","text","11","109489","0.0-10.0","32770056","wem/bandit_either","A899L8WYC76AD","either","2","32","","","","","","","","","","","","","","","","","","","","","","","","","","","","","","","","","","",""
"2426","","text","12","111920","0.0-11.0","32770056","wem/bandit_either","A899L8WYC76AD","either","2","32","","","","","","","","","","","","","","","","","","","","","","","","","","","","","","","","","","",""
"3474","","text","13","115399","0.0-12.0","32770056","wem/bandit_either","A899L8WYC76AD","either","2","32","","","","","","","","","","","","","","","","","","","","","","","","","","","","","","","","","","",""
"1079","","bandit","14","118014","0.0-13.0-0.0","32770056","wem/bandit_either","A899L8WYC76AD","either","2","","","","","","","0","0","1","0","0","","","","","0","","","","0","","","","","","","","","","74","J","0","img/none_selected_demo.jpg","true","0",""
"2031","","bandit","15","121563","0.0-14.0-0.0","32770056","wem/bandit_either","A899L8WYC76AD","either","2","","","","","","","0","0","1","0","0","","","","","0","","","","0","","","","","","","","","","75","K","0","img/none_selected_demo.jpg","true","0",""
"4879","","text","16","126448","0.0-15.0","32770056","wem/bandit_either","A899L8WYC76AD","either","2","32","","","","","","","","","","","","","","","","","","","","","","","","","","","","","","","","","","",""
"5656","","text","17","132109","0.0-16.0","32770056","wem/bandit_either","A899L8WYC76AD","either","2","32","","","","","","","","","","","","","","","","","","","","","","","","","","","","","","","","","","",""
"4672","","text","18","136785","0.0-17.0","32770056","wem/bandit_either","A899L8WYC76AD","either","2","32","","","","","","","","","","","","","","","","","","","","","","","","","","","","","","","","","","",""
"4373","","text","19","141163","0.0-18.0","32770056","wem/bandit_either","A899L8WYC76AD","either","2","32","","","","","","","","","","","","","","","","","","","","","","","","","","","","","","","","","","",""
"661","","bandit","20","143342","0.0-19.0-0.0","32770056","wem/bandit_either","A899L8WYC76AD","either","2","","","","","","","0","0","1","0.2","","0.5","0.5","","","","","","","0.8","0.2","","","","","","","","","75","K","1","","true","0","80_20_practice"
"592","","bandit","21","145454","0.0-19.0-1.0","32770056","wem/bandit_either","A899L8WYC76AD","either","2","","","","","","","0","0","1","","0.2","0.5","0.5","","","0.8","0.2","","","","","","","","","","","","","75","K","1","","true","0","80_20_practice"
"293","","bandit","22","147268","0.0-19.0-2.0","32770056","wem/bandit_either","A899L8WYC76AD","either","2","","","","","","","1","0","0","0.8","","0.5","0.5","","","","","","","0.8","0.2","","","","","","","","","74","J","0","img/none_selected_demo.jpg","true","0","80_20_practice"
"296","","bandit","23","149082","0.0-19.0-3.0","32770056","wem/bandit_either","A899L8WYC76AD","either","2","","","","","","","0","0","1","","0.8","0.5","0.5","","","0.8","0.2","","","","","","","","","","","","","74","J","0","img/none_selected_demo.jpg","true","0","80_20_practice"
"297","","bandit","24","150897","0.0-19.0-4.0","32770056","wem/bandit_either","A899L8WYC76AD","either","2","","","","","","","0","1","0","","0.8","0.5","0.5","","","0.8","0.2","","","","","","","","","","","","","74","J","0","img/none_selected_demo.jpg","true","0","80_20_practice"
"292","","bandit","25","152731","0.0-19.0-5.0","32770056","wem/bandit_either","A899L8WYC76AD","either","2","","","","","","","0","1","0","","0.8","0.5","0.5","","","0.8","0.2","","","","","","","","","","","","","74","J","0","img/none_selected_demo.jpg","true","0","80_20_practice"
"250","","bandit","26","154511","0.0-19.0-6.0","32770056","wem/bandit_either","A899L8WYC76AD","either","2","","","","","","","1","0","0","0.8","","0.5","0.5","","","","","","","0.8","0.2","","","","","","","","","74","J","0","img/none_selected_demo.jpg","true","0","80_20_practice"
"54","","bandit","27","156085","0.0-19.0-7.0","32770056","wem/bandit_either","A899L8WYC76AD","either","2","","","","","","","0","1","0","","0.8","0.5","0.5","","","0.8","0.2","","","","","","","","","","","","","74","J","0","img/none_selected_demo.jpg","true","0","80_20_practice"
"229","","bandit","28","157832","0.0-19.0-8.0","32770056","wem/bandit_either","A899L8WYC76AD","either","2","","","","","","","0","1","0","","0.8","0.5","0.5","","","0.8","0.2","","","","","","","","","","","","","74","J","0","img/none_selected_demo.jpg","true","0","80_20_practice"
"243","","bandit","29","159601","0.0-19.0-9.0","32770056","wem/bandit_either","A899L8WYC76AD","either","2","","","","","","","1","0","0","0.8","","0.5","0.5","","","","","","","0.8","0.2","","","","","","","","","74","J","0","img/none_selected_demo.jpg","true","0","80_20_practice"
"426","","bandit","30","161539","0.0-19.0-10.0","32770056","wem/bandit_either","A899L8WYC76AD","either","2","","","","","","","0","0","1","","0.8","0.5","0.5","","","0.8","0.2","","","","","","","","","","","","","74","J","0","img/none_selected_demo.jpg","true","0","80_20_practice"
"306","","bandit","31","163363","0.0-19.0-11.0","32770056","wem/bandit_either","A899L8WYC76AD","either","2","","","","","","","0","1","0","","0.8","0.5","0.5","","","0.8","0.2","","","","","","","","","","","","","74","J","0","img/none_selected_demo.jpg","true","0","80_20_practice"
"992","","bandit","32","165874","0.0-19.0-12.0","32770056","wem/bandit_either","A899L8WYC76AD","either","2","","","","","","","0","0","1","0.8","","0.5","0.5","","","","","","","0.8","0.2","","","","","","","","","74","J","0","img/none_selected_demo.jpg","true","0","80_20_practice"
"327","","bandit","33","167731","0.0-19.0-13.0","32770056","wem/bandit_either","A899L8WYC76AD","either","2","","","","","","","0","0","1","0.8","","0.5","0.5","","","","","","","0.8","0.2","","","","","","","","","74","J","0","img/none_selected_demo.jpg","true","0","80_20_practice"
"366","","bandit","34","169622","0.0-19.0-14.0","32770056","wem/bandit_either","A899L8WYC76AD","either","2","","","","","","","0","0","1","","0.2","0.5","0.5","","","0.8","0.2","","","","","","","","","","","","","75","K","1","","true","0","80_20_practice"
"236","","bandit","35","171377","0.0-19.0-15.0","32770056","wem/bandit_either","A899L8WYC76AD","either","2","","","","","","","0","0","1","","0.2","0.5","0.5","","","0.8","0.2","","","","","","","","","","","","","75","K","1","","true","0","80_20_practice"
"714","","bandit","36","173602","0.0-19.0-16.0","32770056","wem/bandit_either","A899L8WYC76AD","either","2","","","","","","","0","0","1","","0.8","0.5","0.5","","","0.8","0.2","","","","","","","","","","","","","74","J","0","img/none_selected_demo.jpg","true","0","80_20_practice"
"340","","bandit","37","175455","0.0-19.0-17.0","32770056","wem/bandit_either","A899L8WYC76AD","either","2","","","","","","","0","1","0","","0.8","0.5","0.5","","","0.8","0.2","","","","","","","","","","","","","74","J","0","img/none_selected_demo.jpg","true","0","80_20_practice"
"289","","bandit","38","177259","0.0-19.0-18.0","32770056","wem/bandit_either","A899L8WYC76AD","either","2","","","","","","","1","0","0","0.8","","0.5","0.5","","","","","","","0.8","0.2","","","","","","","","","74","J","0","img/none_selected_demo.jpg","true","0","80_20_practice"
"303","","bandit","39","179088","0.0-19.0-19.0","32770056","wem/bandit_either","A899L8WYC76AD","either","2","","","","","","","0","1","0","","0.8","0.5","0.5","","","0.8","0.2","","","","","","","","","","","","","74","J","0","img/none_selected_demo.jpg","true","0","80_20_practice"
"3979","","text","40","183076","0.0-20.0","32770056","wem/bandit_either","A899L8WYC76AD","either","2","32","","","","","","","","","","","","","","","","","","","","","","","","","","","","","","","","","","",""
"799","","bandit","41","185385","0.0-21.0-0.0","32770056","wem/bandit_either","A899L8WYC76AD","either","2","","","","","","","1","0","0","1","0","","","","","0","1","","","1","0","","","","","","","","","74","J","0","img/none_selected_demo.jpg","true","0",""
"3812","","text","42","189213","0.0-22.0","32770056","wem/bandit_either","A899L8WYC76AD","either","2","32","","","","","","","","","","","","","","","","","","","","","","","","","","","","","","","","","","",""
"2698","","text","43","191918","0.0-23.0","32770056","wem/bandit_either","A899L8WYC76AD","either","2","32","","","","","","","","","","","","","","","","","","","","","","","","","","","","","","","","","","",""
"2081","","text","44","194005","0.0-24.0","32770056","wem/bandit_either","A899L8WYC76AD","either","2","32","","","","","","","","","","","","","","","","","","","","","","","","","","","","","","","","","","",""
"2812","","text","45","196823","0.0-25.0","32770056","wem/bandit_either","A899L8WYC76AD","either","2","32","","","","","","","","","","","","","","","","","","","","","","","","","","","","","","","","","","",""
"5654","","text","46","202482","0.0-26.0","32770056","wem/bandit_either","A899L8WYC76AD","either","2","32","","","","","","","","","","","","","","","","","","","","","","","","","","","","","","","","","","",""
"1936","","text","47","204423","0.0-27.0","32770056","wem/bandit_either","A899L8WYC76AD","either","2","32","","","","","","","","","","","","","","","","","","","","","","","","","","","","","","","","","","",""
"2761","","text","48","207190","0.0-28.0","32770056","wem/bandit_either","A899L8WYC76AD","either","2","32","","","","","","","","","","","","","","","","","","","","","","","","","","","","","","","","","","",""
"2374","","text","49","209568","0.0-29.0","32770056","wem/bandit_either","A899L8WYC76AD","either","2","32","","","","","","","","","","","","","","","","","","","","","","","","","","","","","","","","","","",""
"5006","","text","50","214578","0.0-30.0","32770056","wem/bandit_either","A899L8WYC76AD","either","2","32","","","","","","","","","","","","","","","","","","","","","","","","","","","","","","","","","","",""
"1695","","text","51","216279","0.0-31.0","32770056","wem/bandit_either","A899L8WYC76AD","either","2","32","","","","","","","","","","","","","","","","","","","","","","","","","","","","","","","","","","",""
"3412","","text","52","219697","0.0-32.0","32770056","wem/bandit_either","A899L8WYC76AD","either","2","32","","","","","","","","","","","","","","","","","","","","","","","","","","","","","","","","","","",""
"844","","bandit","53","222066","0.0-33.0-0.0","32770056","wem/bandit_either","A899L8WYC76AD","either","2","","","","","","","0","1","0","","0.8","0.5","0.5","0.5","0.5","0.8","0.2","0.6","0.2","","","","","","","","","","","72","H","0","img/none_selected.jpg","true","0","full_practice"
"541","","bandit","54","224132","0.0-33.0-1.0","32770056","wem/bandit_either","A899L8WYC76AD","either","2","","","","","","","0","0","1","0.8","","0.5","0.5","0.5","0.5","","","","","0.8","0.2","0.6","0.2","","","","","","","72","H","0","img/none_selected.jpg","true","0","full_practice"
"438","","bandit","55","226089","0.0-33.0-2.0","32770056","wem/bandit_either","A899L8WYC76AD","either","2","","","","","","","0","1","0","","0.8","0.5","0.5","0.5","0.5","0.8","0.2","0.6","0.2","","","","","","","","","","","72","H","0","img/none_selected.jpg","true","0","full_practice"
"502","","bandit","56","228120","0.0-33.0-3.0","32770056","wem/bandit_either","A899L8WYC76AD","either","2","","","","","","","0","1","0","","0.8","0.5","0.5","0.5","0.5","0.8","0.2","0.6","0.2","","","","","","","","","","","72","H","0","img/none_selected.jpg","true","0","full_practice"
"495","","bandit","57","230134","0.0-33.0-4.0","32770056","wem/bandit_either","A899L8WYC76AD","either","2","","","","","","","1","0","0","0.8","","0.5","0.5","0.5","0.5","","","","","0.8","0.2","0.6","0.2","","","","","","","72","H","0","img/none_selected.jpg","true","0","full_practice"
"361","","bandit","58","232014","0.0-33.0-5.0","32770056","wem/bandit_either","A899L8WYC76AD","either","2","","","","","","","1","0","0","0.8","","0.5","0.5","0.5","0.5","","","","","0.8","0.2","0.6","0.2","","","","","","","72","H","0","img/none_selected.jpg","true","0","full_practice"
"329","","bandit","59","233861","0.0-33.0-6.0","32770056","wem/bandit_either","A899L8WYC76AD","either","2","","","","","","","1","0","0","0.8","","0.5","0.5","0.5","0.5","","","","","0.8","0.2","0.6","0.2","","","","","","","72","H","0","img/none_selected.jpg","true","0","full_practice"
"311","","bandit","60","235684","0.0-33.0-7.0","32770056","wem/bandit_either","A899L8WYC76AD","either","2","","","","","","","1","0","0","0.8","","0.5","0.5","0.5","0.5","","","","","0.8","0.2","0.6","0.2","","","","","","","72","H","0","img/none_selected.jpg","true","0","full_practice"
"351","","bandit","61","237557","0.0-33.0-8.0","32770056","wem/bandit_either","A899L8WYC76AD","either","2","","","","","","","0","0","1","0.8","","0.5","0.5","0.5","0.5","","","","","0.8","0.2","0.6","0.2","","","","","","","72","H","0","img/none_selected.jpg","true","0","full_practice"
"293","","bandit","62","239359","0.0-33.0-9.0","32770056","wem/bandit_either","A899L8WYC76AD","either","2","","","","","","","1","0","0","0.8","","0.5","0.5","0.5","0.5","","","","","0.8","0.2","0.6","0.2","","","","","","","72","H","0","img/none_selected.jpg","true","0","full_practice"
"359","","bandit","63","241235","0.0-33.0-10.0","32770056","wem/bandit_either","A899L8WYC76AD","either","2","","","","","","","1","0","0","0.8","","0.5","0.5","0.5","0.5","","","","","0.8","0.2","0.6","0.2","","","","","","","72","H","0","img/none_selected.jpg","true","0","full_practice"
"351","","bandit","64","243110","0.0-33.0-11.0","32770056","wem/bandit_either","A899L8WYC76AD","either","2","","","","","","","0","0","1","","0.8","0.5","0.5","0.5","0.5","0.8","0.2","0.6","0.2","","","","","","","","","","","72","H","0","img/none_selected.jpg","true","0","full_practice"
"225","","bandit","65","244854","0.0-33.0-12.0","32770056","wem/bandit_either","A899L8WYC76AD","either","2","","","","","","","0","1","0","","0.8","0.5","0.5","0.5","0.5","0.8","0.2","0.6","0.2","","","","","","","","","","","72","H","0","img/none_selected.jpg","true","0","full_practice"
"333","","bandit","66","246718","0.0-33.0-13.0","32770056","wem/bandit_either","A899L8WYC76AD","either","2","","","","","","","1","0","0","0.8","","0.5","0.5","0.5","0.5","","","","","0.8","0.2","0.6","0.2","","","","","","","72","H","0","img/none_selected.jpg","true","0","full_practice"
"328","","bandit","67","248570","0.0-33.0-14.0","32770056","wem/bandit_either","A899L8WYC76AD","either","2","","","","","","","0","1","0","","0.8","0.5","0.5","0.5","0.5","0.8","0.2","0.6","0.2","","","","","","","","","","","72","H","0","img/none_selected.jpg","true","0","full_practice"
"427","","bandit","68","250514","0.0-33.0-15.0","32770056","wem/bandit_either","A899L8WYC76AD","either","2","","","","","","","0","0","1","0.8","","0.5","0.5","0.5","0.5","","","","","0.8","0.2","0.6","0.2","","","","","","","72","H","0","img/none_selected.jpg","true","0","full_practice"
"234","","bandit","69","252286","0.0-33.0-16.0","32770056","wem/bandit_either","A899L8WYC76AD","either","2","","","","","","","1","0","0","0.8","","0.5","0.5","0.5","0.5","","","","","0.8","0.2","0.6","0.2","","","","","","","72","H","0","img/none_selected.jpg","true","0","full_practice"
"315","","bandit","70","254137","0.0-33.0-17.0","32770056","wem/bandit_either","A899L8WYC76AD","either","2","","","","","","","0","0","1","","0.8","0.5","0.5","0.5","0.5","0.8","0.2","0.6","0.2","","","","","","","","","","","72","H","0","img/none_selected.jpg","true","0","full_practice"
"329","","bandit","71","256000","0.0-33.0-18.0","32770056","wem/bandit_either","A899L8WYC76AD","either","2","","","","","","","0","1","0","","0.8","0.5","0.5","0.5","0.5","0.8","0.2","0.6","0.2","","","","","","","","","","","72","H","0","img/none_selected.jpg","true","0","full_practice"
"294","","bandit","72","257832","0.0-33.0-19.0","32770056","wem/bandit_either","A899L8WYC76AD","either","2","","","","","","","0","0","1","","0.8","0.5","0.5","0.5","0.5","0.8","0.2","0.6","0.2","","","","","","","","","","","72","H","0","img/none_selected.jpg","true","0","full_practice"
"2530","","text","73","260382","0.0-34.0","32770056","wem/bandit_either","A899L8WYC76AD","either","2","32","","","","","","","","","","","","","","","","","","","","","","","","","","","","","","","","","","",""
"10114","","text","74","271520","0.0-35.0","32770056","wem/bandit_either","A899L8WYC76AD","either","2","32","","","","","","","","","","","","","","","","","","","","","","","","","","","","","","","","","","",""
"6775","","text","75","278301","0.0-36.0","32770056","wem/bandit_either","A899L8WYC76AD","either","2","32","","","","","","","","","","","","","","","","","","","","","","","","","","","","","","","","","","",""
"5115","","text","76","283426","0.0-37.0","32770056","wem/bandit_either","A899L8WYC76AD","either","2","32","","","","","","","","","","","","","","","","","","","","","","","","","","","","","","","","","","",""
"4082","","text","77","287518","0.0-38.0","32770056","wem/bandit_either","A899L8WYC76AD","either","2","32","","","","","","","","","","","","","","","","","","","","","","","","","","","","","","","","","","",""
"4449","","text","78","291975","0.0-39.0","32770056","wem/bandit_either","A899L8WYC76AD","either","2","32","","","","","","","","","","","","","","","","","","","","","","","","","","","","","","","","","","",""
"1458","","bandit","79","294960","0.0-40.0-0.0","32770056","wem/bandit_either","A899L8WYC76AD","either","2","","","","","","","1","0","0","0.3653736811","","0.4","0.6","0.2","0.8","","","","","0.362799796","0.4781977867","0.326135308","0.3653736811","","","","","","","76","L","3","","","1","main_expt"
"490","","bandit","80","296973","0.0-41.0-0.0","32770056","wem/bandit_either","A899L8WYC76AD","either","2","","","","","","","0","1","0","","0.3999069229","0.4","0.6","0.2","0.8","0.3891507205","0.4765481994","0.3564958201","0.3999069229","","","","","","","","","","","76","L","3","","","2","main_expt"
"424","","bandit","81","298914","0.0-42.0-0.0","32770056","wem/bandit_either","A899L8WYC76AD","either","2","","","","","","","0","0","1","0.4363582421","","0.4","0.6","0.2","0.8","","","","","0.3151339382","0.4722158263","0.3309056029","0.4363582421","","","","","","","76","L","3","","","3","main_expt"
"424","","bandit","82","300866","0.0-43.0-0.0","32770056","wem/bandit_either","A899L8WYC76AD","either","2","","","","","","","0","0","1","0.4300921111","","0.4","0.6","0.2","0.8","","","","","0.250648122","0.4609570051","0.308467875","0.4300921111","","","","","","","76","L","3","","","4","main_expt"
"299","","bandit","83","302690","0.0-44.0-0.0","32770056","wem/bandit_either","A899L8WYC76AD","either","2","","","","","","","0","0","1","0.3863220662","","0.4","0.6","0.2","0.8","","","","","0.2382585344","0.4707799186","0.3349995635","0.3863220662","","","","","","","76","L","3","","","5","main_expt"
"336","","bandit","84","304556","0.0-45.0-0.0","32770056","wem/bandit_either","A899L8WYC76AD","either","2","","","","","","","0","1","0","","0.3743101545","0.4","0.6","0.2","0.8","0.2088101903","0.4676743975","0.3743101545","0.4192648028","","","","","","","","","","","75","K","2","","","6","main_expt"
"551","","bandit","85","306631","0.0-46.0-0.0","32770056","wem/bandit_either","A899L8WYC76AD","either","2","","","","","","","0","1","0","","0.377506125","0.4","0.6","0.2","0.8","0.1884279889","0.4767364015","0.377506125","0.4218548145","","","","","","","","","","","75","K","2","","","7","main_expt"
"300","","bandit","86","308458","0.0-47.0-0.0","32770056","wem/bandit_either","A899L8WYC76AD","either","2","","","","","","","0","0","1","","0.3452849142","0.4","0.6","0.2","0.8","0.2297930851","0.4837409877","0.3452849142","0.4298914749","","","","","","","","","","","75","K","2","","","8","main_expt"
"505","","bandit","87","310501","0.0-48.0-0.0","32770056","wem/bandit_either","A899L8WYC76AD","either","2","","","","","","","0","1","0","","0.2713567333","0.4","0.6","0.2","0.8","0.2219539873","0.4825212187","0.2713567333","0.4215440671","","","","","","","","","","","75","K","2","","","9","main_expt"
"577","","bandit","88","312608","0.0-49.0-0.0","32770056","wem/bandit_either","A899L8WYC76AD","either","2","","","","","","","0","0","1","0.2712708503","","0.4","0.6","0.2","0.8","","","","","0.2398128751","0.4791264729","0.2712708503","0.3991616263","","","","","","","75","K","2","","","10","main_expt"
"344","","bandit","89","314480","0.0-50.0-0.0","32770056","wem/bandit_either","A899L8WYC76AD","either","2","","","","","","","0","0","1","","0.2635531688","0.4","0.6","0.2","0.8","0.2551733424","0.4762013833","0.2635531688","0.4002673883","","","","","","","","","","","75","K","2","","","11","main_expt"
"920","","bandit","90","316934","0.0-51.0-0.0","32770056","wem/bandit_either","A899L8WYC76AD","either","2","","","","","","","0","0","1","0.2593424883","","0.4","0.6","0.2","0.8","","","","","0.2593424883","0.4729837645","0.2669056975","0.368629831","","","","","","","72","H","0","img/none_selected.jpg","","12","main_expt"
"321","","bandit","91","318786","0.0-52.0-0.0","32770056","wem/bandit_either","A899L8WYC76AD","either","2","","","","","","","0","0","1","","0.2493591627","0.4","0.6","0.2","0.8","0.2493591627","0.4749786695","0.3204456557","0.4189726289","","","","","","","","","","","72","H","0","img/none_selected.jpg","","13","main_expt"
"318","","bandit","92","320648","0.0-53.0-0.0","32770056","wem/bandit_either","A899L8WYC76AD","either","2","","","","","","","0","0","1","0.4810115094","","0.4","0.6","0.2","0.8","","","","","0.2686446846","0.4810115094","0.3466526728","0.4352425359","","","","","","","74","J","1","","","14","main_expt"
"337","","bandit","93","322519","0.0-54.0-0.0","32770056","wem/bandit_either","A899L8WYC76AD","either","2","","","","","","","0","0","1","0.4705329286","","0.4","0.6","0.2","0.8","","","","","0.2690169042","0.4705329286","0.3736671224","0.3819090161","","","","","","","74","J","1","","","15","main_expt"
"298","","bandit","94","324347","0.0-55.0-0.0","32770056","wem/bandit_either","A899L8WYC76AD","either","2","","","","","","","0","0","1","","0.3778143907","0.4","0.6","0.2","0.8","0.2518303543","0.4687419894","0.3778143907","0.3737760256","","","","","","","","","","","75","K","2","","","16","main_expt"
"310","","bandit","95","326190","0.0-56.0-0.0","32770056","wem/bandit_either","A899L8WYC76AD","either","2","","","","","","","0","0","1","","0.3845750066","0.4","0.6","0.2","0.8","0.2406549936","0.4594180265","0.3845750066","0.4151791473","","","","","","","","","","","75","K","2","","","17","main_expt"
"343","","bandit","96","328060","0.0-57.0-0.0","32770056","wem/bandit_either","A899L8WYC76AD","either","2","","","","","","","0","0","1","","0.4041286345","0.4","0.6","0.2","0.8","0.2670149403","0.425397146","0.4041286345","0.4137363134","","","","","","","","","","","75","K","2","","","18","main_expt"
"335","","bandit","97","329932","0.0-58.0-0.0","32770056","wem/bandit_either","A899L8WYC76AD","either","2","","","","","","","0","0","1","0.4084056464","","0.4","0.6","0.2","0.8","","","","","0.2658482338","0.4201246927","0.4127350431","0.4084056464","","","","","","","76","L","3","","","19","main_expt"
"321","","bandit","98","331784","0.0-59.0-0.0","32770056","wem/bandit_either","A899L8WYC76AD","either","2","","","","","","","0","0","1","0.4129175496","","0.4","0.6","0.2","0.8","","","","","0.2452433766","0.3954271328","0.4107359536","0.4129175496","","","","","","","76","L","3","","","20","main_expt"
"330","","bandit","99","333642","0.0-60.0-0.0","32770056","wem/bandit_either","A899L8WYC76AD","either","2","","","","","","","0","0","1","","0.3888488162","0.4","0.6","0.2","0.8","0.2298761452","0.4196431029","0.3954861765","0.3888488162","","","","","","","","","","","76","L","3","","","21","main_expt"
"282","","bandit","100","335466","0.0-61.0-0.0","32770056","wem/bandit_either","A899L8WYC76AD","either","2","","","","","","","1","0","0","0.3843335182","","0.4","0.6","0.2","0.8","","","","","0.266827693","0.3843335182","0.3805979297","0.3873149631","","","","","","","74","J","1","","","22","main_expt"
"299","","bandit","101","337286","0.0-62.0-0.0","32770056","wem/bandit_either","A899L8WYC76AD","either","2","","","","","","","0","0","1","","0.3839977458","0.4","0.6","0.2","0.8","0.2519769849","0.3839977458","0.425451992","0.3659772031","","","","","","","","","","","74","J","1","","","23","main_expt"
"319","","bandit","102","339137","0.0-63.0-0.0","32770056","wem/bandit_either","A899L8WYC76AD","either","2","","","","","","","0","0","1","","0.3338939571","0.4","0.6","0.2","0.8","0.2447613107","0.3338939571","0.4699447661","0.3594327093","","","","","","","","","","","74","J","1","","","24","main_expt"
"393","","bandit","103","341060","0.0-64.0-0.0","32770056","wem/bandit_either","A899L8WYC76AD","either","2","","","","","","","0","0","1","","0.324486952","0.4","0.6","0.2","0.8","0.2350413847","0.324486952","0.4484050393","0.3719143394","","","","","","","","","","","74","J","1","","","25","main_expt"
"649","","bandit","104","343248","0.0-65.0-0.0","32770056","wem/bandit_either","A899L8WYC76AD","either","2","","","","","","","0","0","1","0.207774486","","0.4","0.6","0.2","0.8","","","","","0.207774486","0.3095710384","0.4190234423","0.3690014044","","","","","","","72","H","0","img/none_selected.jpg","","26","main_expt"
"292","","bandit","105","345053","0.0-66.0-0.0","32770056","wem/bandit_either","A899L8WYC76AD","either","2","","","","","","","0","0","1","","0.2164182795","0.4","0.6","0.2","0.8","0.2164182795","0.3355629191","0.4251478254","0.3940030818","","","","","","","","","","","72","H","0","img/none_selected.jpg","","27","main_expt"
"351","","bandit","106","346926","0.0-67.0-0.0","32770056","wem/bandit_either","A899L8WYC76AD","either","2","","","","","","","0","0","1","0.2164031865","","0.4","0.6","0.2","0.8","","","","","0.2164031865","0.3668681485","0.4287328697","0.4111080327","","","","","","","72","H","0","img/none_selected.jpg","","28","main_expt"
"1274","","bandit","107","349715","0.0-68.0-0.0","32770056","wem/bandit_either","A899L8WYC76AD","either","2","","","","","","","0","0","1","0.2770000278","","0.4","0.6","0.2","0.8","","","","","0.2770000278","0.343198694","0.4106025245","0.41290056","","","","","","","72","H","0","img/none_selected.jpg","","29","main_expt"
"752","","bandit","108","351994","0.0-69.0-0.0","32770056","wem/bandit_either","A899L8WYC76AD","either","2","","","","","","","0","0","1","","0.3942494676","0.4","0.6","0.2","0.8","0.2354797847","0.326069126","0.3942494676","0.3937480262","","","","","","","","","","","75","K","2","","","30","main_expt"
"343","","bandit","109","353857","0.0-70.0-0.0","32770056","wem/bandit_either","A899L8WYC76AD","either","2","","","","","","","0","0","1","0.4285056211","","0.4","0.6","0.2","0.8","","","","","0.2692030882","0.3390127419","0.4285056211","0.3997016236","","","","","","","75","K","2","","","31","main_expt"
"336","","bandit","110","355718","0.0-71.0-0.0","32770056","wem/bandit_either","A899L8WYC76AD","either","2","","","","","","","0","0","1","","0.4249454459","0.4","0.6","0.2","0.8","0.2471118655","0.3360649894","0.4249454459","0.3574295763","","","","","","","","","","","75","K","2","","","32","main_expt"
"414","","bandit","111","357658","0.0-72.0-0.0","32770056","wem/bandit_either","A899L8WYC76AD","either","2","","","","","","","0","1","0","","0.416417765","0.4","0.6","0.2","0.8","0.2879199001","0.3052602024","0.416417765","0.3877818659","","","","","","","","","","","75","K","2","","","33","main_expt"
"333","","bandit","112","359523","0.0-73.0-0.0","32770056","wem/bandit_either","A899L8WYC76AD","either","2","","","","","","","0","0","1","","0.4623714429","0.4","0.6","0.2","0.8","0.3180115212","0.3594788954","0.4623714429","0.3799496232","","","","","","","","","","","75","K","2","","","34","main_expt"
"321","","bandit","113","361369","0.0-74.0-0.0","32770056","wem/bandit_either","A899L8WYC76AD","either","2","","","","","","","0","1","0","","0.4591977302","0.4","0.6","0.2","0.8","0.2524306687","0.380235832","0.4591977302","0.3577573403","","","","","","","","","","","75","K","2","","","35","main_expt"
"325","","bandit","114","363208","0.0-75.0-0.0","32770056","wem/bandit_either","A899L8WYC76AD","either","2","","","","","","","0","0","1","0.4686235256","","0.4","0.6","0.2","0.8","","","","","0.2351869563","0.3459989602","0.4686235256","0.3895375856","","","","","","","75","K","2","","","36","main_expt"
"373","","bandit","115","365129","0.0-76.0-0.0","32770056","wem/bandit_either","A899L8WYC76AD","either","2","","","","","","","0","0","1","","0.4571547709","0.4","0.6","0.2","0.8","0.2629170466","0.3320905149","0.4571547709","0.3783527007","","","","","","","","","","","75","K","2","","","37","main_expt"
"289","","bandit","116","366938","0.0-77.0-0.0","32770056","wem/bandit_either","A899L8WYC76AD","either","2","","","","","","","0","0","1","","0.4688430709","0.4","0.6","0.2","0.8","0.3090194305","0.3471020919","0.4688430709","0.284076782","","","","","","","","","","","75","K","2","","","38","main_expt"
"340","","bandit","117","368804","0.0-78.0-0.0","32770056","wem/bandit_either","A899L8WYC76AD","either","2","","","","","","","0","0","1","0.3388972186","","0.4","0.6","0.2","0.8","","","","","0.2845371228","0.3401763967","0.4612923778","0.3388972186","","","","","","","76","L","3","","","39","main_expt"
"326","","bandit","118","370664","0.0-79.0-0.0","32770056","wem/bandit_either","A899L8WYC76AD","either","2","","","","","","","0","0","1","0.2663655232","","0.4","0.6","0.2","0.8","","","","","0.3076259244","0.3260487483","0.4576194683","0.2663655232","","","","","","","76","L","3","","","40","main_expt"
"368","","bandit","119","372585","0.0-80.0-0.0","32770056","wem/bandit_either","A899L8WYC76AD","either","2","","","","","","","1","0","0","0.2608266697","","0.4","0.6","0.2","0.8","","","","","0.2888769276","0.3390218734","0.4473921051","0.2608266697","","","","","","","76","L","3","","","41","main_expt"
"307","","bandit","120","374423","0.0-81.0-0.0","32770056","wem/bandit_either","A899L8WYC76AD","either","2","","","","","","","0","0","1","0.2287676803","","0.4","0.6","0.2","0.8","","","","","0.2639198141","0.2889680017","0.425470286","0.2287676803","","","","","","","76","L","3","","","42","main_expt"
"384","","bandit","121","376336","0.0-82.0-0.0","32770056","wem/bandit_either","A899L8WYC76AD","either","2","","","","","","","0","0","1","0.2043112358","","0.4","0.6","0.2","0.8","","","","","0.2255441472","0.2784828801","0.4030522017","0.2043112358","","","","","","","76","L","3","","","43","main_expt"
"311","","bandit","122","378170","0.0-83.0-0.0","32770056","wem/bandit_either","A899L8WYC76AD","either","2","","","","","","","0","0","1","0.1957049551","","0.4","0.6","0.2","0.8","","","","","0.2050272072","0.2805729819","0.4106315797","0.1957049551","","","","","","","76","L","3","","","44","main_expt"
"434","","bandit","123","380134","0.0-84.0-0.0","32770056","wem/bandit_either","A899L8WYC76AD","either","2","","","","","","","0","0","1","0.2195119073","","0.4","0.6","0.2","0.8","","","","","0.239455925","0.2195119073","0.4258527362","0.2207366272","","","","","","","74","J","1","","","45","main_expt"
"327","","bandit","124","382000","0.0-85.0-0.0","32770056","wem/bandit_either","A899L8WYC76AD","either","2","","","","","","","0","0","1","0.2657932304","","0.4","0.6","0.2","0.8","","","","","0.2414778298","0.2657932304","0.4425966235","0.1727988076","","","","","","","74","J","1","","","46","main_expt"
"307","","bandit","125","383836","0.0-86.0-0.0","32770056","wem/bandit_either","A899L8WYC76AD","either","2","","","","","","","0","0","1","0.2678398397","","0.4","0.6","0.2","0.8","","","","","0.1884211613","0.2678398397","0.4428977597","0.1446735631","","","","","","","74","J","1","","","47","main_expt"
"279","","bandit","126","385662","0.0-87.0-0.0","32770056","wem/bandit_either","A899L8WYC76AD","either","2","","","","","","","0","0","1","","0.1755274282","0.4","0.6","0.2","0.8","0.1755274282","0.2866904938","0.4479964269","0.1681765936","","","","","","","","","","","72","H","0","img/none_selected.jpg","","48","main_expt"
"215","","bandit","127","387420","0.0-88.0-0.0","32770056","wem/bandit_either","A899L8WYC76AD","either","2","","","","","","","0","0","1","0.1646396384","","0.4","0.6","0.2","0.8","","","","","0.1646396384","0.2803848884","0.4660387519","0.1473883531","","","","","","","72","H","0","img/none_selected.jpg","","49","main_expt"
"376","","bandit","128","389328","0.0-89.0-0.0","32770056","wem/bandit_either","A899L8WYC76AD","either","2","","","","","","","0","0","1","0.2024226619","","0.4","0.6","0.2","0.8","","","","","0.2024226619","0.2587411269","0.4345757832","0.1378170987","","","","","","","72","H","0","img/none_selected.jpg","","50","main_expt"
"498","","bandit","129","391348","0.0-90.0-0.0","32770056","wem/bandit_either","A899L8WYC76AD","either","2","","","","","","","0","0","1","0.2212901065","","0.4","0.6","0.2","0.8","","","","","0.1976760068","0.2212901065","0.4450950844","0.1430360168","","","","","","","74","J","1","","","51","main_expt"
"320","","bandit","130","393197","0.0-91.0-0.0","32770056","wem/bandit_either","A899L8WYC76AD","either","2","","","","","","","0","0","1","","0.4475354499","0.4","0.6","0.2","0.8","0.1796352224","0.236006857","0.4475354499","0.1731798725","","","","","","","","","","","75","K","2","","","52","main_expt"
"361","","bandit","131","395085","0.0-92.0-0.0","32770056","wem/bandit_either","A899L8WYC76AD","either","2","","","","","","","0","1","0","","0.1312409056","0.4","0.6","0.2","0.8","0.2451732725","0.2660825342","0.4627294295","0.1312409056","","","","","","","","","","","76","L","3","","","53","main_expt"
"332","","bandit","132","396957","0.0-93.0-0.0","32770056","wem/bandit_either","A899L8WYC76AD","either","2","","","","","","","0","0","1","0.1862053218","","0.4","0.6","0.2","0.8","","","","","0.2621482643","0.2458345041","0.44829207","0.1862053218","","","","","","","76","L","3","","","54","main_expt"
"316","","bandit","133","398788","0.0-94.0-0.0","32770056","wem/bandit_either","A899L8WYC76AD","either","2","","","","","","","0","1","0","","0.1733563037","0.4","0.6","0.2","0.8","0.2441780383","0.2265690781","0.4505537928","0.1733563037","","","","","","","","","","","76","L","3","","","55","main_expt"
"334","","bandit","134","400669","0.0-95.0-0.0","32770056","wem/bandit_either","A899L8WYC76AD","either","2","","","","","","","0","0","1","0.1728369204","","0.4","0.6","0.2","0.8","","","","","0.199729785","0.2741820357","0.4686400132","0.1728369204","","","","","","","76","L","3","","","56","main_expt"
"409","","bandit","135","402616","0.0-96.0-0.0","32770056","wem/bandit_either","A899L8WYC76AD","either","2","","","","","","","1","0","0","0.09176359954","","0.4","0.6","0.2","0.8","","","","","0.1945085845","0.2937641054","0.4572679106","0.09176359954","","","","","","","76","L","3","","","57","main_expt"
"671","","bandit","136","404824","0.0-97.0-0.0","32770056","wem/bandit_either","A899L8WYC76AD","either","2","","","","","","","0","0","1","0.04991422033","","0.4","0.6","0.2","0.8","","","","","0.2614759052","0.2949827607","0.4300169527","0.04991422033","","","","","","","76","L","3","","","58","main_expt"
"370","","bandit","137","406723","0.0-98.0-0.0","32770056","wem/bandit_either","A899L8WYC76AD","either","2","","","","","","","0","0","1","0.053239915","","0.4","0.6","0.2","0.8","","","","","0.2426118991","0.2710075273","0.4050829606","0.053239915","","","","","","","76","L","3","","","59","main_expt"
"3","","bandit","138","408265","0.0-99.0-0.0","32770056","wem/bandit_either","A899L8WYC76AD","either","2","","","","","","","0","0","1","","0.06994226662","0.4","0.6","0.2","0.8","0.2623750897","0.2766623035","0.4070720156","0.06994226662","","","","","","","","","","","76","L","3","","","60","main_expt"
"268","","bandit","139","410072","0.0-100.0-0.0","32770056","wem/bandit_either","A899L8WYC76AD","either","2","","","","","","","0","0","1","","0.3895400789","0.4","0.6","0.2","0.8","0.2139103784","0.2574592035","0.3895400789","0.07064832373","","","","","","","","","","","75","K","2","","","61","main_expt"
"217","","bandit","140","411824","0.0-101.0-0.0","32770056","wem/bandit_either","A899L8WYC76AD","either","2","","","","","","","0","0","1","0.2566580444","","0.4","0.6","0.2","0.8","","","","","0.2566580444","0.2425209234","0.4050708951","0.08925217872","","","","","","","72","H","0","img/none_selected.jpg","","62","main_expt"
"3","","bandit","141","413367","0.0-102.0-0.0","32770056","wem/bandit_either","A899L8WYC76AD","either","2","","","","","","","0","0","1","","0.2294211584","0.4","0.6","0.2","0.8","0.2393402704","0.2294211584","0.3765761212","0.08505035955","","","","","","","","","","","74","J","1","","","63","main_expt"
"359","","bandit","142","415265","0.0-103.0-0.0","32770056","wem/bandit_either","A899L8WYC76AD","either","2","","","","","","","1","0","0","0.2350173232","","0.4","0.6","0.2","0.8","","","","","0.300105392","0.2350173232","0.3859881554","0.09892528285","","","","","","","74","J","1","","","64","main_expt"
"324","","bandit","143","417136","0.0-104.0-0.0","32770056","wem/bandit_either","A899L8WYC76AD","either","2","","","","","","","0","0","1","","0.2775473173","0.4","0.6","0.2","0.8","0.2584268813","0.2775473173","0.3817039273","0.1428545766","","","","","","","","","","","74","J","1","","","65","main_expt"
"341","","bandit","144","419008","0.0-105.0-0.0","32770056","wem/bandit_either","A899L8WYC76AD","either","2","","","","","","","0","0","1","","0.298861572","0.4","0.6","0.2","0.8","0.2536378703","0.298861572","0.3622232449","0.120440259","","","","","","","","","","","74","J","1","","","66","main_expt"
"267","","bandit","145","420803","0.0-106.0-0.0","32770056","wem/bandit_either","A899L8WYC76AD","either","2","","","","","","","1","0","0","0.3043747659","","0.4","0.6","0.2","0.8","","","","","0.2548884231","0.3043747659","0.3768721334","0.2019700983","","","","","","","74","J","1","","","67","main_expt"
"392","","bandit","146","422737","0.0-107.0-0.0","32770056","wem/bandit_either","A899L8WYC76AD","either","2","","","","","","","0","1","0","","0.2533072519","0.4","0.6","0.2","0.8","0.2105458193","0.2533072519","0.3826604183","0.1467862533","","","","","","","","","","","74","J","1","","","68","main_expt"
"337","","bandit","147","424601","0.0-108.0-0.0","32770056","wem/bandit_either","A899L8WYC76AD","either","2","","","","","","","1","0","0","0.2451677402","","0.4","0.6","0.2","0.8","","","","","0.2901666962","0.2451677402","0.3981811202","0.09022805221","","","","","","","74","J","1","","","69","main_expt"
"348","","bandit","148","426491","0.0-109.0-0.0","32770056","wem/bandit_either","A899L8WYC76AD","either","2","","","","","","","0","0","1","","0.2403061491","0.4","0.6","0.2","0.8","0.2973761433","0.2403061491","0.3936557204","0.1128827508","","","","","","","","","","","74","J","1","","","70","main_expt"
"272","","bandit","149","428296","0.0-110.0-0.0","32770056","wem/bandit_either","A899L8WYC76AD","either","2","","","","","","","0","0","1","","0.1917576795","0.4","0.6","0.2","0.8","0.2737706179","0.1917576795","0.3949471057","0.1184182172","","","","","","","","","","","74","J","1","","","71","main_expt"
"241","","bandit","150","430073","0.0-111.0-0.0","32770056","wem/bandit_either","A899L8WYC76AD","either","2","","","","","","","0","0","1","","0.1894079546","0.4","0.6","0.2","0.8","0.3005227265","0.1894079546","0.3888869603","0.1038133506","","","","","","","","","","","74","J","1","","","72","main_expt"
"258","","bandit","151","431857","0.0-112.0-0.0","32770056","wem/bandit_either","A899L8WYC76AD","either","2","","","","","","","0","0","1","","0.235909594","0.4","0.6","0.2","0.8","0.3205676235","0.235909594","0.4015056825","0.07830871569","","","","","","","","","","","74","J","1","","","73","main_expt"
"760","","bandit","152","434151","0.0-113.0-0.0","32770056","wem/bandit_either","A899L8WYC76AD","either","2","","","","","","","0","1","0","","0.3040473008","0.4","0.6","0.2","0.8","0.3040473008","0.2772030277","0.4200542591","0.09226686474","","","","","","","","","","","72","H","0","img/none_selected.jpg","","74","main_expt"
"311","","bandit","153","436013","0.0-114.0-0.0","32770056","wem/bandit_either","A899L8WYC76AD","either","2","","","","","","","0","0","1","","0.2686744794","0.4","0.6","0.2","0.8","0.2686744794","0.2237268092","0.4353174817","0.07948082514","","","","","","","","","","","72","H","0","img/none_selected.jpg","","75","main_expt"
"349","","bandit","154","437910","0.0-115.0-0.0","32770056","wem/bandit_either","A899L8WYC76AD","either","2","","","","","","","0","0","1","0.258707356","","0.4","0.6","0.2","0.8","","","","","0.258707356","0.1739375455","0.4196821318","0.1279570505","","","","","","","72","H","0","img/none_selected.jpg","","76","main_expt"
"235","","bandit","155","439682","0.0-116.0-0.0","32770056","wem/bandit_either","A899L8WYC76AD","either","2","","","","","","","0","0","1","","0.3010070056","0.4","0.6","0.2","0.8","0.3010070056","0.1648796623","0.3787369199","0.1202820049","","","","","","","","","","","72","H","0","img/none_selected.jpg","","77","main_expt"
"213","","bandit","156","441424","0.0-117.0-0.0","32770056","wem/bandit_either","A899L8WYC76AD","either","2","","","","","","","0","0","1","","0.2648586626","0.4","0.6","0.2","0.8","0.2648586626","0.1637798684","0.4314930014","0.1054071572","","","","","","","","","","","72","H","0","img/none_selected.jpg","","78","main_expt"
"323","","bandit","157","443285","0.0-118.0-0.0","32770056","wem/bandit_either","A899L8WYC76AD","either","2","","","","","","","0","0","1","","0.1403095361","0.4","0.6","0.2","0.8","0.1984114041","0.1490076182","0.4155078174","0.1403095361","","","","","","","","","","","76","L","3","","","79","main_expt"
"293","","bandit","158","445114","0.0-119.0-0.0","32770056","wem/bandit_either","A899L8WYC76AD","either","2","","","","","","","0","0","1","0.1891235553","","0.4","0.6","0.2","0.8","","","","","0.180325551","0.1093198388","0.4226243671","0.1891235553","","","","","","","76","L","3","","","80","main_expt"
"292","","bandit","159","446961","0.0-120.0-0.0","32770056","wem/bandit_either","A899L8WYC76AD","either","2","","","","","","","0","0","1","0.1858030354","","0.4","0.6","0.2","0.8","","","","","0.224531153","0.08868186825","0.4474166549","0.1858030354","","","","","","","76","L","3","","","81","main_expt"
"271","","bandit","160","448775","0.0-121.0-0.0","32770056","wem/bandit_either","A899L8WYC76AD","either","2","","","","","","","0","0","1","","0.2476542501","0.4","0.6","0.2","0.8","0.221125015","0.1073880826","0.4636297045","0.2476542501","","","","","","","","","","","76","L","3","","","82","main_expt"
"285","","bandit","161","450611","0.0-122.0-0.0","32770056","wem/bandit_either","A899L8WYC76AD","either","2","","","","","","","0","1","0","","0.467509749","0.4","0.6","0.2","0.8","0.2143237207","0.1022587498","0.467509749","0.2188241074","","","","","","","","","","","75","K","2","","","83","main_expt"
"355","","bandit","162","452500","0.0-123.0-0.0","32770056","wem/bandit_either","A899L8WYC76AD","either","2","","","","","","","0","1","0","","0.4551111531","0.4","0.6","0.2","0.8","0.2097367537","0.1085807699","0.4551111531","0.2754771977","","","","","","","","","","","75","K","2","","","84","main_expt"
"327","","bandit","163","454361","0.0-124.0-0.0","32770056","wem/bandit_either","A899L8WYC76AD","either","2","","","","","","","0","1","0","","0.4621419017","0.4","0.6","0.2","0.8","0.1661536269","0.1263918358","0.4621419017","0.2965575968","","","","","","","","","","","75","K","2","","","85","main_expt"
"291","","bandit","164","456186","0.0-125.0-0.0","32770056","wem/bandit_either","A899L8WYC76AD","either","2","","","","","","","0","0","1","0.4612050897","","0.4","0.6","0.2","0.8","","","","","0.1364458955","0.1481941301","0.4612050897","0.257129161","","","","","","","75","K","2","","","86","main_expt"
"333","","bandit","165","458056","0.0-126.0-0.0","32770056","wem/bandit_either","A899L8WYC76AD","either","2","","","","","","","1","0","0","0.4334675206","","0.4","0.6","0.2","0.8","","","","","0.08235553135","0.1447872846","0.4334675206","0.2338967043","","","","","","","75","K","2","","","87","main_expt"
"331","","bandit","166","459919","0.0-127.0-0.0","32770056","wem/bandit_either","A899L8WYC76AD","either","2","","","","","","","0","1","0","","0.4397617206","0.4","0.6","0.2","0.8","0.0754832669","0.1391637727","0.4397617206","0.2161535794","","","","","","","","","","","75","K","2","","","88","main_expt"
"421","","bandit","167","461885","0.0-128.0-0.0","32770056","wem/bandit_either","A899L8WYC76AD","either","2","","","","","","","0","1","0","","0.4635478967","0.4","0.6","0.2","0.8","0.109361408","0.1476089376","0.4635478967","0.2043146745","","","","","","","","","","","75","K","2","","","89","main_expt"
"327","","bandit","168","463744","0.0-129.0-0.0","32770056","wem/bandit_either","A899L8WYC76AD","either","2","","","","","","","0","0","1","","0.4234969579","0.4","0.6","0.2","0.8","0.07391079866","0.2081489191","0.4234969579","0.2346009907","","","","","","","","","","","75","K","2","","","90","main_expt"
"329","","bandit","169","465598","0.0-130.0-0.0","32770056","wem/bandit_either","A899L8WYC76AD","either","2","","","","","","","0","0","1","","0.4267507071","0.4","0.6","0.2","0.8","0.1164594673","0.1834039029","0.4267507071","0.2333967219","","","","","","","","","","","75","K","2","","","91","main_expt"
"306","","bandit","170","467431","0.0-131.0-0.0","32770056","wem/bandit_either","A899L8WYC76AD","either","2","","","","","","","0","1","0","","0.4089505196","0.4","0.6","0.2","0.8","0.113043345","0.2027314649","0.4089505196","0.2150480475","","","","","","","","","","","75","K","2","","","92","main_expt"
"332","","bandit","171","469278","0.0-132.0-0.0","32770056","wem/bandit_either","A899L8WYC76AD","either","2","","","","","","","0","1","0","","0.4112501448","0.4","0.6","0.2","0.8","0.1714352716","0.1738894496","0.4112501448","0.2588080464","","","","","","","","","","","75","K","2","","","93","main_expt"
"317","","bandit","172","471141","0.0-133.0-0.0","32770056","wem/bandit_either","A899L8WYC76AD","either","2","","","","","","","0","0","1","0.452415855","","0.4","0.6","0.2","0.8","","","","","0.1253024032","0.2484708832","0.452415855","0.2748849181","","","","","","","75","K","2","","","94","main_expt"
"313","","bandit","173","472987","0.0-134.0-0.0","32770056","wem/bandit_either","A899L8WYC76AD","either","2","","","","","","","0","0","1","","0.4589197587","0.4","0.6","0.2","0.8","0.1401284447","0.2914685715","0.4589197587","0.2791739054","","","","","","","","","","","75","K","2","","","95","main_expt"
"297","","bandit","174","474813","0.0-135.0-0.0","32770056","wem/bandit_either","A899L8WYC76AD","either","2","","","","","","","0","1","0","","0.4481870348","0.4","0.6","0.2","0.8","0.1320491369","0.2417524935","0.4481870348","0.3149564315","","","","","","","","","","","75","K","2","","","96","main_expt"
"304","","bandit","175","476661","0.0-136.0-0.0","32770056","wem/bandit_either","A899L8WYC76AD","either","2","","","","","","","0","0","1","","0.4597072186","0.4","0.6","0.2","0.8","0.1518453759","0.2492821404","0.4597072186","0.372564007","","","","","","","","","","","75","K","2","","","97","main_expt"
"320","","bandit","176","478539","0.0-137.0-0.0","32770056","wem/bandit_either","A899L8WYC76AD","either","2","","","","","","","0","0","1","","0.4705619112","0.4","0.6","0.2","0.8","0.2173959583","0.3002958449","0.4705619112","0.393328365","","","","","","","","","","","75","K","2","","","98","main_expt"
"270","","bandit","177","480330","0.0-138.0-0.0","32770056","wem/bandit_either","A899L8WYC76AD","either","2","","","","","","","0","1","0","","0.4800968761","0.4","0.6","0.2","0.8","0.2618725657","0.3544832656","0.4800968761","0.421239771","","","","","","","","","","","75","K","2","","","99","main_expt"
"334","","bandit","178","482189","0.0-139.0-0.0","32770056","wem/bandit_either","A899L8WYC76AD","either","2","","","","","","","0","1","0","","0.4780143146","0.4","0.6","0.2","0.8","0.2487788848","0.3810954338","0.4780143146","0.4130759476","","","","","","","","","","","75","K","2","","","100","main_expt"
"313","","bandit","179","484058","0.0-140.0-0.0","32770056","wem/bandit_either","A899L8WYC76AD","either","2","","","","","","","0","0","1","","0.4849002763","0.4","0.6","0.2","0.8","0.2890792313","0.4042362267","0.4849002763","0.4089462913","","","","","","","","","","","75","K","2","","","101","main_expt"
"217","","bandit","180","485825","0.0-141.0-0.0","32770056","wem/bandit_either","A899L8WYC76AD","either","2","","","","","","","0","0","1","","0.4886078379","0.4","0.6","0.2","0.8","0.3136369757","0.4594696392","0.4886078379","0.370330464","","","","","","","","","","","75","K","2","","","102","main_expt"
"302","","bandit","181","487675","0.0-142.0-0.0","32770056","wem/bandit_either","A899L8WYC76AD","either","2","","","","","","","0","0","1","","0.47121906","0.4","0.6","0.2","0.8","0.2364671533","0.4588766667","0.47121906","0.3306315663","","","","","","","","","","","75","K","2","","","103","main_expt"
"281","","bandit","182","489494","0.0-143.0-0.0","32770056","wem/bandit_either","A899L8WYC76AD","either","2","","","","","","","0","0","1","","0.4760763377","0.4","0.6","0.2","0.8","0.2202486688","0.4372785745","0.4760763377","0.354634178","","","","","","","","","","","75","K","2","","","104","main_expt"
"342","","bandit","183","491375","0.0-144.0-0.0","32770056","wem/bandit_either","A899L8WYC76AD","either","2","","","","","","","0","0","1","0.4063887309","","0.4","0.6","0.2","0.8","","","","","0.1854418088","0.4063887309","0.4701389446","0.3896605338","","","","","","","74","J","1","","","105","main_expt"
"367","","bandit","184","493284","0.0-145.0-0.0","32770056","wem/bandit_either","A899L8WYC76AD","either","2","","","","","","","0","0","1","0.3778019321","","0.4","0.6","0.2","0.8","","","","","0.1596754559","0.3778019321","0.471324938","0.414339711","","","","","","","74","J","1","","","106","main_expt"
"272","","bandit","185","495094","0.0-146.0-0.0","32770056","wem/bandit_either","A899L8WYC76AD","either","2","","","","","","","0","0","1","","0.3614143111","0.4","0.6","0.2","0.8","0.137099288","0.3614143111","0.4786694594","0.4164239898","","","","","","","","","","","74","J","1","","","107","main_expt"
"314","","bandit","186","496956","0.0-147.0-0.0","32770056","wem/bandit_either","A899L8WYC76AD","either","2","","","","","","","0","0","1","","0.3681250399","0.4","0.6","0.2","0.8","0.1443984823","0.3681250399","0.4810065258","0.3836571442","","","","","","","","","","","74","J","1","","","108","main_expt"
"290","","bandit","187","498799","0.0-148.0-0.0","32770056","wem/bandit_either","A899L8WYC76AD","either","2","","","","","","","0","0","1","0.3446081275","","0.4","0.6","0.2","0.8","","","","","0.1409511773","0.3446081275","0.4816764674","0.3881214568","","","","","","","74","J","1","","","109","main_expt"
"359","","bandit","188","500696","0.0-149.0-0.0","32770056","wem/bandit_either","A899L8WYC76AD","either","2","","","","","","","0","0","1","0.1787750665","","0.4","0.6","0.2","0.8","","","","","0.1787750665","0.3681270965","0.4882082215","0.4266873791","","","","","","","72","H","0","img/none_selected.jpg","","110","main_expt"
"264","","bandit","189","502492","0.0-150.0-0.0","32770056","wem/bandit_either","A899L8WYC76AD","either","2","","","","","","","0","0","1","","0.391379093","0.4","0.6","0.2","0.8","0.1862786225","0.391379093","0.478642168","0.4475699482","","","","","","","","","","","74","J","1","","","111","main_expt"
"263","","bandit","190","504311","0.0-151.0-0.0","32770056","wem/bandit_either","A899L8WYC76AD","either","2","","","","","","","0","0","1","","0.1654620982","0.4","0.6","0.2","0.8","0.1654620982","0.4131544452","0.4841415165","0.4190314983","","","","","","","","","","","72","H","0","img/none_selected.jpg","","112","main_expt"
"365","","bandit","191","506227","0.0-152.0-0.0","32770056","wem/bandit_either","A899L8WYC76AD","either","2","","","","","","","0","0","1","0.1582981878","","0.4","0.6","0.2","0.8","","","","","0.1582981878","0.3963985948","0.4883212127","0.3666128881","","","","","","","72","H","0","img/none_selected.jpg","","113","main_expt"
"305","","bandit","192","508064","0.0-153.0-0.0","32770056","wem/bandit_either","A899L8WYC76AD","either","2","","","","","","","0","0","1","","0.1922757069","0.4","0.6","0.2","0.8","0.1922757069","0.4117985871","0.4883790739","0.3866259854","","","","","","","","","","","72","H","0","img/none_selected.jpg","","114","main_expt"
"320","","bandit","193","509915","0.0-154.0-0.0","32770056","wem/bandit_either","A899L8WYC76AD","either","2","","","","","","","0","0","1","0.354161152","","0.4","0.6","0.2","0.8","","","","","0.185618385","0.394381103","0.4902011966","0.354161152","","","","","","","76","L","3","","","115","main_expt"
"359","","bandit","194","511805","0.0-155.0-0.0","32770056","wem/bandit_either","A899L8WYC76AD","either","2","","","","","","","1","0","0","0.3170745426","","0.4","0.6","0.2","0.8","","","","","0.2057277395","0.3762408663","0.4844723045","0.3170745426","","","","","","","76","L","3","","","116","main_expt"
"524","","bandit","195","513863","0.0-156.0-0.0","32770056","wem/bandit_either","A899L8WYC76AD","either","2","","","","","","","0","0","1","0.304536318","","0.4","0.6","0.2","0.8","","","","","0.2288411079","0.3823674378","0.4895589844","0.304536318","","","","","","","76","L","3","","","117","main_expt"
"394","","bandit","196","515804","0.0-157.0-0.0","32770056","wem/bandit_either","A899L8WYC76AD","either","2","","","","","","","1","0","0","0.3411026949","","0.4","0.6","0.2","0.8","","","","","0.2207517482","0.4050195855","0.4899729034","0.3411026949","","","","","","","76","L","3","","","118","main_expt"
"563","","bandit","197","517904","0.0-158.0-0.0","32770056","wem/bandit_either","A899L8WYC76AD","either","2","","","","","","","1","0","0","0.3447942488","","0.4","0.6","0.2","0.8","","","","","0.1955286499","0.4227562767","0.4947041593","0.3447942488","","","","","","","76","L","3","","","119","main_expt"
"428","","bandit","198","519862","0.0-159.0-0.0","32770056","wem/bandit_either","A899L8WYC76AD","either","2","","","","","","","0","0","1","0.3686185352","","0.4","0.6","0.2","0.8","","","","","0.2427950695","0.4163810796","0.4916865355","0.3686185352","","","","","","","76","L","3","","","120","main_expt"
"390","","bandit","199","521801","0.0-160.0-0.0","32770056","wem/bandit_either","A899L8WYC76AD","either","2","","","","","","","0","0","1","0.3547669752","","0.4","0.6","0.2","0.8","","","","","0.2479682904","0.406821829","0.4860386064","0.3547669752","","","","","","","76","L","3","","","121","main_expt"
"244","","bandit","200","523581","0.0-161.0-0.0","32770056","wem/bandit_either","A899L8WYC76AD","either","2","","","","","","","1","0","0","0.365994073","","0.4","0.6","0.2","0.8","","","","","0.3081985406","0.3999449125","0.483083859","0.365994073","","","","","","","76","L","3","","","122","main_expt"
"306","","bandit","201","525412","0.0-162.0-0.0","32770056","wem/bandit_either","A899L8WYC76AD","either","2","","","","","","","0","0","1","0.3120596142","","0.4","0.6","0.2","0.8","","","","","0.3089359708","0.366626489","0.4791491275","0.3120596142","","","","","","","76","L","3","","","123","main_expt"
"256","","bandit","202","527210","0.0-163.0-0.0","32770056","wem/bandit_either","A899L8WYC76AD","either","2","","","","","","","0","0","1","0.302161917","","0.4","0.6","0.2","0.8","","","","","0.3298338218","0.3706278578","0.4776777384","0.302161917","","","","","","","76","L","3","","","124","main_expt"
"717","","bandit","203","529467","0.0-164.0-0.0","32770056","wem/bandit_either","A899L8WYC76AD","either","2","","","","","","","1","0","0","0.2794370347","","0.4","0.6","0.2","0.8","","","","","0.2795250441","0.3545504723","0.478983255","0.2794370347","","","","","","","76","L","3","","","125","main_expt"
"845","","bandit","204","531852","0.0-165.0-0.0","32770056","wem/bandit_either","A899L8WYC76AD","either","2","","","","","","","0","0","1","0.2466154908","","0.4","0.6","0.2","0.8","","","","","0.2184127205","0.3106298006","0.4724726719","0.2466154908","","","","","","","76","L","3","","","126","main_expt"
"867","","bandit","205","534271","0.0-166.0-0.0","32770056","wem/bandit_either","A899L8WYC76AD","either","2","","","","","","","0","0","1","","0.2712823261","0.4","0.6","0.2","0.8","0.2488858907","0.3351405197","0.4796244369","0.2712823261","","","","","","","","","","","76","L","3","","","127","main_expt"
"307","","bandit","206","536118","0.0-167.0-0.0","32770056","wem/bandit_either","A899L8WYC76AD","either","2","","","","","","","0","0","1","","0.2095517986","0.4","0.6","0.2","0.8","0.2850827173","0.2984422464","0.4825212971","0.2095517986","","","","","","","","","","","76","L","3","","","128","main_expt"
"345","","bandit","207","538002","0.0-168.0-0.0","32770056","wem/bandit_either","A899L8WYC76AD","either","2","","","","","","","0","1","0","","0.4877535013","0.4","0.6","0.2","0.8","0.2867242009","0.2027892291","0.4877535013","0.1986866195","","","","","","","","","","","75","K","2","","","129","main_expt"
"341","","bandit","208","539883","0.0-169.0-0.0","32770056","wem/bandit_either","A899L8WYC76AD","either","2","","","","","","","0","1","0","","0.4833646461","0.4","0.6","0.2","0.8","0.2509552002","0.13768179","0.4833646461","0.172959111","","","","","","","","","","","75","K","2","","","130","main_expt"
"347","","bandit","209","541781","0.0-170.0-0.0","32770056","wem/bandit_either","A899L8WYC76AD","either","2","","","","","","","0","1","0","","0.4790990265","0.4","0.6","0.2","0.8","0.2172434631","0.1352832961","0.4790990265","0.163172462","","","","","","","","","","","75","K","2","","","131","main_expt"
"337","","bandit","210","543661","0.0-171.0-0.0","32770056","wem/bandit_either","A899L8WYC76AD","either","2","","","","","","","0","0","1","","0.4882311922","0.4","0.6","0.2","0.8","0.158295755","0.08660982753","0.4882311922","0.161148659","","","","","","","","","","","75","K","2","","","132","main_expt"
"353","","bandit","211","545563","0.0-172.0-0.0","32770056","wem/bandit_either","A899L8WYC76AD","either","2","","","","","","","0","1","0","","0.4889625365","0.4","0.6","0.2","0.8","0.185310911","0.1020907376","0.4889625365","0.1735641072","","","","","","","","","","","75","K","2","","","133","main_expt"
"661","","bandit","212","547765","0.0-173.0-0.0","32770056","wem/bandit_either","A899L8WYC76AD","either","2","","","","","","","0","1","0","","0.4916783795","0.4","0.6","0.2","0.8","0.1966535246","0.1231499397","0.4916783795","0.1597390633","","","","","","","","","","","75","K","2","","","134","main_expt"
"652","","bandit","213","549958","0.0-174.0-0.0","32770056","wem/bandit_either","A899L8WYC76AD","either","2","","","","","","","1","0","0","0.4904315354","","0.4","0.6","0.2","0.8","","","","","0.2290191974","0.1524236556","0.4904315354","0.1460070414","","","","","","","75","K","2","","","135","main_expt"
"692","","bandit","214","552187","0.0-175.0-0.0","32770056","wem/bandit_either","A899L8WYC76AD","either","2","","","","","","","0","1","0","","0.491666595","0.4","0.6","0.2","0.8","0.2929229053","0.1954247664","0.491666595","0.105474526","","","","","","","","","","","75","K","2","","","136","main_expt"
"420","","bandit","215","554150","0.0-176.0-0.0","32770056","wem/bandit_either","A899L8WYC76AD","either","2","","","","","","","0","0","1","","0.4917142499","0.4","0.6","0.2","0.8","0.2780805385","0.1833989084","0.4917142499","0.08835118593","","","","","","","","","","","75","K","2","","","137","main_expt"
"376","","bandit","216","556072","0.0-177.0-0.0","32770056","wem/bandit_either","A899L8WYC76AD","either","2","","","","","","","0","0","1","","0.4870170403","0.4","0.6","0.2","0.8","0.217224157","0.1490533902","0.4870170403","0.06418360449","","","","","","","","","","","75","K","2","","","138","main_expt"
"289","","bandit","217","557902","0.0-178.0-0.0","32770056","wem/bandit_either","A899L8WYC76AD","either","2","","","","","","","0","0","1","","0.4834992155","0.4","0.6","0.2","0.8","0.2323391466","0.1318817547","0.4834992155","0.03554325754","","","","","","","","","","","75","K","2","","","139","main_expt"
"298","","bandit","218","559744","0.0-179.0-0.0","32770056","wem/bandit_either","A899L8WYC76AD","either","2","","","","","","","0","1","0","","0.4927392517","0.4","0.6","0.2","0.8","0.244475209","0.1877412345","0.4927392517","0.04477370895","","","","","","","","","","","75","K","2","","","140","main_expt"
"376","","bandit","219","561662","0.0-180.0-0.0","32770056","wem/bandit_either","A899L8WYC76AD","either","2","","","","","","","1","0","0","0.4872377518","","0.4","0.6","0.2","0.8","","","","","0.232604034","0.2363671377","0.4872377518","0.03780119019","","","","","","","75","K","2","","","141","main_expt"
"323","","bandit","220","563530","0.0-181.0-0.0","32770056","wem/bandit_either","A899L8WYC76AD","either","2","","","","","","","0","0","1","0.4846254936","","0.4","0.6","0.2","0.8","","","","","0.2447345556","0.2546402356","0.4846254936","0.03149913875","","","","","","","75","K","2","","","142","main_expt"
"347","","bandit","221","565404","0.0-182.0-0.0","32770056","wem/bandit_either","A899L8WYC76AD","either","2","","","","","","","0","0","1","","0.4815328815","0.4","0.6","0.2","0.8","0.26413271","0.2825544685","0.4815328815","0.04191513266","","","","","","","","","","","75","K","2","","","143","main_expt"
"33","","bandit","222","566964","0.0-183.0-0.0","32770056","wem/bandit_either","A899L8WYC76AD","either","2","","","","","","","0","0","1","0.4854048375","","0.4","0.6","0.2","0.8","","","","","0.1988203511","0.2731230023","0.4854048375","0.05613120157","","","","","","","75","K","2","","","144","main_expt"
"288","","bandit","223","568785","0.0-184.0-0.0","32770056","wem/bandit_either","A899L8WYC76AD","either","2","","","","","","","0","1","0","","0.4813029389","0.4","0.6","0.2","0.8","0.217822638","0.2943814715","0.4813029389","0.03827589539","","","","","","","","","","","75","K","2","","","145","main_expt"
"360","","bandit","224","570691","0.0-185.0-0.0","32770056","wem/bandit_either","A899L8WYC76AD","either","2","","","","","","","0","0","1","","0.4884824202","0.4","0.6","0.2","0.8","0.2009042904","0.328634005","0.4884824202","0.02861175853","","","","","","","","","","","75","K","2","","","146","main_expt"
"299","","bandit","225","572522","0.0-186.0-0.0","32770056","wem/bandit_either","A899L8WYC76AD","either","2","","","","","","","0","0","1","","0.4835291327","0.4","0.6","0.2","0.8","0.2080446297","0.3511209141","0.4835291327","0.02140640811","","","","","","","","","","","75","K","2","","","147","main_expt"
"24","","bandit","226","574091","0.0-187.0-0.0","32770056","wem/bandit_either","A899L8WYC76AD","either","2","","","","","","","0","0","1","","0.4716003481","0.4","0.6","0.2","0.8","0.1536700415","0.3874996206","0.4716003481","0.0202041473","","","","","","","","","","","75","K","2","","","148","main_expt"
"184","","bandit","227","575817","0.0-188.0-0.0","32770056","wem/bandit_either","A899L8WYC76AD","either","2","","","","","","","0","0","1","","0.4341886607","0.4","0.6","0.2","0.8","0.1593661633","0.3476646045","0.4341886607","0.01154190459","","","","","","","","","","","75","K","2","","","149","main_expt"
"296","","bandit","228","577659","0.0-189.0-0.0","32770056","wem/bandit_either","A899L8WYC76AD","either","2","","","","","","","0","0","1","0.3323010919","","0.4","0.6","0.2","0.8","","","","","0.144955896","0.3323010919","0.4014438172","0.01291237021","","","","","","","74","J","1","","","150","main_expt"
"270","","bandit","229","579461","0.0-190.0-0.0","32770056","wem/bandit_either","A899L8WYC76AD","either","2","","","","","","","0","1","0","","0.3954477196","0.4","0.6","0.2","0.8","0.2123564028","0.3954477196","0.3980713407","0.0137789916","","","","","","","","","","","74","J","1","","","151","main_expt"
"267","","bandit","230","581263","0.0-191.0-0.0","32770056","wem/bandit_either","A899L8WYC76AD","either","2","","","","","","","0","0","1","","0.4186327087","0.4","0.6","0.2","0.8","0.2301890466","0.4186327087","0.4002357887","0.01985271471","","","","","","","","","","","74","J","1","","","152","main_expt"
"340","","bandit","231","583148","0.0-192.0-0.0","32770056","wem/bandit_either","A899L8WYC76AD","either","2","","","","","","","0","0","1","0.4029566754","","0.4","0.6","0.2","0.8","","","","","0.2295153641","0.4029566754","0.388677987","0.02951100453","","","","","","","74","J","1","","","153","main_expt"
"73","","bandit","232","584752","0.0-193.0-0.0","32770056","wem/bandit_either","A899L8WYC76AD","either","2","","","","","","","0","0","1","0.4037751878","","0.4","0.6","0.2","0.8","","","","","0.2163321136","0.4037751878","0.3817747688","0.02325572033","","","","","","","74","J","1","","","154","main_expt"
"266","","bandit","233","586566","0.0-194.0-0.0","32770056","wem/bandit_either","A899L8WYC76AD","either","2","","","","","","","0","0","1","","0.2257858177","0.4","0.6","0.2","0.8","0.2257858177","0.4078727314","0.327727533","0.03925092562","","","","","","","","","","","72","H","0","img/none_selected.jpg","","155","main_expt"
"309","","bandit","234","588413","0.0-195.0-0.0","32770056","wem/bandit_either","A899L8WYC76AD","either","2","","","","","","","0","0","1","0.2077891775","","0.4","0.6","0.2","0.8","","","","","0.2077891775","0.3941681487","0.2821504166","0.05532081832","","","","","","","72","H","0","img/none_selected.jpg","","156","main_expt"
"244","","bandit","235","590210","0.0-196.0-0.0","32770056","wem/bandit_either","A899L8WYC76AD","either","2","","","","","","","0","0","1","0.1742908387","","0.4","0.6","0.2","0.8","","","","","0.1742908387","0.3417147062","0.2784527126","0.05983660039","","","","","","","72","H","0","img/none_selected.jpg","","157","main_expt"
"127","","bandit","236","591872","0.0-197.0-0.0","32770056","wem/bandit_either","A899L8WYC76AD","either","2","","","","","","","0","0","1","","0.162057643","0.4","0.6","0.2","0.8","0.162057643","0.2963220618","0.2857058734","0.09347744845","","","","","","","","","","","72","H","0","img/none_selected.jpg","","158","main_expt"
"306","","bandit","237","593731","0.0-198.0-0.0","32770056","wem/bandit_either","A899L8WYC76AD","either","2","","","","","","","1","0","0","0.2349295223","","0.4","0.6","0.2","0.8","","","","","0.1805514511","0.2961528309","0.2349295223","0.09649648717","","","","","","","75","K","2","","","159","main_expt"
"289","","bandit","238","595563","0.0-199.0-0.0","32770056","wem/bandit_either","A899L8WYC76AD","either","2","","","","","","","1","0","0","0.2275717407","","0.4","0.6","0.2","0.8","","","","","0.1724629995","0.2842772575","0.2275717407","0.08382429791","","","","","","","75","K","2","","","160","main_expt"
"329","","bandit","239","597441","0.0-200.0-0.0","32770056","wem/bandit_either","A899L8WYC76AD","either","2","","","","","","","0","0","1","","0.2559884592","0.4","0.6","0.2","0.8","0.1660992999","0.2747674873","0.2559884592","0.1466352983","","","","","","","","","","","75","K","2","","","161","main_expt"
"336","","bandit","240","599321","0.0-201.0-0.0","32770056","wem/bandit_either","A899L8WYC76AD","either","2","","","","","","","0","0","1","","0.2670526618","0.4","0.6","0.2","0.8","0.2281832109","0.2993190406","0.2670526618","0.1569467617","","","","","","","","","","","75","K","2","","","162","main_expt"
"86","","bandit","241","600964","0.0-202.0-0.0","32770056","wem/bandit_either","A899L8WYC76AD","either","2","","","","","","","0","0","1","0.2618894379","","0.4","0.6","0.2","0.8","","","","","0.2144285545","0.3102408377","0.2618894379","0.1437935099","","","","","","","75","K","2","","","163","main_expt"
"170","","bandit","242","602671","0.0-203.0-0.0","32770056","wem/bandit_either","A899L8WYC76AD","either","2","","","","","","","0","1","0","","0.2977476978","0.4","0.6","0.2","0.8","0.2131293933","0.2607878409","0.2977476978","0.1503677763","","","","","","","","","","","75","K","2","","","164","main_expt"
"282","","bandit","243","604505","0.0-204.0-0.0","32770056","wem/bandit_either","A899L8WYC76AD","either","2","","","","","","","0","0","1","","0.3138636066","0.4","0.6","0.2","0.8","0.251698227","0.2470054868","0.3138636066","0.1574825995","","","","","","","","","","","75","K","2","","","165","main_expt"
"330","","bandit","244","606381","0.0-205.0-0.0","32770056","wem/bandit_either","A899L8WYC76AD","either","2","","","","","","","0","0","1","","0.3204338644","0.4","0.6","0.2","0.8","0.2831539445","0.2629624785","0.3204338644","0.1500633275","","","","","","","","","","","75","K","2","","","166","main_expt"
"279","","bandit","245","608205","0.0-206.0-0.0","32770056","wem/bandit_either","A899L8WYC76AD","either","2","","","","","","","0","0","1","","0.3600517585","0.4","0.6","0.2","0.8","0.2496169508","0.2745713682","0.3600517585","0.1137242654","","","","","","","","","","","75","K","2","","","167","main_expt"
"275","","bandit","246","610016","0.0-207.0-0.0","32770056","wem/bandit_either","A899L8WYC76AD","either","2","","","","","","","0","0","1","","0.3678373827","0.4","0.6","0.2","0.8","0.2315540067","0.2557249153","0.3678373827","0.145192941","","","","","","","","","","","75","K","2","","","168","main_expt"
"275","","bandit","247","611841","0.0-208.0-0.0","32770056","wem/bandit_either","A899L8WYC76AD","either","2","","","","","","","0","0","1","0.2016321063","","0.4","0.6","0.2","0.8","","","","","0.1825517174","0.2016321063","0.3421512568","0.1863479632","","","","","","","74","J","1","","","169","main_expt"
"325","","bandit","248","613707","0.0-209.0-0.0","32770056","wem/bandit_either","A899L8WYC76AD","either","2","","","","","","","0","0","1","","0.2210696627","0.4","0.6","0.2","0.8","0.2535959064","0.2210696627","0.3917895485","0.142304713","","","","","","","","","","","74","J","1","","","170","main_expt"
"284","","bandit","249","615536","0.0-210.0-0.0","32770056","wem/bandit_either","A899L8WYC76AD","either","2","","","","","","","0","0","1","","0.1627904758","0.4","0.6","0.2","0.8","0.3004284576","0.1627904758","0.3206692194","0.1739768979","","","","","","","","","","","74","J","1","","","171","main_expt"
"293","","bandit","250","617371","0.0-211.0-0.0","32770056","wem/bandit_either","A899L8WYC76AD","either","2","","","","","","","0","0","1","0.2716191145","","0.4","0.6","0.2","0.8","","","","","0.2716191145","0.1421076649","0.3198600846","0.2172659048","","","","","","","72","H","0","img/none_selected.jpg","","172","main_expt"
"316","","bandit","251","619228","0.0-212.0-0.0","32770056","wem/bandit_either","A899L8WYC76AD","either","2","","","","","","","0","0","1","","0.3253138029","0.4","0.6","0.2","0.8","0.3253138029","0.165050165","0.2641483633","0.2419731025","","","","","","","","","","","72","H","0","img/none_selected.jpg","","173","main_expt"
"308","","bandit","252","621067","0.0-213.0-0.0","32770056","wem/bandit_either","A899L8WYC76AD","either","2","","","","","","","0","0","1","","0.3419591401","0.4","0.6","0.2","0.8","0.3419591401","0.1406738207","0.2248062597","0.2239571331","","","","","","","","","","","72","H","0","img/none_selected.jpg","","174","main_expt"
"662","","bandit","253","623280","0.0-214.0-0.0","32770056","wem/bandit_either","A899L8WYC76AD","either","2","","","","","","","0","0","1","","0.3442692367","0.4","0.6","0.2","0.8","0.3442692367","0.138310495","0.2370379408","0.2311410243","","","","","","","","","","","72","H","0","img/none_selected.jpg","","175","main_expt"
"327","","bandit","254","625138","0.0-215.0-0.0","32770056","wem/bandit_either","A899L8WYC76AD","either","2","","","","","","","0","0","1","0.2610077479","","0.4","0.6","0.2","0.8","","","","","0.3397266539","0.1675243642","0.2157433706","0.2610077479","","","","","","","76","L","3","","","176","main_expt"
"643","","bandit","255","627330","0.0-216.0-0.0","32770056","wem/bandit_either","A899L8WYC76AD","either","2","","","","","","","0","0","1","0.2780938204","","0.4","0.6","0.2","0.8","","","","","0.2997078274","0.1919885971","0.2014791824","0.2780938204","","","","","","","76","L","3","","","177","main_expt"
"265","","bandit","256","629135","0.0-217.0-0.0","32770056","wem/bandit_either","A899L8WYC76AD","either","2","","","","","","","0","0","1","0.3151752793","","0.4","0.6","0.2","0.8","","","","","0.3064007527","0.2365392944","0.1913564418","0.3151752793","","","","","","","76","L","3","","","178","main_expt"
"343","","bandit","257","631009","0.0-218.0-0.0","32770056","wem/bandit_either","A899L8WYC76AD","either","2","","","","","","","0","0","1","0.2799621139","","0.4","0.6","0.2","0.8","","","","","0.3533432679","0.2509455726","0.1980728016","0.2799621139","","","","","","","76","L","3","","","179","main_expt"
"322","","bandit","258","632870","0.0-219.0-0.0","32770056","wem/bandit_either","A899L8WYC76AD","either","2","","","","","","","0","1","0","","0.1833491223","0.4","0.6","0.2","0.8","0.3652522579","0.2767223981","0.1833491223","0.3170936092","","","","","","","","","","","75","K","2","","","180","main_expt"
"307","","bandit","259","634720","0.0-220.0-0.0","32770056","wem/bandit_either","A899L8WYC76AD","either","2","","","","","","","0","0","1","","0.1342686697","0.4","0.6","0.2","0.8","0.3383156657","0.314600373","0.1342686697","0.28101752","","","","","","","","","","","75","K","2","","","181","main_expt"
"509","","bandit","260","636771","0.0-221.0-0.0","32770056","wem/bandit_either","A899L8WYC76AD","either","2","","","","","","","0","0","1","","0.1636660304","0.4","0.6","0.2","0.8","0.2902116232","0.3943610609","0.1636660304","0.3043342224","","","","","","","","","","","75","K","2","","","182","main_expt"
"625","","bandit","261","638941","0.0-222.0-0.0","32770056","wem/bandit_either","A899L8WYC76AD","either","2","","","","","","","0","0","1","","0.136761637","0.4","0.6","0.2","0.8","0.3026157476","0.3586422101","0.136761637","0.3192524042","","","","","","","","","","","75","K","2","","","183","main_expt"
"351","","bandit","262","640830","0.0-223.0-0.0","32770056","wem/bandit_either","A899L8WYC76AD","either","2","","","","","","","0","0","1","","0.1685989701","0.4","0.6","0.2","0.8","0.3360229169","0.3879999062","0.1685989701","0.3332516821","","","","","","","","","","","75","K","2","","","184","main_expt"
"303","","bandit","263","642681","0.0-224.0-0.0","32770056","wem/bandit_either","A899L8WYC76AD","either","2","","","","","","","0","0","1","","0.3831340227","0.4","0.6","0.2","0.8","0.3336456265","0.3831340227","0.1663529744","0.3228184693","","","","","","","","","","","74","J","1","","","185","main_expt"
"341","","bandit","264","644566","0.0-225.0-0.0","32770056","wem/bandit_either","A899L8WYC76AD","either","2","","","","","","","1","0","0","0.3999004662","","0.4","0.6","0.2","0.8","","","","","0.3308881938","0.3999004662","0.1916836285","0.3111703144","","","","","","","74","J","1","","","186","main_expt"
"305","","bandit","265","646414","0.0-226.0-0.0","32770056","wem/bandit_either","A899L8WYC76AD","either","2","","","","","","","0","0","1","0.3875363153","","0.4","0.6","0.2","0.8","","","","","0.325530054","0.3875363153","0.1686829448","0.3353611299","","","","","","","74","J","1","","","187","main_expt"
"383","","bandit","266","648351","0.0-227.0-0.0","32770056","wem/bandit_either","A899L8WYC76AD","either","2","","","","","","","0","1","0","","0.3875691392","0.4","0.6","0.2","0.8","0.3055482451","0.3875691392","0.1461675531","0.3646937268","","","","","","","","","","","74","J","1","","","188","main_expt"
"304","","bandit","267","650199","0.0-228.0-0.0","32770056","wem/bandit_either","A899L8WYC76AD","either","2","","","","","","","0","0","1","0.4166866882","","0.4","0.6","0.2","0.8","","","","","0.3002345065","0.4166866882","0.1382971047","0.3891323825","","","","","","","74","J","1","","","189","main_expt"
"635","","bandit","268","652370","0.0-229.0-0.0","32770056","wem/bandit_either","A899L8WYC76AD","either","2","","","","","","","1","0","0","0.4124474499","","0.4","0.6","0.2","0.8","","","","","0.2693931213","0.4124474499","0.1898135375","0.3860741766","","","","","","","74","J","1","","","190","main_expt"
"608","","bandit","269","654520","0.0-230.0-0.0","32770056","wem/bandit_either","A899L8WYC76AD","either","2","","","","","","","0","0","1","0.3638199534","","0.4","0.6","0.2","0.8","","","","","0.3009284261","0.3638199534","0.1264917812","0.3864243721","","","","","","","74","J","1","","","191","main_expt"
"385","","bandit","270","656450","0.0-231.0-0.0","32770056","wem/bandit_either","A899L8WYC76AD","either","2","","","","","","","0","0","1","0.3711146034","","0.4","0.6","0.2","0.8","","","","","0.3157917784","0.3711146034","0.1185409567","0.400448014","","","","","","","74","J","1","","","192","main_expt"
"371","","bandit","271","658336","0.0-232.0-0.0","32770056","wem/bandit_either","A899L8WYC76AD","either","2","","","","","","","1","0","0","0.3654165885","","0.4","0.6","0.2","0.8","","","","","0.2999212614","0.3654165885","0.09837948322","0.3895367297","","","","","","","74","J","1","","","193","main_expt"
"433","","bandit","272","660294","0.0-233.0-0.0","32770056","wem/bandit_either","A899L8WYC76AD","either","2","","","","","","","0","0","1","0.3537818584","","0.4","0.6","0.2","0.8","","","","","0.3287494418","0.3537818584","0.137690802","0.4032313792","","","","","","","74","J","1","","","194","main_expt"
"365","","bandit","273","662209","0.0-234.0-0.0","32770056","wem/bandit_either","A899L8WYC76AD","either","2","","","","","","","0","1","0","","0.3597494918","0.4","0.6","0.2","0.8","0.3031978913","0.3597494918","0.1683354775","0.337234763","","","","","","","","","","","74","J","1","","","195","main_expt"
"952","","bandit","274","664702","0.0-235.0-0.0","32770056","wem/bandit_either","A899L8WYC76AD","either","2","","","","","","","0","0","1","0.3479121901","","0.4","0.6","0.2","0.8","","","","","0.2901303692","0.3479121901","0.1561951964","0.3950764453","","","","","","","74","J","1","","","196","main_expt"
"459","","bandit","275","666709","0.0-236.0-0.0","32770056","wem/bandit_either","A899L8WYC76AD","either","2","","","","","","","1","0","0","0.3596292454","","0.4","0.6","0.2","0.8","","","","","0.2444781728","0.3596292454","0.1329868482","0.4193743727","","","","","","","74","J","1","","","197","main_expt"
"415","","bandit","276","668671","0.0-237.0-0.0","32770056","wem/bandit_either","A899L8WYC76AD","either","2","","","","","","","0","0","1","","0.3555371828","0.4","0.6","0.2","0.8","0.2140047665","0.3555371828","0.1730826789","0.4375347816","","","","","","","","","","","74","J","1","","","198","main_expt"
"805","","bandit","277","671021","0.0-238.0-0.0","32770056","wem/bandit_either","A899L8WYC76AD","either","2","","","","","","","0","1","0","","0.4016486285","0.4","0.6","0.2","0.8","0.2077842613","0.4016486285","0.1385649096","0.4315030007","","","","","","","","","","","74","J","1","","","199","main_expt"
"1158","","bandit","278","673719","0.0-239.0-0.0","32770056","wem/bandit_either","A899L8WYC76AD","either","2","","","","","","","0","0","1","0.3871107612","","0.4","0.6","0.2","0.8","","","","","0.180488049","0.3871107612","0.1941139053","0.4340108373","","","","","","","74","J","1","","","200","main_expt"
"722","","bandit","279","675978","0.0-240.0-0.0","32770056","wem/bandit_either","A899L8WYC76AD","either","2","","","","","","","0","0","1","0.3856539452","","0.4","0.6","0.2","0.8","","","","","0.2084987087","0.3856539452","0.1825013029","0.441078118","","","","","","","74","J","1","","","201","main_expt"
"1546","","bandit","280","679083","0.0-241.0-0.0","32770056","wem/bandit_either","A899L8WYC76AD","either","2","","","","","","","0","0","1","0.358588673","","0.4","0.6","0.2","0.8","","","","","0.1869669721","0.358588673","0.162440572","0.4143682719","","","","","","","74","J","1","","","202","main_expt"
"626","","bandit","281","681248","0.0-242.0-0.0","32770056","wem/bandit_either","A899L8WYC76AD","either","2","","","","","","","0","0","1","","0.1914238456","0.4","0.6","0.2","0.8","0.1383076553","0.3460881607","0.1914238456","0.4280720422","","","","","","","","","","","75","K","2","","","203","main_expt"
"391","","bandit","282","683174","0.0-243.0-0.0","32770056","wem/bandit_either","A899L8WYC76AD","either","2","","","","","","","0","0","1","","0.1849793247","0.4","0.6","0.2","0.8","0.1656187697","0.3091432968","0.1849793247","0.4113524858","","","","","","","","","","","75","K","2","","","204","main_expt"
"266","","bandit","283","684971","0.0-244.0-0.0","32770056","wem/bandit_either","A899L8WYC76AD","either","2","","","","","","","0","0","1","0.4151465815","","0.4","0.6","0.2","0.8","","","","","0.1699285253","0.3016396897","0.1722293799","0.4151465815","","","","","","","76","L","3","","","205","main_expt"
"295","","bandit","284","686815","0.0-245.0-0.0","32770056","wem/bandit_either","A899L8WYC76AD","either","2","","","","","","","0","0","1","0.4002359997","","0.4","0.6","0.2","0.8","","","","","0.161732949","0.3300702997","0.1625694713","0.4002359997","","","","","","","76","L","3","","","206","main_expt"
"296","","bandit","285","688650","0.0-246.0-0.0","32770056","wem/bandit_either","A899L8WYC76AD","either","2","","","","","","","0","0","1","0.2648848683","","0.4","0.6","0.2","0.8","","","","","0.1699017951","0.2648848683","0.1079769143","0.3692387261","","","","","","","74","J","1","","","207","main_expt"
"318","","bandit","286","690497","0.0-247.0-0.0","32770056","wem/bandit_either","A899L8WYC76AD","either","2","","","","","","","0","0","1","0.2502792914","","0.4","0.6","0.2","0.8","","","","","0.1592107695","0.2502792914","0.1380178959","0.3283471685","","","","","","","74","J","1","","","208","main_expt"
"280","","bandit","287","692323","0.0-248.0-0.0","32770056","wem/bandit_either","A899L8WYC76AD","either","2","","","","","","","0","0","1","0.1659907122","","0.4","0.6","0.2","0.8","","","","","0.1659907122","0.2770073026","0.1538506734","0.2924758898","","","","","","","72","H","0","img/none_selected.jpg","","209","main_expt"
"312","","bandit","288","694185","0.0-249.0-0.0","32770056","wem/bandit_either","A899L8WYC76AD","either","2","","","","","","","0","0","1","","0.229525517","0.4","0.6","0.2","0.8","0.229525517","0.3451435735","0.1406222791","0.2279470939","","","","","","","","","","","72","H","0","img/none_selected.jpg","","210","main_expt"
"285","","bandit","289","696020","0.0-250.0-0.0","32770056","wem/bandit_either","A899L8WYC76AD","either","2","","","","","","","0","0","1","","0.2434605193","0.4","0.6","0.2","0.8","0.2434605193","0.3514478275","0.08987887408","0.2131844406","","","","","","","","","","","72","H","0","img/none_selected.jpg","","211","main_expt"
"278","","bandit","290","697850","0.0-251.0-0.0","32770056","wem/bandit_either","A899L8WYC76AD","either","2","","","","","","","0","0","1","","0.1633214123","0.4","0.6","0.2","0.8","0.1633214123","0.3579324364","0.1277875359","0.1601793481","","","","","","","","","","","72","H","0","img/none_selected.jpg","","212","main_expt"
"307","","bandit","291","699693","0.0-252.0-0.0","32770056","wem/bandit_either","A899L8WYC76AD","either","2","","","","","","","0","1","0","","0.3231243524","0.4","0.6","0.2","0.8","0.1014835246","0.3231243524","0.134271297","0.1354109392","","","","","","","","","","","74","J","1","","","213","main_expt"
"415","","bandit","292","701663","0.0-253.0-0.0","32770056","wem/bandit_either","A899L8WYC76AD","either","2","","","","","","","0","0","1","0.2798540136","","0.4","0.6","0.2","0.8","","","","","0.09587264096","0.2798540136","0.1385204111","0.1142105534","","","","","","","74","J","1","","","214","main_expt"
"784","","bandit","293","703981","0.0-254.0-0.0","32770056","wem/bandit_either","A899L8WYC76AD","either","2","","","","","","","1","0","0","0.2469391402","","0.4","0.6","0.2","0.8","","","","","0.08342689115","0.2469391402","0.1089132689","0.1031311673","","","","","","","74","J","1","","","215","main_expt"
"443","","bandit","294","705972","0.0-255.0-0.0","32770056","wem/bandit_either","A899L8WYC76AD","either","2","","","","","","","0","1","0","","0.3211823944","0.4","0.6","0.2","0.8","0.05361264496","0.3211823944","0.1299508563","0.1031732366","","","","","","","","","","","74","J","1","","","216","main_expt"
"574","","bandit","295","708084","0.0-256.0-0.0","32770056","wem/bandit_either","A899L8WYC76AD","either","2","","","","","","","0","0","1","0.3545519007","","0.4","0.6","0.2","0.8","","","","","0.09912420903","0.3545519007","0.131109262","0.1188097379","","","","","","","74","J","1","","","217","main_expt"
"1487","","bandit","296","711121","0.0-257.0-0.0","32770056","wem/bandit_either","A899L8WYC76AD","either","2","","","","","","","1","0","0","0.3781539282","","0.4","0.6","0.2","0.8","","","","","0.1021137889","0.3781539282","0.1039495344","0.1096623481","","","","","","","74","J","1","","","218","main_expt"
"1461","","bandit","297","714147","0.0-258.0-0.0","32770056","wem/bandit_either","A899L8WYC76AD","either","2","","","","","","","0","0","1","0.3674409598","","0.4","0.6","0.2","0.8","","","","","0.1025207236","0.3674409598","0.09488552944","0.08679630722","","","","","","","74","J","1","","","219","main_expt"
"1637","","bandit","298","717340","0.0-259.0-0.0","32770056","wem/bandit_either","A899L8WYC76AD","either","2","","","","","","","0","0","1","0.315237632","","0.4","0.6","0.2","0.8","","","","","0.1049734862","0.315237632","0.1311925698","0.1482089448","","","","","","","74","J","1","","","220","main_expt"
"340","","bandit","299","719204","0.0-260.0-0.0","32770056","wem/bandit_either","A899L8WYC76AD","either","2","","","","","","","1","0","0","0.3572442142","","0.4","0.6","0.2","0.8","","","","","0.08244295151","0.3572442142","0.08224132258","0.217172314","","","","","","","74","J","1","","","221","main_expt"
"358","","bandit","300","721102","0.0-261.0-0.0","32770056","wem/bandit_either","A899L8WYC76AD","either","2","","","","","","","0","1","0","","0.2796125419","0.4","0.6","0.2","0.8","0.09815111748","0.2796125419","0.06870998364","0.2227738938","","","","","","","","","","","74","J","1","","","222","main_expt"
"315","","bandit","301","722981","0.0-262.0-0.0","32770056","wem/bandit_either","A899L8WYC76AD","either","2","","","","","","","0","0","1","0.2265565182","","0.4","0.6","0.2","0.8","","","","","0.09925351505","0.2265565182","0.111762886","0.2768694491","","","","","","","74","J","1","","","223","main_expt"
"294","","bandit","302","724823","0.0-263.0-0.0","32770056","wem/bandit_either","A899L8WYC76AD","either","2","","","","","","","0","1","0","","0.1727872262","0.4","0.6","0.2","0.8","0.07842644678","0.1727872262","0.09652303785","0.2895694018","","","","","","","","","","","74","J","1","","","224","main_expt"
"970","","bandit","303","727326","0.0-264.0-0.0","32770056","wem/bandit_either","A899L8WYC76AD","either","2","","","","","","","0","0","1","0.1580797834","","0.4","0.6","0.2","0.8","","","","","0.05284632075","0.1580797834","0.09424892582","0.3515154126","","","","","","","74","J","1","","","225","main_expt"
"840","","bandit","304","729711","0.0-265.0-0.0","32770056","wem/bandit_either","A899L8WYC76AD","either","2","","","","","","","0","0","1","","0.1206031336","0.4","0.6","0.2","0.8","0.06788221328","0.1206031336","0.1094697254","0.3960872924","","","","","","","","","","","74","J","1","","","226","main_expt"
"1561","","bandit","305","732821","0.0-266.0-0.0","32770056","wem/bandit_either","A899L8WYC76AD","either","2","","","","","","","0","0","1","0.1218099769","","0.4","0.6","0.2","0.8","","","","","0.04226868229","0.1218099769","0.1055794081","0.3301105445","","","","","","","74","J","1","","","227","main_expt"
"448","","bandit","306","734813","0.0-267.0-0.0","32770056","wem/bandit_either","A899L8WYC76AD","either","2","","","","","","","0","0","1","0.08458740206","","0.4","0.6","0.2","0.8","","","","","0.06174471126","0.08458740206","0.1210232629","0.3679650562","","","","","","","74","J","1","","","228","main_expt"
"278","","bandit","307","736626","0.0-268.0-0.0","32770056","wem/bandit_either","A899L8WYC76AD","either","2","","","","","","","0","0","1","0.06311990622","","0.4","0.6","0.2","0.8","","","","","0.06122033102","0.06311990622","0.1249199002","0.3413725311","","","","","","","74","J","1","","","229","main_expt"
"265","","bandit","308","738451","0.0-269.0-0.0","32770056","wem/bandit_either","A899L8WYC76AD","either","2","","","","","","","1","0","0","0.3652503211","","0.4","0.6","0.2","0.8","","","","","0.09369367087","0.04674316758","0.1423167866","0.3652503211","","","","","","","76","L","3","","","230","main_expt"
"329","","bandit","309","740319","0.0-270.0-0.0","32770056","wem/bandit_either","A899L8WYC76AD","either","2","","","","","","","0","1","0","","0.3774172636","0.4","0.6","0.2","0.8","0.1378364932","0.06697327866","0.1441411413","0.3774172636","","","","","","","","","","","76","L","3","","","231","main_expt"
"350","","bandit","310","742236","0.0-271.0-0.0","32770056","wem/bandit_either","A899L8WYC76AD","either","2","","","","","","","0","0","1","","0.3507397895","0.4","0.6","0.2","0.8","0.1138343256","0.08617656909","0.1132866493","0.3507397895","","","","","","","","","","","76","L","3","","","232","main_expt"
"329","","bandit","311","744097","0.0-272.0-0.0","32770056","wem/bandit_either","A899L8WYC76AD","either","2","","","","","","","0","1","0","","0.3228668676","0.4","0.6","0.2","0.8","0.1602674987","0.08388286328","0.07587191469","0.3228668676","","","","","","","","","","","76","L","3","","","233","main_expt"
"343","","bandit","312","745982","0.0-273.0-0.0","32770056","wem/bandit_either","A899L8WYC76AD","either","2","","","","","","","0","1","0","","0.3219168209","0.4","0.6","0.2","0.8","0.1399599793","0.08303297831","0.08330376307","0.3219168209","","","","","","","","","","","76","L","3","","","234","main_expt"
"396","","bandit","313","747922","0.0-274.0-0.0","32770056","wem/bandit_either","A899L8WYC76AD","either","2","","","","","","","0","0","1","","0.2907257894","0.4","0.6","0.2","0.8","0.1577883936","0.08228619446","0.07960395758","0.2907257894","","","","","","","","","","","76","L","3","","","235","main_expt"
"262","","bandit","314","749722","0.0-275.0-0.0","32770056","wem/bandit_either","A899L8WYC76AD","either","2","","","","","","","1","0","0","0.2879125653","","0.4","0.6","0.2","0.8","","","","","0.1206463377","0.07856112713","0.06703487678","0.2879125653","","","","","","","76","L","3","","","236","main_expt"
"360","","bandit","315","751641","0.0-276.0-0.0","32770056","wem/bandit_either","A899L8WYC76AD","either","2","","","","","","","0","0","1","0.3055933028","","0.4","0.6","0.2","0.8","","","","","0.1224948263","0.09394336493","0.07970276757","0.3055933028","","","","","","","76","L","3","","","237","main_expt"
"556","","bandit","316","753735","0.0-277.0-0.0","32770056","wem/bandit_either","A899L8WYC76AD","either","2","","","","","","","0","0","1","0.3197806133","","0.4","0.6","0.2","0.8","","","","","0.1163601633","0.1044036833","0.05589422377","0.3197806133","","","","","","","76","L","3","","","238","main_expt"
"662","","bandit","317","755954","0.0-278.0-0.0","32770056","wem/bandit_either","A899L8WYC76AD","either","2","","","","","","","0","0","1","0.2699970134","","0.4","0.6","0.2","0.8","","","","","0.09302868556","0.1010835707","0.07304711058","0.2699970134","","","","","","","76","L","3","","","239","main_expt"
"777","","bandit","318","758258","0.0-279.0-0.0","32770056","wem/bandit_either","A899L8WYC76AD","either","2","","","","","","","0","0","1","0.2594796501","","0.4","0.6","0.2","0.8","","","","","0.1142909623","0.1196592177","0.05193691484","0.2594796501","","","","","","","76","L","3","","","240","main_expt"
"576","","bandit","319","760392","0.0-280.0-0.0","32770056","wem/bandit_either","A899L8WYC76AD","either","2","","","","","","","0","0","1","","0.1694552561","0.4","0.6","0.2","0.8","0.1694552561","0.127320561","0.06844812817","0.252227353","","","","","","","","","","","72","H","0","img/none_selected.jpg","","241","main_expt"
"367","","bandit","320","762305","0.0-281.0-0.0","32770056","wem/bandit_either","A899L8WYC76AD","either","2","","","","","","","0","0","1","0.1828807391","","0.4","0.6","0.2","0.8","","","","","0.1828807391","0.10641745","0.07869989264","0.301231011","","","","","","","72","H","0","img/none_selected.jpg","","242","main_expt"
"310","","bandit","321","764164","0.0-282.0-0.0","32770056","wem/bandit_either","A899L8WYC76AD","either","2","","","","","","","0","0","1","","0.1236361748","0.4","0.6","0.2","0.8","0.1236361748","0.131785075","0.06084245892","0.2903867436","","","","","","","","","","","72","H","0","img/none_selected.jpg","","243","main_expt"
"294","","bandit","322","765993","0.0-283.0-0.0","32770056","wem/bandit_either","A899L8WYC76AD","either","2","","","","","","","0","1","0","","0.04982625113","0.4","0.6","0.2","0.8","0.1131162958","0.1150513838","0.04982625113","0.2659167858","","","","","","","","","","","75","K","2","","","244","main_expt"
"793","","bandit","323","768348","0.0-284.0-0.0","32770056","wem/bandit_either","A899L8WYC76AD","either","2","","","","","","","0","0","1","","0.04708965441","0.4","0.6","0.2","0.8","0.08611006768","0.1651966394","0.04708965441","0.254087564","","","","","","","","","","","75","K","2","","","245","main_expt"
"592","","bandit","324","770463","0.0-285.0-0.0","32770056","wem/bandit_either","A899L8WYC76AD","either","2","","","","","","","0","0","1","0.0280961865","","0.4","0.6","0.2","0.8","","","","","0.1123216353","0.1555796254","0.0280961865","0.2551799517","","","","","","","75","K","2","","","246","main_expt"
"461","","bandit","325","772485","0.0-286.0-0.0","32770056","wem/bandit_either","A899L8WYC76AD","either","2","","","","","","","0","0","1","","0.04499456282","0.4","0.6","0.2","0.8","0.09475638668","0.1703980626","0.04499456282","0.2629335529","","","","","","","","","","","75","K","2","","","247","main_expt"
"512","","bandit","326","774555","0.0-287.0-0.0","32770056","wem/bandit_either","A899L8WYC76AD","either","2","","","","","","","0","0","1","0.1502680902","","0.4","0.6","0.2","0.8","","","","","0.08309477664","0.1502680902","0.03910304398","0.2393496224","","","","","","","74","J","1","","","248","main_expt"
"284","","bandit","327","776384","0.0-288.0-0.0","32770056","wem/bandit_either","A899L8WYC76AD","either","2","","","","","","","0","0","1","0.1515252412","","0.4","0.6","0.2","0.8","","","","","0.09118761135","0.1515252412","0.02658952892","0.2612635012","","","","","","","74","J","1","","","249","main_expt"
"335","","bandit","328","778271","0.0-289.0-0.0","32770056","wem/bandit_either","A899L8WYC76AD","either","2","","","","","","","0","1","0","","0.164479444","0.4","0.6","0.2","0.8","0.1173751119","0.164479444","0.02715120894","0.2729339083","","","","","","","","","","","74","J","1","","","250","main_expt"
"401","","bandit","329","780215","0.0-290.0-0.0","32770056","wem/bandit_either","A899L8WYC76AD","either","2","","","","","","","1","0","0","0.1036013708","","0.4","0.6","0.2","0.8","","","","","0.10167128","0.1036013708","0.02468122838","0.2394547858","","","","","","","74","J","1","","","251","main_expt"
"349","","bandit","330","782108","0.0-291.0-0.0","32770056","wem/bandit_either","A899L8WYC76AD","either","2","","","","","","","0","0","1","0.1206404305","","0.4","0.6","0.2","0.8","","","","","0.1297907712","0.1206404305","0.01934001153","0.1971678968","","","","","","","74","J","1","","","252","main_expt"
"360","","bandit","331","784018","0.0-292.0-0.0","32770056","wem/bandit_either","A899L8WYC76AD","either","2","","","","","","","0","0","1","","0.144481093","0.4","0.6","0.2","0.8","0.08555329314","0.144481093","0.01552303999","0.2194815642","","","","","","","","","","","74","J","1","","","253","main_expt"
"336","","bandit","332","785912","0.0-293.0-0.0","32770056","wem/bandit_either","A899L8WYC76AD","either","2","","","","","","","0","0","1","","0.1495858552","0.4","0.6","0.2","0.8","0.05661737176","0.1495858552","0.02294208798","0.2365987297","","","","","","","","","","","74","J","1","","","254","main_expt"
"264","","bandit","333","787723","0.0-294.0-0.0","32770056","wem/bandit_either","A899L8WYC76AD","either","2","","","","","","","0","0","1","0.2300386291","","0.4","0.6","0.2","0.8","","","","","0.04453848373","0.1670870388","0.03654195668","0.2300386291","","","","","","","76","L","3","","","255","main_expt"
