"rt","responses","trial_type","trial_index","time_elapsed","internal_node_id","subjID","study","MID","cond","drift","key_press","expt_phase","target","like","value","connected","gems","bombs","no_reward","GemPrChosen","BombPrChosen","GainOverPainPr_0","GainOverPainPr_1","GainOverPainPr_2","GainOverPainPr_3","LosePr_0","LosePr_1","LosePr_2","LosePr_3","WinPr_0","WinPr_1","WinPr_2","WinPr_3","Q0","Q1","Q2","gender","age","ethnicity","respCharCode","respKey","respChoiceNum","respChoice","practice","trial_counter","trial_label"
"5298","{""Q0"":""A31UQAP2HZAZP""}","survey-text","0","5310","0.0-0.0","34007277","wem/bandit_either","A31UQAP2HZAZP","either","8","","","","","","","","","","","","","","","","","","","","","","","","","","","","","","","","","","","",""
"8865","","text","1","15182","0.0-1.0","34007277","wem/bandit_either","A31UQAP2HZAZP","either","8","32","","","","","","","","","","","","","","","","","","","","","","","","","","","","","","","","","","",""
"4902","","text","2","20087","0.0-2.0","34007277","wem/bandit_either","A31UQAP2HZAZP","either","8","32","","","","","","","","","","","","","","","","","","","","","","","","","","","","","","","","","","",""
"14661","","text","3","34753","0.0-3.0","34007277","wem/bandit_either","A31UQAP2HZAZP","either","8","32","","","","","","","","","","","","","","","","","","","","","","","","","","","","","","","","","","",""
"24756","","text","4","59512","0.0-4.0","34007277","wem/bandit_either","A31UQAP2HZAZP","either","8","32","","","","","","","","","","","","","","","","","","","","","","","","","","","","","","","","","","",""
"15337","","text","5","74854","0.0-5.0","34007277","wem/bandit_either","A31UQAP2HZAZP","either","8","32","","","","","","","","","","","","","","","","","","","","","","","","","","","","","","","","","","",""
"8399","","text","6","83256","0.0-6.0","34007277","wem/bandit_either","A31UQAP2HZAZP","either","8","32","","","","","","","","","","","","","","","","","","","","","","","","","","","","","","","","","","",""
"2825","","text","7","86084","0.0-7.0","34007277","wem/bandit_either","A31UQAP2HZAZP","either","8","32","","","","","","","","","","","","","","","","","","","","","","","","","","","","","","","","","","",""
"27330","","identification","8","113447","0.0-8.0-0.0","34007277","wem/bandit_either","A31UQAP2HZAZP","either","8","","identification_pre","the village of Zur","","","","","","","","","","","","","","","","","","","","","","","","","","","","","","","","",""
"9450","","identification","9","123961","0.0-8.0-1.0","34007277","wem/bandit_either","A31UQAP2HZAZP","either","8","","identification_pre","the village of Nyx","","","","","","","","","","","","","","","","","","","","","","","","","","","","","","","","",""
"5656","","text","10","130622","0.0-9.0","34007277","wem/bandit_either","A31UQAP2HZAZP","either","8","32","","","","","","","","","","","","","","","","","","","","","","","","","","","","","","","","","","",""
"1379","","text","11","132002","0.0-10.0","34007277","wem/bandit_either","A31UQAP2HZAZP","either","8","32","","","","","","","","","","","","","","","","","","","","","","","","","","","","","","","","","","",""
"1612","","text","12","133617","0.0-11.0","34007277","wem/bandit_either","A31UQAP2HZAZP","either","8","32","","","","","","","","","","","","","","","","","","","","","","","","","","","","","","","","","","",""
"1943","","text","13","135562","0.0-12.0","34007277","wem/bandit_either","A31UQAP2HZAZP","either","8","32","","","","","","","","","","","","","","","","","","","","","","","","","","","","","","","","","","",""
"2187","","bandit","14","139261","0.0-13.0-0.0","34007277","wem/bandit_either","A31UQAP2HZAZP","either","8","","","","","","","0","0","1","0","0","","","","","0","","","","0","","","","","","","","","","74","J","0","img/none_selected_demo.jpg","true","0",""
"1375","","bandit","15","142148","0.0-14.0-0.0","34007277","wem/bandit_either","A31UQAP2HZAZP","either","8","","","","","","","0","0","1","0","0","","","","","0","","","","0","","","","","","","","","","75","K","0","img/none_selected_demo.jpg","true","0",""
"4261","","text","16","146411","0.0-15.0","34007277","wem/bandit_either","A31UQAP2HZAZP","either","8","32","","","","","","","","","","","","","","","","","","","","","","","","","","","","","","","","","","",""
"23460","","text","17","169873","0.0-16.0","34007277","wem/bandit_either","A31UQAP2HZAZP","either","8","32","","","","","","","","","","","","","","","","","","","","","","","","","","","","","","","","","","",""
"3833","","text","18","173707","0.0-17.0","34007277","wem/bandit_either","A31UQAP2HZAZP","either","8","32","","","","","","","","","","","","","","","","","","","","","","","","","","","","","","","","","","",""
"5839","","text","19","179548","0.0-18.0","34007277","wem/bandit_either","A31UQAP2HZAZP","either","8","32","","","","","","","","","","","","","","","","","","","","","","","","","","","","","","","","","","",""
"3173","","bandit","20","184240","0.0-19.0-0.0","34007277","wem/bandit_either","A31UQAP2HZAZP","either","8","","","","","","","0","0","1","0.8","","0.5","0.5","","","","","","","0.8","0.2","","","","","","","","","74","J","0","img/none_selected_demo.jpg","true","0","80_20_practice"
"1210","","bandit","21","186964","0.0-19.0-1.0","34007277","wem/bandit_either","A31UQAP2HZAZP","either","8","","","","","","","0","0","1","0.2","","0.5","0.5","","","","","","","0.8","0.2","","","","","","","","","75","K","1","","true","0","80_20_practice"
"370","","bandit","22","188843","0.0-19.0-2.0","34007277","wem/bandit_either","A31UQAP2HZAZP","either","8","","","","","","","0","0","1","0.2","","0.5","0.5","","","","","","","0.8","0.2","","","","","","","","","75","K","1","","true","0","80_20_practice"
"487","","bandit","23","190847","0.0-19.0-3.0","34007277","wem/bandit_either","A31UQAP2HZAZP","either","8","","","","","","","0","0","1","","0.2","0.5","0.5","","","0.8","0.2","","","","","","","","","","","","","75","K","1","","true","0","80_20_practice"
"364","","bandit","24","192726","0.0-19.0-4.0","34007277","wem/bandit_either","A31UQAP2HZAZP","either","8","","","","","","","1","0","0","0.8","","0.5","0.5","","","","","","","0.8","0.2","","","","","","","","","74","J","0","img/none_selected_demo.jpg","true","0","80_20_practice"
"381","","bandit","25","194617","0.0-19.0-5.0","34007277","wem/bandit_either","A31UQAP2HZAZP","either","8","","","","","","","0","0","1","","0.8","0.5","0.5","","","0.8","0.2","","","","","","","","","","","","","74","J","0","img/none_selected_demo.jpg","true","0","80_20_practice"
"530","","bandit","26","196659","0.0-19.0-6.0","34007277","wem/bandit_either","A31UQAP2HZAZP","either","8","","","","","","","1","0","0","0.8","","0.5","0.5","","","","","","","0.8","0.2","","","","","","","","","74","J","0","img/none_selected_demo.jpg","true","0","80_20_practice"
"262","","bandit","27","198429","0.0-19.0-7.0","34007277","wem/bandit_either","A31UQAP2HZAZP","either","8","","","","","","","1","0","0","0.8","","0.5","0.5","","","","","","","0.8","0.2","","","","","","","","","74","J","0","img/none_selected_demo.jpg","true","0","80_20_practice"
"202","","bandit","28","200145","0.0-19.0-8.0","34007277","wem/bandit_either","A31UQAP2HZAZP","either","8","","","","","","","1","0","0","0.8","","0.5","0.5","","","","","","","0.8","0.2","","","","","","","","","74","J","0","img/none_selected_demo.jpg","true","0","80_20_practice"
"86","","bandit","29","201742","0.0-19.0-9.0","34007277","wem/bandit_either","A31UQAP2HZAZP","either","8","","","","","","","0","1","0","","0.8","0.5","0.5","","","0.8","0.2","","","","","","","","","","","","","74","J","0","img/none_selected_demo.jpg","true","0","80_20_practice"
"444","","bandit","30","203696","0.0-19.0-10.0","34007277","wem/bandit_either","A31UQAP2HZAZP","either","8","","","","","","","0","1","0","","0.8","0.5","0.5","","","0.8","0.2","","","","","","","","","","","","","74","J","0","img/none_selected_demo.jpg","true","0","80_20_practice"
"274","","bandit","31","205488","0.0-19.0-11.0","34007277","wem/bandit_either","A31UQAP2HZAZP","either","8","","","","","","","0","1","0","","0.8","0.5","0.5","","","0.8","0.2","","","","","","","","","","","","","74","J","0","img/none_selected_demo.jpg","true","0","80_20_practice"
"437","","bandit","32","207433","0.0-19.0-12.0","34007277","wem/bandit_either","A31UQAP2HZAZP","either","8","","","","","","","0","0","1","","0.8","0.5","0.5","","","0.8","0.2","","","","","","","","","","","","","74","J","0","img/none_selected_demo.jpg","true","0","80_20_practice"
"711","","bandit","33","209656","0.0-19.0-13.0","34007277","wem/bandit_either","A31UQAP2HZAZP","either","8","","","","","","","0","1","0","","0.8","0.5","0.5","","","0.8","0.2","","","","","","","","","","","","","74","J","0","img/none_selected_demo.jpg","true","0","80_20_practice"
"458","","bandit","34","211624","0.0-19.0-14.0","34007277","wem/bandit_either","A31UQAP2HZAZP","either","8","","","","","","","0","1","0","","0.8","0.5","0.5","","","0.8","0.2","","","","","","","","","","","","","74","J","0","img/none_selected_demo.jpg","true","0","80_20_practice"
"541","","bandit","35","213674","0.0-19.0-15.0","34007277","wem/bandit_either","A31UQAP2HZAZP","either","8","","","","","","","1","0","0","0.8","","0.5","0.5","","","","","","","0.8","0.2","","","","","","","","","74","J","0","img/none_selected_demo.jpg","true","0","80_20_practice"
"200","","bandit","36","215386","0.0-19.0-16.0","34007277","wem/bandit_either","A31UQAP2HZAZP","either","8","","","","","","","1","0","0","0.8","","0.5","0.5","","","","","","","0.8","0.2","","","","","","","","","74","J","0","img/none_selected_demo.jpg","true","0","80_20_practice"
"590","","bandit","37","217484","0.0-19.0-17.0","34007277","wem/bandit_either","A31UQAP2HZAZP","either","8","","","","","","","1","0","0","0.8","","0.5","0.5","","","","","","","0.8","0.2","","","","","","","","","74","J","0","img/none_selected_demo.jpg","true","0","80_20_practice"
"320","","bandit","38","219317","0.0-19.0-18.0","34007277","wem/bandit_either","A31UQAP2HZAZP","either","8","","","","","","","1","0","0","0.8","","0.5","0.5","","","","","","","0.8","0.2","","","","","","","","","74","J","0","img/none_selected_demo.jpg","true","0","80_20_practice"
"456","","bandit","39","221289","0.0-19.0-19.0","34007277","wem/bandit_either","A31UQAP2HZAZP","either","8","","","","","","","1","0","0","0.8","","0.5","0.5","","","","","","","0.8","0.2","","","","","","","","","74","J","0","img/none_selected_demo.jpg","true","0","80_20_practice"
"4997","","text","40","226289","0.0-20.0","34007277","wem/bandit_either","A31UQAP2HZAZP","either","8","32","","","","","","","","","","","","","","","","","","","","","","","","","","","","","","","","","","",""
"862","","bandit","41","228664","0.0-21.0-0.0","34007277","wem/bandit_either","A31UQAP2HZAZP","either","8","","","","","","","1","0","0","1","0","","","","","0","1","","","1","0","","","","","","","","","74","J","0","img/none_selected_demo.jpg","true","0",""
"2296","","text","42","230964","0.0-22.0","34007277","wem/bandit_either","A31UQAP2HZAZP","either","8","32","","","","","","","","","","","","","","","","","","","","","","","","","","","","","","","","","","",""
"1920","","text","43","232887","0.0-23.0","34007277","wem/bandit_either","A31UQAP2HZAZP","either","8","32","","","","","","","","","","","","","","","","","","","","","","","","","","","","","","","","","","",""
"2463","","text","44","235353","0.0-24.0","34007277","wem/bandit_either","A31UQAP2HZAZP","either","8","32","","","","","","","","","","","","","","","","","","","","","","","","","","","","","","","","","","",""
"2038","","text","45","237395","0.0-25.0","34007277","wem/bandit_either","A31UQAP2HZAZP","either","8","32","","","","","","","","","","","","","","","","","","","","","","","","","","","","","","","","","","",""
"3747","","text","46","241148","0.0-26.0","34007277","wem/bandit_either","A31UQAP2HZAZP","either","8","32","","","","","","","","","","","","","","","","","","","","","","","","","","","","","","","","","","",""
"1909","","text","47","243061","0.0-27.0","34007277","wem/bandit_either","A31UQAP2HZAZP","either","8","32","","","","","","","","","","","","","","","","","","","","","","","","","","","","","","","","","","",""
"1577","","text","48","244641","0.0-28.0","34007277","wem/bandit_either","A31UQAP2HZAZP","either","8","32","","","","","","","","","","","","","","","","","","","","","","","","","","","","","","","","","","",""
"1849","","text","49","246494","0.0-29.0","34007277","wem/bandit_either","A31UQAP2HZAZP","either","8","32","","","","","","","","","","","","","","","","","","","","","","","","","","","","","","","","","","",""
"3864","","text","50","250360","0.0-30.0","34007277","wem/bandit_either","A31UQAP2HZAZP","either","8","32","","","","","","","","","","","","","","","","","","","","","","","","","","","","","","","","","","",""
"1244","","text","51","251607","0.0-31.0","34007277","wem/bandit_either","A31UQAP2HZAZP","either","8","32","","","","","","","","","","","","","","","","","","","","","","","","","","","","","","","","","","",""
"2698","","text","52","254308","0.0-32.0","34007277","wem/bandit_either","A31UQAP2HZAZP","either","8","32","","","","","","","","","","","","","","","","","","","","","","","","","","","","","","","","","","",""
"2296","","bandit","53","258116","0.0-33.0-0.0","34007277","wem/bandit_either","A31UQAP2HZAZP","either","8","","","","","","","0","0","1","","0.2","0.5","0.5","0.5","0.5","0.8","0.2","0.6","0.2","","","","","","","","","","","76","L","3","","true","0","full_practice"
"376","","bandit","54","260004","0.0-33.0-1.0","34007277","wem/bandit_either","A31UQAP2HZAZP","either","8","","","","","","","0","0","1","","0.6","0.5","0.5","0.5","0.5","0.8","0.2","0.6","0.2","","","","","","","","","","","75","K","2","","true","0","full_practice"
"274","","bandit","55","261790","0.0-33.0-2.0","34007277","wem/bandit_either","A31UQAP2HZAZP","either","8","","","","","","","0","0","1","","0.2","0.5","0.5","0.5","0.5","0.8","0.2","0.6","0.2","","","","","","","","","","","74","J","1","","true","0","full_practice"
"81","","bandit","56","263381","0.0-33.0-3.0","34007277","wem/bandit_either","A31UQAP2HZAZP","either","8","","","","","","","0","0","1","","0.8","0.5","0.5","0.5","0.5","0.8","0.2","0.6","0.2","","","","","","","","","","","72","H","0","img/none_selected.jpg","true","0","full_practice"
"38","","bandit","57","264929","0.0-33.0-4.0","34007277","wem/bandit_either","A31UQAP2HZAZP","either","8","","","","","","","0","0","1","","0.2","0.5","0.5","0.5","0.5","0.8","0.2","0.6","0.2","","","","","","","","","","","76","L","3","","true","0","full_practice"
"533","","bandit","58","266971","0.0-33.0-5.0","34007277","wem/bandit_either","A31UQAP2HZAZP","either","8","","","","","","","1","0","0","0.6","","0.5","0.5","0.5","0.5","","","","","0.8","0.2","0.6","0.2","","","","","","","75","K","2","","true","0","full_practice"
"333","","bandit","59","268815","0.0-33.0-6.0","34007277","wem/bandit_either","A31UQAP2HZAZP","either","8","","","","","","","0","0","1","","0.2","0.5","0.5","0.5","0.5","0.8","0.2","0.6","0.2","","","","","","","","","","","74","J","1","","true","0","full_practice"
"337","","bandit","60","270667","0.0-33.0-7.0","34007277","wem/bandit_either","A31UQAP2HZAZP","either","8","","","","","","","0","0","1","","0.8","0.5","0.5","0.5","0.5","0.8","0.2","0.6","0.2","","","","","","","","","","","72","H","0","img/none_selected.jpg","true","0","full_practice"
"194","","bandit","61","272373","0.0-33.0-8.0","34007277","wem/bandit_either","A31UQAP2HZAZP","either","8","","","","","","","0","0","1","0.2","","0.5","0.5","0.5","0.5","","","","","0.8","0.2","0.6","0.2","","","","","","","76","L","3","","true","0","full_practice"
"202","","bandit","62","274085","0.0-33.0-9.0","34007277","wem/bandit_either","A31UQAP2HZAZP","either","8","","","","","","","0","0","1","","0.6","0.5","0.5","0.5","0.5","0.8","0.2","0.6","0.2","","","","","","","","","","","75","K","2","","true","0","full_practice"
"186","","bandit","63","275780","0.0-33.0-10.0","34007277","wem/bandit_either","A31UQAP2HZAZP","either","8","","","","","","","0","0","1","","0.2","0.5","0.5","0.5","0.5","0.8","0.2","0.6","0.2","","","","","","","","","","","74","J","1","","true","0","full_practice"
"149","","bandit","64","277438","0.0-33.0-11.0","34007277","wem/bandit_either","A31UQAP2HZAZP","either","8","","","","","","","0","1","0","","0.8","0.5","0.5","0.5","0.5","0.8","0.2","0.6","0.2","","","","","","","","","","","72","H","0","img/none_selected.jpg","true","0","full_practice"
"270","","bandit","65","279219","0.0-33.0-12.0","34007277","wem/bandit_either","A31UQAP2HZAZP","either","8","","","","","","","0","0","1","","0.2","0.5","0.5","0.5","0.5","0.8","0.2","0.6","0.2","","","","","","","","","","","76","L","3","","true","0","full_practice"
"379","","bandit","66","281113","0.0-33.0-13.0","34007277","wem/bandit_either","A31UQAP2HZAZP","either","8","","","","","","","1","0","0","0.6","","0.5","0.5","0.5","0.5","","","","","0.8","0.2","0.6","0.2","","","","","","","75","K","2","","true","0","full_practice"
"260","","bandit","67","282883","0.0-33.0-14.0","34007277","wem/bandit_either","A31UQAP2HZAZP","either","8","","","","","","","0","0","1","","0.2","0.5","0.5","0.5","0.5","0.8","0.2","0.6","0.2","","","","","","","","","","","74","J","1","","true","0","full_practice"
"162","","bandit","68","284556","0.0-33.0-15.0","34007277","wem/bandit_either","A31UQAP2HZAZP","either","8","","","","","","","1","0","0","0.8","","0.5","0.5","0.5","0.5","","","","","0.8","0.2","0.6","0.2","","","","","","","72","H","0","img/none_selected.jpg","true","0","full_practice"
"195","","bandit","69","286269","0.0-33.0-16.0","34007277","wem/bandit_either","A31UQAP2HZAZP","either","8","","","","","","","0","1","0","","0.6","0.5","0.5","0.5","0.5","0.8","0.2","0.6","0.2","","","","","","","","","","","75","K","2","","true","0","full_practice"
"184","","bandit","70","287965","0.0-33.0-17.0","34007277","wem/bandit_either","A31UQAP2HZAZP","either","8","","","","","","","0","1","0","","0.8","0.5","0.5","0.5","0.5","0.8","0.2","0.6","0.2","","","","","","","","","","","72","H","0","img/none_selected.jpg","true","0","full_practice"
"159","","bandit","71","289634","0.0-33.0-18.0","34007277","wem/bandit_either","A31UQAP2HZAZP","either","8","","","","","","","0","1","0","","0.6","0.5","0.5","0.5","0.5","0.8","0.2","0.6","0.2","","","","","","","","","","","75","K","2","","true","0","full_practice"
"339","","bandit","72","291487","0.0-33.0-19.0","34007277","wem/bandit_either","A31UQAP2HZAZP","either","8","","","","","","","0","1","0","","0.8","0.5","0.5","0.5","0.5","0.8","0.2","0.6","0.2","","","","","","","","","","","72","H","0","img/none_selected.jpg","true","0","full_practice"
"2396","","text","73","293895","0.0-34.0","34007277","wem/bandit_either","A31UQAP2HZAZP","either","8","32","","","","","","","","","","","","","","","","","","","","","","","","","","","","","","","","","","",""
"7978","","text","74","302882","0.0-35.0","34007277","wem/bandit_either","A31UQAP2HZAZP","either","8","32","","","","","","","","","","","","","","","","","","","","","","","","","","","","","","","","","","",""
"16079","","text","75","318965","0.0-36.0","34007277","wem/bandit_either","A31UQAP2HZAZP","either","8","32","","","","","","","","","","","","","","","","","","","","","","","","","","","","","","","","","","",""
"4792","","text","76","323762","0.0-37.0","34007277","wem/bandit_either","A31UQAP2HZAZP","either","8","32","","","","","","","","","","","","","","","","","","","","","","","","","","","","","","","","","","",""
"8667","","text","77","332434","0.0-38.0","34007277","wem/bandit_either","A31UQAP2HZAZP","either","8","32","","","","","","","","","","","","","","","","","","","","","","","","","","","","","","","","","","",""
"4189","","text","78","336628","0.0-39.0","34007277","wem/bandit_either","A31UQAP2HZAZP","either","8","32","","","","","","","","","","","","","","","","","","","","","","","","","","","","","","","","","","",""
"776","","bandit","79","338916","0.0-40.0-0.0","34007277","wem/bandit_either","A31UQAP2HZAZP","either","8","","","","","","","0","0","1","0.1351790469","","0.6","0.2","0.8","0.4","","","","","0.1351790469","0.3540548627","0.2928194041","0.2637293772","","","","","","","72","H","0","img/none_selected.jpg","","1","main_expt"
"907","","bandit","80","341334","0.0-41.0-0.0","34007277","wem/bandit_either","A31UQAP2HZAZP","either","8","","","","","","","0","0","1","","0.3812516843","0.6","0.2","0.8","0.4","0.125602744","0.3812516843","0.3040419902","0.2760013096","","","","","","","","","","","74","J","1","","","2","main_expt"
"314","","bandit","81","343163","0.0-42.0-0.0","34007277","wem/bandit_either","A31UQAP2HZAZP","either","8","","","","","","","0","0","1","0.2875251023","","0.6","0.2","0.8","0.4","","","","","0.09574082279","0.3901316494","0.2875251023","0.3240499928","","","","","","","75","K","2","","","3","main_expt"
"75","","bandit","82","344749","0.0-43.0-0.0","34007277","wem/bandit_either","A31UQAP2HZAZP","either","8","","","","","","","0","0","1","","0.3510822359","0.6","0.2","0.8","0.4","0.0913382225","0.3945399471","0.2965567903","0.3510822359","","","","","","","","","","","76","L","3","","","4","main_expt"
"22","","bandit","83","346288","0.0-44.0-0.0","34007277","wem/bandit_either","A31UQAP2HZAZP","either","8","","","","","","","0","1","0","","0.106177601","0.6","0.2","0.8","0.4","0.106177601","0.3997977613","0.2681113314","0.3522827721","","","","","","","","","","","72","H","0","img/none_selected.jpg","","5","main_expt"
"279","","bandit","84","348083","0.0-45.0-0.0","34007277","wem/bandit_either","A31UQAP2HZAZP","either","8","","","","","","","0","0","1","","0.390783501","0.6","0.2","0.8","0.4","0.08998955495","0.390783501","0.2330443498","0.382674005","","","","","","","","","","","74","J","1","","","6","main_expt"
"169","","bandit","85","349763","0.0-46.0-0.0","34007277","wem/bandit_either","A31UQAP2HZAZP","either","8","","","","","","","0","0","1","0.1630509172","","0.6","0.2","0.8","0.4","","","","","0.1077526668","0.3305693427","0.1630509172","0.3998463606","","","","","","","75","K","2","","","7","main_expt"
"76","","bandit","86","351350","0.0-47.0-0.0","34007277","wem/bandit_either","A31UQAP2HZAZP","either","8","","","","","","","1","0","0","0.3832029687","","0.6","0.2","0.8","0.4","","","","","0.1243697388","0.3056545716","0.2002468685","0.3832029687","","","","","","","76","L","3","","","8","main_expt"
"432","","bandit","87","353294","0.0-48.0-0.0","34007277","wem/bandit_either","A31UQAP2HZAZP","either","8","","","","","","","0","0","1","","0.1698108096","0.6","0.2","0.8","0.4","0.1698108096","0.3278889804","0.1835034381","0.3796681134","","","","","","","","","","","72","H","0","img/none_selected.jpg","","9","main_expt"
"293","","bandit","88","355099","0.0-49.0-0.0","34007277","wem/bandit_either","A31UQAP2HZAZP","either","8","","","","","","","0","0","1","","0.3614311416","0.6","0.2","0.8","0.4","0.221757114","0.3137855556","0.1939723001","0.3614311416","","","","","","","","","","","76","L","3","","","10","main_expt"
"347","","bandit","89","356959","0.0-50.0-0.0","34007277","wem/bandit_either","A31UQAP2HZAZP","either","8","","","","","","","1","0","0","0.1961062924","","0.6","0.2","0.8","0.4","","","","","0.1961062924","0.3253079181","0.1949806013","0.3938737051","","","","","","","72","H","0","img/none_selected.jpg","","11","main_expt"
"371","","bandit","90","358841","0.0-51.0-0.0","34007277","wem/bandit_either","A31UQAP2HZAZP","either","8","","","","","","","0","0","1","","0.3810544723","0.6","0.2","0.8","0.4","0.1907056259","0.3298150516","0.2587943474","0.3810544723","","","","","","","","","","","76","L","3","","","12","main_expt"
"300","","bandit","91","360658","0.0-52.0-0.0","34007277","wem/bandit_either","A31UQAP2HZAZP","either","8","","","","","","","0","0","1","0.2162865666","","0.6","0.2","0.8","0.4","","","","","0.2162865666","0.3673307406","0.3085985727","0.3707046684","","","","","","","72","H","0","img/none_selected.jpg","","13","main_expt"
"600","","bandit","92","362770","0.0-53.0-0.0","34007277","wem/bandit_either","A31UQAP2HZAZP","either","8","","","","","","","0","0","1","","0.3486531997","0.6","0.2","0.8","0.4","0.2399362825","0.3679224674","0.2464992766","0.3486531997","","","","","","","","","","","76","L","3","","","14","main_expt"
"118","","bandit","93","364401","0.0-54.0-0.0","34007277","wem/bandit_either","A31UQAP2HZAZP","either","8","","","","","","","1","0","0","0.3062507314","","0.6","0.2","0.8","0.4","","","","","0.1986859052","0.3062507314","0.2474611475","0.3263578384","","","","","","","74","J","1","","","15","main_expt"
"117","","bandit","94","366038","0.0-55.0-0.0","34007277","wem/bandit_either","A31UQAP2HZAZP","either","8","","","","","","","0","0","1","","0.2835538477","0.6","0.2","0.8","0.4","0.1865641621","0.2892976033","0.2835538477","0.3514189979","","","","","","","","","","","75","K","2","","","16","main_expt"
"284","","bandit","95","367835","0.0-56.0-0.0","34007277","wem/bandit_either","A31UQAP2HZAZP","either","8","","","","","","","0","0","1","","0.2861796528","0.6","0.2","0.8","0.4","0.2035525071","0.2861796528","0.3256112075","0.3532592314","","","","","","","","","","","74","J","1","","","17","main_expt"
"244","","bandit","96","369592","0.0-57.0-0.0","34007277","wem/bandit_either","A31UQAP2HZAZP","either","8","","","","","","","1","0","0","0.3802227677","","0.6","0.2","0.8","0.4","","","","","0.2039336531","0.2958570682","0.3802227677","0.3858608091","","","","","","","75","K","2","","","18","main_expt"
"304","","bandit","97","371409","0.0-58.0-0.0","34007277","wem/bandit_either","A31UQAP2HZAZP","either","8","","","","","","","0","1","0","","0.3353028819","0.6","0.2","0.8","0.4","0.1598579642","0.3353028819","0.360566968","0.3837638756","","","","","","","","","","","74","J","1","","","19","main_expt"
"131","","bandit","98","373052","0.0-59.0-0.0","34007277","wem/bandit_either","A31UQAP2HZAZP","either","8","","","","","","","0","0","1","0.3696799013","","0.6","0.2","0.8","0.4","","","","","0.1437622327","0.3139704528","0.3696799013","0.2872100501","","","","","","","75","K","2","","","20","main_expt"
"283","","bandit","99","374848","0.0-60.0-0.0","34007277","wem/bandit_either","A31UQAP2HZAZP","either","8","","","","","","","0","0","1","","0.2524707143","0.6","0.2","0.8","0.4","0.07974703335","0.2524707143","0.4006907501","0.2975414498","","","","","","","","","","","74","J","1","","","21","main_expt"
"325","","bandit","100","376686","0.0-61.0-0.0","34007277","wem/bandit_either","A31UQAP2HZAZP","either","8","","","","","","","0","0","1","","0.1361132429","0.6","0.2","0.8","0.4","0.1361132429","0.248326021","0.4081217326","0.2741965999","","","","","","","","","","","72","H","0","img/none_selected.jpg","","22","main_expt"
"468","","bandit","101","378665","0.0-62.0-0.0","34007277","wem/bandit_either","A31UQAP2HZAZP","either","8","","","","","","","0","0","1","","0.2379064449","0.6","0.2","0.8","0.4","0.1705973249","0.2937153481","0.3740207531","0.2379064449","","","","","","","","","","","76","L","3","","","23","main_expt"
"109","","bandit","102","380289","0.0-63.0-0.0","34007277","wem/bandit_either","A31UQAP2HZAZP","either","8","","","","","","","0","0","1","0.3913756451","","0.6","0.2","0.8","0.4","","","","","0.1392759225","0.2625315469","0.3913756451","0.2078598572","","","","","","","75","K","2","","","24","main_expt"
"233","","bandit","103","382042","0.0-64.0-0.0","34007277","wem/bandit_either","A31UQAP2HZAZP","either","8","","","","","","","0","1","0","","0.2405651368","0.6","0.2","0.8","0.4","0.1800538527","0.2405651368","0.4100905738","0.2764850733","","","","","","","","","","","74","J","1","","","25","main_expt"
"278","","bandit","104","383835","0.0-65.0-0.0","34007277","wem/bandit_either","A31UQAP2HZAZP","either","8","","","","","","","0","0","1","0.2503350336","","0.6","0.2","0.8","0.4","","","","","0.2146400533","0.2503350336","0.3600668969","0.3080191348","","","","","","","74","J","1","","","26","main_expt"
"175","","bandit","105","385522","0.0-66.0-0.0","34007277","wem/bandit_either","A31UQAP2HZAZP","either","8","","","","","","","0","0","1","","0.354091838","0.6","0.2","0.8","0.4","0.1948367851","0.354091838","0.3703096079","0.3606197488","","","","","","","","","","","74","J","1","","","27","main_expt"
"147","","bandit","106","387182","0.0-67.0-0.0","34007277","wem/bandit_either","A31UQAP2HZAZP","either","8","","","","","","","1","0","0","0.3419366675","","0.6","0.2","0.8","0.4","","","","","0.2282666016","0.3419366675","0.3527269899","0.3696097963","","","","","","","74","J","1","","","28","main_expt"
"330","","bandit","107","389028","0.0-68.0-0.0","34007277","wem/bandit_either","A31UQAP2HZAZP","either","8","","","","","","","0","1","0","","0.361896517","0.6","0.2","0.8","0.4","0.1842618798","0.361896517","0.2854860911","0.3434444954","","","","","","","","","","","74","J","1","","","29","main_expt"
"253","","bandit","108","390801","0.0-69.0-0.0","34007277","wem/bandit_either","A31UQAP2HZAZP","either","8","","","","","","","0","0","1","","0.3701160785","0.6","0.2","0.8","0.4","0.1930267653","0.3701160785","0.2971434158","0.3528183973","","","","","","","","","","","74","J","1","","","30","main_expt"
"434","","bandit","109","392748","0.0-70.0-0.0","34007277","wem/bandit_either","A31UQAP2HZAZP","either","8","","","","","","","0","0","1","","0.3602312343","0.6","0.2","0.8","0.4","0.2279264959","0.3602312343","0.3192935598","0.3436926249","","","","","","","","","","","74","J","1","","","31","main_expt"
"372","","bandit","110","394632","0.0-71.0-0.0","34007277","wem/bandit_either","A31UQAP2HZAZP","either","8","","","","","","","0","0","1","","0.3550043818","0.6","0.2","0.8","0.4","0.1922668126","0.3550043818","0.2910845839","0.3392376576","","","","","","","","","","","74","J","1","","","32","main_expt"
"71","","bandit","111","396220","0.0-72.0-0.0","34007277","wem/bandit_either","A31UQAP2HZAZP","either","8","","","","","","","0","0","1","0.1503247695","","0.6","0.2","0.8","0.4","","","","","0.1503247695","0.3927862597","0.2956883229","0.2524106513","","","","","","","72","H","0","img/none_selected.jpg","","33","main_expt"
"536","","bandit","112","398268","0.0-73.0-0.0","34007277","wem/bandit_either","A31UQAP2HZAZP","either","8","","","","","","","0","0","1","","0.2378308988","0.6","0.2","0.8","0.4","0.1875072744","0.4185963197","0.2918182698","0.2378308988","","","","","","","","","","","76","L","3","","","34","main_expt"
"253","","bandit","113","400040","0.0-74.0-0.0","34007277","wem/bandit_either","A31UQAP2HZAZP","either","8","","","","","","","0","0","1","0.3063909307","","0.6","0.2","0.8","0.4","","","","","0.2135507624","0.441983755","0.3063909307","0.2683654211","","","","","","","75","K","2","","","35","main_expt"
"96","","bandit","114","401651","0.0-75.0-0.0","34007277","wem/bandit_either","A31UQAP2HZAZP","either","8","","","","","","","0","0","1","","0.4352827683","0.6","0.2","0.8","0.4","0.2042402853","0.4352827683","0.2820805085","0.2645223933","","","","","","","","","","","74","J","1","","","36","main_expt"
"541","","bandit","115","403707","0.0-76.0-0.0","34007277","wem/bandit_either","A31UQAP2HZAZP","either","8","","","","","","","0","0","1","","0.2024605481","0.6","0.2","0.8","0.4","0.2024605481","0.450520142","0.2610370824","0.2360561858","","","","","","","","","","","72","H","0","img/none_selected.jpg","","37","main_expt"
"357","","bandit","116","405578","0.0-77.0-0.0","34007277","wem/bandit_either","A31UQAP2HZAZP","either","8","","","","","","","0","0","1","","0.2001865083","0.6","0.2","0.8","0.4","0.1677713785","0.4681224698","0.1896233007","0.2001865083","","","","","","","","","","","76","L","3","","","38","main_expt"
"207","","bandit","117","407298","0.0-78.0-0.0","34007277","wem/bandit_either","A31UQAP2HZAZP","either","8","","","","","","","0","1","0","","0.4711022053","0.6","0.2","0.8","0.4","0.221779122","0.4711022053","0.168851025","0.1687915361","","","","","","","","","","","74","J","1","","","39","main_expt"
"318","","bandit","118","409128","0.0-79.0-0.0","34007277","wem/bandit_either","A31UQAP2HZAZP","either","8","","","","","","","0","1","0","","0.4559447699","0.6","0.2","0.8","0.4","0.2722397218","0.4559447699","0.1615787635","0.1503151413","","","","","","","","","","","74","J","1","","","40","main_expt"
"308","","bandit","119","410980","0.0-80.0-0.0","34007277","wem/bandit_either","A31UQAP2HZAZP","either","8","","","","","","","0","1","0","","0.4412687596","0.6","0.2","0.8","0.4","0.3298230943","0.4412687596","0.1472326003","0.08168262283","","","","","","","","","","","74","J","1","","","41","main_expt"
"307","","bandit","120","412812","0.0-81.0-0.0","34007277","wem/bandit_either","A31UQAP2HZAZP","either","8","","","","","","","0","0","1","","0.4457751761","0.6","0.2","0.8","0.4","0.3104885444","0.4457751761","0.1533480506","0.07668629145","","","","","","","","","","","74","J","1","","","42","main_expt"
"364","","bandit","121","414693","0.0-82.0-0.0","34007277","wem/bandit_either","A31UQAP2HZAZP","either","8","","","","","","","0","0","1","0.1414351437","","0.6","0.2","0.8","0.4","","","","","0.3005355489","0.4298378352","0.1414351437","0.07394587158","","","","","","","75","K","2","","","43","main_expt"
"163","","bandit","122","416370","0.0-83.0-0.0","34007277","wem/bandit_either","A31UQAP2HZAZP","either","8","","","","","","","0","1","0","","0.4416915379","0.6","0.2","0.8","0.4","0.2456242138","0.4416915379","0.1067646429","0.1192337685","","","","","","","","","","","74","J","1","","","44","main_expt"
"302","","bandit","123","418185","0.0-84.0-0.0","34007277","wem/bandit_either","A31UQAP2HZAZP","either","8","","","","","","","0","1","0","","0.3915522423","0.6","0.2","0.8","0.4","0.2839901561","0.3915522423","0.1250796286","0.1285724119","","","","","","","","","","","74","J","1","","","45","main_expt"
"372","","bandit","124","420076","0.0-85.0-0.0","34007277","wem/bandit_either","A31UQAP2HZAZP","either","8","","","","","","","0","0","1","","0.4318427431","0.6","0.2","0.8","0.4","0.2353621531","0.4318427431","0.1927264636","0.1112684106","","","","","","","","","","","74","J","1","","","46","main_expt"
"334","","bandit","125","421922","0.0-86.0-0.0","34007277","wem/bandit_either","A31UQAP2HZAZP","either","8","","","","","","","0","0","1","","0.4395998441","0.6","0.2","0.8","0.4","0.2405257196","0.4395998441","0.1804488412","0.1207340475","","","","","","","","","","","74","J","1","","","47","main_expt"
"470","","bandit","126","423905","0.0-87.0-0.0","34007277","wem/bandit_either","A31UQAP2HZAZP","either","8","","","","","","","0","0","1","0.168268176","","0.6","0.2","0.8","0.4","","","","","0.2629408555","0.4630443269","0.168268176","0.1182533935","","","","","","","75","K","2","","","48","main_expt"
"186","","bandit","127","425607","0.0-88.0-0.0","34007277","wem/bandit_either","A31UQAP2HZAZP","either","8","","","","","","","0","0","1","","0.1460801474","0.6","0.2","0.8","0.4","0.2902453213","0.4794982466","0.1466838001","0.1460801474","","","","","","","","","","","76","L","3","","","49","main_expt"
"346","","bandit","128","427467","0.0-89.0-0.0","34007277","wem/bandit_either","A31UQAP2HZAZP","either","8","","","","","","","0","0","1","","0.3033715012","0.6","0.2","0.8","0.4","0.3033715012","0.4562783041","0.1336340117","0.1765155983","","","","","","","","","","","72","H","0","img/none_selected.jpg","","50","main_expt"
"436","","bandit","129","429417","0.0-90.0-0.0","34007277","wem/bandit_either","A31UQAP2HZAZP","either","8","","","","","","","0","0","1","","0.1614266163","0.6","0.2","0.8","0.4","0.3536831403","0.4515646323","0.1067821754","0.1614266163","","","","","","","","","","","76","L","3","","","51","main_expt"
"524","","bandit","130","431462","0.0-91.0-0.0","34007277","wem/bandit_either","A31UQAP2HZAZP","either","8","","","","","","","1","0","0","0.07294577227","","0.6","0.2","0.8","0.4","","","","","0.3058792917","0.4344137529","0.07294577227","0.1938643747","","","","","","","75","K","2","","","52","main_expt"
"417","","bandit","131","433393","0.0-92.0-0.0","34007277","wem/bandit_either","A31UQAP2HZAZP","either","8","","","","","","","0","0","1","0.07676454597","","0.6","0.2","0.8","0.4","","","","","0.3466820038","0.4421766306","0.07676454597","0.1721886996","","","","","","","75","K","2","","","53","main_expt"
"315","","bandit","132","435224","0.0-93.0-0.0","34007277","wem/bandit_either","A31UQAP2HZAZP","either","8","","","","","","","0","0","1","0.07707135067","","0.6","0.2","0.8","0.4","","","","","0.3159173384","0.4591875032","0.07707135067","0.1542880765","","","","","","","75","K","2","","","54","main_expt"
"432","","bandit","133","437170","0.0-94.0-0.0","34007277","wem/bandit_either","A31UQAP2HZAZP","either","8","","","","","","","0","0","1","","0.08227932488","0.6","0.2","0.8","0.4","0.3205246683","0.4455250987","0.08227932488","0.2155598061","","","","","","","","","","","75","K","2","","","55","main_expt"
"375","","bandit","134","439062","0.0-95.0-0.0","34007277","wem/bandit_either","A31UQAP2HZAZP","either","8","","","","","","","0","0","1","","0.4200701886","0.6","0.2","0.8","0.4","0.3067659888","0.4200701886","0.09013031375","0.199350645","","","","","","","","","","","74","J","1","","","56","main_expt"
"325","","bandit","135","440911","0.0-96.0-0.0","34007277","wem/bandit_either","A31UQAP2HZAZP","either","8","","","","","","","0","1","0","","0.3635567377","0.6","0.2","0.8","0.4","0.3786279545","0.3635567377","0.106866739","0.1991981904","","","","","","","","","","","74","J","1","","","57","main_expt"
"416","","bandit","136","442841","0.0-97.0-0.0","34007277","wem/bandit_either","A31UQAP2HZAZP","either","8","","","","","","","1","0","0","0.3647217687","","0.6","0.2","0.8","0.4","","","","","0.3796022377","0.3647217687","0.0915584437","0.1307276253","","","","","","","74","J","1","","","58","main_expt"
"338","","bandit","137","444692","0.0-98.0-0.0","34007277","wem/bandit_either","A31UQAP2HZAZP","either","8","","","","","","","1","0","0","0.3975499765","","0.6","0.2","0.8","0.4","","","","","0.3570845549","0.3975499765","0.1036540812","0.1540949786","","","","","","","74","J","1","","","59","main_expt"
"343","","bandit","138","446553","0.0-99.0-0.0","34007277","wem/bandit_either","A31UQAP2HZAZP","either","8","","","","","","","0","1","0","","0.376383165","0.6","0.2","0.8","0.4","0.398525789","0.376383165","0.07948280662","0.1187181044","","","","","","","","","","","74","J","1","","","60","main_expt"
"80","","bandit","139","448146","0.0-100.0-0.0","34007277","wem/bandit_either","A31UQAP2HZAZP","either","8","","","","","","","0","1","0","","0.3384437455","0.6","0.2","0.8","0.4","0.380986593","0.3384437455","0.0685056185","0.1734870435","","","","","","","","","","","74","J","1","","","61","main_expt"
"612","","bandit","140","450273","0.0-101.0-0.0","34007277","wem/bandit_either","A31UQAP2HZAZP","either","8","","","","","","","1","0","0","0.3086389155","","0.6","0.2","0.8","0.4","","","","","0.3928002855","0.3086389155","0.04196312691","0.2056999461","","","","","","","74","J","1","","","62","main_expt"
"260","","bandit","141","452047","0.0-102.0-0.0","34007277","wem/bandit_either","A31UQAP2HZAZP","either","8","","","","","","","0","0","1","0.3098998428","","0.6","0.2","0.8","0.4","","","","","0.4097838671","0.3098998428","0.06524357318","0.2421495796","","","","","","","74","J","1","","","63","main_expt"
"340","","bandit","142","453901","0.0-103.0-0.0","34007277","wem/bandit_either","A31UQAP2HZAZP","either","8","","","","","","","0","0","1","","0.2859800092","0.6","0.2","0.8","0.4","0.3942475769","0.2859800092","0.04599317762","0.2678986655","","","","","","","","","","","74","J","1","","","64","main_expt"
"324","","bandit","143","455742","0.0-104.0-0.0","34007277","wem/bandit_either","A31UQAP2HZAZP","either","8","","","","","","","0","0","1","","0.2780623804","0.6","0.2","0.8","0.4","0.3756823908","0.2780623804","0.04738713632","0.2780805564","","","","","","","","","","","74","J","1","","","65","main_expt"
"272","","bandit","144","457527","0.0-105.0-0.0","34007277","wem/bandit_either","A31UQAP2HZAZP","either","8","","","","","","","0","0","1","","0.2740889186","0.6","0.2","0.8","0.4","0.3780323226","0.2740889186","0.02873144913","0.2923516192","","","","","","","","","","","74","J","1","","","66","main_expt"
"315","","bandit","145","459356","0.0-106.0-0.0","34007277","wem/bandit_either","A31UQAP2HZAZP","either","8","","","","","","","0","0","1","","0.3122756929","0.6","0.2","0.8","0.4","0.382091886","0.3122756929","0.0355516853","0.3481747094","","","","","","","","","","","74","J","1","","","67","main_expt"
"25","","bandit","146","460905","0.0-107.0-0.0","34007277","wem/bandit_either","A31UQAP2HZAZP","either","8","","","","","","","0","0","1","0.4080562953","","0.6","0.2","0.8","0.4","","","","","0.4080562953","0.3004294993","0.04483006882","0.3540590834","","","","","","","72","H","0","img/none_selected.jpg","","68","main_expt"
"369","","bandit","147","462790","0.0-108.0-0.0","34007277","wem/bandit_either","A31UQAP2HZAZP","either","8","","","","","","","0","0","1","","0.3312842332","0.6","0.2","0.8","0.4","0.419826639","0.3312842332","0.04300650393","0.3348318208","","","","","","","","","","","74","J","1","","","69","main_expt"
"168","","bandit","148","464527","0.0-109.0-0.0","34007277","wem/bandit_either","A31UQAP2HZAZP","either","8","","","","","","","0","0","1","0.03960880855","","0.6","0.2","0.8","0.4","","","","","0.3889643965","0.2362018798","0.03960880855","0.3844983113","","","","","","","75","K","2","","","70","main_expt"
"263","","bandit","149","466321","0.0-110.0-0.0","34007277","wem/bandit_either","A31UQAP2HZAZP","either","8","","","","","","","0","0","1","","0.3753843975","0.6","0.2","0.8","0.4","0.3492343966","0.1838323472","0.02401392238","0.3753843975","","","","","","","","","","","76","L","3","","","71","main_expt"
"401","","bandit","150","468237","0.0-111.0-0.0","34007277","wem/bandit_either","A31UQAP2HZAZP","either","8","","","","","","","0","0","1","","0.3502155883","0.6","0.2","0.8","0.4","0.3502155883","0.1749810972","0.008756159955","0.3861429343","","","","","","","","","","","72","H","0","img/none_selected.jpg","","72","main_expt"
"135","","bandit","151","469886","0.0-112.0-0.0","34007277","wem/bandit_either","A31UQAP2HZAZP","either","8","","","","","","","0","0","1","","0.1664097112","0.6","0.2","0.8","0.4","0.3568691787","0.1664097112","0.006257651783","0.3978436086","","","","","","","","","","","74","J","1","","","73","main_expt"
"385","","bandit","152","471786","0.0-113.0-0.0","34007277","wem/bandit_either","A31UQAP2HZAZP","either","8","","","","","","","0","0","1","0.004732084297","","0.6","0.2","0.8","0.4","","","","","0.3303653739","0.2001176207","0.004732084297","0.3847979518","","","","","","","75","K","2","","","74","main_expt"
"335","","bandit","153","473636","0.0-114.0-0.0","34007277","wem/bandit_either","A31UQAP2HZAZP","either","8","","","","","","","0","0","1","0.3974319157","","0.6","0.2","0.8","0.4","","","","","0.3353283381","0.1848717924","0.006967558871","0.3974319157","","","","","","","76","L","3","","","75","main_expt"
"395","","bandit","154","475546","0.0-115.0-0.0","34007277","wem/bandit_either","A31UQAP2HZAZP","either","8","","","","","","","0","0","1","","0.3009524994","0.6","0.2","0.8","0.4","0.3009524994","0.1510178238","0.004525860487","0.3987985884","","","","","","","","","","","72","H","0","img/none_selected.jpg","","76","main_expt"
"75","","bandit","155","477141","0.0-116.0-0.0","34007277","wem/bandit_either","A31UQAP2HZAZP","either","8","","","","","","","0","0","1","","0.2089633591","0.6","0.2","0.8","0.4","0.3316028908","0.2089633591","0.007245535115","0.4127312768","","","","","","","","","","","74","J","1","","","77","main_expt"
"204","","bandit","156","478859","0.0-117.0-0.0","34007277","wem/bandit_either","A31UQAP2HZAZP","either","8","","","","","","","0","0","1","","0.00483057751","0.6","0.2","0.8","0.4","0.3571024926","0.2285147345","0.00483057751","0.4257675477","","","","","","","","","","","75","K","2","","","78","main_expt"
"251","","bandit","157","480627","0.0-118.0-0.0","34007277","wem/bandit_either","A31UQAP2HZAZP","either","8","","","","","","","1","0","0","0.4331167668","","0.6","0.2","0.8","0.4","","","","","0.3542776451","0.2246975601","0.005956317848","0.4331167668","","","","","","","76","L","3","","","79","main_expt"
"297","","bandit","158","482443","0.0-119.0-0.0","34007277","wem/bandit_either","A31UQAP2HZAZP","either","8","","","","","","","0","0","1","","0.4294395537","0.6","0.2","0.8","0.4","0.3201174307","0.1878766281","0.0076590047","0.4294395537","","","","","","","","","","","76","L","3","","","80","main_expt"
"185","","bandit","159","484143","0.0-120.0-0.0","34007277","wem/bandit_either","A31UQAP2HZAZP","either","8","","","","","","","0","1","0","","0.4234249918","0.6","0.2","0.8","0.4","0.3503003334","0.2436254364","0.009115568074","0.4234249918","","","","","","","","","","","76","L","3","","","81","main_expt"
"370","","bandit","160","486037","0.0-121.0-0.0","34007277","wem/bandit_either","A31UQAP2HZAZP","either","8","","","","","","","0","0","1","0.3956977209","","0.6","0.2","0.8","0.4","","","","","0.3509066846","0.2627531714","0.01382977225","0.3956977209","","","","","","","76","L","3","","","82","main_expt"
"231","","bandit","161","487783","0.0-122.0-0.0","34007277","wem/bandit_either","A31UQAP2HZAZP","either","8","","","","","","","0","0","1","0.4248650233","","0.6","0.2","0.8","0.4","","","","","0.3951868033","0.2672212524","0.01500629599","0.4248650233","","","","","","","76","L","3","","","83","main_expt"
"399","","bandit","162","489696","0.0-123.0-0.0","34007277","wem/bandit_either","A31UQAP2HZAZP","either","8","","","","","","","0","0","1","","0.4196907627","0.6","0.2","0.8","0.4","0.4131477378","0.2817484998","0.02310127573","0.4196907627","","","","","","","","","","","76","L","3","","","84","main_expt"
"486","","bandit","163","491697","0.0-124.0-0.0","34007277","wem/bandit_either","A31UQAP2HZAZP","either","8","","","","","","","0","0","1","","0.3889697292","0.6","0.2","0.8","0.4","0.3889697292","0.3074775227","0.02639065846","0.435633498","","","","","","","","","","","72","H","0","img/none_selected.jpg","","85","main_expt"
"312","","bandit","164","493523","0.0-125.0-0.0","34007277","wem/bandit_either","A31UQAP2HZAZP","either","8","","","","","","","0","1","0","","0.2717847629","0.6","0.2","0.8","0.4","0.3885636443","0.2717847629","0.01746441632","0.4322222521","","","","","","","","","","","74","J","1","","","86","main_expt"
"287","","bandit","165","495327","0.0-126.0-0.0","34007277","wem/bandit_either","A31UQAP2HZAZP","either","8","","","","","","","0","0","1","","0.2183858348","0.6","0.2","0.8","0.4","0.4028282504","0.2183858348","0.01256144444","0.4476119451","","","","","","","","","","","74","J","1","","","87","main_expt"
"244","","bandit","166","497086","0.0-127.0-0.0","34007277","wem/bandit_either","A31UQAP2HZAZP","either","8","","","","","","","0","0","1","","0.2054961256","0.6","0.2","0.8","0.4","0.4306890759","0.2054961256","0.01178158386","0.4073123198","","","","","","","","","","","74","J","1","","","88","main_expt"
"95","","bandit","167","498696","0.0-128.0-0.0","34007277","wem/bandit_either","A31UQAP2HZAZP","either","8","","","","","","","0","0","1","","0.1452714398","0.6","0.2","0.8","0.4","0.4103738654","0.1452714398","0.008722555822","0.3862301724","","","","","","","","","","","74","J","1","","","89","main_expt"
"436","","bandit","168","500649","0.0-129.0-0.0","34007277","wem/bandit_either","A31UQAP2HZAZP","either","8","","","","","","","0","0","1","0.008232471735","","0.6","0.2","0.8","0.4","","","","","0.3980827974","0.1077779513","0.008232471735","0.3596745144","","","","","","","75","K","2","","","90","main_expt"
"391","","bandit","169","502558","0.0-130.0-0.0","34007277","wem/bandit_either","A31UQAP2HZAZP","either","8","","","","","","","0","0","1","","0.3082854458","0.6","0.2","0.8","0.4","0.4040531024","0.1308407065","0.01249180717","0.3082854458","","","","","","","","","","","76","L","3","","","91","main_expt"
"323","","bandit","170","504397","0.0-131.0-0.0","34007277","wem/bandit_either","A31UQAP2HZAZP","either","8","","","","","","","0","0","1","0.3462944796","","0.6","0.2","0.8","0.4","","","","","0.3462944796","0.1652322036","0.01470986316","0.312225492","","","","","","","72","H","0","img/none_selected.jpg","","92","main_expt"
"1038","","bandit","171","506960","0.0-132.0-0.0","34007277","wem/bandit_either","A31UQAP2HZAZP","either","8","","","","","","","0","0","1","","0.1344678182","0.6","0.2","0.8","0.4","0.3411451966","0.1344678182","0.02655281846","0.3671658277","","","","","","","","","","","74","J","1","","","93","main_expt"
"242","","bandit","172","508718","0.0-133.0-0.0","34007277","wem/bandit_either","A31UQAP2HZAZP","either","8","","","","","","","0","0","1","0.02575246025","","0.6","0.2","0.8","0.4","","","","","0.3384154489","0.1301314301","0.02575246025","0.3401731108","","","","","","","75","K","2","","","94","main_expt"
"75","","bandit","173","510321","0.0-134.0-0.0","34007277","wem/bandit_either","A31UQAP2HZAZP","either","8","","","","","","","0","0","1","","0.3413923724","0.6","0.2","0.8","0.4","0.3126988266","0.1746055711","0.02262355665","0.3413923724","","","","","","","","","","","76","L","3","","","95","main_expt"
"310","","bandit","174","512146","0.0-135.0-0.0","34007277","wem/bandit_either","A31UQAP2HZAZP","either","8","","","","","","","0","0","1","","0.3800019137","0.6","0.2","0.8","0.4","0.3800019137","0.1994244555","0.02047181149","0.3570420485","","","","","","","","","","","72","H","0","img/none_selected.jpg","","96","main_expt"
"425","","bandit","175","514086","0.0-136.0-0.0","34007277","wem/bandit_either","A31UQAP2HZAZP","either","8","","","","","","","0","0","1","","0.1834602947","0.6","0.2","0.8","0.4","0.3328121005","0.1834602947","0.0207754381","0.3435474977","","","","","","","","","","","74","J","1","","","97","main_expt"
"275","","bandit","176","515889","0.0-137.0-0.0","34007277","wem/bandit_either","A31UQAP2HZAZP","either","8","","","","","","","0","0","1","","0.02955834597","0.6","0.2","0.8","0.4","0.332228596","0.1719221531","0.02955834597","0.3614714926","","","","","","","","","","","75","K","2","","","98","main_expt"
"58","","bandit","177","517463","0.0-138.0-0.0","34007277","wem/bandit_either","A31UQAP2HZAZP","either","8","","","","","","","0","1","0","","0.3176405447","0.6","0.2","0.8","0.4","0.2843854285","0.1183399241","0.0383131093","0.3176405447","","","","","","","","","","","76","L","3","","","99","main_expt"
"233","","bandit","178","519218","0.0-139.0-0.0","34007277","wem/bandit_either","A31UQAP2HZAZP","either","8","","","","","","","0","0","1","","0.3586553183","0.6","0.2","0.8","0.4","0.309751149","0.1558635017","0.03580757471","0.3586553183","","","","","","","","","","","76","L","3","","","100","main_expt"
"416","","bandit","179","521158","0.0-140.0-0.0","34007277","wem/bandit_either","A31UQAP2HZAZP","either","8","","","","","","","0","0","1","0.2951503345","","0.6","0.2","0.8","0.4","","","","","0.2993195944","0.1389665978","0.04899620691","0.2951503345","","","","","","","76","L","3","","","101","main_expt"
"368","","bandit","180","523042","0.0-141.0-0.0","34007277","wem/bandit_either","A31UQAP2HZAZP","either","8","","","","","","","0","1","0","","0.2998391809","0.6","0.2","0.8","0.4","0.3551890872","0.1377203561","0.08055650644","0.2998391809","","","","","","","","","","","76","L","3","","","102","main_expt"
"348","","bandit","181","524908","0.0-142.0-0.0","34007277","wem/bandit_either","A31UQAP2HZAZP","either","8","","","","","","","0","0","1","0.2791823827","","0.6","0.2","0.8","0.4","","","","","0.3148404956","0.1285548106","0.1040447627","0.2791823827","","","","","","","76","L","3","","","103","main_expt"
"337","","bandit","182","526762","0.0-143.0-0.0","34007277","wem/bandit_either","A31UQAP2HZAZP","either","8","","","","","","","0","0","1","","0.3382769334","0.6","0.2","0.8","0.4","0.3286912191","0.1555523735","0.1143547335","0.3382769334","","","","","","","","","","","76","L","3","","","104","main_expt"
"340","","bandit","183","528620","0.0-144.0-0.0","34007277","wem/bandit_either","A31UQAP2HZAZP","either","8","","","","","","","0","1","0","","0.3339697125","0.6","0.2","0.8","0.4","0.298340497","0.1775592141","0.1487676438","0.3339697125","","","","","","","","","","","76","L","3","","","105","main_expt"
"312","","bandit","184","530449","0.0-145.0-0.0","34007277","wem/bandit_either","A31UQAP2HZAZP","either","8","","","","","","","0","0","1","","0.3124129253","0.6","0.2","0.8","0.4","0.3504464386","0.2263451353","0.152088545","0.3124129253","","","","","","","","","","","76","L","3","","","106","main_expt"
"282","","bandit","185","532247","0.0-146.0-0.0","34007277","wem/bandit_either","A31UQAP2HZAZP","either","8","","","","","","","0","0","1","0.3400683723","","0.6","0.2","0.8","0.4","","","","","0.3510410077","0.1679769802","0.2406734145","0.3400683723","","","","","","","76","L","3","","","107","main_expt"
"100","","bandit","186","533864","0.0-147.0-0.0","34007277","wem/bandit_either","A31UQAP2HZAZP","either","8","","","","","","","0","0","1","","0.3557340834","0.6","0.2","0.8","0.4","0.3282766846","0.1999870147","0.3048040024","0.3557340834","","","","","","","","","","","76","L","3","","","108","main_expt"
"413","","bandit","187","535794","0.0-148.0-0.0","34007277","wem/bandit_either","A31UQAP2HZAZP","either","8","","","","","","","0","0","1","","0.3846418901","0.6","0.2","0.8","0.4","0.3561186451","0.208992856","0.3418503096","0.3846418901","","","","","","","","","","","76","L","3","","","109","main_expt"
"353","","bandit","188","537663","0.0-149.0-0.0","34007277","wem/bandit_either","A31UQAP2HZAZP","either","8","","","","","","","0","0","1","","0.4057962062","0.6","0.2","0.8","0.4","0.3576445865","0.1716040471","0.3198501315","0.4057962062","","","","","","","","","","","76","L","3","","","110","main_expt"
"338","","bandit","189","539533","0.0-150.0-0.0","34007277","wem/bandit_either","A31UQAP2HZAZP","either","8","","","","","","","0","0","1","","0.3377543854","0.6","0.2","0.8","0.4","0.3377543854","0.08984071331","0.3681534847","0.3692451483","","","","","","","","","","","72","H","0","img/none_selected.jpg","","111","main_expt"
"97","","bandit","190","541149","0.0-151.0-0.0","34007277","wem/bandit_either","A31UQAP2HZAZP","either","8","","","","","","","0","0","1","0.1243463141","","0.6","0.2","0.8","0.4","","","","","0.286234052","0.1243463141","0.3757830796","0.3577317973","","","","","","","74","J","1","","","112","main_expt"
"217","","bandit","191","542882","0.0-152.0-0.0","34007277","wem/bandit_either","A31UQAP2HZAZP","either","8","","","","","","","1","0","0","0.3838999828","","0.6","0.2","0.8","0.4","","","","","0.1932674395","0.1433440675","0.3838999828","0.3328808086","","","","","","","75","K","2","","","113","main_expt"
"337","","bandit","192","544735","0.0-153.0-0.0","34007277","wem/bandit_either","A31UQAP2HZAZP","either","8","","","","","","","0","0","1","0.4157938717","","0.6","0.2","0.8","0.4","","","","","0.2403040534","0.1510662198","0.4157938717","0.3416979579","","","","","","","75","K","2","","","114","main_expt"
"381","","bandit","193","546641","0.0-154.0-0.0","34007277","wem/bandit_either","A31UQAP2HZAZP","either","8","","","","","","","0","0","1","0.4055870595","","0.6","0.2","0.8","0.4","","","","","0.254937398","0.09845245139","0.4055870595","0.3377137281","","","","","","","75","K","2","","","115","main_expt"
"336","","bandit","194","548493","0.0-155.0-0.0","34007277","wem/bandit_either","A31UQAP2HZAZP","either","8","","","","","","","0","0","1","0.4161015278","","0.6","0.2","0.8","0.4","","","","","0.2605063941","0.107393795","0.4161015278","0.3039448029","","","","","","","75","K","2","","","116","main_expt"
"279","","bandit","195","550290","0.0-156.0-0.0","34007277","wem/bandit_either","A31UQAP2HZAZP","either","8","","","","","","","1","0","0","0.414877819","","0.6","0.2","0.8","0.4","","","","","0.2161328783","0.07879800556","0.414877819","0.2974336912","","","","","","","75","K","2","","","117","main_expt"
"195","","bandit","196","552000","0.0-157.0-0.0","34007277","wem/bandit_either","A31UQAP2HZAZP","either","8","","","","","","","1","0","0","0.3968259953","","0.6","0.2","0.8","0.4","","","","","0.1931197841","0.08383735875","0.3968259953","0.2651867246","","","","","","","75","K","2","","","118","main_expt"
"231","","bandit","197","553749","0.0-158.0-0.0","34007277","wem/bandit_either","A31UQAP2HZAZP","either","8","","","","","","","0","0","1","","0.4198241006","0.6","0.2","0.8","0.4","0.1638183597","0.1392474383","0.4198241006","0.3131666206","","","","","","","","","","","75","K","2","","","119","main_expt"
"227","","bandit","198","555498","0.0-159.0-0.0","34007277","wem/bandit_either","A31UQAP2HZAZP","either","8","","","","","","","0","0","1","0.4286088018","","0.6","0.2","0.8","0.4","","","","","0.1893282748","0.1649404926","0.4286088018","0.358829095","","","","","","","75","K","2","","","120","main_expt"
"368","","bandit","199","557383","0.0-160.0-0.0","34007277","wem/bandit_either","A31UQAP2HZAZP","either","8","","","","","","","0","1","0","","0.4253829576","0.6","0.2","0.8","0.4","0.2290368179","0.1764152442","0.4253829576","0.3189860171","","","","","","","","","","","75","K","2","","","121","main_expt"
"294","","bandit","200","559194","0.0-161.0-0.0","34007277","wem/bandit_either","A31UQAP2HZAZP","either","8","","","","","","","0","0","1","","0.4235175979","0.6","0.2","0.8","0.4","0.2445441383","0.2092397698","0.4235175979","0.3011672979","","","","","","","","","","","75","K","2","","","122","main_expt"
"488","","bandit","201","561210","0.0-162.0-0.0","34007277","wem/bandit_either","A31UQAP2HZAZP","either","8","","","","","","","0","0","1","0.4182090072","","0.6","0.2","0.8","0.4","","","","","0.2091075756","0.1884058447","0.4182090072","0.3037948063","","","","","","","75","K","2","","","123","main_expt"
"348","","bandit","202","563086","0.0-163.0-0.0","34007277","wem/bandit_either","A31UQAP2HZAZP","either","8","","","","","","","1","0","0","0.4356016004","","0.6","0.2","0.8","0.4","","","","","0.2216111921","0.1876417206","0.4356016004","0.2446200253","","","","","","","75","K","2","","","124","main_expt"
"128","","bandit","203","564733","0.0-164.0-0.0","34007277","wem/bandit_either","A31UQAP2HZAZP","either","8","","","","","","","0","0","1","0.403953628","","0.6","0.2","0.8","0.4","","","","","0.1622020501","0.1890564589","0.403953628","0.2464628806","","","","","","","75","K","2","","","125","main_expt"
"442","","bandit","204","566694","0.0-165.0-0.0","34007277","wem/bandit_either","A31UQAP2HZAZP","either","8","","","","","","","0","0","1","0.4020675328","","0.6","0.2","0.8","0.4","","","","","0.173533554","0.1659850756","0.4020675328","0.281169445","","","","","","","75","K","2","","","126","main_expt"
"251","","bandit","205","568463","0.0-166.0-0.0","34007277","wem/bandit_either","A31UQAP2HZAZP","either","8","","","","","","","0","0","1","0.338443572","","0.6","0.2","0.8","0.4","","","","","0.189829559","0.2006343121","0.338443572","0.290080064","","","","","","","75","K","2","","","127","main_expt"
"344","","bandit","206","570350","0.0-167.0-0.0","34007277","wem/bandit_either","A31UQAP2HZAZP","either","8","","","","","","","0","0","1","","0.323123489","0.6","0.2","0.8","0.4","0.1764696366","0.2637444583","0.323123489","0.3280989756","","","","","","","","","","","75","K","2","","","128","main_expt"
"98","","bandit","207","571966","0.0-168.0-0.0","34007277","wem/bandit_either","A31UQAP2HZAZP","either","8","","","","","","","0","0","1","0.3615310162","","0.6","0.2","0.8","0.4","","","","","0.172709194","0.2783394686","0.3615310162","0.3052704822","","","","","","","75","K","2","","","129","main_expt"
"412","","bandit","208","573896","0.0-169.0-0.0","34007277","wem/bandit_either","A31UQAP2HZAZP","either","8","","","","","","","0","0","1","0.3667448715","","0.6","0.2","0.8","0.4","","","","","0.1407460215","0.2674474002","0.3667448715","0.314718742","","","","","","","75","K","2","","","130","main_expt"
"99","","bandit","209","575518","0.0-170.0-0.0","34007277","wem/bandit_either","A31UQAP2HZAZP","either","8","","","","","","","0","1","0","","0.2492347367","0.6","0.2","0.8","0.4","0.143826562","0.2122920843","0.341745941","0.2492347367","","","","","","","","","","","76","L","3","","","131","main_expt"
"282","","bandit","210","577317","0.0-171.0-0.0","34007277","wem/bandit_either","A31UQAP2HZAZP","either","8","","","","","","","0","0","1","","0.2495736985","0.6","0.2","0.8","0.4","0.1862992663","0.1969346152","0.2615325727","0.2495736985","","","","","","","","","","","76","L","3","","","132","main_expt"
"386","","bandit","211","579219","0.0-172.0-0.0","34007277","wem/bandit_either","A31UQAP2HZAZP","either","8","","","","","","","0","1","0","","0.2487120015","0.6","0.2","0.8","0.4","0.185648564","0.1390835973","0.27905624","0.2487120015","","","","","","","","","","","76","L","3","","","133","main_expt"
"111","","bandit","212","580861","0.0-173.0-0.0","34007277","wem/bandit_either","A31UQAP2HZAZP","either","8","","","","","","","0","0","1","","0.3239420422","0.6","0.2","0.8","0.4","0.2002276213","0.1437640715","0.2751163123","0.3239420422","","","","","","","","","","","76","L","3","","","134","main_expt"
"947","","bandit","213","583324","0.0-174.0-0.0","34007277","wem/bandit_either","A31UQAP2HZAZP","either","8","","","","","","","1","0","0","0.3903525049","","0.6","0.2","0.8","0.4","","","","","0.2474552851","0.1175999949","0.2586507773","0.3903525049","","","","","","","76","L","3","","","135","main_expt"
"671","","bandit","214","585515","0.0-175.0-0.0","34007277","wem/bandit_either","A31UQAP2HZAZP","either","8","","","","","","","0","0","1","0.3703049055","","0.6","0.2","0.8","0.4","","","","","0.2454982057","0.1108499649","0.2385277364","0.3703049055","","","","","","","76","L","3","","","136","main_expt"
"310","","bandit","215","587340","0.0-176.0-0.0","34007277","wem/bandit_either","A31UQAP2HZAZP","either","8","","","","","","","0","1","0","","0.3657944308","0.6","0.2","0.8","0.4","0.2708690816","0.1208727618","0.1935782534","0.3657944308","","","","","","","","","","","76","L","3","","","137","main_expt"
"8","","bandit","216","588866","0.0-177.0-0.0","34007277","wem/bandit_either","A31UQAP2HZAZP","either","8","","","","","","","0","0","1","","0.3452946514","0.6","0.2","0.8","0.4","0.2219039101","0.1098805161","0.14087624","0.3452946514","","","","","","","","","","","76","L","3","","","138","main_expt"
"860","","bandit","217","591245","0.0-178.0-0.0","34007277","wem/bandit_either","A31UQAP2HZAZP","either","8","","","","","","","0","0","1","0.3225052804","","0.6","0.2","0.8","0.4","","","","","0.2485571535","0.1359731218","0.1340930794","0.3225052804","","","","","","","76","L","3","","","139","main_expt"
"370","","bandit","218","593140","0.0-179.0-0.0","34007277","wem/bandit_either","A31UQAP2HZAZP","either","8","","","","","","","0","0","1","","0.2997250911","0.6","0.2","0.8","0.4","0.2605640439","0.1419248406","0.1170750994","0.2997250911","","","","","","","","","","","76","L","3","","","140","main_expt"
"246","","bandit","219","594903","0.0-180.0-0.0","34007277","wem/bandit_either","A31UQAP2HZAZP","either","8","","","","","","","0","0","1","","0.311933389","0.6","0.2","0.8","0.4","0.2260680923","0.1269577117","0.1316830279","0.311933389","","","","","","","","","","","76","L","3","","","141","main_expt"
"211","","bandit","220","596632","0.0-181.0-0.0","34007277","wem/bandit_either","A31UQAP2HZAZP","either","8","","","","","","","0","1","0","","0.3442568425","0.6","0.2","0.8","0.4","0.2354846983","0.1073819056","0.09490366034","0.3442568425","","","","","","","","","","","76","L","3","","","142","main_expt"
"278","","bandit","221","598429","0.0-182.0-0.0","34007277","wem/bandit_either","A31UQAP2HZAZP","either","8","","","","","","","0","0","1","0.3117203045","","0.6","0.2","0.8","0.4","","","","","0.2089358464","0.1152767294","0.1246024154","0.3117203045","","","","","","","76","L","3","","","143","main_expt"
"195","","bandit","222","600165","0.0-183.0-0.0","34007277","wem/bandit_either","A31UQAP2HZAZP","either","8","","","","","","","0","0","1","","0.3080771123","0.6","0.2","0.8","0.4","0.1844607625","0.1317444946","0.1179874238","0.3080771123","","","","","","","","","","","76","L","3","","","144","main_expt"
"1217","","bandit","223","602899","0.0-184.0-0.0","34007277","wem/bandit_either","A31UQAP2HZAZP","either","8","","","","","","","0","0","1","","0.3146876691","0.6","0.2","0.8","0.4","0.1940384654","0.1058600218","0.1211842963","0.3146876691","","","","","","","","","","","76","L","3","","","145","main_expt"
"352","","bandit","224","604770","0.0-185.0-0.0","34007277","wem/bandit_either","A31UQAP2HZAZP","either","8","","","","","","","0","0","1","","0.3526806189","0.6","0.2","0.8","0.4","0.2532022814","0.1862633901","0.06212451067","0.3526806189","","","","","","","","","","","76","L","3","","","146","main_expt"
"648","","bandit","225","606938","0.0-186.0-0.0","34007277","wem/bandit_either","A31UQAP2HZAZP","either","8","","","","","","","0","0","1","0.3859334927","","0.6","0.2","0.8","0.4","","","","","0.272856749","0.1944793183","0.05826033827","0.3859334927","","","","","","","76","L","3","","","147","main_expt"
"68","","bandit","226","608526","0.0-187.0-0.0","34007277","wem/bandit_either","A31UQAP2HZAZP","either","8","","","","","","","0","0","1","0.04847575149","","0.6","0.2","0.8","0.4","","","","","0.2441255329","0.1572605535","0.04847575149","0.4089873985","","","","","","","75","K","2","","","148","main_expt"
"107","","bandit","227","610152","0.0-188.0-0.0","34007277","wem/bandit_either","A31UQAP2HZAZP","either","8","","","","","","","0","0","1","","0.1632070519","0.6","0.2","0.8","0.4","0.2304797635","0.1632070519","0.07397138717","0.3317076441","","","","","","","","","","","74","J","1","","","149","main_expt"
"384","","bandit","228","612059","0.0-189.0-0.0","34007277","wem/bandit_either","A31UQAP2HZAZP","either","8","","","","","","","1","0","0","0.2645424191","","0.6","0.2","0.8","0.4","","","","","0.2645424191","0.2162169298","0.1178437277","0.2514439341","","","","","","","72","H","0","img/none_selected.jpg","","150","main_expt"
"333","","bandit","229","613911","0.0-190.0-0.0","34007277","wem/bandit_either","A31UQAP2HZAZP","either","8","","","","","","","1","0","0","0.2919476008","","0.6","0.2","0.8","0.4","","","","","0.2919476008","0.2806681102","0.1116740648","0.2209696772","","","","","","","72","H","0","img/none_selected.jpg","","151","main_expt"
"383","","bandit","230","615813","0.0-191.0-0.0","34007277","wem/bandit_either","A31UQAP2HZAZP","either","8","","","","","","","0","0","1","0.3004198658","","0.6","0.2","0.8","0.4","","","","","0.3004198658","0.25223767","0.09681320826","0.2004300668","","","","","","","72","H","0","img/none_selected.jpg","","152","main_expt"
"349","","bandit","231","617680","0.0-192.0-0.0","34007277","wem/bandit_either","A31UQAP2HZAZP","either","8","","","","","","","1","0","0","0.2910243242","","0.6","0.2","0.8","0.4","","","","","0.2910243242","0.2259503681","0.1162344283","0.1803159607","","","","","","","72","H","0","img/none_selected.jpg","","153","main_expt"
"323","","bandit","232","619519","0.0-193.0-0.0","34007277","wem/bandit_either","A31UQAP2HZAZP","either","8","","","","","","","0","0","1","0.2858680692","","0.6","0.2","0.8","0.4","","","","","0.2858680692","0.2520515582","0.1441765144","0.1793353988","","","","","","","72","H","0","img/none_selected.jpg","","154","main_expt"
"292","","bandit","233","621336","0.0-194.0-0.0","34007277","wem/bandit_either","A31UQAP2HZAZP","either","8","","","","","","","0","0","1","","0.276906037","0.6","0.2","0.8","0.4","0.276906037","0.246895917","0.1506434262","0.175125938","","","","","","","","","","","72","H","0","img/none_selected.jpg","","155","main_expt"
"347","","bandit","234","623205","0.0-195.0-0.0","34007277","wem/bandit_either","A31UQAP2HZAZP","either","8","","","","","","","0","0","1","","0.3087514371","0.6","0.2","0.8","0.4","0.3087514371","0.2067462234","0.1691825384","0.19004546","","","","","","","","","","","72","H","0","img/none_selected.jpg","","156","main_expt"
"332","","bandit","235","625056","0.0-196.0-0.0","34007277","wem/bandit_either","A31UQAP2HZAZP","either","8","","","","","","","0","0","1","","0.3400763937","0.6","0.2","0.8","0.4","0.3400763937","0.1736677602","0.1465267651","0.1538528063","","","","","","","","","","","72","H","0","img/none_selected.jpg","","157","main_expt"
"114","","bandit","236","626690","0.0-197.0-0.0","34007277","wem/bandit_either","A31UQAP2HZAZP","either","8","","","","","","","0","0","1","","0.3388441277","0.6","0.2","0.8","0.4","0.3388441277","0.2437422656","0.1517260174","0.1624419901","","","","","","","","","","","72","H","0","img/none_selected.jpg","","158","main_expt"
"291","","bandit","237","628501","0.0-198.0-0.0","34007277","wem/bandit_either","A31UQAP2HZAZP","either","8","","","","","","","0","0","1","","0.3496437485","0.6","0.2","0.8","0.4","0.3496437485","0.2627628197","0.143579764","0.1749682205","","","","","","","","","","","72","H","0","img/none_selected.jpg","","159","main_expt"
"209","","bandit","238","630243","0.0-199.0-0.0","34007277","wem/bandit_either","A31UQAP2HZAZP","either","8","","","","","","","0","0","1","0.2532756584","","0.6","0.2","0.8","0.4","","","","","0.3347491532","0.2532756584","0.1701049762","0.2227833177","","","","","","","74","J","1","","","160","main_expt"
"310","","bandit","239","632072","0.0-200.0-0.0","34007277","wem/bandit_either","A31UQAP2HZAZP","either","8","","","","","","","0","0","1","0.1596038406","","0.6","0.2","0.8","0.4","","","","","0.3036625801","0.2846030245","0.1596038406","0.1616195486","","","","","","","75","K","2","","","161","main_expt"
"162","","bandit","240","633755","0.0-201.0-0.0","34007277","wem/bandit_either","A31UQAP2HZAZP","either","8","","","","","","","0","0","1","","0.1440802068","0.6","0.2","0.8","0.4","0.2735804545","0.2480450928","0.1186271452","0.1440802068","","","","","","","","","","","76","L","3","","","162","main_expt"
"245","","bandit","241","635525","0.0-202.0-0.0","34007277","wem/bandit_either","A31UQAP2HZAZP","either","8","","","","","","","0","0","1","","0.3217860246","0.6","0.2","0.8","0.4","0.2219233964","0.3217860246","0.1460830151","0.1349250059","","","","","","","","","","","74","J","1","","","163","main_expt"
"261","","bandit","242","637306","0.0-203.0-0.0","34007277","wem/bandit_either","A31UQAP2HZAZP","either","8","","","","","","","0","0","1","0.1924179555","","0.6","0.2","0.8","0.4","","","","","0.2489701673","0.3528623486","0.1924179555","0.1482528248","","","","","","","75","K","2","","","164","main_expt"
"327","","bandit","243","639158","0.0-204.0-0.0","34007277","wem/bandit_either","A31UQAP2HZAZP","either","8","","","","","","","0","0","1","0.1444116863","","0.6","0.2","0.8","0.4","","","","","0.2424219606","0.3113737792","0.1909643941","0.1444116863","","","","","","","76","L","3","","","165","main_expt"
"145","","bandit","244","640841","0.0-205.0-0.0","34007277","wem/bandit_either","A31UQAP2HZAZP","either","8","","","","","","","0","0","1","","0.2820045276","0.6","0.2","0.8","0.4","0.1899742571","0.2820045276","0.1917506842","0.1621449425","","","","","","","","","","","74","J","1","","","166","main_expt"
"107","","bandit","245","642468","0.0-206.0-0.0","34007277","wem/bandit_either","A31UQAP2HZAZP","either","8","","","","","","","0","0","1","0.2238056512","","0.6","0.2","0.8","0.4","","","","","0.2298880826","0.2539690707","0.2238056512","0.1695256229","","","","","","","75","K","2","","","167","main_expt"
"446","","bandit","246","644434","0.0-207.0-0.0","34007277","wem/bandit_either","A31UQAP2HZAZP","either","8","","","","","","","0","0","1","0.1712445676","","0.6","0.2","0.8","0.4","","","","","0.241220494","0.2177565821","0.2132240521","0.1712445676","","","","","","","76","L","3","","","168","main_expt"
"232","","bandit","247","646200","0.0-208.0-0.0","34007277","wem/bandit_either","A31UQAP2HZAZP","either","8","","","","","","","0","0","1","0.2113351254","","0.6","0.2","0.8","0.4","","","","","0.2113351254","0.183214586","0.1363713625","0.191079104","","","","","","","72","H","0","img/none_selected.jpg","","169","main_expt"
"331","","bandit","248","648054","0.0-209.0-0.0","34007277","wem/bandit_either","A31UQAP2HZAZP","either","8","","","","","","","0","0","1","","0.1757282231","0.6","0.2","0.8","0.4","0.2224744884","0.1757282231","0.2007690262","0.2227666825","","","","","","","","","","","74","J","1","","","170","main_expt"
"4","","bandit","249","649578","0.0-210.0-0.0","34007277","wem/bandit_either","A31UQAP2HZAZP","either","8","","","","","","","0","0","1","0.1238998316","","0.6","0.2","0.8","0.4","","","","","0.262177911","0.1679331046","0.1238998316","0.2719914804","","","","","","","75","K","2","","","171","main_expt"
"191","","bandit","250","651291","0.0-211.0-0.0","34007277","wem/bandit_either","A31UQAP2HZAZP","either","8","","","","","","","0","0","1","0.2330128459","","0.6","0.2","0.8","0.4","","","","","0.2822992514","0.14560319","0.09746419185","0.2330128459","","","","","","","76","L","3","","","172","main_expt"
"53","","bandit","251","652865","0.0-212.0-0.0","34007277","wem/bandit_either","A31UQAP2HZAZP","either","8","","","","","","","0","0","1","0.2545762091","","0.6","0.2","0.8","0.4","","","","","0.2545762091","0.1341549344","0.1018164217","0.2840251313","","","","","","","72","H","0","img/none_selected.jpg","","173","main_expt"
"118","","bandit","252","654504","0.0-213.0-0.0","34007277","wem/bandit_either","A31UQAP2HZAZP","either","8","","","","","","","0","1","0","","0.1471305278","0.6","0.2","0.8","0.4","0.2838184637","0.1471305278","0.1401689619","0.2739042306","","","","","","","","","","","74","J","1","","","174","main_expt"
"217","","bandit","253","656258","0.0-214.0-0.0","34007277","wem/bandit_either","A31UQAP2HZAZP","either","8","","","","","","","0","0","1","","0.173963405","0.6","0.2","0.8","0.4","0.3002790513","0.173963405","0.1697524679","0.3444735506","","","","","","","","","","","74","J","1","","","175","main_expt"
"119","","bandit","254","657900","0.0-215.0-0.0","34007277","wem/bandit_either","A31UQAP2HZAZP","either","8","","","","","","","0","0","1","","0.1821857965","0.6","0.2","0.8","0.4","0.3771690292","0.1821857965","0.1896898672","0.3223017316","","","","","","","","","","","74","J","1","","","176","main_expt"
"220","","bandit","255","659640","0.0-216.0-0.0","34007277","wem/bandit_either","A31UQAP2HZAZP","either","8","","","","","","","0","0","1","0.1444884472","","0.6","0.2","0.8","0.4","","","","","0.4047809956","0.1444884472","0.2441254625","0.2964924158","","","","","","","74","J","1","","","177","main_expt"
"345","","bandit","256","661507","0.0-217.0-0.0","34007277","wem/bandit_either","A31UQAP2HZAZP","either","8","","","","","","","0","0","1","","0.1207783293","0.6","0.2","0.8","0.4","0.4344960837","0.1207783293","0.2427722412","0.2780576925","","","","","","","","","","","74","J","1","","","178","main_expt"
"337","","bandit","257","663364","0.0-218.0-0.0","34007277","wem/bandit_either","A31UQAP2HZAZP","either","8","","","","","","","0","0","1","","0.111585665","0.6","0.2","0.8","0.4","0.4287912686","0.111585665","0.2284650367","0.2859751729","","","","","","","","","","","74","J","1","","","179","main_expt"
"494","","bandit","258","665380","0.0-219.0-0.0","34007277","wem/bandit_either","A31UQAP2HZAZP","either","8","","","","","","","0","0","1","0.2694081366","","0.6","0.2","0.8","0.4","","","","","0.4294180747","0.06891525065","0.2694081366","0.283533164","","","","","","","75","K","2","","","180","main_expt"
"31","","bandit","259","666932","0.0-220.0-0.0","34007277","wem/bandit_either","A31UQAP2HZAZP","either","8","","","","","","","0","0","1","","0.2430023428","0.6","0.2","0.8","0.4","0.3887332701","0.07407739619","0.2471628034","0.2430023428","","","","","","","","","","","76","L","3","","","181","main_expt"
"360","","bandit","260","668812","0.0-221.0-0.0","34007277","wem/bandit_either","A31UQAP2HZAZP","either","8","","","","","","","1","0","0","0.3910635387","","0.6","0.2","0.8","0.4","","","","","0.3910635387","0.07501704201","0.275372354","0.223254837","","","","","","","72","H","0","img/none_selected.jpg","","182","main_expt"
"367","","bandit","261","670702","0.0-222.0-0.0","34007277","wem/bandit_either","A31UQAP2HZAZP","either","8","","","","","","","1","0","0","0.3957792538","","0.6","0.2","0.8","0.4","","","","","0.3957792538","0.09354103142","0.2378950907","0.2274286797","","","","","","","72","H","0","img/none_selected.jpg","","183","main_expt"
"387","","bandit","262","672609","0.0-223.0-0.0","34007277","wem/bandit_either","A31UQAP2HZAZP","either","8","","","","","","","0","0","1","0.3777829694","","0.6","0.2","0.8","0.4","","","","","0.3777829694","0.06673830493","0.2611999536","0.2485964068","","","","","","","72","H","0","img/none_selected.jpg","","184","main_expt"
"321","","bandit","263","674450","0.0-224.0-0.0","34007277","wem/bandit_either","A31UQAP2HZAZP","either","8","","","","","","","0","0","1","","0.4130939835","0.6","0.2","0.8","0.4","0.4130939835","0.08617836821","0.2799245071","0.2080173303","","","","","","","","","","","72","H","0","img/none_selected.jpg","","185","main_expt"
"259","","bandit","264","676246","0.0-225.0-0.0","34007277","wem/bandit_either","A31UQAP2HZAZP","either","8","","","","","","","1","0","0","0.376930599","","0.6","0.2","0.8","0.4","","","","","0.376930599","0.05054014018","0.2275386122","0.2538883687","","","","","","","72","H","0","img/none_selected.jpg","","186","main_expt"
"216","","bandit","265","677990","0.0-226.0-0.0","34007277","wem/bandit_either","A31UQAP2HZAZP","either","8","","","","","","","0","0","1","0.3934592684","","0.6","0.2","0.8","0.4","","","","","0.3934592684","0.1101456656","0.2558518805","0.2267652077","","","","","","","72","H","0","img/none_selected.jpg","","187","main_expt"
"246","","bandit","266","679757","0.0-227.0-0.0","34007277","wem/bandit_either","A31UQAP2HZAZP","either","8","","","","","","","0","0","1","0.4086060551","","0.6","0.2","0.8","0.4","","","","","0.4086060551","0.1076418148","0.2757393749","0.2583789709","","","","","","","72","H","0","img/none_selected.jpg","","188","main_expt"
"148","","bandit","267","681426","0.0-228.0-0.0","34007277","wem/bandit_either","A31UQAP2HZAZP","either","8","","","","","","","1","0","0","0.447145564","","0.6","0.2","0.8","0.4","","","","","0.447145564","0.1230456027","0.3326758055","0.2329768584","","","","","","","72","H","0","img/none_selected.jpg","","189","main_expt"
"347","","bandit","268","683297","0.0-229.0-0.0","34007277","wem/bandit_either","A31UQAP2HZAZP","either","8","","","","","","","1","0","0","0.386091063","","0.6","0.2","0.8","0.4","","","","","0.386091063","0.1872873117","0.332927569","0.2002510669","","","","","","","72","H","0","img/none_selected.jpg","","190","main_expt"
"346","","bandit","269","685166","0.0-230.0-0.0","34007277","wem/bandit_either","A31UQAP2HZAZP","either","8","","","","","","","0","0","1","0.4221145333","","0.6","0.2","0.8","0.4","","","","","0.4221145333","0.1413073252","0.3859199101","0.2182600554","","","","","","","72","H","0","img/none_selected.jpg","","191","main_expt"
"346","","bandit","270","687035","0.0-231.0-0.0","34007277","wem/bandit_either","A31UQAP2HZAZP","either","8","","","","","","","0","0","1","0.3913199708","","0.6","0.2","0.8","0.4","","","","","0.3913199708","0.1868627967","0.392668484","0.2681613901","","","","","","","72","H","0","img/none_selected.jpg","","192","main_expt"
"117","","bandit","271","688672","0.0-232.0-0.0","34007277","wem/bandit_either","A31UQAP2HZAZP","either","8","","","","","","","0","0","1","0.4013624592","","0.6","0.2","0.8","0.4","","","","","0.4013624592","0.2312719224","0.3789843676","0.3035027483","","","","","","","72","H","0","img/none_selected.jpg","","193","main_expt"
"1291","","bandit","272","691500","0.0-233.0-0.0","34007277","wem/bandit_either","A31UQAP2HZAZP","either","8","","","","","","","0","0","1","0.3668237699","","0.6","0.2","0.8","0.4","","","","","0.3668237699","0.2585201677","0.3689216281","0.275531754","","","","","","","72","H","0","img/none_selected.jpg","","194","main_expt"
"89","","bandit","273","693110","0.0-234.0-0.0","34007277","wem/bandit_either","A31UQAP2HZAZP","either","8","","","","","","","0","0","1","","0.2786104129","0.6","0.2","0.8","0.4","0.3856266791","0.2786104129","0.4136905162","0.2716401532","","","","","","","","","","","74","J","1","","","195","main_expt"
"265","","bandit","274","694903","0.0-235.0-0.0","34007277","wem/bandit_either","A31UQAP2HZAZP","either","8","","","","","","","0","0","1","0.4258575101","","0.6","0.2","0.8","0.4","","","","","0.3702439493","0.2407834285","0.4258575101","0.2814611543","","","","","","","75","K","2","","","196","main_expt"
"460","","bandit","275","696885","0.0-236.0-0.0","34007277","wem/bandit_either","A31UQAP2HZAZP","either","8","","","","","","","0","0","1","","0.2588010394","0.6","0.2","0.8","0.4","0.3665926528","0.2550568011","0.3976178043","0.2588010394","","","","","","","","","","","76","L","3","","","197","main_expt"
"66","","bandit","276","698473","0.0-237.0-0.0","34007277","wem/bandit_either","A31UQAP2HZAZP","either","8","","","","","","","0","0","1","","0.3432124584","0.6","0.2","0.8","0.4","0.3432124584","0.3094863904","0.3802378075","0.3094610495","","","","","","","","","","","72","H","0","img/none_selected.jpg","","198","main_expt"
"507","","bandit","277","700502","0.0-238.0-0.0","34007277","wem/bandit_either","A31UQAP2HZAZP","either","8","","","","","","","0","1","0","","0.3012985694","0.6","0.2","0.8","0.4","0.4096574544","0.3012985694","0.3926800246","0.3139278769","","","","","","","","","","","74","J","1","","","199","main_expt"
"265","","bandit","278","702287","0.0-239.0-0.0","34007277","wem/bandit_either","A31UQAP2HZAZP","either","8","","","","","","","0","0","1","","0.3149132519","0.6","0.2","0.8","0.4","0.3799023259","0.3149132519","0.3814844917","0.3459706187","","","","","","","","","","","74","J","1","","","200","main_expt"
"184","","bandit","279","703991","0.0-240.0-0.0","34007277","wem/bandit_either","A31UQAP2HZAZP","either","8","","","","","","","0","0","1","","0.3236307962","0.6","0.2","0.8","0.4","0.3513783521","0.3236307962","0.3831630738","0.3038365479","","","","","","","","","","","74","J","1","","","201","main_expt"
"358","","bandit","280","705872","0.0-241.0-0.0","34007277","wem/bandit_either","A31UQAP2HZAZP","either","8","","","","","","","0","1","0","","0.3163717903","0.6","0.2","0.8","0.4","0.3439351057","0.3163717903","0.3957430938","0.2964599608","","","","","","","","","","","74","J","1","","","202","main_expt"
"225","","bandit","281","707618","0.0-242.0-0.0","34007277","wem/bandit_either","A31UQAP2HZAZP","either","8","","","","","","","0","0","1","","0.3165936227","0.6","0.2","0.8","0.4","0.2615327891","0.3165936227","0.4175506619","0.280336616","","","","","","","","","","","74","J","1","","","203","main_expt"
"316","","bandit","282","709455","0.0-243.0-0.0","34007277","wem/bandit_either","A31UQAP2HZAZP","either","8","","","","","","","0","0","1","","0.3166231072","0.6","0.2","0.8","0.4","0.2211517471","0.3166231072","0.4356800279","0.262900641","","","","","","","","","","","74","J","1","","","204","main_expt"
"291","","bandit","283","711302","0.0-244.0-0.0","34007277","wem/bandit_either","A31UQAP2HZAZP","either","8","","","","","","","0","0","1","","0.2983153058","0.6","0.2","0.8","0.4","0.1955747294","0.2983153058","0.4342993254","0.3403150927","","","","","","","","","","","74","J","1","","","205","main_expt"
"138","","bandit","284","712963","0.0-245.0-0.0","34007277","wem/bandit_either","A31UQAP2HZAZP","either","8","","","","","","","0","0","1","","0.255573156","0.6","0.2","0.8","0.4","0.3137251184","0.255573156","0.4515967499","0.3407188883","","","","","","","","","","","74","J","1","","","206","main_expt"
"565","","bandit","285","715050","0.0-246.0-0.0","34007277","wem/bandit_either","A31UQAP2HZAZP","either","8","","","","","","","0","0","1","","0.2816724171","0.6","0.2","0.8","0.4","0.2982459604","0.2816724171","0.4559700358","0.2955601217","","","","","","","","","","","74","J","1","","","207","main_expt"
"106","","bandit","286","716677","0.0-247.0-0.0","34007277","wem/bandit_either","A31UQAP2HZAZP","either","8","","","","","","","0","0","1","","0.4711787588","0.6","0.2","0.8","0.4","0.2359404152","0.2462622089","0.4711787588","0.2832193826","","","","","","","","","","","75","K","2","","","208","main_expt"
"525","","bandit","287","718723","0.0-248.0-0.0","34007277","wem/bandit_either","A31UQAP2HZAZP","either","8","","","","","","","0","1","0","","0.25637755","0.6","0.2","0.8","0.4","0.2396635106","0.2608633631","0.4859779177","0.25637755","","","","","","","","","","","76","L","3","","","209","main_expt"
"53","","bandit","288","720310","0.0-249.0-0.0","34007277","wem/bandit_either","A31UQAP2HZAZP","either","8","","","","","","","0","0","1","","0.2500912527","0.6","0.2","0.8","0.4","0.2320506775","0.2649708152","0.4798195452","0.2500912527","","","","","","","","","","","76","L","3","","","210","main_expt"
"573","","bandit","289","722404","0.0-250.0-0.0","34007277","wem/bandit_either","A31UQAP2HZAZP","either","8","","","","","","","0","0","1","","0.2481129288","0.6","0.2","0.8","0.4","0.1894847828","0.2658594566","0.4754072522","0.2481129288","","","","","","","","","","","76","L","3","","","211","main_expt"
"335","","bandit","290","724260","0.0-251.0-0.0","34007277","wem/bandit_either","A31UQAP2HZAZP","either","8","","","","","","","0","1","0","","0.3192168596","0.6","0.2","0.8","0.4","0.2330804604","0.2648449814","0.4780703898","0.3192168596","","","","","","","","","","","76","L","3","","","212","main_expt"
"520","","bandit","291","726323","0.0-252.0-0.0","34007277","wem/bandit_either","A31UQAP2HZAZP","either","8","","","","","","","0","0","1","0.2361953268","","0.6","0.2","0.8","0.4","","","","","0.2484053244","0.286492297","0.4883488692","0.2361953268","","","","","","","76","L","3","","","213","main_expt"
"396","","bandit","292","728243","0.0-253.0-0.0","34007277","wem/bandit_either","A31UQAP2HZAZP","either","8","","","","","","","0","0","1","","0.2308921763","0.6","0.2","0.8","0.4","0.2182548364","0.2540339129","0.4872562331","0.2308921763","","","","","","","","","","","76","L","3","","","214","main_expt"
"298","","bandit","293","730063","0.0-254.0-0.0","34007277","wem/bandit_either","A31UQAP2HZAZP","either","8","","","","","","","0","0","1","0.2161033537","","0.6","0.2","0.8","0.4","","","","","0.1824073789","0.254651127","0.4749609167","0.2161033537","","","","","","","76","L","3","","","215","main_expt"
"342","","bandit","294","731928","0.0-255.0-0.0","34007277","wem/bandit_either","A31UQAP2HZAZP","either","8","","","","","","","0","0","1","","0.1896756427","0.6","0.2","0.8","0.4","0.1923730387","0.3140517816","0.4798413464","0.1896756427","","","","","","","","","","","76","L","3","","","216","main_expt"
"304","","bandit","295","733752","0.0-256.0-0.0","34007277","wem/bandit_either","A31UQAP2HZAZP","either","8","","","","","","","1","0","0","0.1724286307","","0.6","0.2","0.8","0.4","","","","","0.2266612446","0.3338676317","0.4865144435","0.1724286307","","","","","","","76","L","3","","","217","main_expt"
"360","","bandit","296","735643","0.0-257.0-0.0","34007277","wem/bandit_either","A31UQAP2HZAZP","either","8","","","","","","","0","0","1","","0.161168334","0.6","0.2","0.8","0.4","0.1702705737","0.3397001125","0.4789145001","0.161168334","","","","","","","","","","","76","L","3","","","218","main_expt"
"219","","bandit","297","737388","0.0-258.0-0.0","34007277","wem/bandit_either","A31UQAP2HZAZP","either","8","","","","","","","0","0","1","","0.2021763003","0.6","0.2","0.8","0.4","0.1159766116","0.2982528089","0.4834748692","0.2021763003","","","","","","","","","","","76","L","3","","","219","main_expt"
"387","","bandit","298","739298","0.0-259.0-0.0","34007277","wem/bandit_either","A31UQAP2HZAZP","either","8","","","","","","","0","0","1","","0.2142164272","0.6","0.2","0.8","0.4","0.09529473055","0.2770934022","0.4722371777","0.2142164272","","","","","","","","","","","76","L","3","","","220","main_expt"
"548","","bandit","299","741383","0.0-260.0-0.0","34007277","wem/bandit_either","A31UQAP2HZAZP","either","8","","","","","","","0","0","1","0.189068297","","0.6","0.2","0.8","0.4","","","","","0.09060922323","0.2696770889","0.4654689219","0.189068297","","","","","","","76","L","3","","","221","main_expt"
"356","","bandit","300","743267","0.0-261.0-0.0","34007277","wem/bandit_either","A31UQAP2HZAZP","either","8","","","","","","","1","0","0","0.2120997892","","0.6","0.2","0.8","0.4","","","","","0.1250772464","0.3103502417","0.4533789701","0.2120997892","","","","","","","76","L","3","","","222","main_expt"
"315","","bandit","301","745105","0.0-262.0-0.0","34007277","wem/bandit_either","A31UQAP2HZAZP","either","8","","","","","","","0","0","1","0.1937664477","","0.6","0.2","0.8","0.4","","","","","0.1177235221","0.3477728299","0.4473019993","0.1937664477","","","","","","","76","L","3","","","223","main_expt"
"419","","bandit","302","747046","0.0-263.0-0.0","34007277","wem/bandit_either","A31UQAP2HZAZP","either","8","","","","","","","0","1","0","","0.2195846313","0.6","0.2","0.8","0.4","0.1589673504","0.3230244909","0.4651086175","0.2195846313","","","","","","","","","","","76","L","3","","","224","main_expt"
"337","","bandit","303","748906","0.0-264.0-0.0","34007277","wem/bandit_either","A31UQAP2HZAZP","either","8","","","","","","","0","0","1","","0.1973587738","0.6","0.2","0.8","0.4","0.1582937281","0.3641913847","0.4704934375","0.1973587738","","","","","","","","","","","76","L","3","","","225","main_expt"
"418","","bandit","304","750850","0.0-265.0-0.0","34007277","wem/bandit_either","A31UQAP2HZAZP","either","8","","","","","","","0","1","0","","0.2029059012","0.6","0.2","0.8","0.4","0.1585786296","0.3211822138","0.4545632724","0.2029059012","","","","","","","","","","","76","L","3","","","226","main_expt"
"312","","bandit","305","752683","0.0-266.0-0.0","34007277","wem/bandit_either","A31UQAP2HZAZP","either","8","","","","","","","0","0","1","","0.1677618241","0.6","0.2","0.8","0.4","0.1614007709","0.3318596792","0.4313330006","0.1677618241","","","","","","","","","","","76","L","3","","","227","main_expt"
"364","","bandit","306","754573","0.0-267.0-0.0","34007277","wem/bandit_either","A31UQAP2HZAZP","either","8","","","","","","","0","0","1","0.2079318551","","0.6","0.2","0.8","0.4","","","","","0.1160982884","0.3715738924","0.4253897179","0.2079318551","","","","","","","76","L","3","","","228","main_expt"
"50","","bandit","307","756165","0.0-268.0-0.0","34007277","wem/bandit_either","A31UQAP2HZAZP","either","8","","","","","","","0","0","1","0.1860779256","","0.6","0.2","0.8","0.4","","","","","0.1327168588","0.3571583743","0.4416009531","0.1860779256","","","","","","","76","L","3","","","229","main_expt"
"324","","bandit","308","758015","0.0-269.0-0.0","34007277","wem/bandit_either","A31UQAP2HZAZP","either","8","","","","","","","0","0","1","","0.1294985144","0.6","0.2","0.8","0.4","0.1751239199","0.3455313741","0.4612445757","0.1294985144","","","","","","","","","","","76","L","3","","","230","main_expt"
"273","","bandit","309","759810","0.0-270.0-0.0","34007277","wem/bandit_either","A31UQAP2HZAZP","either","8","","","","","","","0","0","1","","0.1424139305","0.6","0.2","0.8","0.4","0.2080149414","0.3114256563","0.4455927364","0.1424139305","","","","","","","","","","","76","L","3","","","231","main_expt"
"257","","bandit","310","761590","0.0-271.0-0.0","34007277","wem/bandit_either","A31UQAP2HZAZP","either","8","","","","","","","1","0","0","0.1777617008","","0.6","0.2","0.8","0.4","","","","","0.2305008548","0.3127001645","0.4449483857","0.1777617008","","","","","","","76","L","3","","","232","main_expt"
"193","","bandit","311","763309","0.0-272.0-0.0","34007277","wem/bandit_either","A31UQAP2HZAZP","either","8","","","","","","","0","0","1","0.1408291819","","0.6","0.2","0.8","0.4","","","","","0.2331895239","0.2953609795","0.4570404202","0.1408291819","","","","","","","76","L","3","","","233","main_expt"
"346","","bandit","312","765179","0.0-273.0-0.0","34007277","wem/bandit_either","A31UQAP2HZAZP","either","8","","","","","","","0","0","1","","0.09563300426","0.6","0.2","0.8","0.4","0.2007149185","0.2743769666","0.4785018613","0.09563300426","","","","","","","","","","","76","L","3","","","234","main_expt"
"1981","","bandit","313","768707","0.0-274.0-0.0","34007277","wem/bandit_either","A31UQAP2HZAZP","either","8","","","","","","","0","0","1","0.06508254785","","0.6","0.2","0.8","0.4","","","","","0.1428876463","0.2842570603","0.4708517218","0.06508254785","","","","","","","76","L","3","","","235","main_expt"
"323","","bandit","314","770553","0.0-275.0-0.0","34007277","wem/bandit_either","A31UQAP2HZAZP","either","8","","","","","","","0","0","1","","0.05272484418","0.6","0.2","0.8","0.4","0.1327756685","0.3536106974","0.4721911582","0.05272484418","","","","","","","","","","","76","L","3","","","236","main_expt"
"890","","bandit","315","772966","0.0-276.0-0.0","34007277","wem/bandit_either","A31UQAP2HZAZP","either","8","","","","","","","0","0","1","0.05000735717","","0.6","0.2","0.8","0.4","","","","","0.1969646424","0.3777879982","0.4567984566","0.05000735717","","","","","","","76","L","3","","","237","main_expt"
"336","","bandit","316","774825","0.0-277.0-0.0","34007277","wem/bandit_either","A31UQAP2HZAZP","either","8","","","","","","","0","0","1","0.03409798278","","0.6","0.2","0.8","0.4","","","","","0.2040955009","0.3819628943","0.4601910044","0.03409798278","","","","","","","76","L","3","","","238","main_expt"
"369","","bandit","317","776717","0.0-278.0-0.0","34007277","wem/bandit_either","A31UQAP2HZAZP","either","8","","","","","","","0","0","1","0.1885012088","","0.6","0.2","0.8","0.4","","","","","0.1885012088","0.3590612953","0.4663275819","0.03555143528","","","","","","","72","H","0","img/none_selected.jpg","","239","main_expt"
"210","","bandit","318","778451","0.0-279.0-0.0","34007277","wem/bandit_either","A31UQAP2HZAZP","either","8","","","","","","","0","0","1","","0.3943681209","0.6","0.2","0.8","0.4","0.1779850251","0.3943681209","0.4781926851","0.06633834621","","","","","","","","","","","74","J","1","","","240","main_expt"
"5","","bandit","319","780010","0.0-280.0-0.0","34007277","wem/bandit_either","A31UQAP2HZAZP","either","8","","","","","","","0","0","1","","0.4813407325","0.6","0.2","0.8","0.4","0.2132761508","0.4178476804","0.4813407325","0.0332650027","","","","","","","","","","","75","K","2","","","241","main_expt"
"549","","bandit","320","782082","0.0-281.0-0.0","34007277","wem/bandit_either","A31UQAP2HZAZP","either","8","","","","","","","0","0","1","0.2181708985","","0.6","0.2","0.8","0.4","","","","","0.2181708985","0.4083523659","0.4758201438","0.03674005559","","","","","","","72","H","0","img/none_selected.jpg","","242","main_expt"
"394","","bandit","321","784001","0.0-282.0-0.0","34007277","wem/bandit_either","A31UQAP2HZAZP","either","8","","","","","","","0","0","1","","0.4107673147","0.6","0.2","0.8","0.4","0.1880751836","0.4107673147","0.4739127226","0.02732183546","","","","","","","","","","","74","J","1","","","243","main_expt"
"197","","bandit","322","785725","0.0-283.0-0.0","34007277","wem/bandit_either","A31UQAP2HZAZP","either","8","","","","","","","0","0","1","0.4467527753","","0.6","0.2","0.8","0.4","","","","","0.2693527465","0.3914084711","0.4467527753","0.02742276317","","","","","","","75","K","2","","","244","main_expt"
"317","","bandit","323","787566","0.0-284.0-0.0","34007277","wem/bandit_either","A31UQAP2HZAZP","either","8","","","","","","","0","1","0","","0.2474629182","0.6","0.2","0.8","0.4","0.2474629182","0.4117032301","0.4492118003","0.03322496416","","","","","","","","","","","72","H","0","img/none_selected.jpg","","245","main_expt"
"154","","bandit","324","789244","0.0-285.0-0.0","34007277","wem/bandit_either","A31UQAP2HZAZP","either","8","","","","","","","0","0","1","","0.3019125269","0.6","0.2","0.8","0.4","0.3019125269","0.4225436654","0.4702058379","0.0538648904","","","","","","","","","","","72","H","0","img/none_selected.jpg","","246","main_expt"
"564","","bandit","325","791349","0.0-286.0-0.0","34007277","wem/bandit_either","A31UQAP2HZAZP","either","8","","","","","","","0","1","0","","0.3013832462","0.6","0.2","0.8","0.4","0.3013832462","0.4327875568","0.4717010128","0.05538537946","","","","","","","","","","","72","H","0","img/none_selected.jpg","","247","main_expt"
"295","","bandit","326","793171","0.0-287.0-0.0","34007277","wem/bandit_either","A31UQAP2HZAZP","either","8","","","","","","","0","0","1","","0.2917300956","0.6","0.2","0.8","0.4","0.2917300956","0.4478523955","0.4750055548","0.07377210468","","","","","","","","","","","72","H","0","img/none_selected.jpg","","248","main_expt"
"397","","bandit","327","795096","0.0-288.0-0.0","34007277","wem/bandit_either","A31UQAP2HZAZP","either","8","","","","","","","0","0","1","","0.2976682537","0.6","0.2","0.8","0.4","0.2976682537","0.4221620221","0.4608113614","0.07098242635","","","","","","","","","","","72","H","0","img/none_selected.jpg","","249","main_expt"
"395","","bandit","328","797014","0.0-289.0-0.0","34007277","wem/bandit_either","A31UQAP2HZAZP","either","8","","","","","","","0","0","1","","0.2921609534","0.6","0.2","0.8","0.4","0.2921609534","0.3998447204","0.4361301801","0.08291081884","","","","","","","","","","","72","H","0","img/none_selected.jpg","","250","main_expt"
"267","","bandit","329","798804","0.0-290.0-0.0","34007277","wem/bandit_either","A31UQAP2HZAZP","either","8","","","","","","","1","0","0","0.3026336231","","0.6","0.2","0.8","0.4","","","","","0.3026336231","0.4053116556","0.4203652199","0.07668358207","","","","","","","72","H","0","img/none_selected.jpg","","251","main_expt"
"4","","bandit","330","800334","0.0-291.0-0.0","34007277","wem/bandit_either","A31UQAP2HZAZP","either","8","","","","","","","0","0","1","0.3303824841","","0.6","0.2","0.8","0.4","","","","","0.3303824841","0.3780439072","0.4465363659","0.05892609675","","","","","","","72","H","0","img/none_selected.jpg","","252","main_expt"
"386","","bandit","331","802244","0.0-292.0-0.0","34007277","wem/bandit_either","A31UQAP2HZAZP","either","8","","","","","","","0","1","0","","0.3024212104","0.6","0.2","0.8","0.4","0.3024212104","0.4356020742","0.4480562975","0.05309255245","","","","","","","","","","","72","H","0","img/none_selected.jpg","","253","main_expt"
"252","","bandit","332","804020","0.0-293.0-0.0","34007277","wem/bandit_either","A31UQAP2HZAZP","either","8","","","","","","","0","0","1","0.3110648486","","0.6","0.2","0.8","0.4","","","","","0.3110648486","0.4576925499","0.4421075204","0.03865169821","","","","","","","72","H","0","img/none_selected.jpg","","254","main_expt"
"1203","","bandit","333","806748","0.0-294.0-0.0","34007277","wem/bandit_either","A31UQAP2HZAZP","either","8","","","","","","","0","0","1","0.2494326665","","0.6","0.2","0.8","0.4","","","","","0.2494326665","0.4745940057","0.4233433244","0.04471370441","","","","","","","72","H","0","img/none_selected.jpg","","255","main_expt"
