"rt","responses","trial_type","trial_index","time_elapsed","internal_node_id","subjID","study","MID","cond","drift","key_press","expt_phase","target","like","value","connected","gems","bombs","no_reward","GemPrChosen","BombPrChosen","GainOverPainPr_0","GainOverPainPr_1","GainOverPainPr_2","GainOverPainPr_3","LosePr_0","LosePr_1","LosePr_2","LosePr_3","WinPr_0","WinPr_1","WinPr_2","WinPr_3","Q0","Q1","Q2","gender","age","ethnicity","respCharCode","respKey","respChoiceNum","respChoice","practice","trial_counter","trial_label"
"5962","{""Q0"":""AY5QUURIR136D""}","survey-text","0","5968","0.0-0.0","34951663","wem/bandit_either","AY5QUURIR136D","either","8","","","","","","","","","","","","","","","","","","","","","","","","","","","","","","","","","","","",""
"21123","","text","1","28094","0.0-1.0","34951663","wem/bandit_either","AY5QUURIR136D","either","8","32","","","","","","","","","","","","","","","","","","","","","","","","","","","","","","","","","","",""
"12112","","text","2","40206","0.0-2.0","34951663","wem/bandit_either","AY5QUURIR136D","either","8","32","","","","","","","","","","","","","","","","","","","","","","","","","","","","","","","","","","",""
"22315","","text","3","62523","0.0-3.0","34951663","wem/bandit_either","AY5QUURIR136D","either","8","32","","","","","","","","","","","","","","","","","","","","","","","","","","","","","","","","","","",""
"17440","","text","4","79963","0.0-4.0","34951663","wem/bandit_either","AY5QUURIR136D","either","8","32","","","","","","","","","","","","","","","","","","","","","","","","","","","","","","","","","","",""
"57692","","text","5","137657","0.0-5.0","34951663","wem/bandit_either","AY5QUURIR136D","either","8","32","","","","","","","","","","","","","","","","","","","","","","","","","","","","","","","","","","",""
"7382","","text","6","145040","0.0-6.0","34951663","wem/bandit_either","AY5QUURIR136D","either","8","32","","","","","","","","","","","","","","","","","","","","","","","","","","","","","","","","","","",""
"6564","","text","7","151604","0.0-7.0","34951663","wem/bandit_either","AY5QUURIR136D","either","8","32","","","","","","","","","","","","","","","","","","","","","","","","","","","","","","","","","","",""
"7026","","identification","8","158642","0.0-8.0-0.0","34951663","wem/bandit_either","AY5QUURIR136D","either","8","","identification_pre","the village of Zur","","","","","","","","","","","","","","","","","","","","","","","","","","","","","","","","",""
"7068","","identification","9","166720","0.0-8.0-1.0","34951663","wem/bandit_either","AY5QUURIR136D","either","8","","identification_pre","the village of Nyx","","","","","","","","","","","","","","","","","","","","","","","","","","","","","","","","",""
"6090","","text","10","173811","0.0-9.0","34951663","wem/bandit_either","AY5QUURIR136D","either","8","32","","","","","","","","","","","","","","","","","","","","","","","","","","","","","","","","","","",""
"3396","","text","11","177209","0.0-10.0","34951663","wem/bandit_either","AY5QUURIR136D","either","8","32","","","","","","","","","","","","","","","","","","","","","","","","","","","","","","","","","","",""
"2399","","text","12","179608","0.0-11.0","34951663","wem/bandit_either","AY5QUURIR136D","either","8","32","","","","","","","","","","","","","","","","","","","","","","","","","","","","","","","","","","",""
"7267","","text","13","186877","0.0-12.0","34951663","wem/bandit_either","AY5QUURIR136D","either","8","32","","","","","","","","","","","","","","","","","","","","","","","","","","","","","","","","","","",""
"1376","","bandit","14","189759","0.0-13.0-0.0","34951663","wem/bandit_either","AY5QUURIR136D","either","8","","","","","","","0","0","1","0","0","","","","","0","","","","0","","","","","","","","","","74","J","0","img/none_selected_demo.jpg","true","0",""
"1140","","bandit","15","192403","0.0-14.0-0.0","34951663","wem/bandit_either","AY5QUURIR136D","either","8","","","","","","","0","0","1","0","0","","","","","0","","","","0","","","","","","","","","","75","K","0","img/none_selected_demo.jpg","true","0",""
"8189","","text","16","200594","0.0-15.0","34951663","wem/bandit_either","AY5QUURIR136D","either","8","32","","","","","","","","","","","","","","","","","","","","","","","","","","","","","","","","","","",""
"13436","","text","17","214030","0.0-16.0","34951663","wem/bandit_either","AY5QUURIR136D","either","8","32","","","","","","","","","","","","","","","","","","","","","","","","","","","","","","","","","","",""
"6586","","text","18","220617","0.0-17.0","34951663","wem/bandit_either","AY5QUURIR136D","either","8","32","","","","","","","","","","","","","","","","","","","","","","","","","","","","","","","","","","",""
"9231","","text","19","229848","0.0-18.0","34951663","wem/bandit_either","AY5QUURIR136D","either","8","32","","","","","","","","","","","","","","","","","","","","","","","","","","","","","","","","","","",""
"652","","bandit","20","232005","0.0-19.0-0.0","34951663","wem/bandit_either","AY5QUURIR136D","either","8","","","","","","","1","0","0","0.8","","0.5","0.5","","","","","","","0.8","0.2","","","","","","","","","74","J","0","img/none_selected_demo.jpg","true","0","80_20_practice"
"281","","bandit","21","233790","0.0-19.0-1.0","34951663","wem/bandit_either","AY5QUURIR136D","either","8","","","","","","","0","1","0","","0.8","0.5","0.5","","","0.8","0.2","","","","","","","","","","","","","74","J","0","img/none_selected_demo.jpg","true","0","80_20_practice"
"273","","bandit","22","235566","0.0-19.0-2.0","34951663","wem/bandit_either","AY5QUURIR136D","either","8","","","","","","","0","0","1","0.8","","0.5","0.5","","","","","","","0.8","0.2","","","","","","","","","74","J","0","img/none_selected_demo.jpg","true","0","80_20_practice"
"271","","bandit","23","237341","0.0-19.0-3.0","34951663","wem/bandit_either","AY5QUURIR136D","either","8","","","","","","","0","1","0","","0.8","0.5","0.5","","","0.8","0.2","","","","","","","","","","","","","74","J","0","img/none_selected_demo.jpg","true","0","80_20_practice"
"177","","bandit","24","239023","0.0-19.0-4.0","34951663","wem/bandit_either","AY5QUURIR136D","either","8","","","","","","","0","1","0","","0.8","0.5","0.5","","","0.8","0.2","","","","","","","","","","","","","74","J","0","img/none_selected_demo.jpg","true","0","80_20_practice"
"286","","bandit","25","240812","0.0-19.0-5.0","34951663","wem/bandit_either","AY5QUURIR136D","either","8","","","","","","","1","0","0","0.8","","0.5","0.5","","","","","","","0.8","0.2","","","","","","","","","74","J","0","img/none_selected_demo.jpg","true","0","80_20_practice"
"227","","bandit","26","242543","0.0-19.0-6.0","34951663","wem/bandit_either","AY5QUURIR136D","either","8","","","","","","","0","1","0","","0.8","0.5","0.5","","","0.8","0.2","","","","","","","","","","","","","74","J","0","img/none_selected_demo.jpg","true","0","80_20_practice"
"60","","bandit","27","244108","0.0-19.0-7.0","34951663","wem/bandit_either","AY5QUURIR136D","either","8","","","","","","","0","1","0","","0.8","0.5","0.5","","","0.8","0.2","","","","","","","","","","","","","74","J","0","img/none_selected_demo.jpg","true","0","80_20_practice"
"296","","bandit","28","245910","0.0-19.0-8.0","34951663","wem/bandit_either","AY5QUURIR136D","either","8","","","","","","","1","0","0","0.8","","0.5","0.5","","","","","","","0.8","0.2","","","","","","","","","74","J","0","img/none_selected_demo.jpg","true","0","80_20_practice"
"259","","bandit","29","247676","0.0-19.0-9.0","34951663","wem/bandit_either","AY5QUURIR136D","either","8","","","","","","","0","1","0","","0.8","0.5","0.5","","","0.8","0.2","","","","","","","","","","","","","74","J","0","img/none_selected_demo.jpg","true","0","80_20_practice"
"206","","bandit","30","249386","0.0-19.0-10.0","34951663","wem/bandit_either","AY5QUURIR136D","either","8","","","","","","","0","1","0","","0.8","0.5","0.5","","","0.8","0.2","","","","","","","","","","","","","74","J","0","img/none_selected_demo.jpg","true","0","80_20_practice"
"267","","bandit","31","251159","0.0-19.0-11.0","34951663","wem/bandit_either","AY5QUURIR136D","either","8","","","","","","","1","0","0","0.8","","0.5","0.5","","","","","","","0.8","0.2","","","","","","","","","74","J","0","img/none_selected_demo.jpg","true","0","80_20_practice"
"242","","bandit","32","252904","0.0-19.0-12.0","34951663","wem/bandit_either","AY5QUURIR136D","either","8","","","","","","","1","0","0","0.8","","0.5","0.5","","","","","","","0.8","0.2","","","","","","","","","74","J","0","img/none_selected_demo.jpg","true","0","80_20_practice"
"12","","bandit","33","254422","0.0-19.0-13.0","34951663","wem/bandit_either","AY5QUURIR136D","either","8","","","","","","","1","0","0","0.8","","0.5","0.5","","","","","","","0.8","0.2","","","","","","","","","74","J","0","img/none_selected_demo.jpg","true","0","80_20_practice"
"185","","bandit","34","256113","0.0-19.0-14.0","34951663","wem/bandit_either","AY5QUURIR136D","either","8","","","","","","","1","0","0","0.8","","0.5","0.5","","","","","","","0.8","0.2","","","","","","","","","74","J","0","img/none_selected_demo.jpg","true","0","80_20_practice"
"94","","bandit","35","257712","0.0-19.0-15.0","34951663","wem/bandit_either","AY5QUURIR136D","either","8","","","","","","","0","1","0","","0.8","0.5","0.5","","","0.8","0.2","","","","","","","","","","","","","74","J","0","img/none_selected_demo.jpg","true","0","80_20_practice"
"270","","bandit","36","259487","0.0-19.0-16.0","34951663","wem/bandit_either","AY5QUURIR136D","either","8","","","","","","","0","1","0","","0.8","0.5","0.5","","","0.8","0.2","","","","","","","","","","","","","74","J","0","img/none_selected_demo.jpg","true","0","80_20_practice"
"215","","bandit","37","261206","0.0-19.0-17.0","34951663","wem/bandit_either","AY5QUURIR136D","either","8","","","","","","","0","1","0","","0.8","0.5","0.5","","","0.8","0.2","","","","","","","","","","","","","74","J","0","img/none_selected_demo.jpg","true","0","80_20_practice"
"247","","bandit","38","262958","0.0-19.0-18.0","34951663","wem/bandit_either","AY5QUURIR136D","either","8","","","","","","","0","1","0","","0.8","0.5","0.5","","","0.8","0.2","","","","","","","","","","","","","74","J","0","img/none_selected_demo.jpg","true","0","80_20_practice"
"190","","bandit","39","264652","0.0-19.0-19.0","34951663","wem/bandit_either","AY5QUURIR136D","either","8","","","","","","","1","0","0","0.8","","0.5","0.5","","","","","","","0.8","0.2","","","","","","","","","74","J","0","img/none_selected_demo.jpg","true","0","80_20_practice"
"2714","","text","40","267367","0.0-20.0","34951663","wem/bandit_either","AY5QUURIR136D","either","8","32","","","","","","","","","","","","","","","","","","","","","","","","","","","","","","","","","","",""
"1089","","bandit","41","269962","0.0-21.0-0.0","34951663","wem/bandit_either","AY5QUURIR136D","either","8","","","","","","","1","0","0","1","0","","","","","0","1","","","1","0","","","","","","","","","74","J","0","img/none_selected_demo.jpg","true","0",""
"7081","","text","42","277045","0.0-22.0","34951663","wem/bandit_either","AY5QUURIR136D","either","8","32","","","","","","","","","","","","","","","","","","","","","","","","","","","","","","","","","","",""
"3271","","text","43","280318","0.0-23.0","34951663","wem/bandit_either","AY5QUURIR136D","either","8","32","","","","","","","","","","","","","","","","","","","","","","","","","","","","","","","","","","",""
"3100","","text","44","283419","0.0-24.0","34951663","wem/bandit_either","AY5QUURIR136D","either","8","32","","","","","","","","","","","","","","","","","","","","","","","","","","","","","","","","","","",""
"5630","","text","45","289049","0.0-25.0","34951663","wem/bandit_either","AY5QUURIR136D","either","8","32","","","","","","","","","","","","","","","","","","","","","","","","","","","","","","","","","","",""
"8589","","text","46","297639","0.0-26.0","34951663","wem/bandit_either","AY5QUURIR136D","either","8","32","","","","","","","","","","","","","","","","","","","","","","","","","","","","","","","","","","",""
"2515","","text","47","300155","0.0-27.0","34951663","wem/bandit_either","AY5QUURIR136D","either","8","32","","","","","","","","","","","","","","","","","","","","","","","","","","","","","","","","","","",""
"3083","","text","48","303240","0.0-28.0","34951663","wem/bandit_either","AY5QUURIR136D","either","8","32","","","","","","","","","","","","","","","","","","","","","","","","","","","","","","","","","","",""
"3085","","text","49","306327","0.0-29.0","34951663","wem/bandit_either","AY5QUURIR136D","either","8","32","","","","","","","","","","","","","","","","","","","","","","","","","","","","","","","","","","",""
"7284","","text","50","313613","0.0-30.0","34951663","wem/bandit_either","AY5QUURIR136D","either","8","32","","","","","","","","","","","","","","","","","","","","","","","","","","","","","","","","","","",""
"1525","","text","51","315138","0.0-31.0","34951663","wem/bandit_either","AY5QUURIR136D","either","8","32","","","","","","","","","","","","","","","","","","","","","","","","","","","","","","","","","","",""
"2348","","text","52","317488","0.0-32.0","34951663","wem/bandit_either","AY5QUURIR136D","either","8","32","","","","","","","","","","","","","","","","","","","","","","","","","","","","","","","","","","",""
"599","","bandit","53","319592","0.0-33.0-0.0","34951663","wem/bandit_either","AY5QUURIR136D","either","8","","","","","","","0","1","0","","0.8","0.5","0.5","0.5","0.5","0.8","0.2","0.6","0.2","","","","","","","","","","","72","H","0","img/none_selected.jpg","true","0","full_practice"
"2","","bandit","54","321099","0.0-33.0-1.0","34951663","wem/bandit_either","AY5QUURIR136D","either","8","","","","","","","0","0","1","","0.2","0.5","0.5","0.5","0.5","0.8","0.2","0.6","0.2","","","","","","","","","","","74","J","1","","true","0","full_practice"
"480","","bandit","55","323084","0.0-33.0-2.0","34951663","wem/bandit_either","AY5QUURIR136D","either","8","","","","","","","1","0","0","0.6","","0.5","0.5","0.5","0.5","","","","","0.8","0.2","0.6","0.2","","","","","","","75","K","2","","true","0","full_practice"
"172","","bandit","56","324760","0.0-33.0-3.0","34951663","wem/bandit_either","AY5QUURIR136D","either","8","","","","","","","0","0","1","0.6","","0.5","0.5","0.5","0.5","","","","","0.8","0.2","0.6","0.2","","","","","","","75","K","2","","true","0","full_practice"
"264","","bandit","57","326529","0.0-33.0-4.0","34951663","wem/bandit_either","AY5QUURIR136D","either","8","","","","","","","0","0","1","","0.2","0.5","0.5","0.5","0.5","0.8","0.2","0.6","0.2","","","","","","","","","","","76","L","3","","true","0","full_practice"
"246","","bandit","58","328281","0.0-33.0-5.0","34951663","wem/bandit_either","AY5QUURIR136D","either","8","","","","","","","0","1","0","","0.8","0.5","0.5","0.5","0.5","0.8","0.2","0.6","0.2","","","","","","","","","","","72","H","0","img/none_selected.jpg","true","0","full_practice"
"244","","bandit","59","330031","0.0-33.0-6.0","34951663","wem/bandit_either","AY5QUURIR136D","either","8","","","","","","","0","1","0","","0.8","0.5","0.5","0.5","0.5","0.8","0.2","0.6","0.2","","","","","","","","","","","72","H","0","img/none_selected.jpg","true","0","full_practice"
"233","","bandit","60","331770","0.0-33.0-7.0","34951663","wem/bandit_either","AY5QUURIR136D","either","8","","","","","","","0","1","0","","0.8","0.5","0.5","0.5","0.5","0.8","0.2","0.6","0.2","","","","","","","","","","","72","H","0","img/none_selected.jpg","true","0","full_practice"
"245","","bandit","61","333520","0.0-33.0-8.0","34951663","wem/bandit_either","AY5QUURIR136D","either","8","","","","","","","0","1","0","","0.8","0.5","0.5","0.5","0.5","0.8","0.2","0.6","0.2","","","","","","","","","","","72","H","0","img/none_selected.jpg","true","0","full_practice"
"160","","bandit","62","335186","0.0-33.0-9.0","34951663","wem/bandit_either","AY5QUURIR136D","either","8","","","","","","","0","1","0","","0.8","0.5","0.5","0.5","0.5","0.8","0.2","0.6","0.2","","","","","","","","","","","72","H","0","img/none_selected.jpg","true","0","full_practice"
"100","","bandit","63","336792","0.0-33.0-10.0","34951663","wem/bandit_either","AY5QUURIR136D","either","8","","","","","","","0","1","0","","0.8","0.5","0.5","0.5","0.5","0.8","0.2","0.6","0.2","","","","","","","","","","","72","H","0","img/none_selected.jpg","true","0","full_practice"
"216","","bandit","64","338514","0.0-33.0-11.0","34951663","wem/bandit_either","AY5QUURIR136D","either","8","","","","","","","1","0","0","0.8","","0.5","0.5","0.5","0.5","","","","","0.8","0.2","0.6","0.2","","","","","","","72","H","0","img/none_selected.jpg","true","0","full_practice"
"221","","bandit","65","340242","0.0-33.0-12.0","34951663","wem/bandit_either","AY5QUURIR136D","either","8","","","","","","","0","1","0","","0.8","0.5","0.5","0.5","0.5","0.8","0.2","0.6","0.2","","","","","","","","","","","72","H","0","img/none_selected.jpg","true","0","full_practice"
"536","","bandit","66","342283","0.0-33.0-13.0","34951663","wem/bandit_either","AY5QUURIR136D","either","8","","","","","","","0","1","0","","0.8","0.5","0.5","0.5","0.5","0.8","0.2","0.6","0.2","","","","","","","","","","","72","H","0","img/none_selected.jpg","true","0","full_practice"
"105","","bandit","67","343893","0.0-33.0-14.0","34951663","wem/bandit_either","AY5QUURIR136D","either","8","","","","","","","0","1","0","","0.8","0.5","0.5","0.5","0.5","0.8","0.2","0.6","0.2","","","","","","","","","","","72","H","0","img/none_selected.jpg","true","0","full_practice"
"131","","bandit","68","345528","0.0-33.0-15.0","34951663","wem/bandit_either","AY5QUURIR136D","either","8","","","","","","","0","1","0","","0.8","0.5","0.5","0.5","0.5","0.8","0.2","0.6","0.2","","","","","","","","","","","72","H","0","img/none_selected.jpg","true","0","full_practice"
"12","","bandit","69","347046","0.0-33.0-16.0","34951663","wem/bandit_either","AY5QUURIR136D","either","8","","","","","","","1","0","0","0.8","","0.5","0.5","0.5","0.5","","","","","0.8","0.2","0.6","0.2","","","","","","","72","H","0","img/none_selected.jpg","true","0","full_practice"
"201","","bandit","70","348751","0.0-33.0-17.0","34951663","wem/bandit_either","AY5QUURIR136D","either","8","","","","","","","0","1","0","","0.8","0.5","0.5","0.5","0.5","0.8","0.2","0.6","0.2","","","","","","","","","","","72","H","0","img/none_selected.jpg","true","0","full_practice"
"635","","bandit","71","350894","0.0-33.0-18.0","34951663","wem/bandit_either","AY5QUURIR136D","either","8","","","","","","","0","1","0","","0.8","0.5","0.5","0.5","0.5","0.8","0.2","0.6","0.2","","","","","","","","","","","72","H","0","img/none_selected.jpg","true","0","full_practice"
"295","","bandit","72","352694","0.0-33.0-19.0","34951663","wem/bandit_either","AY5QUURIR136D","either","8","","","","","","","0","1","0","","0.8","0.5","0.5","0.5","0.5","0.8","0.2","0.6","0.2","","","","","","","","","","","72","H","0","img/none_selected.jpg","true","0","full_practice"
"2882","","text","73","355580","0.0-34.0","34951663","wem/bandit_either","AY5QUURIR136D","either","8","32","","","","","","","","","","","","","","","","","","","","","","","","","","","","","","","","","","",""
"11419","","text","74","368002","0.0-35.0","34951663","wem/bandit_either","AY5QUURIR136D","either","8","32","","","","","","","","","","","","","","","","","","","","","","","","","","","","","","","","","","",""
"11890","","text","75","379895","0.0-36.0","34951663","wem/bandit_either","AY5QUURIR136D","either","8","32","","","","","","","","","","","","","","","","","","","","","","","","","","","","","","","","","","",""
"6344","","text","76","386241","0.0-37.0","34951663","wem/bandit_either","AY5QUURIR136D","either","8","32","","","","","","","","","","","","","","","","","","","","","","","","","","","","","","","","","","",""
"6328","","text","77","392570","0.0-38.0","34951663","wem/bandit_either","AY5QUURIR136D","either","8","32","","","","","","","","","","","","","","","","","","","","","","","","","","","","","","","","","","",""
"3795","","text","78","396368","0.0-39.0","34951663","wem/bandit_either","AY5QUURIR136D","either","8","32","","","","","","","","","","","","","","","","","","","","","","","","","","","","","","","","","","",""
"1289","","bandit","79","399164","0.0-40.0-0.0","34951663","wem/bandit_either","AY5QUURIR136D","either","8","","","","","","","0","0","1","","0.2637293772","0.6","0.4","0.8","0.2","0.2637293772","0.1351790469","0.3540548627","0.2928194041","","","","","","","","","","","72","H","0","img/none_selected.jpg","","1","main_expt"
"77","","bandit","80","400747","0.0-41.0-0.0","34951663","wem/bandit_either","AY5QUURIR136D","either","8","","","","","","","0","0","1","","0.125602744","0.6","0.4","0.8","0.2","0.2760013096","0.125602744","0.3812516843","0.3040419902","","","","","","","","","","","74","J","1","","","2","main_expt"
"115","","bandit","81","402368","0.0-42.0-0.0","34951663","wem/bandit_either","AY5QUURIR136D","either","8","","","","","","","0","1","0","","0.3901316494","0.6","0.4","0.8","0.2","0.3240499928","0.09574082279","0.3901316494","0.2875251023","","","","","","","","","","","75","K","2","","","3","main_expt"
"317","","bandit","82","404192","0.0-43.0-0.0","34951663","wem/bandit_either","AY5QUURIR136D","either","8","","","","","","","0","0","1","0.3945399471","","0.6","0.4","0.8","0.2","","","","","0.3510822359","0.0913382225","0.3945399471","0.2965567903","","","","","","","75","K","2","","","4","main_expt"
"245","","bandit","83","405943","0.0-44.0-0.0","34951663","wem/bandit_either","AY5QUURIR136D","either","8","","","","","","","0","0","1","","0.2681113314","0.6","0.4","0.8","0.2","0.3522827721","0.106177601","0.3997977613","0.2681113314","","","","","","","","","","","76","L","3","","","5","main_expt"
"332","","bandit","84","407778","0.0-45.0-0.0","34951663","wem/bandit_either","AY5QUURIR136D","either","8","","","","","","","0","0","1","0.390783501","","0.6","0.4","0.8","0.2","","","","","0.382674005","0.08998955495","0.390783501","0.2330443498","","","","","","","75","K","2","","","6","main_expt"
"308","","bandit","85","409592","0.0-46.0-0.0","34951663","wem/bandit_either","AY5QUURIR136D","either","8","","","","","","","1","0","0","0.3998463606","","0.6","0.4","0.8","0.2","","","","","0.3998463606","0.1077526668","0.3305693427","0.1630509172","","","","","","","72","H","0","img/none_selected.jpg","","7","main_expt"
"263","","bandit","86","411360","0.0-47.0-0.0","34951663","wem/bandit_either","AY5QUURIR136D","either","8","","","","","","","0","0","1","0.3832029687","","0.6","0.4","0.8","0.2","","","","","0.3832029687","0.1243697388","0.3056545716","0.2002468685","","","","","","","72","H","0","img/none_selected.jpg","","8","main_expt"
"302","","bandit","87","413168","0.0-48.0-0.0","34951663","wem/bandit_either","AY5QUURIR136D","either","8","","","","","","","0","0","1","0.1698108096","","0.6","0.4","0.8","0.2","","","","","0.3796681134","0.1698108096","0.3278889804","0.1835034381","","","","","","","74","J","1","","","9","main_expt"
"302","","bandit","88","414977","0.0-49.0-0.0","34951663","wem/bandit_either","AY5QUURIR136D","either","8","","","","","","","0","0","1","0.221757114","","0.6","0.4","0.8","0.2","","","","","0.3614311416","0.221757114","0.3137855556","0.1939723001","","","","","","","74","J","1","","","10","main_expt"
"391","","bandit","89","416873","0.0-50.0-0.0","34951663","wem/bandit_either","AY5QUURIR136D","either","8","","","","","","","0","0","1","0.1949806013","","0.6","0.4","0.8","0.2","","","","","0.3938737051","0.1961062924","0.3253079181","0.1949806013","","","","","","","76","L","3","","","11","main_expt"
"320","","bandit","90","418698","0.0-51.0-0.0","34951663","wem/bandit_either","AY5QUURIR136D","either","8","","","","","","","1","0","0","0.3298150516","","0.6","0.4","0.8","0.2","","","","","0.3810544723","0.1907056259","0.3298150516","0.2587943474","","","","","","","75","K","2","","","12","main_expt"
"214","","bandit","91","420418","0.0-52.0-0.0","34951663","wem/bandit_either","AY5QUURIR136D","either","8","","","","","","","0","0","1","0.3673307406","","0.6","0.4","0.8","0.2","","","","","0.3707046684","0.2162865666","0.3673307406","0.3085985727","","","","","","","75","K","2","","","13","main_expt"
"228","","bandit","92","422151","0.0-53.0-0.0","34951663","wem/bandit_either","AY5QUURIR136D","either","8","","","","","","","1","0","0","0.3679224674","","0.6","0.4","0.8","0.2","","","","","0.3486531997","0.2399362825","0.3679224674","0.2464992766","","","","","","","75","K","2","","","14","main_expt"
"243","","bandit","93","423901","0.0-54.0-0.0","34951663","wem/bandit_either","AY5QUURIR136D","either","8","","","","","","","0","0","1","0.3062507314","","0.6","0.4","0.8","0.2","","","","","0.3263578384","0.1986859052","0.3062507314","0.2474611475","","","","","","","75","K","2","","","15","main_expt"
"297","","bandit","94","425704","0.0-55.0-0.0","34951663","wem/bandit_either","AY5QUURIR136D","either","8","","","","","","","0","0","1","","0.2892976033","0.6","0.4","0.8","0.2","0.3514189979","0.1865641621","0.2892976033","0.2835538477","","","","","","","","","","","75","K","2","","","16","main_expt"
"260","","bandit","95","427468","0.0-56.0-0.0","34951663","wem/bandit_either","AY5QUURIR136D","either","8","","","","","","","0","0","1","0.3532592314","","0.6","0.4","0.8","0.2","","","","","0.3532592314","0.2035525071","0.2861796528","0.3256112075","","","","","","","72","H","0","img/none_selected.jpg","","17","main_expt"
"279","","bandit","96","429254","0.0-57.0-0.0","34951663","wem/bandit_either","AY5QUURIR136D","either","8","","","","","","","0","0","1","","0.3858608091","0.6","0.4","0.8","0.2","0.3858608091","0.2039336531","0.2958570682","0.3802227677","","","","","","","","","","","72","H","0","img/none_selected.jpg","","18","main_expt"
"196","","bandit","97","430955","0.0-58.0-0.0","34951663","wem/bandit_either","AY5QUURIR136D","either","8","","","","","","","0","0","1","0.1598579642","","0.6","0.4","0.8","0.2","","","","","0.3837638756","0.1598579642","0.3353028819","0.360566968","","","","","","","74","J","1","","","19","main_expt"
"40","","bandit","98","432501","0.0-59.0-0.0","34951663","wem/bandit_either","AY5QUURIR136D","either","8","","","","","","","0","0","1","","0.3696799013","0.6","0.4","0.8","0.2","0.2872100501","0.1437622327","0.3139704528","0.3696799013","","","","","","","","","","","76","L","3","","","20","main_expt"
"244","","bandit","99","434251","0.0-60.0-0.0","34951663","wem/bandit_either","AY5QUURIR136D","either","8","","","","","","","0","1","0","","0.4006907501","0.6","0.4","0.8","0.2","0.2975414498","0.07974703335","0.2524707143","0.4006907501","","","","","","","","","","","76","L","3","","","21","main_expt"
"133","","bandit","100","435889","0.0-61.0-0.0","34951663","wem/bandit_either","AY5QUURIR136D","either","8","","","","","","","0","0","1","","0.4081217326","0.6","0.4","0.8","0.2","0.2741965999","0.1361132429","0.248326021","0.4081217326","","","","","","","","","","","76","L","3","","","22","main_expt"
"347","","bandit","101","437741","0.0-62.0-0.0","34951663","wem/bandit_either","AY5QUURIR136D","either","8","","","","","","","0","0","1","","0.3740207531","0.6","0.4","0.8","0.2","0.2379064449","0.1705973249","0.2937153481","0.3740207531","","","","","","","","","","","76","L","3","","","23","main_expt"
"102","","bandit","102","439348","0.0-63.0-0.0","34951663","wem/bandit_either","AY5QUURIR136D","either","8","","","","","","","0","0","1","0.2625315469","","0.6","0.4","0.8","0.2","","","","","0.2078598572","0.1392759225","0.2625315469","0.3913756451","","","","","","","75","K","2","","","24","main_expt"
"193","","bandit","103","441046","0.0-64.0-0.0","34951663","wem/bandit_either","AY5QUURIR136D","either","8","","","","","","","0","0","1","","0.1800538527","0.6","0.4","0.8","0.2","0.2764850733","0.1800538527","0.2405651368","0.4100905738","","","","","","","","","","","74","J","1","","","25","main_expt"
"71","","bandit","104","442623","0.0-65.0-0.0","34951663","wem/bandit_either","AY5QUURIR136D","either","8","","","","","","","0","0","1","0.3080191348","","0.6","0.4","0.8","0.2","","","","","0.3080191348","0.2146400533","0.2503350336","0.3600668969","","","","","","","72","H","0","img/none_selected.jpg","","26","main_expt"
"108","","bandit","105","444235","0.0-66.0-0.0","34951663","wem/bandit_either","AY5QUURIR136D","either","8","","","","","","","0","0","1","","0.1948367851","0.6","0.4","0.8","0.2","0.3606197488","0.1948367851","0.354091838","0.3703096079","","","","","","","","","","","74","J","1","","","27","main_expt"
"130","","bandit","106","445871","0.0-67.0-0.0","34951663","wem/bandit_either","AY5QUURIR136D","either","8","","","","","","","0","0","1","","0.3696097963","0.6","0.4","0.8","0.2","0.3696097963","0.2282666016","0.3419366675","0.3527269899","","","","","","","","","","","72","H","0","img/none_selected.jpg","","28","main_expt"
"44","","bandit","107","447422","0.0-68.0-0.0","34951663","wem/bandit_either","AY5QUURIR136D","either","8","","","","","","","0","0","1","0.361896517","","0.6","0.4","0.8","0.2","","","","","0.3434444954","0.1842618798","0.361896517","0.2854860911","","","","","","","75","K","2","","","29","main_expt"
"274","","bandit","108","449203","0.0-69.0-0.0","34951663","wem/bandit_either","AY5QUURIR136D","either","8","","","","","","","0","0","1","0.2971434158","","0.6","0.4","0.8","0.2","","","","","0.3528183973","0.1930267653","0.3701160785","0.2971434158","","","","","","","76","L","3","","","30","main_expt"
"46","","bandit","109","450756","0.0-70.0-0.0","34951663","wem/bandit_either","AY5QUURIR136D","either","8","","","","","","","0","0","1","0.3436926249","","0.6","0.4","0.8","0.2","","","","","0.3436926249","0.2279264959","0.3602312343","0.3192935598","","","","","","","72","H","0","img/none_selected.jpg","","31","main_expt"
"101","","bandit","110","452364","0.0-71.0-0.0","34951663","wem/bandit_either","AY5QUURIR136D","either","8","","","","","","","0","1","0","","0.3392376576","0.6","0.4","0.8","0.2","0.3392376576","0.1922668126","0.3550043818","0.2910845839","","","","","","","","","","","72","H","0","img/none_selected.jpg","","32","main_expt"
"406","","bandit","111","454276","0.0-72.0-0.0","34951663","wem/bandit_either","AY5QUURIR136D","either","8","","","","","","","0","0","1","0.2524106513","","0.6","0.4","0.8","0.2","","","","","0.2524106513","0.1503247695","0.3927862597","0.2956883229","","","","","","","72","H","0","img/none_selected.jpg","","33","main_expt"
"245","","bandit","112","456027","0.0-73.0-0.0","34951663","wem/bandit_either","AY5QUURIR136D","either","8","","","","","","","0","0","1","0.4185963197","","0.6","0.4","0.8","0.2","","","","","0.2378308988","0.1875072744","0.4185963197","0.2918182698","","","","","","","75","K","2","","","34","main_expt"
"230","","bandit","113","457764","0.0-74.0-0.0","34951663","wem/bandit_either","AY5QUURIR136D","either","8","","","","","","","0","1","0","","0.2135507624","0.6","0.4","0.8","0.2","0.2683654211","0.2135507624","0.441983755","0.3063909307","","","","","","","","","","","74","J","1","","","35","main_expt"
"165","","bandit","114","459435","0.0-75.0-0.0","34951663","wem/bandit_either","AY5QUURIR136D","either","8","","","","","","","0","0","1","0.2042402853","","0.6","0.4","0.8","0.2","","","","","0.2645223933","0.2042402853","0.4352827683","0.2820805085","","","","","","","74","J","1","","","36","main_expt"
"143","","bandit","115","461084","0.0-76.0-0.0","34951663","wem/bandit_either","AY5QUURIR136D","either","8","","","","","","","0","0","1","0.2610370824","","0.6","0.4","0.8","0.2","","","","","0.2360561858","0.2024605481","0.450520142","0.2610370824","","","","","","","76","L","3","","","37","main_expt"
"48","","bandit","116","462636","0.0-77.0-0.0","34951663","wem/bandit_either","AY5QUURIR136D","either","8","","","","","","","0","0","1","0.2001865083","","0.6","0.4","0.8","0.2","","","","","0.2001865083","0.1677713785","0.4681224698","0.1896233007","","","","","","","72","H","0","img/none_selected.jpg","","38","main_expt"
"511","","bandit","117","464652","0.0-78.0-0.0","34951663","wem/bandit_either","AY5QUURIR136D","either","8","","","","","","","1","0","0","0.4711022053","","0.6","0.4","0.8","0.2","","","","","0.1687915361","0.221779122","0.4711022053","0.168851025","","","","","","","75","K","2","","","39","main_expt"
"22","","bandit","118","466179","0.0-79.0-0.0","34951663","wem/bandit_either","AY5QUURIR136D","either","8","","","","","","","0","1","0","","0.4559447699","0.6","0.4","0.8","0.2","0.1503151413","0.2722397218","0.4559447699","0.1615787635","","","","","","","","","","","75","K","2","","","40","main_expt"
"214","","bandit","119","467900","0.0-80.0-0.0","34951663","wem/bandit_either","AY5QUURIR136D","either","8","","","","","","","0","0","1","0.4412687596","","0.6","0.4","0.8","0.2","","","","","0.08168262283","0.3298230943","0.4412687596","0.1472326003","","","","","","","75","K","2","","","41","main_expt"
"294","","bandit","120","469699","0.0-81.0-0.0","34951663","wem/bandit_either","AY5QUURIR136D","either","8","","","","","","","0","0","1","","0.4457751761","0.6","0.4","0.8","0.2","0.07668629145","0.3104885444","0.4457751761","0.1533480506","","","","","","","","","","","75","K","2","","","42","main_expt"
"156","","bandit","121","471360","0.0-82.0-0.0","34951663","wem/bandit_either","AY5QUURIR136D","either","8","","","","","","","0","0","1","0.4298378352","","0.6","0.4","0.8","0.2","","","","","0.07394587158","0.3005355489","0.4298378352","0.1414351437","","","","","","","75","K","2","","","43","main_expt"
"157","","bandit","122","473024","0.0-83.0-0.0","34951663","wem/bandit_either","AY5QUURIR136D","either","8","","","","","","","0","0","1","0.1192337685","","0.6","0.4","0.8","0.2","","","","","0.1192337685","0.2456242138","0.4416915379","0.1067646429","","","","","","","72","H","0","img/none_selected.jpg","","44","main_expt"
"60","","bandit","123","474594","0.0-84.0-0.0","34951663","wem/bandit_either","AY5QUURIR136D","either","8","","","","","","","0","0","1","","0.1285724119","0.6","0.4","0.8","0.2","0.1285724119","0.2839901561","0.3915522423","0.1250796286","","","","","","","","","","","72","H","0","img/none_selected.jpg","","45","main_expt"
"183","","bandit","124","476285","0.0-85.0-0.0","34951663","wem/bandit_either","AY5QUURIR136D","either","8","","","","","","","0","0","1","0.2353621531","","0.6","0.4","0.8","0.2","","","","","0.1112684106","0.2353621531","0.4318427431","0.1927264636","","","","","","","74","J","1","","","46","main_expt"
"60","","bandit","125","477851","0.0-86.0-0.0","34951663","wem/bandit_either","AY5QUURIR136D","either","8","","","","","","","1","0","0","0.1804488412","","0.6","0.4","0.8","0.2","","","","","0.1207340475","0.2405257196","0.4395998441","0.1804488412","","","","","","","76","L","3","","","47","main_expt"
"104","","bandit","126","479462","0.0-87.0-0.0","34951663","wem/bandit_either","AY5QUURIR136D","either","8","","","","","","","0","1","0","","0.168268176","0.6","0.4","0.8","0.2","0.1182533935","0.2629408555","0.4630443269","0.168268176","","","","","","","","","","","76","L","3","","","48","main_expt"
"223","","bandit","127","481190","0.0-88.0-0.0","34951663","wem/bandit_either","AY5QUURIR136D","either","8","","","","","","","0","0","1","0.1466838001","","0.6","0.4","0.8","0.2","","","","","0.1460801474","0.2902453213","0.4794982466","0.1466838001","","","","","","","76","L","3","","","49","main_expt"
"289","","bandit","128","482984","0.0-89.0-0.0","34951663","wem/bandit_either","AY5QUURIR136D","either","8","","","","","","","0","0","1","0.1336340117","","0.6","0.4","0.8","0.2","","","","","0.1765155983","0.3033715012","0.4562783041","0.1336340117","","","","","","","76","L","3","","","50","main_expt"
"468","","bandit","129","484959","0.0-90.0-0.0","34951663","wem/bandit_either","AY5QUURIR136D","either","8","","","","","","","0","0","1","","0.1067821754","0.6","0.4","0.8","0.2","0.1614266163","0.3536831403","0.4515646323","0.1067821754","","","","","","","","","","","76","L","3","","","51","main_expt"
"274","","bandit","130","486739","0.0-91.0-0.0","34951663","wem/bandit_either","AY5QUURIR136D","either","8","","","","","","","0","0","1","0.4344137529","","0.6","0.4","0.8","0.2","","","","","0.1938643747","0.3058792917","0.4344137529","0.07294577227","","","","","","","75","K","2","","","52","main_expt"
"394","","bandit","131","488641","0.0-92.0-0.0","34951663","wem/bandit_either","AY5QUURIR136D","either","8","","","","","","","0","0","1","","0.3466820038","0.6","0.4","0.8","0.2","0.1721886996","0.3466820038","0.4421766306","0.07676454597","","","","","","","","","","","74","J","1","","","53","main_expt"
"311","","bandit","132","490459","0.0-93.0-0.0","34951663","wem/bandit_either","AY5QUURIR136D","either","8","","","","","","","0","0","1","","0.3159173384","0.6","0.4","0.8","0.2","0.1542880765","0.3159173384","0.4591875032","0.07707135067","","","","","","","","","","","74","J","1","","","54","main_expt"
"351","","bandit","133","492319","0.0-94.0-0.0","34951663","wem/bandit_either","AY5QUURIR136D","either","8","","","","","","","0","0","1","0.4455250987","","0.6","0.4","0.8","0.2","","","","","0.2155598061","0.3205246683","0.4455250987","0.08227932488","","","","","","","75","K","2","","","55","main_expt"
"162","","bandit","134","493988","0.0-95.0-0.0","34951663","wem/bandit_either","AY5QUURIR136D","either","8","","","","","","","0","0","1","0.199350645","","0.6","0.4","0.8","0.2","","","","","0.199350645","0.3067659888","0.4200701886","0.09013031375","","","","","","","72","H","0","img/none_selected.jpg","","56","main_expt"
"230","","bandit","135","495723","0.0-96.0-0.0","34951663","wem/bandit_either","AY5QUURIR136D","either","8","","","","","","","0","0","1","0.106866739","","0.6","0.4","0.8","0.2","","","","","0.1991981904","0.3786279545","0.3635567377","0.106866739","","","","","","","76","L","3","","","57","main_expt"
"339","","bandit","136","497570","0.0-97.0-0.0","34951663","wem/bandit_either","AY5QUURIR136D","either","8","","","","","","","0","0","1","0.0915584437","","0.6","0.4","0.8","0.2","","","","","0.1307276253","0.3796022377","0.3647217687","0.0915584437","","","","","","","76","L","3","","","58","main_expt"
"154","","bandit","137","499230","0.0-98.0-0.0","34951663","wem/bandit_either","AY5QUURIR136D","either","8","","","","","","","0","0","1","","0.1036540812","0.6","0.4","0.8","0.2","0.1540949786","0.3570845549","0.3975499765","0.1036540812","","","","","","","","","","","76","L","3","","","59","main_expt"
"303","","bandit","138","501039","0.0-99.0-0.0","34951663","wem/bandit_either","AY5QUURIR136D","either","8","","","","","","","0","0","1","0.376383165","","0.6","0.4","0.8","0.2","","","","","0.1187181044","0.398525789","0.376383165","0.07948280662","","","","","","","75","K","2","","","60","main_expt"
"271","","bandit","139","502816","0.0-100.0-0.0","34951663","wem/bandit_either","AY5QUURIR136D","either","8","","","","","","","1","0","0","0.380986593","","0.6","0.4","0.8","0.2","","","","","0.1734870435","0.380986593","0.3384437455","0.0685056185","","","","","","","74","J","1","","","61","main_expt"
"200","","bandit","140","504523","0.0-101.0-0.0","34951663","wem/bandit_either","AY5QUURIR136D","either","8","","","","","","","0","0","1","0.3928002855","","0.6","0.4","0.8","0.2","","","","","0.2056999461","0.3928002855","0.3086389155","0.04196312691","","","","","","","74","J","1","","","62","main_expt"
"355","","bandit","141","506385","0.0-102.0-0.0","34951663","wem/bandit_either","AY5QUURIR136D","either","8","","","","","","","0","1","0","","0.4097838671","0.6","0.4","0.8","0.2","0.2421495796","0.4097838671","0.3098998428","0.06524357318","","","","","","","","","","","74","J","1","","","63","main_expt"
"223","","bandit","142","508114","0.0-103.0-0.0","34951663","wem/bandit_either","AY5QUURIR136D","either","8","","","","","","","0","0","1","","0.3942475769","0.6","0.4","0.8","0.2","0.2678986655","0.3942475769","0.2859800092","0.04599317762","","","","","","","","","","","74","J","1","","","64","main_expt"
"354","","bandit","143","509973","0.0-104.0-0.0","34951663","wem/bandit_either","AY5QUURIR136D","either","8","","","","","","","0","0","1","","0.3756823908","0.6","0.4","0.8","0.2","0.2780805564","0.3756823908","0.2780623804","0.04738713632","","","","","","","","","","","74","J","1","","","65","main_expt"
"310","","bandit","144","511790","0.0-105.0-0.0","34951663","wem/bandit_either","AY5QUURIR136D","either","8","","","","","","","1","0","0","0.3780323226","","0.6","0.4","0.8","0.2","","","","","0.2923516192","0.3780323226","0.2740889186","0.02873144913","","","","","","","74","J","1","","","66","main_expt"
"281","","bandit","145","513577","0.0-106.0-0.0","34951663","wem/bandit_either","AY5QUURIR136D","either","8","","","","","","","0","1","0","","0.382091886","0.6","0.4","0.8","0.2","0.3481747094","0.382091886","0.3122756929","0.0355516853","","","","","","","","","","","74","J","1","","","67","main_expt"
"279","","bandit","146","515362","0.0-107.0-0.0","34951663","wem/bandit_either","AY5QUURIR136D","either","8","","","","","","","0","0","1","","0.4080562953","0.6","0.4","0.8","0.2","0.3540590834","0.4080562953","0.3004294993","0.04483006882","","","","","","","","","","","74","J","1","","","68","main_expt"
"168","","bandit","147","517037","0.0-108.0-0.0","34951663","wem/bandit_either","AY5QUURIR136D","either","8","","","","","","","1","0","0","0.419826639","","0.6","0.4","0.8","0.2","","","","","0.3348318208","0.419826639","0.3312842332","0.04300650393","","","","","","","74","J","1","","","69","main_expt"
"266","","bandit","148","518810","0.0-109.0-0.0","34951663","wem/bandit_either","AY5QUURIR136D","either","8","","","","","","","0","0","1","","0.3889643965","0.6","0.4","0.8","0.2","0.3844983113","0.3889643965","0.2362018798","0.03960880855","","","","","","","","","","","74","J","1","","","70","main_expt"
"95","","bandit","149","520410","0.0-110.0-0.0","34951663","wem/bandit_either","AY5QUURIR136D","either","8","","","","","","","0","0","1","0.3492343966","","0.6","0.4","0.8","0.2","","","","","0.3753843975","0.3492343966","0.1838323472","0.02401392238","","","","","","","74","J","1","","","71","main_expt"
"186","","bandit","150","522103","0.0-111.0-0.0","34951663","wem/bandit_either","AY5QUURIR136D","either","8","","","","","","","1","0","0","0.3502155883","","0.6","0.4","0.8","0.2","","","","","0.3861429343","0.3502155883","0.1749810972","0.008756159955","","","","","","","74","J","1","","","72","main_expt"
"252","","bandit","151","523863","0.0-112.0-0.0","34951663","wem/bandit_either","AY5QUURIR136D","either","8","","","","","","","1","0","0","0.3568691787","","0.6","0.4","0.8","0.2","","","","","0.3978436086","0.3568691787","0.1664097112","0.006257651783","","","","","","","74","J","1","","","73","main_expt"
"183","","bandit","152","525551","0.0-113.0-0.0","34951663","wem/bandit_either","AY5QUURIR136D","either","8","","","","","","","0","0","1","","0.3303653739","0.6","0.4","0.8","0.2","0.3847979518","0.3303653739","0.2001176207","0.004732084297","","","","","","","","","","","74","J","1","","","74","main_expt"
"189","","bandit","153","527247","0.0-114.0-0.0","34951663","wem/bandit_either","AY5QUURIR136D","either","8","","","","","","","1","0","0","0.3353283381","","0.6","0.4","0.8","0.2","","","","","0.3974319157","0.3353283381","0.1848717924","0.006967558871","","","","","","","74","J","1","","","75","main_expt"
"268","","bandit","154","529021","0.0-115.0-0.0","34951663","wem/bandit_either","AY5QUURIR136D","either","8","","","","","","","0","0","1","0.3009524994","","0.6","0.4","0.8","0.2","","","","","0.3987985884","0.3009524994","0.1510178238","0.004525860487","","","","","","","74","J","1","","","76","main_expt"
"198","","bandit","155","530725","0.0-116.0-0.0","34951663","wem/bandit_either","AY5QUURIR136D","either","8","","","","","","","0","0","1","0.3316028908","","0.6","0.4","0.8","0.2","","","","","0.4127312768","0.3316028908","0.2089633591","0.007245535115","","","","","","","74","J","1","","","77","main_expt"
"234","","bandit","156","532466","0.0-117.0-0.0","34951663","wem/bandit_either","AY5QUURIR136D","either","8","","","","","","","0","1","0","","0.3571024926","0.6","0.4","0.8","0.2","0.4257675477","0.3571024926","0.2285147345","0.00483057751","","","","","","","","","","","74","J","1","","","78","main_expt"
"398","","bandit","157","534371","0.0-118.0-0.0","34951663","wem/bandit_either","AY5QUURIR136D","either","8","","","","","","","0","0","1","","0.3542776451","0.6","0.4","0.8","0.2","0.4331167668","0.3542776451","0.2246975601","0.005956317848","","","","","","","","","","","74","J","1","","","79","main_expt"
"289","","bandit","158","536166","0.0-119.0-0.0","34951663","wem/bandit_either","AY5QUURIR136D","either","8","","","","","","","0","0","1","","0.3201174307","0.6","0.4","0.8","0.2","0.4294395537","0.3201174307","0.1878766281","0.0076590047","","","","","","","","","","","74","J","1","","","80","main_expt"
"162","","bandit","159","537834","0.0-120.0-0.0","34951663","wem/bandit_either","AY5QUURIR136D","either","8","","","","","","","0","1","0","","0.3503003334","0.6","0.4","0.8","0.2","0.4234249918","0.3503003334","0.2436254364","0.009115568074","","","","","","","","","","","74","J","1","","","81","main_expt"
"160","","bandit","160","539502","0.0-121.0-0.0","34951663","wem/bandit_either","AY5QUURIR136D","either","8","","","","","","","0","0","1","","0.3509066846","0.6","0.4","0.8","0.2","0.3956977209","0.3509066846","0.2627531714","0.01382977225","","","","","","","","","","","74","J","1","","","82","main_expt"
"1082","","bandit","161","542089","0.0-122.0-0.0","34951663","wem/bandit_either","AY5QUURIR136D","either","8","","","","","","","0","1","0","","0.3951868033","0.6","0.4","0.8","0.2","0.4248650233","0.3951868033","0.2672212524","0.01500629599","","","","","","","","","","","74","J","1","","","83","main_expt"
"506","","bandit","162","544102","0.0-123.0-0.0","34951663","wem/bandit_either","AY5QUURIR136D","either","8","","","","","","","0","0","1","","0.4131477378","0.6","0.4","0.8","0.2","0.4196907627","0.4131477378","0.2817484998","0.02310127573","","","","","","","","","","","74","J","1","","","84","main_expt"
"29","","bandit","163","545638","0.0-124.0-0.0","34951663","wem/bandit_either","AY5QUURIR136D","either","8","","","","","","","0","0","1","0.3889697292","","0.6","0.4","0.8","0.2","","","","","0.435633498","0.3889697292","0.3074775227","0.02639065846","","","","","","","74","J","1","","","85","main_expt"
"453","","bandit","164","547599","0.0-125.0-0.0","34951663","wem/bandit_either","AY5QUURIR136D","either","8","","","","","","","0","0","1","","0.3885636443","0.6","0.4","0.8","0.2","0.4322222521","0.3885636443","0.2717847629","0.01746441632","","","","","","","","","","","74","J","1","","","86","main_expt"
"187","","bandit","165","549293","0.0-126.0-0.0","34951663","wem/bandit_either","AY5QUURIR136D","either","8","","","","","","","0","0","1","","0.2183858348","0.6","0.4","0.8","0.2","0.4476119451","0.4028282504","0.2183858348","0.01256144444","","","","","","","","","","","75","K","2","","","87","main_expt"
"207","","bandit","166","551006","0.0-127.0-0.0","34951663","wem/bandit_either","AY5QUURIR136D","either","8","","","","","","","1","0","0","0.4073123198","","0.6","0.4","0.8","0.2","","","","","0.4073123198","0.4306890759","0.2054961256","0.01178158386","","","","","","","72","H","0","img/none_selected.jpg","","88","main_expt"
"138","","bandit","167","552651","0.0-128.0-0.0","34951663","wem/bandit_either","AY5QUURIR136D","either","8","","","","","","","0","0","1","","0.3862301724","0.6","0.4","0.8","0.2","0.3862301724","0.4103738654","0.1452714398","0.008722555822","","","","","","","","","","","72","H","0","img/none_selected.jpg","","89","main_expt"
"196","","bandit","168","554354","0.0-129.0-0.0","34951663","wem/bandit_either","AY5QUURIR136D","either","8","","","","","","","0","1","0","","0.3596745144","0.6","0.4","0.8","0.2","0.3596745144","0.3980827974","0.1077779513","0.008232471735","","","","","","","","","","","72","H","0","img/none_selected.jpg","","90","main_expt"
"263","","bandit","169","556124","0.0-130.0-0.0","34951663","wem/bandit_either","AY5QUURIR136D","either","8","","","","","","","0","0","1","0.3082854458","","0.6","0.4","0.8","0.2","","","","","0.3082854458","0.4040531024","0.1308407065","0.01249180717","","","","","","","72","H","0","img/none_selected.jpg","","91","main_expt"
"260","","bandit","170","557890","0.0-131.0-0.0","34951663","wem/bandit_either","AY5QUURIR136D","either","8","","","","","","","1","0","0","0.312225492","","0.6","0.4","0.8","0.2","","","","","0.312225492","0.3462944796","0.1652322036","0.01470986316","","","","","","","72","H","0","img/none_selected.jpg","","92","main_expt"
"99","","bandit","171","559496","0.0-132.0-0.0","34951663","wem/bandit_either","AY5QUURIR136D","either","8","","","","","","","0","0","1","0.3671658277","","0.6","0.4","0.8","0.2","","","","","0.3671658277","0.3411451966","0.1344678182","0.02655281846","","","","","","","72","H","0","img/none_selected.jpg","","93","main_expt"
"215","","bandit","172","561217","0.0-133.0-0.0","34951663","wem/bandit_either","AY5QUURIR136D","either","8","","","","","","","0","0","1","0.3401731108","","0.6","0.4","0.8","0.2","","","","","0.3401731108","0.3384154489","0.1301314301","0.02575246025","","","","","","","72","H","0","img/none_selected.jpg","","94","main_expt"
"95","","bandit","173","562818","0.0-134.0-0.0","34951663","wem/bandit_either","AY5QUURIR136D","either","8","","","","","","","0","1","0","","0.3413923724","0.6","0.4","0.8","0.2","0.3413923724","0.3126988266","0.1746055711","0.02262355665","","","","","","","","","","","72","H","0","img/none_selected.jpg","","95","main_expt"
"161","","bandit","174","564487","0.0-135.0-0.0","34951663","wem/bandit_either","AY5QUURIR136D","either","8","","","","","","","1","0","0","0.3570420485","","0.6","0.4","0.8","0.2","","","","","0.3570420485","0.3800019137","0.1994244555","0.02047181149","","","","","","","72","H","0","img/none_selected.jpg","","96","main_expt"
"278","","bandit","175","566271","0.0-136.0-0.0","34951663","wem/bandit_either","AY5QUURIR136D","either","8","","","","","","","0","0","1","","0.3435474977","0.6","0.4","0.8","0.2","0.3435474977","0.3328121005","0.1834602947","0.0207754381","","","","","","","","","","","72","H","0","img/none_selected.jpg","","97","main_expt"
"39","","bandit","176","567817","0.0-137.0-0.0","34951663","wem/bandit_either","AY5QUURIR136D","either","8","","","","","","","0","0","1","","0.3614714926","0.6","0.4","0.8","0.2","0.3614714926","0.332228596","0.1719221531","0.02955834597","","","","","","","","","","","72","H","0","img/none_selected.jpg","","98","main_expt"
"319","","bandit","177","569643","0.0-138.0-0.0","34951663","wem/bandit_either","AY5QUURIR136D","either","8","","","","","","","0","0","1","0.3176405447","","0.6","0.4","0.8","0.2","","","","","0.3176405447","0.2843854285","0.1183399241","0.0383131093","","","","","","","72","H","0","img/none_selected.jpg","","99","main_expt"
"103","","bandit","178","571253","0.0-139.0-0.0","34951663","wem/bandit_either","AY5QUURIR136D","either","8","","","","","","","0","0","1","0.1558635017","","0.6","0.4","0.8","0.2","","","","","0.3586553183","0.309751149","0.1558635017","0.03580757471","","","","","","","75","K","2","","","100","main_expt"
"189","","bandit","179","572948","0.0-140.0-0.0","34951663","wem/bandit_either","AY5QUURIR136D","either","8","","","","","","","0","0","1","","0.04899620691","0.6","0.4","0.8","0.2","0.2951503345","0.2993195944","0.1389665978","0.04899620691","","","","","","","","","","","76","L","3","","","101","main_expt"
"230","","bandit","180","574684","0.0-141.0-0.0","34951663","wem/bandit_either","AY5QUURIR136D","either","8","","","","","","","0","0","1","","0.08055650644","0.6","0.4","0.8","0.2","0.2998391809","0.3551890872","0.1377203561","0.08055650644","","","","","","","","","","","76","L","3","","","102","main_expt"
"168","","bandit","181","576359","0.0-142.0-0.0","34951663","wem/bandit_either","AY5QUURIR136D","either","8","","","","","","","0","1","0","","0.1040447627","0.6","0.4","0.8","0.2","0.2791823827","0.3148404956","0.1285548106","0.1040447627","","","","","","","","","","","76","L","3","","","103","main_expt"
"101","","bandit","182","577967","0.0-143.0-0.0","34951663","wem/bandit_either","AY5QUURIR136D","either","8","","","","","","","0","0","1","","0.1143547335","0.6","0.4","0.8","0.2","0.3382769334","0.3286912191","0.1555523735","0.1143547335","","","","","","","","","","","76","L","3","","","104","main_expt"
"219","","bandit","183","579692","0.0-144.0-0.0","34951663","wem/bandit_either","AY5QUURIR136D","either","8","","","","","","","1","0","0","0.1487676438","","0.6","0.4","0.8","0.2","","","","","0.3339697125","0.298340497","0.1775592141","0.1487676438","","","","","","","76","L","3","","","105","main_expt"
"49","","bandit","184","581249","0.0-145.0-0.0","34951663","wem/bandit_either","AY5QUURIR136D","either","8","","","","","","","0","1","0","","0.152088545","0.6","0.4","0.8","0.2","0.3124129253","0.3504464386","0.2263451353","0.152088545","","","","","","","","","","","76","L","3","","","106","main_expt"
"70","","bandit","185","582826","0.0-146.0-0.0","34951663","wem/bandit_either","AY5QUURIR136D","either","8","","","","","","","0","0","1","","0.2406734145","0.6","0.4","0.8","0.2","0.3400683723","0.3510410077","0.1679769802","0.2406734145","","","","","","","","","","","76","L","3","","","107","main_expt"
"164","","bandit","186","584496","0.0-147.0-0.0","34951663","wem/bandit_either","AY5QUURIR136D","either","8","","","","","","","0","0","1","","0.3048040024","0.6","0.4","0.8","0.2","0.3557340834","0.3282766846","0.1999870147","0.3048040024","","","","","","","","","","","76","L","3","","","108","main_expt"
"220","","bandit","187","586222","0.0-148.0-0.0","34951663","wem/bandit_either","AY5QUURIR136D","either","8","","","","","","","0","0","1","","0.3418503096","0.6","0.4","0.8","0.2","0.3846418901","0.3561186451","0.208992856","0.3418503096","","","","","","","","","","","76","L","3","","","109","main_expt"
"76","","bandit","188","587805","0.0-149.0-0.0","34951663","wem/bandit_either","AY5QUURIR136D","either","8","","","","","","","0","0","1","0.1716040471","","0.6","0.4","0.8","0.2","","","","","0.4057962062","0.3576445865","0.1716040471","0.3198501315","","","","","","","75","K","2","","","110","main_expt"
"237","","bandit","189","589551","0.0-150.0-0.0","34951663","wem/bandit_either","AY5QUURIR136D","either","8","","","","","","","0","0","1","0.08984071331","","0.6","0.4","0.8","0.2","","","","","0.3692451483","0.3377543854","0.08984071331","0.3681534847","","","","","","","75","K","2","","","111","main_expt"
"211","","bandit","190","591268","0.0-151.0-0.0","34951663","wem/bandit_either","AY5QUURIR136D","either","8","","","","","","","0","0","1","","0.286234052","0.6","0.4","0.8","0.2","0.3577317973","0.286234052","0.1243463141","0.3757830796","","","","","","","","","","","74","J","1","","","112","main_expt"
"267","","bandit","191","593043","0.0-152.0-0.0","34951663","wem/bandit_either","AY5QUURIR136D","either","8","","","","","","","0","0","1","","0.1932674395","0.6","0.4","0.8","0.2","0.3328808086","0.1932674395","0.1433440675","0.3838999828","","","","","","","","","","","74","J","1","","","113","main_expt"
"203","","bandit","192","594752","0.0-153.0-0.0","34951663","wem/bandit_either","AY5QUURIR136D","either","8","","","","","","","0","0","1","0.3416979579","","0.6","0.4","0.8","0.2","","","","","0.3416979579","0.2403040534","0.1510662198","0.4157938717","","","","","","","72","H","0","img/none_selected.jpg","","114","main_expt"
"217","","bandit","193","596476","0.0-154.0-0.0","34951663","wem/bandit_either","AY5QUURIR136D","either","8","","","","","","","0","0","1","0.3377137281","","0.6","0.4","0.8","0.2","","","","","0.3377137281","0.254937398","0.09845245139","0.4055870595","","","","","","","72","H","0","img/none_selected.jpg","","115","main_expt"
"171","","bandit","194","598154","0.0-155.0-0.0","34951663","wem/bandit_either","AY5QUURIR136D","either","8","","","","","","","1","0","0","0.4161015278","","0.6","0.4","0.8","0.2","","","","","0.3039448029","0.2605063941","0.107393795","0.4161015278","","","","","","","76","L","3","","","116","main_expt"
"385","","bandit","195","600046","0.0-156.0-0.0","34951663","wem/bandit_either","AY5QUURIR136D","either","8","","","","","","","0","0","1","","0.414877819","0.6","0.4","0.8","0.2","0.2974336912","0.2161328783","0.07879800556","0.414877819","","","","","","","","","","","76","L","3","","","117","main_expt"
"813","","bandit","196","602365","0.0-157.0-0.0","34951663","wem/bandit_either","AY5QUURIR136D","either","8","","","","","","","0","0","1","","0.3968259953","0.6","0.4","0.8","0.2","0.2651867246","0.1931197841","0.08383735875","0.3968259953","","","","","","","","","","","76","L","3","","","118","main_expt"
"402","","bandit","197","604274","0.0-158.0-0.0","34951663","wem/bandit_either","AY5QUURIR136D","either","8","","","","","","","0","1","0","","0.4198241006","0.6","0.4","0.8","0.2","0.3131666206","0.1638183597","0.1392474383","0.4198241006","","","","","","","","","","","76","L","3","","","119","main_expt"
"10","","bandit","198","605791","0.0-159.0-0.0","34951663","wem/bandit_either","AY5QUURIR136D","either","8","","","","","","","0","0","1","","0.4286088018","0.6","0.4","0.8","0.2","0.358829095","0.1893282748","0.1649404926","0.4286088018","","","","","","","","","","","76","L","3","","","120","main_expt"
"170","","bandit","199","607468","0.0-160.0-0.0","34951663","wem/bandit_either","AY5QUURIR136D","either","8","","","","","","","0","0","1","0.4253829576","","0.6","0.4","0.8","0.2","","","","","0.3189860171","0.2290368179","0.1764152442","0.4253829576","","","","","","","76","L","3","","","121","main_expt"
"50","","bandit","200","609025","0.0-161.0-0.0","34951663","wem/bandit_either","AY5QUURIR136D","either","8","","","","","","","0","0","1","0.4235175979","","0.6","0.4","0.8","0.2","","","","","0.3011672979","0.2445441383","0.2092397698","0.4235175979","","","","","","","76","L","3","","","122","main_expt"
"233","","bandit","201","610768","0.0-162.0-0.0","34951663","wem/bandit_either","AY5QUURIR136D","either","8","","","","","","","0","0","1","","0.1884058447","0.6","0.4","0.8","0.2","0.3037948063","0.2091075756","0.1884058447","0.4182090072","","","","","","","","","","","75","K","2","","","123","main_expt"
"199","","bandit","202","612477","0.0-163.0-0.0","34951663","wem/bandit_either","AY5QUURIR136D","either","8","","","","","","","0","0","1","0.1876417206","","0.6","0.4","0.8","0.2","","","","","0.2446200253","0.2216111921","0.1876417206","0.4356016004","","","","","","","75","K","2","","","124","main_expt"
"97","","bandit","203","614082","0.0-164.0-0.0","34951663","wem/bandit_either","AY5QUURIR136D","either","8","","","","","","","0","0","1","","0.1622020501","0.6","0.4","0.8","0.2","0.2464628806","0.1622020501","0.1890564589","0.403953628","","","","","","","","","","","74","J","1","","","125","main_expt"
"142","","bandit","204","615731","0.0-165.0-0.0","34951663","wem/bandit_either","AY5QUURIR136D","either","8","","","","","","","1","0","0","0.173533554","","0.6","0.4","0.8","0.2","","","","","0.281169445","0.173533554","0.1659850756","0.4020675328","","","","","","","74","J","1","","","126","main_expt"
"151","","bandit","205","617389","0.0-166.0-0.0","34951663","wem/bandit_either","AY5QUURIR136D","either","8","","","","","","","0","1","0","","0.189829559","0.6","0.4","0.8","0.2","0.290080064","0.189829559","0.2006343121","0.338443572","","","","","","","","","","","74","J","1","","","127","main_expt"
"640","","bandit","206","619537","0.0-167.0-0.0","34951663","wem/bandit_either","AY5QUURIR136D","either","8","","","","","","","0","0","1","0.1764696366","","0.6","0.4","0.8","0.2","","","","","0.3280989756","0.1764696366","0.2637444583","0.323123489","","","","","","","74","J","1","","","128","main_expt"
"1642","","bandit","207","622685","0.0-168.0-0.0","34951663","wem/bandit_either","AY5QUURIR136D","either","8","","","","","","","0","0","1","","0.172709194","0.6","0.4","0.8","0.2","0.3052704822","0.172709194","0.2783394686","0.3615310162","","","","","","","","","","","74","J","1","","","129","main_expt"
"209","","bandit","208","624401","0.0-169.0-0.0","34951663","wem/bandit_either","AY5QUURIR136D","either","8","","","","","","","0","0","1","","0.1407460215","0.6","0.4","0.8","0.2","0.314718742","0.1407460215","0.2674474002","0.3667448715","","","","","","","","","","","74","J","1","","","130","main_expt"
"332","","bandit","209","626242","0.0-170.0-0.0","34951663","wem/bandit_either","AY5QUURIR136D","either","8","","","","","","","0","0","1","0.2492347367","","0.6","0.4","0.8","0.2","","","","","0.2492347367","0.143826562","0.2122920843","0.341745941","","","","","","","72","H","0","img/none_selected.jpg","","131","main_expt"
"171","","bandit","210","627920","0.0-171.0-0.0","34951663","wem/bandit_either","AY5QUURIR136D","either","8","","","","","","","1","0","0","0.2495736985","","0.6","0.4","0.8","0.2","","","","","0.2495736985","0.1862992663","0.1969346152","0.2615325727","","","","","","","72","H","0","img/none_selected.jpg","","132","main_expt"
"106","","bandit","211","629533","0.0-172.0-0.0","34951663","wem/bandit_either","AY5QUURIR136D","either","8","","","","","","","0","0","1","0.2487120015","","0.6","0.4","0.8","0.2","","","","","0.2487120015","0.185648564","0.1390835973","0.27905624","","","","","","","72","H","0","img/none_selected.jpg","","133","main_expt"
"205","","bandit","212","631250","0.0-173.0-0.0","34951663","wem/bandit_either","AY5QUURIR136D","either","8","","","","","","","0","1","0","","0.3239420422","0.6","0.4","0.8","0.2","0.3239420422","0.2002276213","0.1437640715","0.2751163123","","","","","","","","","","","72","H","0","img/none_selected.jpg","","134","main_expt"
"136","","bandit","213","632894","0.0-174.0-0.0","34951663","wem/bandit_either","AY5QUURIR136D","either","8","","","","","","","0","0","1","","0.3903525049","0.6","0.4","0.8","0.2","0.3903525049","0.2474552851","0.1175999949","0.2586507773","","","","","","","","","","","72","H","0","img/none_selected.jpg","","135","main_expt"
"19","","bandit","214","634420","0.0-175.0-0.0","34951663","wem/bandit_either","AY5QUURIR136D","either","8","","","","","","","0","0","1","","0.3703049055","0.6","0.4","0.8","0.2","0.3703049055","0.2454982057","0.1108499649","0.2385277364","","","","","","","","","","","72","H","0","img/none_selected.jpg","","136","main_expt"
"215","","bandit","215","636141","0.0-176.0-0.0","34951663","wem/bandit_either","AY5QUURIR136D","either","8","","","","","","","0","1","0","","0.3657944308","0.6","0.4","0.8","0.2","0.3657944308","0.2708690816","0.1208727618","0.1935782534","","","","","","","","","","","72","H","0","img/none_selected.jpg","","137","main_expt"
"166","","bandit","216","637815","0.0-177.0-0.0","34951663","wem/bandit_either","AY5QUURIR136D","either","8","","","","","","","0","0","1","0.3452946514","","0.6","0.4","0.8","0.2","","","","","0.3452946514","0.2219039101","0.1098805161","0.14087624","","","","","","","72","H","0","img/none_selected.jpg","","138","main_expt"
"239","","bandit","217","639563","0.0-178.0-0.0","34951663","wem/bandit_either","AY5QUURIR136D","either","8","","","","","","","0","0","1","0.3225052804","","0.6","0.4","0.8","0.2","","","","","0.3225052804","0.2485571535","0.1359731218","0.1340930794","","","","","","","72","H","0","img/none_selected.jpg","","139","main_expt"
"171","","bandit","218","641241","0.0-179.0-0.0","34951663","wem/bandit_either","AY5QUURIR136D","either","8","","","","","","","0","0","1","","0.2997250911","0.6","0.4","0.8","0.2","0.2997250911","0.2605640439","0.1419248406","0.1170750994","","","","","","","","","","","72","H","0","img/none_selected.jpg","","140","main_expt"
"161","","bandit","219","642911","0.0-180.0-0.0","34951663","wem/bandit_either","AY5QUURIR136D","either","8","","","","","","","0","0","1","","0.311933389","0.6","0.4","0.8","0.2","0.311933389","0.2260680923","0.1269577117","0.1316830279","","","","","","","","","","","72","H","0","img/none_selected.jpg","","141","main_expt"
"8","","bandit","220","644427","0.0-181.0-0.0","34951663","wem/bandit_either","AY5QUURIR136D","either","8","","","","","","","0","1","0","","0.2354846983","0.6","0.4","0.8","0.2","0.3442568425","0.2354846983","0.1073819056","0.09490366034","","","","","","","","","","","74","J","1","","","142","main_expt"
"219","","bandit","221","646154","0.0-182.0-0.0","34951663","wem/bandit_either","AY5QUURIR136D","either","8","","","","","","","0","0","1","0.2089358464","","0.6","0.4","0.8","0.2","","","","","0.3117203045","0.2089358464","0.1152767294","0.1246024154","","","","","","","74","J","1","","","143","main_expt"
"109","","bandit","222","647769","0.0-183.0-0.0","34951663","wem/bandit_either","AY5QUURIR136D","either","8","","","","","","","0","0","1","0.1844607625","","0.6","0.4","0.8","0.2","","","","","0.3080771123","0.1844607625","0.1317444946","0.1179874238","","","","","","","74","J","1","","","144","main_expt"
"74","","bandit","223","649351","0.0-184.0-0.0","34951663","wem/bandit_either","AY5QUURIR136D","either","8","","","","","","","0","1","0","","0.1940384654","0.6","0.4","0.8","0.2","0.3146876691","0.1940384654","0.1058600218","0.1211842963","","","","","","","","","","","74","J","1","","","145","main_expt"
"169","","bandit","224","651028","0.0-185.0-0.0","34951663","wem/bandit_either","AY5QUURIR136D","either","8","","","","","","","0","0","1","","0.2532022814","0.6","0.4","0.8","0.2","0.3526806189","0.2532022814","0.1862633901","0.06212451067","","","","","","","","","","","74","J","1","","","146","main_expt"
"183","","bandit","225","652722","0.0-186.0-0.0","34951663","wem/bandit_either","AY5QUURIR136D","either","8","","","","","","","0","1","0","","0.272856749","0.6","0.4","0.8","0.2","0.3859334927","0.272856749","0.1944793183","0.05826033827","","","","","","","","","","","74","J","1","","","147","main_expt"
"268","","bandit","226","654497","0.0-187.0-0.0","34951663","wem/bandit_either","AY5QUURIR136D","either","8","","","","","","","1","0","0","0.2441255329","","0.6","0.4","0.8","0.2","","","","","0.4089873985","0.2441255329","0.1572605535","0.04847575149","","","","","","","74","J","1","","","148","main_expt"
"15","","bandit","227","656019","0.0-188.0-0.0","34951663","wem/bandit_either","AY5QUURIR136D","either","8","","","","","","","0","0","1","","0.2304797635","0.6","0.4","0.8","0.2","0.3317076441","0.2304797635","0.1632070519","0.07397138717","","","","","","","","","","","74","J","1","","","149","main_expt"
"266","","bandit","228","657792","0.0-189.0-0.0","34951663","wem/bandit_either","AY5QUURIR136D","either","8","","","","","","","0","0","1","","0.2645424191","0.6","0.4","0.8","0.2","0.2514439341","0.2645424191","0.2162169298","0.1178437277","","","","","","","","","","","74","J","1","","","150","main_expt"
"256","","bandit","229","659554","0.0-190.0-0.0","34951663","wem/bandit_either","AY5QUURIR136D","either","8","","","","","","","0","0","1","0.2919476008","","0.6","0.4","0.8","0.2","","","","","0.2209696772","0.2919476008","0.2806681102","0.1116740648","","","","","","","74","J","1","","","151","main_expt"
"209","","bandit","230","661271","0.0-191.0-0.0","34951663","wem/bandit_either","AY5QUURIR136D","either","8","","","","","","","0","0","1","","0.3004198658","0.6","0.4","0.8","0.2","0.2004300668","0.3004198658","0.25223767","0.09681320826","","","","","","","","","","","74","J","1","","","152","main_expt"
"3","","bandit","231","662780","0.0-192.0-0.0","34951663","wem/bandit_either","AY5QUURIR136D","either","8","","","","","","","0","0","1","0.2259503681","","0.6","0.4","0.8","0.2","","","","","0.1803159607","0.2910243242","0.2259503681","0.1162344283","","","","","","","75","K","2","","","153","main_expt"
"147","","bandit","232","664437","0.0-193.0-0.0","34951663","wem/bandit_either","AY5QUURIR136D","either","8","","","","","","","0","1","0","","0.2520515582","0.6","0.4","0.8","0.2","0.1793353988","0.2858680692","0.2520515582","0.1441765144","","","","","","","","","","","75","K","2","","","154","main_expt"
"34","","bandit","233","665980","0.0-194.0-0.0","34951663","wem/bandit_either","AY5QUURIR136D","either","8","","","","","","","0","0","1","0.246895917","","0.6","0.4","0.8","0.2","","","","","0.175125938","0.276906037","0.246895917","0.1506434262","","","","","","","75","K","2","","","155","main_expt"
"50","","bandit","234","667538","0.0-195.0-0.0","34951663","wem/bandit_either","AY5QUURIR136D","either","8","","","","","","","1","0","0","0.2067462234","","0.6","0.4","0.8","0.2","","","","","0.19004546","0.3087514371","0.2067462234","0.1691825384","","","","","","","75","K","2","","","156","main_expt"
"735","","bandit","235","669780","0.0-196.0-0.0","34951663","wem/bandit_either","AY5QUURIR136D","either","8","","","","","","","0","0","1","0.1736677602","","0.6","0.4","0.8","0.2","","","","","0.1538528063","0.3400763937","0.1736677602","0.1465267651","","","","","","","75","K","2","","","157","main_expt"
"208","","bandit","236","671496","0.0-197.0-0.0","34951663","wem/bandit_either","AY5QUURIR136D","either","8","","","","","","","0","0","1","0.2437422656","","0.6","0.4","0.8","0.2","","","","","0.1624419901","0.3388441277","0.2437422656","0.1517260174","","","","","","","75","K","2","","","158","main_expt"
"185","","bandit","237","673188","0.0-198.0-0.0","34951663","wem/bandit_either","AY5QUURIR136D","either","8","","","","","","","0","0","1","0.2627628197","","0.6","0.4","0.8","0.2","","","","","0.1749682205","0.3496437485","0.2627628197","0.143579764","","","","","","","75","K","2","","","159","main_expt"
"197","","bandit","238","674893","0.0-199.0-0.0","34951663","wem/bandit_either","AY5QUURIR136D","either","8","","","","","","","0","0","1","0.2532756584","","0.6","0.4","0.8","0.2","","","","","0.2227833177","0.3347491532","0.2532756584","0.1701049762","","","","","","","75","K","2","","","160","main_expt"
"122","","bandit","239","676523","0.0-200.0-0.0","34951663","wem/bandit_either","AY5QUURIR136D","either","8","","","","","","","0","0","1","","0.1596038406","0.6","0.4","0.8","0.2","0.1616195486","0.3036625801","0.2846030245","0.1596038406","","","","","","","","","","","76","L","3","","","161","main_expt"
"84","","bandit","240","678116","0.0-201.0-0.0","34951663","wem/bandit_either","AY5QUURIR136D","either","8","","","","","","","0","0","1","","0.1186271452","0.6","0.4","0.8","0.2","0.1440802068","0.2735804545","0.2480450928","0.1186271452","","","","","","","","","","","76","L","3","","","162","main_expt"
"38","","bandit","241","679662","0.0-202.0-0.0","34951663","wem/bandit_either","AY5QUURIR136D","either","8","","","","","","","0","0","1","0.1349250059","","0.6","0.4","0.8","0.2","","","","","0.1349250059","0.2219233964","0.3217860246","0.1460830151","","","","","","","72","H","0","img/none_selected.jpg","","163","main_expt"
"199","","bandit","242","681371","0.0-203.0-0.0","34951663","wem/bandit_either","AY5QUURIR136D","either","8","","","","","","","0","0","1","0.1482528248","","0.6","0.4","0.8","0.2","","","","","0.1482528248","0.2489701673","0.3528623486","0.1924179555","","","","","","","72","H","0","img/none_selected.jpg","","164","main_expt"
"146","","bandit","243","683025","0.0-204.0-0.0","34951663","wem/bandit_either","AY5QUURIR136D","either","8","","","","","","","0","0","1","","0.2424219606","0.6","0.4","0.8","0.2","0.1444116863","0.2424219606","0.3113737792","0.1909643941","","","","","","","","","","","74","J","1","","","165","main_expt"
"26","","bandit","244","684560","0.0-205.0-0.0","34951663","wem/bandit_either","AY5QUURIR136D","either","8","","","","","","","0","1","0","","0.1899742571","0.6","0.4","0.8","0.2","0.1621449425","0.1899742571","0.2820045276","0.1917506842","","","","","","","","","","","74","J","1","","","166","main_expt"
"28","","bandit","245","686097","0.0-206.0-0.0","34951663","wem/bandit_either","AY5QUURIR136D","either","8","","","","","","","1","0","0","0.2298880826","","0.6","0.4","0.8","0.2","","","","","0.1695256229","0.2298880826","0.2539690707","0.2238056512","","","","","","","74","J","1","","","167","main_expt"
"240","","bandit","246","687845","0.0-207.0-0.0","34951663","wem/bandit_either","AY5QUURIR136D","either","8","","","","","","","0","0","1","","0.241220494","0.6","0.4","0.8","0.2","0.1712445676","0.241220494","0.2177565821","0.2132240521","","","","","","","","","","","74","J","1","","","168","main_expt"
"164","","bandit","247","689516","0.0-208.0-0.0","34951663","wem/bandit_either","AY5QUURIR136D","either","8","","","","","","","0","1","0","","0.2113351254","0.6","0.4","0.8","0.2","0.191079104","0.2113351254","0.183214586","0.1363713625","","","","","","","","","","","74","J","1","","","169","main_expt"
"1532","","bandit","248","692556","0.0-209.0-0.0","34951663","wem/bandit_either","AY5QUURIR136D","either","8","","","","","","","0","0","1","","0.2224744884","0.6","0.4","0.8","0.2","0.2227666825","0.2224744884","0.1757282231","0.2007690262","","","","","","","","","","","74","J","1","","","170","main_expt"
"182","","bandit","249","694245","0.0-210.0-0.0","34951663","wem/bandit_either","AY5QUURIR136D","either","8","","","","","","","0","0","1","","0.262177911","0.6","0.4","0.8","0.2","0.2719914804","0.262177911","0.1679331046","0.1238998316","","","","","","","","","","","74","J","1","","","171","main_expt"
"249","","bandit","250","696002","0.0-211.0-0.0","34951663","wem/bandit_either","AY5QUURIR136D","either","8","","","","","","","0","0","1","","0.2822992514","0.6","0.4","0.8","0.2","0.2330128459","0.2822992514","0.14560319","0.09746419185","","","","","","","","","","","74","J","1","","","172","main_expt"
"186","","bandit","251","697695","0.0-212.0-0.0","34951663","wem/bandit_either","AY5QUURIR136D","either","8","","","","","","","0","0","1","0.1341549344","","0.6","0.4","0.8","0.2","","","","","0.2840251313","0.2545762091","0.1341549344","0.1018164217","","","","","","","75","K","2","","","173","main_expt"
"214","","bandit","252","699421","0.0-213.0-0.0","34951663","wem/bandit_either","AY5QUURIR136D","either","8","","","","","","","0","0","1","","0.1471305278","0.6","0.4","0.8","0.2","0.2739042306","0.2838184637","0.1471305278","0.1401689619","","","","","","","","","","","75","K","2","","","174","main_expt"
"101","","bandit","253","701029","0.0-214.0-0.0","34951663","wem/bandit_either","AY5QUURIR136D","either","8","","","","","","","0","0","1","0.173963405","","0.6","0.4","0.8","0.2","","","","","0.3444735506","0.3002790513","0.173963405","0.1697524679","","","","","","","75","K","2","","","175","main_expt"
"312","","bandit","254","702850","0.0-215.0-0.0","34951663","wem/bandit_either","AY5QUURIR136D","either","8","","","","","","","0","0","1","0.3223017316","","0.6","0.4","0.8","0.2","","","","","0.3223017316","0.3771690292","0.1821857965","0.1896898672","","","","","","","72","H","0","img/none_selected.jpg","","176","main_expt"
"188","","bandit","255","704546","0.0-216.0-0.0","34951663","wem/bandit_either","AY5QUURIR136D","either","8","","","","","","","0","0","1","0.2964924158","","0.6","0.4","0.8","0.2","","","","","0.2964924158","0.4047809956","0.1444884472","0.2441254625","","","","","","","72","H","0","img/none_selected.jpg","","177","main_expt"
"252","","bandit","256","706308","0.0-217.0-0.0","34951663","wem/bandit_either","AY5QUURIR136D","either","8","","","","","","","0","1","0","","0.2780576925","0.6","0.4","0.8","0.2","0.2780576925","0.4344960837","0.1207783293","0.2427722412","","","","","","","","","","","72","H","0","img/none_selected.jpg","","178","main_expt"
"224","","bandit","257","708041","0.0-218.0-0.0","34951663","wem/bandit_either","AY5QUURIR136D","either","8","","","","","","","0","0","1","0.2859751729","","0.6","0.4","0.8","0.2","","","","","0.2859751729","0.4287912686","0.111585665","0.2284650367","","","","","","","72","H","0","img/none_selected.jpg","","179","main_expt"
"43","","bandit","258","709594","0.0-219.0-0.0","34951663","wem/bandit_either","AY5QUURIR136D","either","8","","","","","","","0","1","0","","0.283533164","0.6","0.4","0.8","0.2","0.283533164","0.4294180747","0.06891525065","0.2694081366","","","","","","","","","","","72","H","0","img/none_selected.jpg","","180","main_expt"
"222","","bandit","259","711325","0.0-220.0-0.0","34951663","wem/bandit_either","AY5QUURIR136D","either","8","","","","","","","0","0","1","0.2430023428","","0.6","0.4","0.8","0.2","","","","","0.2430023428","0.3887332701","0.07407739619","0.2471628034","","","","","","","72","H","0","img/none_selected.jpg","","181","main_expt"
"160","","bandit","260","712992","0.0-221.0-0.0","34951663","wem/bandit_either","AY5QUURIR136D","either","8","","","","","","","0","0","1","","0.223254837","0.6","0.4","0.8","0.2","0.223254837","0.3910635387","0.07501704201","0.275372354","","","","","","","","","","","72","H","0","img/none_selected.jpg","","182","main_expt"
"155","","bandit","261","714656","0.0-222.0-0.0","34951663","wem/bandit_either","AY5QUURIR136D","either","8","","","","","","","0","0","1","0.2274286797","","0.6","0.4","0.8","0.2","","","","","0.2274286797","0.3957792538","0.09354103142","0.2378950907","","","","","","","72","H","0","img/none_selected.jpg","","183","main_expt"
"56","","bandit","262","716221","0.0-223.0-0.0","34951663","wem/bandit_either","AY5QUURIR136D","either","8","","","","","","","0","0","1","","0.2485964068","0.6","0.4","0.8","0.2","0.2485964068","0.3777829694","0.06673830493","0.2611999536","","","","","","","","","","","72","H","0","img/none_selected.jpg","","184","main_expt"
"69","","bandit","263","717796","0.0-224.0-0.0","34951663","wem/bandit_either","AY5QUURIR136D","either","8","","","","","","","0","0","1","","0.2799245071","0.6","0.4","0.8","0.2","0.2080173303","0.4130939835","0.08617836821","0.2799245071","","","","","","","","","","","76","L","3","","","185","main_expt"
"68","","bandit","264","719375","0.0-225.0-0.0","34951663","wem/bandit_either","AY5QUURIR136D","either","8","","","","","","","1","0","0","0.2275386122","","0.6","0.4","0.8","0.2","","","","","0.2538883687","0.376930599","0.05054014018","0.2275386122","","","","","","","76","L","3","","","186","main_expt"
"106","","bandit","265","720987","0.0-226.0-0.0","34951663","wem/bandit_either","AY5QUURIR136D","either","8","","","","","","","0","1","0","","0.2558518805","0.6","0.4","0.8","0.2","0.2267652077","0.3934592684","0.1101456656","0.2558518805","","","","","","","","","","","76","L","3","","","187","main_expt"
"77","","bandit","266","722574","0.0-227.0-0.0","34951663","wem/bandit_either","AY5QUURIR136D","either","8","","","","","","","0","0","1","","0.2757393749","0.6","0.4","0.8","0.2","0.2583789709","0.4086060551","0.1076418148","0.2757393749","","","","","","","","","","","76","L","3","","","188","main_expt"
"335","","bandit","267","724415","0.0-228.0-0.0","34951663","wem/bandit_either","AY5QUURIR136D","either","8","","","","","","","0","1","0","","0.3326758055","0.6","0.4","0.8","0.2","0.2329768584","0.447145564","0.1230456027","0.3326758055","","","","","","","","","","","76","L","3","","","189","main_expt"
"112","","bandit","268","726037","0.0-229.0-0.0","34951663","wem/bandit_either","AY5QUURIR136D","either","8","","","","","","","0","0","1","","0.332927569","0.6","0.4","0.8","0.2","0.2002510669","0.386091063","0.1872873117","0.332927569","","","","","","","","","","","76","L","3","","","190","main_expt"
"1196","","bandit","269","728741","0.0-230.0-0.0","34951663","wem/bandit_either","AY5QUURIR136D","either","8","","","","","","","0","0","1","","0.3859199101","0.6","0.4","0.8","0.2","0.2182600554","0.4221145333","0.1413073252","0.3859199101","","","","","","","","","","","76","L","3","","","191","main_expt"
"17","","bandit","270","730267","0.0-231.0-0.0","34951663","wem/bandit_either","AY5QUURIR136D","either","8","","","","","","","0","0","1","","0.392668484","0.6","0.4","0.8","0.2","0.2681613901","0.3913199708","0.1868627967","0.392668484","","","","","","","","","","","76","L","3","","","192","main_expt"
"1148","","bandit","271","732923","0.0-232.0-0.0","34951663","wem/bandit_either","AY5QUURIR136D","either","8","","","","","","","0","0","1","","0.3789843676","0.6","0.4","0.8","0.2","0.3035027483","0.4013624592","0.2312719224","0.3789843676","","","","","","","","","","","76","L","3","","","193","main_expt"
"20","","bandit","272","734451","0.0-233.0-0.0","34951663","wem/bandit_either","AY5QUURIR136D","either","8","","","","","","","0","0","1","","0.3668237699","0.6","0.4","0.8","0.2","0.275531754","0.3668237699","0.2585201677","0.3689216281","","","","","","","","","","","74","J","1","","","194","main_expt"
"218","","bandit","273","736179","0.0-234.0-0.0","34951663","wem/bandit_either","AY5QUURIR136D","either","8","","","","","","","1","0","0","0.3856266791","","0.6","0.4","0.8","0.2","","","","","0.2716401532","0.3856266791","0.2786104129","0.4136905162","","","","","","","74","J","1","","","195","main_expt"
"74","","bandit","274","737762","0.0-235.0-0.0","34951663","wem/bandit_either","AY5QUURIR136D","either","8","","","","","","","0","0","1","0.3702439493","","0.6","0.4","0.8","0.2","","","","","0.2814611543","0.3702439493","0.2407834285","0.4258575101","","","","","","","74","J","1","","","196","main_expt"
"82","","bandit","275","739352","0.0-236.0-0.0","34951663","wem/bandit_either","AY5QUURIR136D","either","8","","","","","","","0","0","1","","0.3665926528","0.6","0.4","0.8","0.2","0.2588010394","0.3665926528","0.2550568011","0.3976178043","","","","","","","","","","","74","J","1","","","197","main_expt"
"1291","","bandit","276","742152","0.0-237.0-0.0","34951663","wem/bandit_either","AY5QUURIR136D","either","8","","","","","","","0","1","0","","0.3432124584","0.6","0.4","0.8","0.2","0.3094610495","0.3432124584","0.3094863904","0.3802378075","","","","","","","","","","","74","J","1","","","198","main_expt"
"389","","bandit","277","744048","0.0-238.0-0.0","34951663","wem/bandit_either","AY5QUURIR136D","either","8","","","","","","","1","0","0","0.4096574544","","0.6","0.4","0.8","0.2","","","","","0.3139278769","0.4096574544","0.3012985694","0.3926800246","","","","","","","74","J","1","","","199","main_expt"
"187","","bandit","278","745743","0.0-239.0-0.0","34951663","wem/bandit_either","AY5QUURIR136D","either","8","","","","","","","0","0","1","","0.3799023259","0.6","0.4","0.8","0.2","0.3459706187","0.3799023259","0.3149132519","0.3814844917","","","","","","","","","","","74","J","1","","","200","main_expt"
"322","","bandit","279","747572","0.0-240.0-0.0","34951663","wem/bandit_either","AY5QUURIR136D","either","8","","","","","","","1","0","0","0.3513783521","","0.6","0.4","0.8","0.2","","","","","0.3038365479","0.3513783521","0.3236307962","0.3831630738","","","","","","","74","J","1","","","201","main_expt"
"184","","bandit","280","749264","0.0-241.0-0.0","34951663","wem/bandit_either","AY5QUURIR136D","either","8","","","","","","","0","0","1","0.3439351057","","0.6","0.4","0.8","0.2","","","","","0.2964599608","0.3439351057","0.3163717903","0.3957430938","","","","","","","74","J","1","","","202","main_expt"
"377","","bandit","281","751149","0.0-242.0-0.0","34951663","wem/bandit_either","AY5QUURIR136D","either","8","","","","","","","0","1","0","","0.2615327891","0.6","0.4","0.8","0.2","0.280336616","0.2615327891","0.3165936227","0.4175506619","","","","","","","","","","","74","J","1","","","203","main_expt"
"124","","bandit","282","752781","0.0-243.0-0.0","34951663","wem/bandit_either","AY5QUURIR136D","either","8","","","","","","","0","1","0","","0.2211517471","0.6","0.4","0.8","0.2","0.262900641","0.2211517471","0.3166231072","0.4356800279","","","","","","","","","","","74","J","1","","","204","main_expt"
"317","","bandit","283","754607","0.0-244.0-0.0","34951663","wem/bandit_either","AY5QUURIR136D","either","8","","","","","","","0","0","1","0.1955747294","","0.6","0.4","0.8","0.2","","","","","0.3403150927","0.1955747294","0.2983153058","0.4342993254","","","","","","","74","J","1","","","205","main_expt"
"71","","bandit","284","756186","0.0-245.0-0.0","34951663","wem/bandit_either","AY5QUURIR136D","either","8","","","","","","","0","0","1","","0.3137251184","0.6","0.4","0.8","0.2","0.3407188883","0.3137251184","0.255573156","0.4515967499","","","","","","","","","","","74","J","1","","","206","main_expt"
"157","","bandit","285","757852","0.0-246.0-0.0","34951663","wem/bandit_either","AY5QUURIR136D","either","8","","","","","","","0","0","1","","0.2982459604","0.6","0.4","0.8","0.2","0.2955601217","0.2982459604","0.2816724171","0.4559700358","","","","","","","","","","","74","J","1","","","207","main_expt"
"195","","bandit","286","759556","0.0-247.0-0.0","34951663","wem/bandit_either","AY5QUURIR136D","either","8","","","","","","","0","0","1","0.2462622089","","0.6","0.4","0.8","0.2","","","","","0.2832193826","0.2359404152","0.2462622089","0.4711787588","","","","","","","75","K","2","","","208","main_expt"
"110","","bandit","287","761174","0.0-248.0-0.0","34951663","wem/bandit_either","AY5QUURIR136D","either","8","","","","","","","0","0","1","0.2608633631","","0.6","0.4","0.8","0.2","","","","","0.25637755","0.2396635106","0.2608633631","0.4859779177","","","","","","","75","K","2","","","209","main_expt"
"204","","bandit","288","762886","0.0-249.0-0.0","34951663","wem/bandit_either","AY5QUURIR136D","either","8","","","","","","","0","0","1","0.2649708152","","0.6","0.4","0.8","0.2","","","","","0.2500912527","0.2320506775","0.2649708152","0.4798195452","","","","","","","75","K","2","","","210","main_expt"
"1367","","bandit","289","765761","0.0-250.0-0.0","34951663","wem/bandit_either","AY5QUURIR136D","either","8","","","","","","","0","0","1","0.2481129288","","0.6","0.4","0.8","0.2","","","","","0.2481129288","0.1894847828","0.2658594566","0.4754072522","","","","","","","72","H","0","img/none_selected.jpg","","211","main_expt"
"262","","bandit","290","767532","0.0-251.0-0.0","34951663","wem/bandit_either","AY5QUURIR136D","either","8","","","","","","","0","0","1","0.3192168596","","0.6","0.4","0.8","0.2","","","","","0.3192168596","0.2330804604","0.2648449814","0.4780703898","","","","","","","72","H","0","img/none_selected.jpg","","212","main_expt"
"77","","bandit","291","769118","0.0-252.0-0.0","34951663","wem/bandit_either","AY5QUURIR136D","either","8","","","","","","","0","0","1","","0.2361953268","0.6","0.4","0.8","0.2","0.2361953268","0.2484053244","0.286492297","0.4883488692","","","","","","","","","","","72","H","0","img/none_selected.jpg","","213","main_expt"
"200","","bandit","292","770826","0.0-253.0-0.0","34951663","wem/bandit_either","AY5QUURIR136D","either","8","","","","","","","0","1","0","","0.4872562331","0.6","0.4","0.8","0.2","0.2308921763","0.2182548364","0.2540339129","0.4872562331","","","","","","","","","","","76","L","3","","","214","main_expt"
"70","","bandit","293","772404","0.0-254.0-0.0","34951663","wem/bandit_either","AY5QUURIR136D","either","8","","","","","","","0","0","1","","0.4749609167","0.6","0.4","0.8","0.2","0.2161033537","0.1824073789","0.254651127","0.4749609167","","","","","","","","","","","76","L","3","","","215","main_expt"
"161","","bandit","294","774074","0.0-255.0-0.0","34951663","wem/bandit_either","AY5QUURIR136D","either","8","","","","","","","0","0","1","0.4798413464","","0.6","0.4","0.8","0.2","","","","","0.1896756427","0.1923730387","0.3140517816","0.4798413464","","","","","","","76","L","3","","","216","main_expt"
"107","","bandit","295","775690","0.0-256.0-0.0","34951663","wem/bandit_either","AY5QUURIR136D","either","8","","","","","","","0","0","1","0.4865144435","","0.6","0.4","0.8","0.2","","","","","0.1724286307","0.2266612446","0.3338676317","0.4865144435","","","","","","","76","L","3","","","217","main_expt"
"277","","bandit","296","777476","0.0-257.0-0.0","34951663","wem/bandit_either","AY5QUURIR136D","either","8","","","","","","","0","1","0","","0.4789145001","0.6","0.4","0.8","0.2","0.161168334","0.1702705737","0.3397001125","0.4789145001","","","","","","","","","","","76","L","3","","","218","main_expt"
"108","","bandit","297","779092","0.0-258.0-0.0","34951663","wem/bandit_either","AY5QUURIR136D","either","8","","","","","","","0","0","1","","0.4834748692","0.6","0.4","0.8","0.2","0.2021763003","0.1159766116","0.2982528089","0.4834748692","","","","","","","","","","","76","L","3","","","219","main_expt"
"157","","bandit","298","780759","0.0-259.0-0.0","34951663","wem/bandit_either","AY5QUURIR136D","either","8","","","","","","","0","0","1","","0.4722371777","0.6","0.4","0.8","0.2","0.2142164272","0.09529473055","0.2770934022","0.4722371777","","","","","","","","","","","76","L","3","","","220","main_expt"
"1","","bandit","299","782270","0.0-260.0-0.0","34951663","wem/bandit_either","AY5QUURIR136D","either","8","","","","","","","0","0","1","0.2696770889","","0.6","0.4","0.8","0.2","","","","","0.189068297","0.09060922323","0.2696770889","0.4654689219","","","","","","","75","K","2","","","221","main_expt"
"49","","bandit","300","783828","0.0-261.0-0.0","34951663","wem/bandit_either","AY5QUURIR136D","either","8","","","","","","","0","0","1","","0.3103502417","0.6","0.4","0.8","0.2","0.2120997892","0.1250772464","0.3103502417","0.4533789701","","","","","","","","","","","75","K","2","","","222","main_expt"
"768","","bandit","301","786105","0.0-262.0-0.0","34951663","wem/bandit_either","AY5QUURIR136D","either","8","","","","","","","0","0","1","","0.1177235221","0.6","0.4","0.8","0.2","0.1937664477","0.1177235221","0.3477728299","0.4473019993","","","","","","","","","","","74","J","1","","","223","main_expt"
"121","","bandit","302","787734","0.0-263.0-0.0","34951663","wem/bandit_either","AY5QUURIR136D","either","8","","","","","","","0","0","1","0.1589673504","","0.6","0.4","0.8","0.2","","","","","0.2195846313","0.1589673504","0.3230244909","0.4651086175","","","","","","","74","J","1","","","224","main_expt"
"46","","bandit","303","789289","0.0-264.0-0.0","34951663","wem/bandit_either","AY5QUURIR136D","either","8","","","","","","","0","0","1","0.1582937281","","0.6","0.4","0.8","0.2","","","","","0.1973587738","0.1582937281","0.3641913847","0.4704934375","","","","","","","74","J","1","","","225","main_expt"
"139","","bandit","304","790936","0.0-265.0-0.0","34951663","wem/bandit_either","AY5QUURIR136D","either","8","","","","","","","0","0","1","","0.2029059012","0.6","0.4","0.8","0.2","0.2029059012","0.1585786296","0.3211822138","0.4545632724","","","","","","","","","","","72","H","0","img/none_selected.jpg","","226","main_expt"
"142","","bandit","305","792585","0.0-266.0-0.0","34951663","wem/bandit_either","AY5QUURIR136D","either","8","","","","","","","1","0","0","0.1677618241","","0.6","0.4","0.8","0.2","","","","","0.1677618241","0.1614007709","0.3318596792","0.4313330006","","","","","","","72","H","0","img/none_selected.jpg","","227","main_expt"
"193","","bandit","306","794286","0.0-267.0-0.0","34951663","wem/bandit_either","AY5QUURIR136D","either","8","","","","","","","0","0","1","","0.2079318551","0.6","0.4","0.8","0.2","0.2079318551","0.1160982884","0.3715738924","0.4253897179","","","","","","","","","","","72","H","0","img/none_selected.jpg","","228","main_expt"
"233","","bandit","307","796028","0.0-268.0-0.0","34951663","wem/bandit_either","AY5QUURIR136D","either","8","","","","","","","0","0","1","0.1860779256","","0.6","0.4","0.8","0.2","","","","","0.1860779256","0.1327168588","0.3571583743","0.4416009531","","","","","","","72","H","0","img/none_selected.jpg","","229","main_expt"
"73","","bandit","308","797610","0.0-269.0-0.0","34951663","wem/bandit_either","AY5QUURIR136D","either","8","","","","","","","0","0","1","","0.1294985144","0.6","0.4","0.8","0.2","0.1294985144","0.1751239199","0.3455313741","0.4612445757","","","","","","","","","","","72","H","0","img/none_selected.jpg","","230","main_expt"
"119","","bandit","309","799239","0.0-270.0-0.0","34951663","wem/bandit_either","AY5QUURIR136D","either","8","","","","","","","0","0","1","0.1424139305","","0.6","0.4","0.8","0.2","","","","","0.1424139305","0.2080149414","0.3114256563","0.4455927364","","","","","","","72","H","0","img/none_selected.jpg","","231","main_expt"
"60","","bandit","310","800808","0.0-271.0-0.0","34951663","wem/bandit_either","AY5QUURIR136D","either","8","","","","","","","0","1","0","","0.4449483857","0.6","0.4","0.8","0.2","0.1777617008","0.2305008548","0.3127001645","0.4449483857","","","","","","","","","","","76","L","3","","","232","main_expt"
"137","","bandit","311","802454","0.0-272.0-0.0","34951663","wem/bandit_either","AY5QUURIR136D","either","8","","","","","","","0","0","1","","0.4570404202","0.6","0.4","0.8","0.2","0.1408291819","0.2331895239","0.2953609795","0.4570404202","","","","","","","","","","","76","L","3","","","233","main_expt"
"223","","bandit","312","804187","0.0-273.0-0.0","34951663","wem/bandit_either","AY5QUURIR136D","either","8","","","","","","","0","0","1","","0.4785018613","0.6","0.4","0.8","0.2","0.09563300426","0.2007149185","0.2743769666","0.4785018613","","","","","","","","","","","76","L","3","","","234","main_expt"
"42","","bandit","313","805736","0.0-274.0-0.0","34951663","wem/bandit_either","AY5QUURIR136D","either","8","","","","","","","0","0","1","","0.4708517218","0.6","0.4","0.8","0.2","0.06508254785","0.1428876463","0.2842570603","0.4708517218","","","","","","","","","","","76","L","3","","","235","main_expt"
"167","","bandit","314","807412","0.0-275.0-0.0","34951663","wem/bandit_either","AY5QUURIR136D","either","8","","","","","","","0","0","1","0.1327756685","","0.6","0.4","0.8","0.2","","","","","0.05272484418","0.1327756685","0.3536106974","0.4721911582","","","","","","","74","J","1","","","236","main_expt"
"118","","bandit","315","809039","0.0-276.0-0.0","34951663","wem/bandit_either","AY5QUURIR136D","either","8","","","","","","","0","0","1","0.3777879982","","0.6","0.4","0.8","0.2","","","","","0.05000735717","0.1969646424","0.3777879982","0.4567984566","","","","","","","75","K","2","","","237","main_expt"
"5","","bandit","316","810552","0.0-277.0-0.0","34951663","wem/bandit_either","AY5QUURIR136D","either","8","","","","","","","1","0","0","0.03409798278","","0.6","0.4","0.8","0.2","","","","","0.03409798278","0.2040955009","0.3819628943","0.4601910044","","","","","","","72","H","0","img/none_selected.jpg","","238","main_expt"
"110","","bandit","317","812170","0.0-278.0-0.0","34951663","wem/bandit_either","AY5QUURIR136D","either","8","","","","","","","0","0","1","","0.03555143528","0.6","0.4","0.8","0.2","0.03555143528","0.1885012088","0.3590612953","0.4663275819","","","","","","","","","","","72","H","0","img/none_selected.jpg","","239","main_expt"
"317","","bandit","318","813996","0.0-279.0-0.0","34951663","wem/bandit_either","AY5QUURIR136D","either","8","","","","","","","1","0","0","0.06633834621","","0.6","0.4","0.8","0.2","","","","","0.06633834621","0.1779850251","0.3943681209","0.4781926851","","","","","","","72","H","0","img/none_selected.jpg","","240","main_expt"
"272","","bandit","319","815776","0.0-280.0-0.0","34951663","wem/bandit_either","AY5QUURIR136D","either","8","","","","","","","0","0","1","0.0332650027","","0.6","0.4","0.8","0.2","","","","","0.0332650027","0.2132761508","0.4178476804","0.4813407325","","","","","","","72","H","0","img/none_selected.jpg","","241","main_expt"
"155","","bandit","320","817440","0.0-281.0-0.0","34951663","wem/bandit_either","AY5QUURIR136D","either","8","","","","","","","0","0","1","0.03674005559","","0.6","0.4","0.8","0.2","","","","","0.03674005559","0.2181708985","0.4083523659","0.4758201438","","","","","","","72","H","0","img/none_selected.jpg","","242","main_expt"
"75","","bandit","321","819026","0.0-282.0-0.0","34951663","wem/bandit_either","AY5QUURIR136D","either","8","","","","","","","1","0","0","0.4107673147","","0.6","0.4","0.8","0.2","","","","","0.02732183546","0.1880751836","0.4107673147","0.4739127226","","","","","","","75","K","2","","","243","main_expt"
"228","","bandit","322","820764","0.0-283.0-0.0","34951663","wem/bandit_either","AY5QUURIR136D","either","8","","","","","","","1","0","0","0.3914084711","","0.6","0.4","0.8","0.2","","","","","0.02742276317","0.2693527465","0.3914084711","0.4467527753","","","","","","","75","K","2","","","244","main_expt"
"203","","bandit","323","822475","0.0-284.0-0.0","34951663","wem/bandit_either","AY5QUURIR136D","either","8","","","","","","","0","0","1","0.4117032301","","0.6","0.4","0.8","0.2","","","","","0.03322496416","0.2474629182","0.4117032301","0.4492118003","","","","","","","75","K","2","","","245","main_expt"
"32","","bandit","324","824016","0.0-285.0-0.0","34951663","wem/bandit_either","AY5QUURIR136D","either","8","","","","","","","0","0","1","","0.4225436654","0.6","0.4","0.8","0.2","0.0538648904","0.3019125269","0.4225436654","0.4702058379","","","","","","","","","","","75","K","2","","","246","main_expt"
"25","","bandit","325","825550","0.0-286.0-0.0","34951663","wem/bandit_either","AY5QUURIR136D","either","8","","","","","","","0","0","1","","0.3013832462","0.6","0.4","0.8","0.2","0.05538537946","0.3013832462","0.4327875568","0.4717010128","","","","","","","","","","","74","J","1","","","247","main_expt"
"200","","bandit","326","827259","0.0-287.0-0.0","34951663","wem/bandit_either","AY5QUURIR136D","either","8","","","","","","","1","0","0","0.4478523955","","0.6","0.4","0.8","0.2","","","","","0.07377210468","0.2917300956","0.4478523955","0.4750055548","","","","","","","75","K","2","","","248","main_expt"
"246","","bandit","327","829019","0.0-288.0-0.0","34951663","wem/bandit_either","AY5QUURIR136D","either","8","","","","","","","0","1","0","","0.4221620221","0.6","0.4","0.8","0.2","0.07098242635","0.2976682537","0.4221620221","0.4608113614","","","","","","","","","","","75","K","2","","","249","main_expt"
"110","","bandit","328","830640","0.0-289.0-0.0","34951663","wem/bandit_either","AY5QUURIR136D","either","8","","","","","","","0","0","1","0.3998447204","","0.6","0.4","0.8","0.2","","","","","0.08291081884","0.2921609534","0.3998447204","0.4361301801","","","","","","","75","K","2","","","250","main_expt"
"75","","bandit","329","832224","0.0-290.0-0.0","34951663","wem/bandit_either","AY5QUURIR136D","either","8","","","","","","","1","0","0","0.4053116556","","0.6","0.4","0.8","0.2","","","","","0.07668358207","0.3026336231","0.4053116556","0.4203652199","","","","","","","75","K","2","","","251","main_expt"
"198","","bandit","330","833930","0.0-291.0-0.0","34951663","wem/bandit_either","AY5QUURIR136D","either","8","","","","","","","1","0","0","0.3780439072","","0.6","0.4","0.8","0.2","","","","","0.05892609675","0.3303824841","0.3780439072","0.4465363659","","","","","","","75","K","2","","","252","main_expt"
"79","","bandit","331","835518","0.0-292.0-0.0","34951663","wem/bandit_either","AY5QUURIR136D","either","8","","","","","","","0","0","1","0.4356020742","","0.6","0.4","0.8","0.2","","","","","0.05309255245","0.3024212104","0.4356020742","0.4480562975","","","","","","","75","K","2","","","253","main_expt"
