"rt","responses","trial_type","trial_index","time_elapsed","internal_node_id","subjID","study","MID","cond","drift","key_press","expt_phase","target","like","value","connected","gems","bombs","no_reward","GemPrChosen","BombPrChosen","GainOverPainPr_0","GainOverPainPr_1","GainOverPainPr_2","GainOverPainPr_3","LosePr_0","LosePr_1","LosePr_2","LosePr_3","WinPr_0","WinPr_1","WinPr_2","WinPr_3","Q0","Q1","Q2","gender","age","ethnicity","respCharCode","respKey","respChoiceNum","respChoice","practice","trial_counter","trial_label"
"4806","{""Q0"":""A100Y89FZO4J0B""}","survey-text","0","4812","0.0-0.0","35009021","wem/bandit_either","A100Y89FZO4J0B","either","1","","","","","","","","","","","","","","","","","","","","","","","","","","","","","","","","","","","",""
"10147","","text","1","15964","0.0-1.0","35009021","wem/bandit_either","A100Y89FZO4J0B","either","1","32","","","","","","","","","","","","","","","","","","","","","","","","","","","","","","","","","","",""
"10892","","text","2","26857","0.0-2.0","35009021","wem/bandit_either","A100Y89FZO4J0B","either","1","32","","","","","","","","","","","","","","","","","","","","","","","","","","","","","","","","","","",""
"29901","","text","3","56760","0.0-3.0","35009021","wem/bandit_either","A100Y89FZO4J0B","either","1","32","","","","","","","","","","","","","","","","","","","","","","","","","","","","","","","","","","",""
"59021","","text","4","115784","0.0-4.0","35009021","wem/bandit_either","A100Y89FZO4J0B","either","1","32","","","","","","","","","","","","","","","","","","","","","","","","","","","","","","","","","","",""
"24814","","text","5","140599","0.0-5.0","35009021","wem/bandit_either","A100Y89FZO4J0B","either","1","32","","","","","","","","","","","","","","","","","","","","","","","","","","","","","","","","","","",""
"9277","","text","6","149878","0.0-6.0","35009021","wem/bandit_either","A100Y89FZO4J0B","either","1","32","","","","","","","","","","","","","","","","","","","","","","","","","","","","","","","","","","",""
"18206","","text","7","168086","0.0-7.0","35009021","wem/bandit_either","A100Y89FZO4J0B","either","1","32","","","","","","","","","","","","","","","","","","","","","","","","","","","","","","","","","","",""
"9028","","identification","8","177141","0.0-8.0-0.0","35009021","wem/bandit_either","A100Y89FZO4J0B","either","1","","identification_pre","the village of Zur","","","","","","","","","","","","","","","","","","","","","","","","","","","","","","","","",""
"4871","","identification","9","183031","0.0-8.0-1.0","35009021","wem/bandit_either","A100Y89FZO4J0B","either","1","","identification_pre","the village of Nyx","","","","","","","","","","","","","","","","","","","","","","","","","","","","","","","","",""
"6501","","text","10","190535","0.0-9.0","35009021","wem/bandit_either","A100Y89FZO4J0B","either","1","32","","","","","","","","","","","","","","","","","","","","","","","","","","","","","","","","","","",""
"5116","","text","11","195654","0.0-10.0","35009021","wem/bandit_either","A100Y89FZO4J0B","either","1","32","","","","","","","","","","","","","","","","","","","","","","","","","","","","","","","","","","",""
"3214","","text","12","198870","0.0-11.0","35009021","wem/bandit_either","A100Y89FZO4J0B","either","1","32","","","","","","","","","","","","","","","","","","","","","","","","","","","","","","","","","","",""
"6446","","text","13","205318","0.0-12.0","35009021","wem/bandit_either","A100Y89FZO4J0B","either","1","32","","","","","","","","","","","","","","","","","","","","","","","","","","","","","","","","","","",""
"3130","","bandit","14","209958","0.0-13.0-0.0","35009021","wem/bandit_either","A100Y89FZO4J0B","either","1","","","","","","","0","0","1","0","0","","","","","0","","","","0","","","","","","","","","","74","J","0","img/none_selected_demo.jpg","true","0",""
"1051","","bandit","15","212517","0.0-14.0-0.0","35009021","wem/bandit_either","A100Y89FZO4J0B","either","1","","","","","","","0","0","1","0","0","","","","","0","","","","0","","","","","","","","","","75","K","0","img/none_selected_demo.jpg","true","0",""
"16286","","text","16","228806","0.0-15.0","35009021","wem/bandit_either","A100Y89FZO4J0B","either","1","32","","","","","","","","","","","","","","","","","","","","","","","","","","","","","","","","","","",""
"11885","","text","17","240693","0.0-16.0","35009021","wem/bandit_either","A100Y89FZO4J0B","either","1","32","","","","","","","","","","","","","","","","","","","","","","","","","","","","","","","","","","",""
"39246","","text","18","279941","0.0-17.0","35009021","wem/bandit_either","A100Y89FZO4J0B","either","1","32","","","","","","","","","","","","","","","","","","","","","","","","","","","","","","","","","","",""
"2062","","text","19","282004","0.0-18.0","35009021","wem/bandit_either","A100Y89FZO4J0B","either","1","32","","","","","","","","","","","","","","","","","","","","","","","","","","","","","","","","","","",""
"638","","bandit","20","284149","0.0-19.0-0.0","35009021","wem/bandit_either","A100Y89FZO4J0B","either","1","","","","","","","0","0","1","0.8","","0.5","0.5","","","","","","","0.8","0.2","","","","","","","","","74","J","0","img/none_selected_demo.jpg","true","0","80_20_practice"
"347","","bandit","21","286004","0.0-19.0-1.0","35009021","wem/bandit_either","A100Y89FZO4J0B","either","1","","","","","","","0","0","1","0.2","","0.5","0.5","","","","","","","0.8","0.2","","","","","","","","","75","K","1","","true","0","80_20_practice"
"75","","bandit","22","287587","0.0-19.0-2.0","35009021","wem/bandit_either","A100Y89FZO4J0B","either","1","","","","","","","0","0","1","","0.2","0.5","0.5","","","0.8","0.2","","","","","","","","","","","","","75","K","1","","true","0","80_20_practice"
"221","","bandit","23","289315","0.0-19.0-3.0","35009021","wem/bandit_either","A100Y89FZO4J0B","either","1","","","","","","","0","0","1","0.8","","0.5","0.5","","","","","","","0.8","0.2","","","","","","","","","74","J","0","img/none_selected_demo.jpg","true","0","80_20_practice"
"13","","bandit","24","290835","0.0-19.0-4.0","35009021","wem/bandit_either","A100Y89FZO4J0B","either","1","","","","","","","0","0","1","0.2","","0.5","0.5","","","","","","","0.8","0.2","","","","","","","","","75","K","1","","true","0","80_20_practice"
"174","","bandit","25","292516","0.0-19.0-5.0","35009021","wem/bandit_either","A100Y89FZO4J0B","either","1","","","","","","","0","0","1","0.2","","0.5","0.5","","","","","","","0.8","0.2","","","","","","","","","75","K","1","","true","0","80_20_practice"
"508","","bandit","26","294531","0.0-19.0-6.0","35009021","wem/bandit_either","A100Y89FZO4J0B","either","1","","","","","","","0","1","0","","0.8","0.5","0.5","","","0.8","0.2","","","","","","","","","","","","","74","J","0","img/none_selected_demo.jpg","true","0","80_20_practice"
"238","","bandit","27","296275","0.0-19.0-7.0","35009021","wem/bandit_either","A100Y89FZO4J0B","either","1","","","","","","","0","1","0","","0.8","0.5","0.5","","","0.8","0.2","","","","","","","","","","","","","74","J","0","img/none_selected_demo.jpg","true","0","80_20_practice"
"285","","bandit","28","298067","0.0-19.0-8.0","35009021","wem/bandit_either","A100Y89FZO4J0B","either","1","","","","","","","1","0","0","0.8","","0.5","0.5","","","","","","","0.8","0.2","","","","","","","","","74","J","0","img/none_selected_demo.jpg","true","0","80_20_practice"
"330","","bandit","29","299908","0.0-19.0-9.0","35009021","wem/bandit_either","A100Y89FZO4J0B","either","1","","","","","","","1","0","0","0.8","","0.5","0.5","","","","","","","0.8","0.2","","","","","","","","","74","J","0","img/none_selected_demo.jpg","true","0","80_20_practice"
"315","","bandit","30","301731","0.0-19.0-10.0","35009021","wem/bandit_either","A100Y89FZO4J0B","either","1","","","","","","","0","1","0","","0.8","0.5","0.5","","","0.8","0.2","","","","","","","","","","","","","74","J","0","img/none_selected_demo.jpg","true","0","80_20_practice"
"237","","bandit","31","303476","0.0-19.0-11.0","35009021","wem/bandit_either","A100Y89FZO4J0B","either","1","","","","","","","1","0","0","0.8","","0.5","0.5","","","","","","","0.8","0.2","","","","","","","","","74","J","0","img/none_selected_demo.jpg","true","0","80_20_practice"
"363","","bandit","32","305348","0.0-19.0-12.0","35009021","wem/bandit_either","A100Y89FZO4J0B","either","1","","","","","","","0","0","1","","0.8","0.5","0.5","","","0.8","0.2","","","","","","","","","","","","","74","J","0","img/none_selected_demo.jpg","true","0","80_20_practice"
"398","","bandit","33","307251","0.0-19.0-13.0","35009021","wem/bandit_either","A100Y89FZO4J0B","either","1","","","","","","","1","0","0","0.8","","0.5","0.5","","","","","","","0.8","0.2","","","","","","","","","74","J","0","img/none_selected_demo.jpg","true","0","80_20_practice"
"380","","bandit","34","309139","0.0-19.0-14.0","35009021","wem/bandit_either","A100Y89FZO4J0B","either","1","","","","","","","0","0","1","0.8","","0.5","0.5","","","","","","","0.8","0.2","","","","","","","","","74","J","0","img/none_selected_demo.jpg","true","0","80_20_practice"
"1036","","bandit","35","311686","0.0-19.0-15.0","35009021","wem/bandit_either","A100Y89FZO4J0B","either","1","","","","","","","0","1","0","","0.8","0.5","0.5","","","0.8","0.2","","","","","","","","","","","","","74","J","0","img/none_selected_demo.jpg","true","0","80_20_practice"
"955","","bandit","36","314148","0.0-19.0-16.0","35009021","wem/bandit_either","A100Y89FZO4J0B","either","1","","","","","","","0","0","1","0.8","","0.5","0.5","","","","","","","0.8","0.2","","","","","","","","","74","J","0","img/none_selected_demo.jpg","true","0","80_20_practice"
"1115","","bandit","37","316773","0.0-19.0-17.0","35009021","wem/bandit_either","A100Y89FZO4J0B","either","1","","","","","","","1","0","0","0.8","","0.5","0.5","","","","","","","0.8","0.2","","","","","","","","","74","J","0","img/none_selected_demo.jpg","true","0","80_20_practice"
"344","","bandit","38","318627","0.0-19.0-18.0","35009021","wem/bandit_either","A100Y89FZO4J0B","either","1","","","","","","","0","0","1","","0.8","0.5","0.5","","","0.8","0.2","","","","","","","","","","","","","74","J","0","img/none_selected_demo.jpg","true","0","80_20_practice"
"941","","bandit","39","321076","0.0-19.0-19.0","35009021","wem/bandit_either","A100Y89FZO4J0B","either","1","","","","","","","0","1","0","","0.8","0.5","0.5","","","0.8","0.2","","","","","","","","","","","","","74","J","0","img/none_selected_demo.jpg","true","0","80_20_practice"
"5229","","text","40","326308","0.0-20.0","35009021","wem/bandit_either","A100Y89FZO4J0B","either","1","32","","","","","","","","","","","","","","","","","","","","","","","","","","","","","","","","","","",""
"893","","bandit","41","328707","0.0-21.0-0.0","35009021","wem/bandit_either","A100Y89FZO4J0B","either","1","","","","","","","1","0","0","1","0","","","","","0","1","","","1","0","","","","","","","","","74","J","0","img/none_selected_demo.jpg","true","0",""
"4283","","text","42","332996","0.0-22.0","35009021","wem/bandit_either","A100Y89FZO4J0B","either","1","32","","","","","","","","","","","","","","","","","","","","","","","","","","","","","","","","","","",""
"3021","","text","43","336020","0.0-23.0","35009021","wem/bandit_either","A100Y89FZO4J0B","either","1","32","","","","","","","","","","","","","","","","","","","","","","","","","","","","","","","","","","",""
"2429","","text","44","338452","0.0-24.0","35009021","wem/bandit_either","A100Y89FZO4J0B","either","1","32","","","","","","","","","","","","","","","","","","","","","","","","","","","","","","","","","","",""
"5149","","text","45","343604","0.0-25.0","35009021","wem/bandit_either","A100Y89FZO4J0B","either","1","32","","","","","","","","","","","","","","","","","","","","","","","","","","","","","","","","","","",""
"6397","","text","46","350004","0.0-26.0","35009021","wem/bandit_either","A100Y89FZO4J0B","either","1","32","","","","","","","","","","","","","","","","","","","","","","","","","","","","","","","","","","",""
"3533","","text","47","353540","0.0-27.0","35009021","wem/bandit_either","A100Y89FZO4J0B","either","1","32","","","","","","","","","","","","","","","","","","","","","","","","","","","","","","","","","","",""
"5005","","text","48","358548","0.0-28.0","35009021","wem/bandit_either","A100Y89FZO4J0B","either","1","32","","","","","","","","","","","","","","","","","","","","","","","","","","","","","","","","","","",""
"4446","","text","49","362996","0.0-29.0","35009021","wem/bandit_either","A100Y89FZO4J0B","either","1","32","","","","","","","","","","","","","","","","","","","","","","","","","","","","","","","","","","",""
"7180","","text","50","370179","0.0-30.0","35009021","wem/bandit_either","A100Y89FZO4J0B","either","1","32","","","","","","","","","","","","","","","","","","","","","","","","","","","","","","","","","","",""
"2798","","text","51","372980","0.0-31.0","35009021","wem/bandit_either","A100Y89FZO4J0B","either","1","32","","","","","","","","","","","","","","","","","","","","","","","","","","","","","","","","","","",""
"3806","","text","52","376788","0.0-32.0","35009021","wem/bandit_either","A100Y89FZO4J0B","either","1","32","","","","","","","","","","","","","","","","","","","","","","","","","","","","","","","","","","",""
"824","","bandit","53","379123","0.0-33.0-0.0","35009021","wem/bandit_either","A100Y89FZO4J0B","either","1","","","","","","","1","0","0","0.8","","0.5","0.5","0.5","0.5","","","","","0.8","0.2","0.6","0.2","","","","","","","72","H","0","img/none_selected.jpg","true","0","full_practice"
"316","","bandit","54","380948","0.0-33.0-1.0","35009021","wem/bandit_either","A100Y89FZO4J0B","either","1","","","","","","","0","1","0","","0.8","0.5","0.5","0.5","0.5","0.8","0.2","0.6","0.2","","","","","","","","","","","72","H","0","img/none_selected.jpg","true","0","full_practice"
"363","","bandit","55","382821","0.0-33.0-2.0","35009021","wem/bandit_either","A100Y89FZO4J0B","either","1","","","","","","","0","1","0","","0.8","0.5","0.5","0.5","0.5","0.8","0.2","0.6","0.2","","","","","","","","","","","72","H","0","img/none_selected.jpg","true","0","full_practice"
"408","","bandit","56","384737","0.0-33.0-3.0","35009021","wem/bandit_either","A100Y89FZO4J0B","either","1","","","","","","","0","0","1","0.8","","0.5","0.5","0.5","0.5","","","","","0.8","0.2","0.6","0.2","","","","","","","72","H","0","img/none_selected.jpg","true","0","full_practice"
"528","","bandit","57","386773","0.0-33.0-4.0","35009021","wem/bandit_either","A100Y89FZO4J0B","either","1","","","","","","","1","0","0","0.8","","0.5","0.5","0.5","0.5","","","","","0.8","0.2","0.6","0.2","","","","","","","72","H","0","img/none_selected.jpg","true","0","full_practice"
"1561","","bandit","58","389843","0.0-33.0-5.0","35009021","wem/bandit_either","A100Y89FZO4J0B","either","1","","","","","","","0","1","0","","0.8","0.5","0.5","0.5","0.5","0.8","0.2","0.6","0.2","","","","","","","","","","","72","H","0","img/none_selected.jpg","true","0","full_practice"
"1435","","bandit","59","392787","0.0-33.0-6.0","35009021","wem/bandit_either","A100Y89FZO4J0B","either","1","","","","","","","1","0","0","0.8","","0.5","0.5","0.5","0.5","","","","","0.8","0.2","0.6","0.2","","","","","","","72","H","0","img/none_selected.jpg","true","0","full_practice"
"1193","","bandit","60","395492","0.0-33.0-7.0","35009021","wem/bandit_either","A100Y89FZO4J0B","either","1","","","","","","","1","0","0","0.8","","0.5","0.5","0.5","0.5","","","","","0.8","0.2","0.6","0.2","","","","","","","72","H","0","img/none_selected.jpg","true","0","full_practice"
"1146","","bandit","61","398147","0.0-33.0-8.0","35009021","wem/bandit_either","A100Y89FZO4J0B","either","1","","","","","","","1","0","0","0.8","","0.5","0.5","0.5","0.5","","","","","0.8","0.2","0.6","0.2","","","","","","","72","H","0","img/none_selected.jpg","true","0","full_practice"
"218","","bandit","62","399874","0.0-33.0-9.0","35009021","wem/bandit_either","A100Y89FZO4J0B","either","1","","","","","","","1","0","0","0.8","","0.5","0.5","0.5","0.5","","","","","0.8","0.2","0.6","0.2","","","","","","","72","H","0","img/none_selected.jpg","true","0","full_practice"
"1164","","bandit","63","402545","0.0-33.0-10.0","35009021","wem/bandit_either","A100Y89FZO4J0B","either","1","","","","","","","0","0","1","","0.8","0.5","0.5","0.5","0.5","0.8","0.2","0.6","0.2","","","","","","","","","","","72","H","0","img/none_selected.jpg","true","0","full_practice"
"1628","","bandit","64","405682","0.0-33.0-11.0","35009021","wem/bandit_either","A100Y89FZO4J0B","either","1","","","","","","","0","0","1","0.2","","0.5","0.5","0.5","0.5","","","","","0.8","0.2","0.6","0.2","","","","","","","74","J","1","","true","0","full_practice"
"1230","","bandit","65","408418","0.0-33.0-12.0","35009021","wem/bandit_either","A100Y89FZO4J0B","either","1","","","","","","","0","0","1","0.6","","0.5","0.5","0.5","0.5","","","","","0.8","0.2","0.6","0.2","","","","","","","75","K","2","","true","0","full_practice"
"380","","bandit","66","410306","0.0-33.0-13.0","35009021","wem/bandit_either","A100Y89FZO4J0B","either","1","","","","","","","1","0","0","0.8","","0.5","0.5","0.5","0.5","","","","","0.8","0.2","0.6","0.2","","","","","","","72","H","0","img/none_selected.jpg","true","0","full_practice"
"491","","bandit","67","412307","0.0-33.0-14.0","35009021","wem/bandit_either","A100Y89FZO4J0B","either","1","","","","","","","0","1","0","","0.8","0.5","0.5","0.5","0.5","0.8","0.2","0.6","0.2","","","","","","","","","","","72","H","0","img/none_selected.jpg","true","0","full_practice"
"329","","bandit","68","414147","0.0-33.0-15.0","35009021","wem/bandit_either","A100Y89FZO4J0B","either","1","","","","","","","0","1","0","","0.8","0.5","0.5","0.5","0.5","0.8","0.2","0.6","0.2","","","","","","","","","","","72","H","0","img/none_selected.jpg","true","0","full_practice"
"985","","bandit","69","416641","0.0-33.0-16.0","35009021","wem/bandit_either","A100Y89FZO4J0B","either","1","","","","","","","0","1","0","","0.8","0.5","0.5","0.5","0.5","0.8","0.2","0.6","0.2","","","","","","","","","","","72","H","0","img/none_selected.jpg","true","0","full_practice"
"301","","bandit","70","418451","0.0-33.0-17.0","35009021","wem/bandit_either","A100Y89FZO4J0B","either","1","","","","","","","1","0","0","0.8","","0.5","0.5","0.5","0.5","","","","","0.8","0.2","0.6","0.2","","","","","","","72","H","0","img/none_selected.jpg","true","0","full_practice"
"828","","bandit","71","420786","0.0-33.0-18.0","35009021","wem/bandit_either","A100Y89FZO4J0B","either","1","","","","","","","1","0","0","0.8","","0.5","0.5","0.5","0.5","","","","","0.8","0.2","0.6","0.2","","","","","","","72","H","0","img/none_selected.jpg","true","0","full_practice"
"779","","bandit","72","423074","0.0-33.0-19.0","35009021","wem/bandit_either","A100Y89FZO4J0B","either","1","","","","","","","1","0","0","0.8","","0.5","0.5","0.5","0.5","","","","","0.8","0.2","0.6","0.2","","","","","","","72","H","0","img/none_selected.jpg","true","0","full_practice"
"3975","","text","73","427059","0.0-34.0","35009021","wem/bandit_either","A100Y89FZO4J0B","either","1","32","","","","","","","","","","","","","","","","","","","","","","","","","","","","","","","","","","",""
"14531","","text","74","442595","0.0-35.0","35009021","wem/bandit_either","A100Y89FZO4J0B","either","1","32","","","","","","","","","","","","","","","","","","","","","","","","","","","","","","","","","","",""
"7659","","text","75","450258","0.0-36.0","35009021","wem/bandit_either","A100Y89FZO4J0B","either","1","32","","","","","","","","","","","","","","","","","","","","","","","","","","","","","","","","","","",""
"6922","","text","76","457186","0.0-37.0","35009021","wem/bandit_either","A100Y89FZO4J0B","either","1","32","","","","","","","","","","","","","","","","","","","","","","","","","","","","","","","","","","",""
"10991","","text","77","468179","0.0-38.0","35009021","wem/bandit_either","A100Y89FZO4J0B","either","1","32","","","","","","","","","","","","","","","","","","","","","","","","","","","","","","","","","","",""
"4749","","text","78","472931","0.0-39.0","35009021","wem/bandit_either","A100Y89FZO4J0B","either","1","32","","","","","","","","","","","","","","","","","","","","","","","","","","","","","","","","","","",""
"731","","bandit","79","475169","0.0-40.0-0.0","35009021","wem/bandit_either","A100Y89FZO4J0B","either","1","","","","","","","1","0","0","0.4269289603","","0.6","0.8","0.4","0.2","","","","","0.4269289603","0.3592836462","0.02943109976","0.0798457429","","","","","","","72","H","0","img/none_selected.jpg","","1","main_expt"
"444","","bandit","80","477121","0.0-41.0-0.0","35009021","wem/bandit_either","A100Y89FZO4J0B","either","1","","","","","","","0","0","1","0.4660243271","","0.6","0.8","0.4","0.2","","","","","0.4660243271","0.3454903542","0.06336112212","0.07621336767","","","","","","","72","H","0","img/none_selected.jpg","","2","main_expt"
"331","","bandit","81","478962","0.0-42.0-0.0","35009021","wem/bandit_either","A100Y89FZO4J0B","either","1","","","","","","","1","0","0","0.4738503749","","0.6","0.8","0.4","0.2","","","","","0.4738503749","0.2941512374","0.07335687118","0.07476295528","","","","","","","72","H","0","img/none_selected.jpg","","3","main_expt"
"780","","bandit","82","481250","0.0-43.0-0.0","35009021","wem/bandit_either","A100Y89FZO4J0B","either","1","","","","","","","0","0","1","","0.4618500418","0.6","0.8","0.4","0.2","0.4618500418","0.2851241965","0.06156305515","0.06526985361","","","","","","","","","","","72","H","0","img/none_selected.jpg","","4","main_expt"
"442","","bandit","83","483200","0.0-44.0-0.0","35009021","wem/bandit_either","A100Y89FZO4J0B","either","1","","","","","","","0","0","1","","0.4488935273","0.6","0.8","0.4","0.2","0.4488935273","0.3172925843","0.08141194251","0.05487735528","","","","","","","","","","","72","H","0","img/none_selected.jpg","","5","main_expt"
"415","","bandit","84","485120","0.0-45.0-0.0","35009021","wem/bandit_either","A100Y89FZO4J0B","either","1","","","","","","","0","0","1","0.4437832297","","0.6","0.8","0.4","0.2","","","","","0.4437832297","0.3319153021","0.1104821702","0.04340015571","","","","","","","72","H","0","img/none_selected.jpg","","6","main_expt"
"220","","bandit","85","486848","0.0-46.0-0.0","35009021","wem/bandit_either","A100Y89FZO4J0B","either","1","","","","","","","0","0","1","","0.1191408541","0.6","0.8","0.4","0.2","0.4310077805","0.3553039772","0.1191408541","0.04575060371","","","","","","","","","","","75","K","2","","","7","main_expt"
"156","","bandit","86","488514","0.0-47.0-0.0","35009021","wem/bandit_either","A100Y89FZO4J0B","either","1","","","","","","","0","0","1","","0.06112087539","0.6","0.8","0.4","0.2","0.4480386191","0.3868093767","0.1517570037","0.06112087539","","","","","","","","","","","76","L","3","","","8","main_expt"
"201","","bandit","87","490226","0.0-48.0-0.0","35009021","wem/bandit_either","A100Y89FZO4J0B","either","1","","","","","","","1","0","0","0.3754406694","","0.6","0.8","0.4","0.2","","","","","0.4460224538","0.3754406694","0.1738087075","0.07854191076","","","","","","","74","J","1","","","9","main_expt"
"266","","bandit","88","492002","0.0-49.0-0.0","35009021","wem/bandit_either","A100Y89FZO4J0B","either","1","","","","","","","1","0","0","0.3537433427","","0.6","0.8","0.4","0.2","","","","","0.3954493452","0.3537433427","0.2033535465","0.06865483858","","","","","","","74","J","1","","","10","main_expt"
"488","","bandit","89","494001","0.0-50.0-0.0","35009021","wem/bandit_either","A100Y89FZO4J0B","either","1","","","","","","","0","1","0","","0.3793358735","0.6","0.8","0.4","0.2","0.4064238371","0.3793358735","0.1751631116","0.05083805298","","","","","","","","","","","74","J","1","","","11","main_expt"
"267","","bandit","90","495777","0.0-51.0-0.0","35009021","wem/bandit_either","A100Y89FZO4J0B","either","1","","","","","","","0","0","1","0.3800428212","","0.6","0.8","0.4","0.2","","","","","0.3800839449","0.3800428212","0.1787487179","0.1038792476","","","","","","","74","J","1","","","12","main_expt"
"329","","bandit","91","497618","0.0-52.0-0.0","35009021","wem/bandit_either","A100Y89FZO4J0B","either","1","","","","","","","1","0","0","0.3647981021","","0.6","0.8","0.4","0.2","","","","","0.3866628193","0.3647981021","0.1794712961","0.1197284353","","","","","","","74","J","1","","","13","main_expt"
"138","","bandit","92","499265","0.0-53.0-0.0","35009021","wem/bandit_either","A100Y89FZO4J0B","either","1","","","","","","","0","1","0","","0.3646471907","0.6","0.8","0.4","0.2","0.326509825","0.3646471907","0.2482140722","0.135681701","","","","","","","","","","","74","J","1","","","14","main_expt"
"313","","bandit","93","501089","0.0-54.0-0.0","35009021","wem/bandit_either","A100Y89FZO4J0B","either","1","","","","","","","0","0","1","0.3549291363","","0.6","0.8","0.4","0.2","","","","","0.2428529647","0.3549291363","0.2859415589","0.125153919","","","","","","","74","J","1","","","15","main_expt"
"203","","bandit","94","502800","0.0-55.0-0.0","35009021","wem/bandit_either","A100Y89FZO4J0B","either","1","","","","","","","0","0","1","0.3727350689","","0.6","0.8","0.4","0.2","","","","","0.2332962783","0.3727350689","0.26587149","0.1096891688","","","","","","","74","J","1","","","16","main_expt"
"186","","bandit","95","504497","0.0-56.0-0.0","35009021","wem/bandit_either","A100Y89FZO4J0B","either","1","","","","","","","0","0","1","0.3112083829","","0.6","0.8","0.4","0.2","","","","","0.2271032234","0.3112083829","0.2776265896","0.1051581447","","","","","","","74","J","1","","","17","main_expt"
"267","","bandit","96","506273","0.0-57.0-0.0","35009021","wem/bandit_either","A100Y89FZO4J0B","either","1","","","","","","","0","0","1","","0.2403081055","0.6","0.8","0.4","0.2","0.1701710303","0.2403081055","0.3223387563","0.1437943492","","","","","","","","","","","74","J","1","","","18","main_expt"
"56","","bandit","97","507841","0.0-58.0-0.0","35009021","wem/bandit_either","A100Y89FZO4J0B","either","1","","","","","","","0","0","1","","0.3192918255","0.6","0.8","0.4","0.2","0.2070198111","0.2377482675","0.3192918255","0.1405615485","","","","","","","","","","","75","K","2","","","19","main_expt"
"219","","bandit","98","509570","0.0-59.0-0.0","35009021","wem/bandit_either","A100Y89FZO4J0B","either","1","","","","","","","1","0","0","0.2412547966","","0.6","0.8","0.4","0.2","","","","","0.2412547966","0.2607530295","0.2739159796","0.1063334751","","","","","","","72","H","0","img/none_selected.jpg","","20","main_expt"
"152","","bandit","99","511233","0.0-60.0-0.0","35009021","wem/bandit_either","A100Y89FZO4J0B","either","1","","","","","","","0","1","0","","0.2184758186","0.6","0.8","0.4","0.2","0.2184758186","0.2919400674","0.2454385858","0.07848250716","","","","","","","","","","","72","H","0","img/none_selected.jpg","","21","main_expt"
"315","","bandit","100","513057","0.0-61.0-0.0","35009021","wem/bandit_either","A100Y89FZO4J0B","either","1","","","","","","","0","0","1","0.1849325376","","0.6","0.8","0.4","0.2","","","","","0.1849325376","0.2995681058","0.2340842041","0.1005082742","","","","","","","72","H","0","img/none_selected.jpg","","22","main_expt"
"393","","bandit","101","514960","0.0-62.0-0.0","35009021","wem/bandit_either","A100Y89FZO4J0B","either","1","","","","","","","0","0","1","","0.1521197653","0.6","0.8","0.4","0.2","0.1521197653","0.292554742","0.1840173947","0.0792694407","","","","","","","","","","","72","H","0","img/none_selected.jpg","","23","main_expt"
"379","","bandit","102","516849","0.0-63.0-0.0","35009021","wem/bandit_either","A100Y89FZO4J0B","either","1","","","","","","","0","0","1","","0.1759403195","0.6","0.8","0.4","0.2","0.1759403195","0.3616894364","0.1745529383","0.07358699385","","","","","","","","","","","72","H","0","img/none_selected.jpg","","24","main_expt"
"89","","bandit","103","518449","0.0-64.0-0.0","35009021","wem/bandit_either","A100Y89FZO4J0B","either","1","","","","","","","0","0","1","","0.142208116","0.6","0.8","0.4","0.2","0.09479311865","0.3575757263","0.1756582033","0.142208116","","","","","","","","","","","76","L","3","","","25","main_expt"
"75","","bandit","104","520032","0.0-65.0-0.0","35009021","wem/bandit_either","A100Y89FZO4J0B","either","1","","","","","","","0","0","1","","0.2086365416","0.6","0.8","0.4","0.2","0.08156123497","0.3635346368","0.2086365416","0.1245113583","","","","","","","","","","","75","K","2","","","26","main_expt"
"252","","bandit","105","521794","0.0-66.0-0.0","35009021","wem/bandit_either","A100Y89FZO4J0B","either","1","","","","","","","1","0","0","0.4109801844","","0.6","0.8","0.4","0.2","","","","","0.1102307873","0.4109801844","0.2139763749","0.118364605","","","","","","","74","J","1","","","27","main_expt"
"714","","bandit","106","524017","0.0-67.0-0.0","35009021","wem/bandit_either","A100Y89FZO4J0B","either","1","","","","","","","0","0","1","0.3772962545","","0.6","0.8","0.4","0.2","","","","","0.08274430796","0.3772962545","0.1613483267","0.1105930361","","","","","","","74","J","1","","","28","main_expt"
"217","","bandit","107","525745","0.0-68.0-0.0","35009021","wem/bandit_either","A100Y89FZO4J0B","either","1","","","","","","","0","0","1","0.3875745016","","0.6","0.8","0.4","0.2","","","","","0.1086911099","0.3875745016","0.1712488152","0.1118713044","","","","","","","74","J","1","","","29","main_expt"
"1035","","bandit","108","528289","0.0-69.0-0.0","35009021","wem/bandit_either","A100Y89FZO4J0B","either","1","","","","","","","0","0","1","0.3780019893","","0.6","0.8","0.4","0.2","","","","","0.1116575632","0.3780019893","0.1675524316","0.1914750456","","","","","","","74","J","1","","","30","main_expt"
"409","","bandit","109","530211","0.0-70.0-0.0","35009021","wem/bandit_either","A100Y89FZO4J0B","either","1","","","","","","","1","0","0","0.416860241","","0.6","0.8","0.4","0.2","","","","","0.07828091442","0.416860241","0.140325158","0.2367730164","","","","","","","74","J","1","","","31","main_expt"
"456","","bandit","110","532177","0.0-71.0-0.0","35009021","wem/bandit_either","A100Y89FZO4J0B","either","1","","","","","","","0","0","1","0.4242573056","","0.6","0.8","0.4","0.2","","","","","0.07550395781","0.4242573056","0.1553940025","0.2109574779","","","","","","","74","J","1","","","32","main_expt"
"666","","bandit","111","534353","0.0-72.0-0.0","35009021","wem/bandit_either","A100Y89FZO4J0B","either","1","","","","","","","0","0","1","0.4185546122","","0.6","0.8","0.4","0.2","","","","","0.1445529326","0.4185546122","0.1925614924","0.2005542758","","","","","","","74","J","1","","","33","main_expt"
"1034","","bandit","112","536897","0.0-73.0-0.0","35009021","wem/bandit_either","A100Y89FZO4J0B","either","1","","","","","","","0","0","1","","0.1091775744","0.6","0.8","0.4","0.2","0.1091775744","0.4268308419","0.2150530123","0.180377021","","","","","","","","","","","72","H","0","img/none_selected.jpg","","34","main_expt"
"473","","bandit","113","538879","0.0-74.0-0.0","35009021","wem/bandit_either","A100Y89FZO4J0B","either","1","","","","","","","0","0","1","","0.2688968874","0.6","0.8","0.4","0.2","0.1297995116","0.4265642185","0.2688968874","0.2111187229","","","","","","","","","","","75","K","2","","","35","main_expt"
"1389","","bandit","114","541777","0.0-75.0-0.0","35009021","wem/bandit_either","A100Y89FZO4J0B","either","1","","","","","","","0","0","1","0.2119332756","","0.6","0.8","0.4","0.2","","","","","0.09468550628","0.4066287969","0.2977459964","0.2119332756","","","","","","","76","L","3","","","36","main_expt"
"442","","bandit","115","543728","0.0-76.0-0.0","35009021","wem/bandit_either","A100Y89FZO4J0B","either","1","","","","","","","0","0","1","","0.2256131965","0.6","0.8","0.4","0.2","0.09396978408","0.4611471687","0.2684429955","0.2256131965","","","","","","","","","","","76","L","3","","","37","main_expt"
"1419","","bandit","116","546657","0.0-77.0-0.0","35009021","wem/bandit_either","A100Y89FZO4J0B","either","1","","","","","","","0","0","1","0.2490186117","","0.6","0.8","0.4","0.2","","","","","0.1062257399","0.4482708269","0.2490186117","0.1975147253","","","","","","","75","K","2","","","38","main_expt"
"439","","bandit","117","548609","0.0-78.0-0.0","35009021","wem/bandit_either","A100Y89FZO4J0B","either","1","","","","","","","0","0","1","0.4402774387","","0.6","0.8","0.4","0.2","","","","","0.09676453159","0.4402774387","0.2548033483","0.1595648847","","","","","","","74","J","1","","","39","main_expt"
"155","","bandit","118","550273","0.0-79.0-0.0","35009021","wem/bandit_either","A100Y89FZO4J0B","either","1","","","","","","","0","0","1","0.08197179495","","0.6","0.8","0.4","0.2","","","","","0.08197179495","0.4385128538","0.2688720753","0.1626610004","","","","","","","72","H","0","img/none_selected.jpg","","40","main_expt"
"343","","bandit","119","552127","0.0-80.0-0.0","35009021","wem/bandit_either","A100Y89FZO4J0B","either","1","","","","","","","0","0","1","0.14416382","","0.6","0.8","0.4","0.2","","","","","0.14416382","0.4380640779","0.297778532","0.1982402655","","","","","","","72","H","0","img/none_selected.jpg","","41","main_expt"
"699","","bandit","120","554339","0.0-81.0-0.0","35009021","wem/bandit_either","A100Y89FZO4J0B","either","1","","","","","","","0","0","1","","0.1070927036","0.6","0.8","0.4","0.2","0.1070927036","0.4265224768","0.2449207522","0.1863610343","","","","","","","","","","","72","H","0","img/none_selected.jpg","","42","main_expt"
"440","","bandit","121","556289","0.0-82.0-0.0","35009021","wem/bandit_either","A100Y89FZO4J0B","either","1","","","","","","","0","0","1","","0.2457567503","0.6","0.8","0.4","0.2","0.1214526226","0.435880106","0.2457567503","0.2418389683","","","","","","","","","","","75","K","2","","","43","main_expt"
"808","","bandit","122","558609","0.0-83.0-0.0","35009021","wem/bandit_either","A100Y89FZO4J0B","either","1","","","","","","","0","0","1","0.1943491227","","0.6","0.8","0.4","0.2","","","","","0.1450738833","0.4450576882","0.2432732657","0.1943491227","","","","","","","76","L","3","","","44","main_expt"
"394","","bandit","123","560513","0.0-84.0-0.0","35009021","wem/bandit_either","A100Y89FZO4J0B","either","1","","","","","","","0","0","1","0.1543250971","","0.6","0.8","0.4","0.2","","","","","0.09632230927","0.4382030275","0.2656772236","0.1543250971","","","","","","","76","L","3","","","45","main_expt"
"488","","bandit","124","562512","0.0-85.0-0.0","35009021","wem/bandit_either","A100Y89FZO4J0B","either","1","","","","","","","0","0","1","0.4412369426","","0.6","0.8","0.4","0.2","","","","","0.103211431","0.4412369426","0.2432112423","0.09719433791","","","","","","","74","J","1","","","46","main_expt"
"970","","bandit","125","564993","0.0-86.0-0.0","35009021","wem/bandit_either","A100Y89FZO4J0B","either","1","","","","","","","0","0","1","0.09916324924","","0.6","0.8","0.4","0.2","","","","","0.09916324924","0.4588863431","0.2992745976","0.1228880329","","","","","","","72","H","0","img/none_selected.jpg","","47","main_expt"
"1001","","bandit","126","567504","0.0-87.0-0.0","35009021","wem/bandit_either","A100Y89FZO4J0B","either","1","","","","","","","1","0","0","0.4408788818","","0.6","0.8","0.4","0.2","","","","","0.1090242341","0.4408788818","0.2594611615","0.1068532567","","","","","","","74","J","1","","","48","main_expt"
"553","","bandit","127","569570","0.0-88.0-0.0","35009021","wem/bandit_either","A100Y89FZO4J0B","either","1","","","","","","","1","0","0","0.4232064109","","0.6","0.8","0.4","0.2","","","","","0.1265186769","0.4232064109","0.2767916858","0.1044048509","","","","","","","74","J","1","","","49","main_expt"
"1016","","bandit","128","572097","0.0-89.0-0.0","35009021","wem/bandit_either","A100Y89FZO4J0B","either","1","","","","","","","0","0","1","0.4210883962","","0.6","0.8","0.4","0.2","","","","","0.1397440907","0.4210883962","0.2762534014","0.1072026782","","","","","","","74","J","1","","","50","main_expt"
"1289","","bandit","129","574898","0.0-90.0-0.0","35009021","wem/bandit_either","A100Y89FZO4J0B","either","1","","","","","","","1","0","0","0.4225635581","","0.6","0.8","0.4","0.2","","","","","0.153600331","0.4225635581","0.3379376541","0.1287882573","","","","","","","74","J","1","","","51","main_expt"
"983","","bandit","130","577393","0.0-91.0-0.0","35009021","wem/bandit_either","A100Y89FZO4J0B","either","1","","","","","","","0","0","1","0.4146237098","","0.6","0.8","0.4","0.2","","","","","0.1718407591","0.4146237098","0.3395267946","0.1298059469","","","","","","","74","J","1","","","52","main_expt"
"395","","bandit","131","579299","0.0-92.0-0.0","35009021","wem/bandit_either","A100Y89FZO4J0B","either","1","","","","","","","0","1","0","","0.3763623321","0.6","0.8","0.4","0.2","0.1945727614","0.3763623321","0.29674647","0.07423060895","","","","","","","","","","","74","J","1","","","53","main_expt"
"694","","bandit","132","581505","0.0-93.0-0.0","35009021","wem/bandit_either","A100Y89FZO4J0B","either","1","","","","","","","1","0","0","0.3289081181","","0.6","0.8","0.4","0.2","","","","","0.2450542523","0.3289081181","0.3372955831","0.08562383645","","","","","","","74","J","1","","","54","main_expt"
"630","","bandit","133","583649","0.0-94.0-0.0","35009021","wem/bandit_either","A100Y89FZO4J0B","either","1","","","","","","","1","0","0","0.3025984711","","0.6","0.8","0.4","0.2","","","","","0.2547241938","0.3025984711","0.3506099842","0.0757818623","","","","","","","74","J","1","","","55","main_expt"
"857","","bandit","134","586018","0.0-95.0-0.0","35009021","wem/bandit_either","A100Y89FZO4J0B","either","1","","","","","","","0","0","1","0.2921333137","","0.6","0.8","0.4","0.2","","","","","0.2595112895","0.2921333137","0.3418029788","0.09897923035","","","","","","","74","J","1","","","56","main_expt"
"1272","","bandit","135","588800","0.0-96.0-0.0","35009021","wem/bandit_either","A100Y89FZO4J0B","either","1","","","","","","","0","0","1","0.3317177772","","0.6","0.8","0.4","0.2","","","","","0.2610276213","0.3317177772","0.3162475816","0.1160875525","","","","","","","74","J","1","","","57","main_expt"
"1112","","bandit","136","591423","0.0-97.0-0.0","35009021","wem/bandit_either","A100Y89FZO4J0B","either","1","","","","","","","1","0","0","0.3240244649","","0.6","0.8","0.4","0.2","","","","","0.2354201416","0.3240244649","0.3269881105","0.1134641846","","","","","","","74","J","1","","","58","main_expt"
"1018","","bandit","137","593953","0.0-98.0-0.0","35009021","wem/bandit_either","A100Y89FZO4J0B","either","1","","","","","","","1","0","0","0.2988076671","","0.6","0.8","0.4","0.2","","","","","0.2346370837","0.2988076671","0.2901324944","0.1177083384","","","","","","","74","J","1","","","59","main_expt"
"1209","","bandit","138","596673","0.0-99.0-0.0","35009021","wem/bandit_either","A100Y89FZO4J0B","either","1","","","","","","","0","0","1","0.3096792726","","0.6","0.8","0.4","0.2","","","","","0.2315637733","0.3096792726","0.289588464","0.1125723432","","","","","","","74","J","1","","","60","main_expt"
"519","","bandit","139","598704","0.0-100.0-0.0","35009021","wem/bandit_either","A100Y89FZO4J0B","either","1","","","","","","","0","0","1","0.2821336973","","0.6","0.8","0.4","0.2","","","","","0.2599537756","0.2821336973","0.2782845563","0.09911093426","","","","","","","74","J","1","","","61","main_expt"
"1512","","bandit","140","601728","0.0-101.0-0.0","35009021","wem/bandit_either","A100Y89FZO4J0B","either","1","","","","","","","1","0","0","0.2414244345","","0.6","0.8","0.4","0.2","","","","","0.2594941563","0.2414244345","0.3165490401","0.09440438105","","","","","","","74","J","1","","","62","main_expt"
"185","","bandit","141","603424","0.0-102.0-0.0","35009021","wem/bandit_either","A100Y89FZO4J0B","either","1","","","","","","","0","0","1","","0.213639373","0.6","0.8","0.4","0.2","0.2660839385","0.213639373","0.3034564924","0.1015409351","","","","","","","","","","","74","J","1","","","63","main_expt"
"679","","bandit","142","605616","0.0-103.0-0.0","35009021","wem/bandit_either","A100Y89FZO4J0B","either","1","","","","","","","0","0","1","0.1876308072","","0.6","0.8","0.4","0.2","","","","","0.2426585031","0.1876308072","0.2506654962","0.07049798599","","","","","","","74","J","1","","","64","main_expt"
"216","","bandit","143","607344","0.0-104.0-0.0","35009021","wem/bandit_either","A100Y89FZO4J0B","either","1","","","","","","","0","0","1","0.1841803182","","0.6","0.8","0.4","0.2","","","","","0.2581047566","0.1841803182","0.253414466","0.05735603507","","","","","","","74","J","1","","","65","main_expt"
"1005","","bandit","144","609857","0.0-105.0-0.0","35009021","wem/bandit_either","A100Y89FZO4J0B","either","1","","","","","","","1","0","0","0.187417598","","0.6","0.8","0.4","0.2","","","","","0.2872127433","0.187417598","0.2836500186","0.0621258055","","","","","","","74","J","1","","","66","main_expt"
"713","","bandit","145","612080","0.0-106.0-0.0","35009021","wem/bandit_either","A100Y89FZO4J0B","either","1","","","","","","","0","0","1","0.1395950637","","0.6","0.8","0.4","0.2","","","","","0.3232337643","0.1395950637","0.3217852231","0.06966106928","","","","","","","74","J","1","","","67","main_expt"
"934","","bandit","146","614528","0.0-107.0-0.0","35009021","wem/bandit_either","A100Y89FZO4J0B","either","1","","","","","","","0","0","1","","0.1363519197","0.6","0.8","0.4","0.2","0.3376006622","0.1363519197","0.3574581916","0.09965709916","","","","","","","","","","","74","J","1","","","68","main_expt"
"647","","bandit","147","616687","0.0-108.0-0.0","35009021","wem/bandit_either","A100Y89FZO4J0B","either","1","","","","","","","0","0","1","","0.1117144852","0.6","0.8","0.4","0.2","0.2917609244","0.1117144852","0.3884563005","0.1428217854","","","","","","","","","","","74","J","1","","","69","main_expt"
"234","","bandit","148","618432","0.0-109.0-0.0","35009021","wem/bandit_either","A100Y89FZO4J0B","either","1","","","","","","","0","0","1","","0.2218665627","0.6","0.8","0.4","0.2","0.2218665627","0.09667493602","0.3920047773","0.1866845388","","","","","","","","","","","72","H","0","img/none_selected.jpg","","70","main_expt"
"396","","bandit","149","620337","0.0-110.0-0.0","35009021","wem/bandit_either","A100Y89FZO4J0B","either","1","","","","","","","0","0","1","0.4066376731","","0.6","0.8","0.4","0.2","","","","","0.2409383839","0.09186933139","0.4066376731","0.1702545286","","","","","","","75","K","2","","","71","main_expt"
"390","","bandit","150","622239","0.0-111.0-0.0","35009021","wem/bandit_either","A100Y89FZO4J0B","either","1","","","","","","","0","0","1","","0.1836279043","0.6","0.8","0.4","0.2","0.1920783453","0.09472009463","0.3443789926","0.1836279043","","","","","","","","","","","76","L","3","","","72","main_expt"
"318","","bandit","151","624063","0.0-112.0-0.0","35009021","wem/bandit_either","A100Y89FZO4J0B","either","1","","","","","","","0","0","1","0.1167805336","","0.6","0.8","0.4","0.2","","","","","0.1905254877","0.1167805336","0.3227553012","0.1644348242","","","","","","","74","J","1","","","73","main_expt"
"314","","bandit","152","625888","0.0-113.0-0.0","35009021","wem/bandit_either","A100Y89FZO4J0B","either","1","","","","","","","0","0","1","0.184198213","","0.6","0.8","0.4","0.2","","","","","0.184198213","0.1465151254","0.3336652139","0.1833421201","","","","","","","72","H","0","img/none_selected.jpg","","74","main_expt"
"760","","bandit","153","628160","0.0-114.0-0.0","35009021","wem/bandit_either","A100Y89FZO4J0B","either","1","","","","","","","0","0","1","0.123285719","","0.6","0.8","0.4","0.2","","","","","0.1881920243","0.123285719","0.2890150868","0.1519653276","","","","","","","74","J","1","","","75","main_expt"
"503","","bandit","154","630175","0.0-115.0-0.0","35009021","wem/bandit_either","A100Y89FZO4J0B","either","1","","","","","","","0","0","1","0.1392606081","","0.6","0.8","0.4","0.2","","","","","0.1988930589","0.1392606081","0.2673490463","0.1506622639","","","","","","","74","J","1","","","76","main_expt"
"301","","bandit","155","631984","0.0-116.0-0.0","35009021","wem/bandit_either","A100Y89FZO4J0B","either","1","","","","","","","0","0","1","0.2255968657","","0.6","0.8","0.4","0.2","","","","","0.2255968657","0.099337717","0.2858541315","0.1860897766","","","","","","","72","H","0","img/none_selected.jpg","","77","main_expt"
"293","","bandit","156","633792","0.0-117.0-0.0","35009021","wem/bandit_either","A100Y89FZO4J0B","either","1","","","","","","","0","0","1","0.2639968829","","0.6","0.8","0.4","0.2","","","","","0.1917014014","0.09666605973","0.2639968829","0.1618556875","","","","","","","75","K","2","","","78","main_expt"
"279","","bandit","157","635584","0.0-118.0-0.0","35009021","wem/bandit_either","A100Y89FZO4J0B","either","1","","","","","","","0","1","0","","0.1976853889","0.6","0.8","0.4","0.2","0.2092129429","0.09639353985","0.2304888896","0.1976853889","","","","","","","","","","","76","L","3","","","79","main_expt"
"358","","bandit","158","637456","0.0-119.0-0.0","35009021","wem/bandit_either","A100Y89FZO4J0B","either","1","","","","","","","0","0","1","0.2198838985","","0.6","0.8","0.4","0.2","","","","","0.1974306726","0.09566996791","0.1991809665","0.2198838985","","","","","","","76","L","3","","","80","main_expt"
"217","","bandit","159","639186","0.0-120.0-0.0","35009021","wem/bandit_either","A100Y89FZO4J0B","either","1","","","","","","","0","0","1","","0.2167005254","0.6","0.8","0.4","0.2","0.1414754506","0.07958501382","0.1627434897","0.2167005254","","","","","","","","","","","76","L","3","","","81","main_expt"
"326","","bandit","160","641024","0.0-121.0-0.0","35009021","wem/bandit_either","A100Y89FZO4J0B","either","1","","","","","","","0","0","1","","0.2527486409","0.6","0.8","0.4","0.2","0.1422587364","0.08833774835","0.1624637972","0.2527486409","","","","","","","","","","","76","L","3","","","82","main_expt"
"375","","bandit","161","642912","0.0-122.0-0.0","35009021","wem/bandit_either","A100Y89FZO4J0B","either","1","","","","","","","0","0","1","","0.1900332","0.6","0.8","0.4","0.2","0.1079415531","0.09109006352","0.1900332","0.2569721607","","","","","","","","","","","75","K","2","","","83","main_expt"
"152","","bandit","162","644576","0.0-123.0-0.0","35009021","wem/bandit_either","A100Y89FZO4J0B","either","1","","","","","","","1","0","0","0.07696487024","","0.6","0.8","0.4","0.2","","","","","0.07696487024","0.05321730921","0.1705646391","0.2535394321","","","","","","","72","H","0","img/none_selected.jpg","","84","main_expt"
"374","","bandit","163","646463","0.0-124.0-0.0","35009021","wem/bandit_either","A100Y89FZO4J0B","either","1","","","","","","","0","0","1","0.08313016423","","0.6","0.8","0.4","0.2","","","","","0.08313016423","0.03321009489","0.2053302659","0.2255799186","","","","","","","72","H","0","img/none_selected.jpg","","85","main_expt"
"535","","bandit","164","648511","0.0-125.0-0.0","35009021","wem/bandit_either","A100Y89FZO4J0B","either","1","","","","","","","0","0","1","0.102083396","","0.6","0.8","0.4","0.2","","","","","0.102083396","0.04864990798","0.2128685413","0.2197080914","","","","","","","72","H","0","img/none_selected.jpg","","86","main_expt"
"568","","bandit","165","650592","0.0-126.0-0.0","35009021","wem/bandit_either","A100Y89FZO4J0B","either","1","","","","","","","0","1","0","","0.09067070718","0.6","0.8","0.4","0.2","0.09067070718","0.07919268752","0.213778815","0.2230338057","","","","","","","","","","","72","H","0","img/none_selected.jpg","","87","main_expt"
"261","","bandit","166","652367","0.0-127.0-0.0","35009021","wem/bandit_either","A100Y89FZO4J0B","either","1","","","","","","","1","0","0","0.1421970704","","0.6","0.8","0.4","0.2","","","","","0.1421970704","0.05835116993","0.2102340809","0.2484269739","","","","","","","72","H","0","img/none_selected.jpg","","88","main_expt"
"295","","bandit","167","655519","0.0-128.0-0.0","35009021","wem/bandit_either","A100Y89FZO4J0B","either","1","","","","","","","0","0","1","0.219142046","","0.6","0.8","0.4","0.2","","","","","0.219142046","0.05115519592","0.1809358483","0.2733562597","","","","","","","72","H","0","img/none_selected.jpg","","89","main_expt"
"615","","bandit","168","657649","0.0-129.0-0.0","35009021","wem/bandit_either","A100Y89FZO4J0B","either","1","","","","","","","1","0","0","0.2806923657","","0.6","0.8","0.4","0.2","","","","","0.2806923657","0.07819273649","0.1293356972","0.2973868449","","","","","","","72","H","0","img/none_selected.jpg","","90","main_expt"
"343","","bandit","169","659503","0.0-130.0-0.0","35009021","wem/bandit_either","A100Y89FZO4J0B","either","1","","","","","","","0","0","1","","0.2819660137","0.6","0.8","0.4","0.2","0.2819660137","0.05564661524","0.1136224352","0.3067689268","","","","","","","","","","","72","H","0","img/none_selected.jpg","","91","main_expt"
"281","","bandit","170","661296","0.0-131.0-0.0","35009021","wem/bandit_either","A100Y89FZO4J0B","either","1","","","","","","","0","0","1","","0.3370305887","0.6","0.8","0.4","0.2","0.3370305887","0.05914103421","0.07539152519","0.2719776188","","","","","","","","","","","72","H","0","img/none_selected.jpg","","92","main_expt"
"1299","","bandit","171","664108","0.0-132.0-0.0","35009021","wem/bandit_either","A100Y89FZO4J0B","either","1","","","","","","","0","0","1","","0.3722719914","0.6","0.8","0.4","0.2","0.3722719914","0.03944324463","0.08243558305","0.3081791896","","","","","","","","","","","72","H","0","img/none_selected.jpg","","93","main_expt"
"620","","bandit","172","666239","0.0-133.0-0.0","35009021","wem/bandit_either","A100Y89FZO4J0B","either","1","","","","","","","0","0","1","0.3840030774","","0.6","0.8","0.4","0.2","","","","","0.3840030774","0.05023017475","0.09807673793","0.356667856","","","","","","","72","H","0","img/none_selected.jpg","","94","main_expt"
"648","","bandit","173","668400","0.0-134.0-0.0","35009021","wem/bandit_either","A100Y89FZO4J0B","either","1","","","","","","","1","0","0","0.4050844552","","0.6","0.8","0.4","0.2","","","","","0.4050844552","0.07311956304","0.09746204728","0.3300765204","","","","","","","72","H","0","img/none_selected.jpg","","95","main_expt"
"566","","bandit","174","670480","0.0-135.0-0.0","35009021","wem/bandit_either","A100Y89FZO4J0B","either","1","","","","","","","0","1","0","","0.4081076376","0.6","0.8","0.4","0.2","0.4081076376","0.09573717159","0.08559835745","0.3642735905","","","","","","","","","","","72","H","0","img/none_selected.jpg","","96","main_expt"
"727","","bandit","175","672720","0.0-136.0-0.0","35009021","wem/bandit_either","A100Y89FZO4J0B","either","1","","","","","","","1","0","0","0.4142780263","","0.6","0.8","0.4","0.2","","","","","0.4142780263","0.1235519285","0.0732645996","0.3885664579","","","","","","","72","H","0","img/none_selected.jpg","","97","main_expt"
"406","","bandit","176","674639","0.0-137.0-0.0","35009021","wem/bandit_either","A100Y89FZO4J0B","either","1","","","","","","","0","0","1","0.4131193208","","0.6","0.8","0.4","0.2","","","","","0.4131193208","0.1274282425","0.05343209845","0.4162912028","","","","","","","72","H","0","img/none_selected.jpg","","98","main_expt"
"456","","bandit","177","676606","0.0-138.0-0.0","35009021","wem/bandit_either","A100Y89FZO4J0B","either","1","","","","","","","0","0","1","0.428944851","","0.6","0.8","0.4","0.2","","","","","0.428944851","0.1457321849","0.05144299931","0.4074153657","","","","","","","72","H","0","img/none_selected.jpg","","99","main_expt"
"429","","bandit","178","678543","0.0-139.0-0.0","35009021","wem/bandit_either","A100Y89FZO4J0B","either","1","","","","","","","1","0","0","0.4279797645","","0.6","0.8","0.4","0.2","","","","","0.4279797645","0.1492128348","0.03934302155","0.3349137267","","","","","","","72","H","0","img/none_selected.jpg","","100","main_expt"
"359","","bandit","179","680414","0.0-140.0-0.0","35009021","wem/bandit_either","A100Y89FZO4J0B","either","1","","","","","","","0","1","0","","0.4189249443","0.6","0.8","0.4","0.2","0.4189249443","0.125019219","0.05783306622","0.2732947861","","","","","","","","","","","72","H","0","img/none_selected.jpg","","101","main_expt"
"296","","bandit","180","682224","0.0-141.0-0.0","35009021","wem/bandit_either","A100Y89FZO4J0B","either","1","","","","","","","0","0","1","","0.4279241466","0.6","0.8","0.4","0.2","0.4279241466","0.1008510245","0.06484492547","0.2584454073","","","","","","","","","","","72","H","0","img/none_selected.jpg","","102","main_expt"
"407","","bandit","181","684144","0.0-142.0-0.0","35009021","wem/bandit_either","A100Y89FZO4J0B","either","1","","","","","","","0","1","0","","0.419390052","0.6","0.8","0.4","0.2","0.419390052","0.1087281004","0.0701259157","0.2143891894","","","","","","","","","","","72","H","0","img/none_selected.jpg","","103","main_expt"
"356","","bandit","182","686015","0.0-143.0-0.0","35009021","wem/bandit_either","A100Y89FZO4J0B","either","1","","","","","","","0","0","1","","0.3761202226","0.6","0.8","0.4","0.2","0.3761202226","0.143855427","0.06922647753","0.1354346047","","","","","","","","","","","72","H","0","img/none_selected.jpg","","104","main_expt"
"599","","bandit","183","688128","0.0-144.0-0.0","35009021","wem/bandit_either","A100Y89FZO4J0B","either","1","","","","","","","0","0","1","0.4229881466","","0.6","0.8","0.4","0.2","","","","","0.4229881466","0.1606853024","0.07802312096","0.1615963473","","","","","","","72","H","0","img/none_selected.jpg","","105","main_expt"
"294","","bandit","184","689935","0.0-145.0-0.0","35009021","wem/bandit_either","A100Y89FZO4J0B","either","1","","","","","","","1","0","0","0.4110558218","","0.6","0.8","0.4","0.2","","","","","0.4110558218","0.1612939645","0.08930313369","0.1738621023","","","","","","","72","H","0","img/none_selected.jpg","","106","main_expt"
"359","","bandit","185","691808","0.0-146.0-0.0","35009021","wem/bandit_either","A100Y89FZO4J0B","either","1","","","","","","","0","0","1","","0.4176599015","0.6","0.8","0.4","0.2","0.4176599015","0.1778053335","0.1397733654","0.1799671425","","","","","","","","","","","72","H","0","img/none_selected.jpg","","107","main_expt"
"357","","bandit","186","693679","0.0-147.0-0.0","35009021","wem/bandit_either","A100Y89FZO4J0B","either","1","","","","","","","1","0","0","0.4210396584","","0.6","0.8","0.4","0.2","","","","","0.4210396584","0.1826465361","0.1505899732","0.1844274074","","","","","","","72","H","0","img/none_selected.jpg","","108","main_expt"
"1367","","bandit","187","696560","0.0-148.0-0.0","35009021","wem/bandit_either","A100Y89FZO4J0B","either","1","","","","","","","1","0","0","0.4328015469","","0.6","0.8","0.4","0.2","","","","","0.4328015469","0.1737022726","0.1162436109","0.1702708828","","","","","","","72","H","0","img/none_selected.jpg","","109","main_expt"
"389","","bandit","188","698463","0.0-149.0-0.0","35009021","wem/bandit_either","A100Y89FZO4J0B","either","1","","","","","","","0","0","1","","0.4495585744","0.6","0.8","0.4","0.2","0.4495585744","0.1658344406","0.08267976014","0.1964407335","","","","","","","","","","","72","H","0","img/none_selected.jpg","","110","main_expt"
"677","","bandit","189","700655","0.0-150.0-0.0","35009021","wem/bandit_either","A100Y89FZO4J0B","either","1","","","","","","","0","0","1","","0.4237631325","0.6","0.8","0.4","0.2","0.4237631325","0.240619448","0.09389793805","0.1777579569","","","","","","","","","","","72","H","0","img/none_selected.jpg","","111","main_expt"
"263","","bandit","190","702430","0.0-151.0-0.0","35009021","wem/bandit_either","A100Y89FZO4J0B","either","1","","","","","","","0","1","0","","0.4521571561","0.6","0.8","0.4","0.2","0.4521571561","0.1927397719","0.07903418564","0.1395994444","","","","","","","","","","","72","H","0","img/none_selected.jpg","","112","main_expt"
"4362","","bandit","191","708304","0.0-152.0-0.0","35009021","wem/bandit_either","A100Y89FZO4J0B","either","1","","","","","","","0","0","1","0.4350762846","","0.6","0.8","0.4","0.2","","","","","0.4350762846","0.234725565","0.05501139052","0.1205999431","","","","","","","72","H","0","img/none_selected.jpg","","113","main_expt"
"548","","bandit","192","710368","0.0-153.0-0.0","35009021","wem/bandit_either","A100Y89FZO4J0B","either","1","","","","","","","1","0","0","0.4315824664","","0.6","0.8","0.4","0.2","","","","","0.4315824664","0.1950215869","0.07627702456","0.09123355482","","","","","","","72","H","0","img/none_selected.jpg","","114","main_expt"
"763","","bandit","193","712638","0.0-154.0-0.0","35009021","wem/bandit_either","A100Y89FZO4J0B","either","1","","","","","","","0","0","1","","0.4127349624","0.6","0.8","0.4","0.2","0.4127349624","0.2575833325","0.03985247356","0.09554471192","","","","","","","","","","","72","H","0","img/none_selected.jpg","","115","main_expt"
"936","","bandit","194","715086","0.0-155.0-0.0","35009021","wem/bandit_either","A100Y89FZO4J0B","either","1","","","","","","","0","0","1","","0.4468356006","0.6","0.8","0.4","0.2","0.4468356006","0.2296468005","0.0683792979","0.1942182492","","","","","","","","","","","72","H","0","img/none_selected.jpg","","116","main_expt"
"797","","bandit","195","717391","0.0-156.0-0.0","35009021","wem/bandit_either","A100Y89FZO4J0B","either","1","","","","","","","1","0","0","0.4458703805","","0.6","0.8","0.4","0.2","","","","","0.4458703805","0.2816483341","0.03956212276","0.2208250117","","","","","","","72","H","0","img/none_selected.jpg","","117","main_expt"
"552","","bandit","196","719455","0.0-157.0-0.0","35009021","wem/bandit_either","A100Y89FZO4J0B","either","1","","","","","","","0","0","1","","0.4500370674","0.6","0.8","0.4","0.2","0.4500370674","0.2626769985","0.04459229253","0.1687975443","","","","","","","","","","","72","H","0","img/none_selected.jpg","","118","main_expt"
"375","","bandit","197","721342","0.0-158.0-0.0","35009021","wem/bandit_either","A100Y89FZO4J0B","either","1","","","","","","","0","0","1","0.2418090277","","0.6","0.8","0.4","0.2","","","","","0.4704359259","0.2418090277","0.03386957434","0.1546105485","","","","","","","74","J","1","","","119","main_expt"
"429","","bandit","198","723278","0.0-159.0-0.0","35009021","wem/bandit_either","A100Y89FZO4J0B","either","1","","","","","","","0","0","1","","0.4578798539","0.6","0.8","0.4","0.2","0.4578798539","0.2603236095","0.03305427522","0.143668411","","","","","","","","","","","72","H","0","img/none_selected.jpg","","120","main_expt"
"330","","bandit","199","725119","0.0-160.0-0.0","35009021","wem/bandit_either","A100Y89FZO4J0B","either","1","","","","","","","0","0","1","","0.1098317425","0.6","0.8","0.4","0.2","0.4591190262","0.2381785671","0.03146098963","0.1098317425","","","","","","","","","","","76","L","3","","","121","main_expt"
"391","","bandit","200","727024","0.0-161.0-0.0","35009021","wem/bandit_either","A100Y89FZO4J0B","either","1","","","","","","","0","0","1","","0.02311797033","0.6","0.8","0.4","0.2","0.4643737298","0.2388462554","0.02311797033","0.1097832873","","","","","","","","","","","75","K","2","","","122","main_expt"
"360","","bandit","201","728895","0.0-162.0-0.0","35009021","wem/bandit_either","A100Y89FZO4J0B","either","1","","","","","","","0","0","1","0.451586091","","0.6","0.8","0.4","0.2","","","","","0.451586091","0.2079929623","0.0171261738","0.1145900252","","","","","","","72","H","0","img/none_selected.jpg","","123","main_expt"
"679","","bandit","202","731087","0.0-163.0-0.0","35009021","wem/bandit_either","A100Y89FZO4J0B","either","1","","","","","","","0","0","1","0.03468299263","","0.6","0.8","0.4","0.2","","","","","0.4456906556","0.2148400852","0.03468299263","0.1137783892","","","","","","","75","K","2","","","124","main_expt"
"503","","bandit","203","733101","0.0-164.0-0.0","35009021","wem/bandit_either","A100Y89FZO4J0B","either","1","","","","","","","1","0","0","0.2185056602","","0.6","0.8","0.4","0.2","","","","","0.4240876494","0.2185056602","0.02544516396","0.145605256","","","","","","","74","J","1","","","125","main_expt"
"412","","bandit","204","735021","0.0-165.0-0.0","35009021","wem/bandit_either","A100Y89FZO4J0B","either","1","","","","","","","0","0","1","0.2152323899","","0.6","0.8","0.4","0.2","","","","","0.4008501573","0.2152323899","0.03059506073","0.1443839055","","","","","","","74","J","1","","","126","main_expt"
"520","","bandit","205","737055","0.0-166.0-0.0","35009021","wem/bandit_either","A100Y89FZO4J0B","either","1","","","","","","","0","0","1","0.1699446714","","0.6","0.8","0.4","0.2","","","","","0.4066073101","0.1699446714","0.0339638967","0.1434222382","","","","","","","74","J","1","","","127","main_expt"
"645","","bandit","206","739215","0.0-167.0-0.0","35009021","wem/bandit_either","A100Y89FZO4J0B","either","1","","","","","","","0","0","1","0.1299446217","","0.6","0.8","0.4","0.2","","","","","0.4270302575","0.1299446217","0.02632978063","0.1412168693","","","","","","","74","J","1","","","128","main_expt"
"645","","bandit","207","741374","0.0-168.0-0.0","35009021","wem/bandit_either","A100Y89FZO4J0B","either","1","","","","","","","0","0","1","0.4401824822","","0.6","0.8","0.4","0.2","","","","","0.4401824822","0.1299487573","0.02640977482","0.1086871361","","","","","","","72","H","0","img/none_selected.jpg","","129","main_expt"
"470","","bandit","208","743358","0.0-169.0-0.0","35009021","wem/bandit_either","A100Y89FZO4J0B","either","1","","","","","","","0","0","1","0.1172580566","","0.6","0.8","0.4","0.2","","","","","0.4160959849","0.1172580566","0.03646961518","0.1672766288","","","","","","","74","J","1","","","130","main_expt"
"677","","bandit","209","745550","0.0-170.0-0.0","35009021","wem/bandit_either","A100Y89FZO4J0B","either","1","","","","","","","0","1","0","","0.157110596","0.6","0.8","0.4","0.2","0.4374535298","0.1289979545","0.02171712127","0.157110596","","","","","","","","","","","76","L","3","","","131","main_expt"
"423","","bandit","210","747487","0.0-171.0-0.0","35009021","wem/bandit_either","A100Y89FZO4J0B","either","1","","","","","","","0","0","1","","0.1338697581","0.6","0.8","0.4","0.2","0.4382483821","0.1243754988","0.01004766493","0.1338697581","","","","","","","","","","","76","L","3","","","132","main_expt"
"534","","bandit","211","749533","0.0-172.0-0.0","35009021","wem/bandit_either","A100Y89FZO4J0B","either","1","","","","","","","0","0","1","0.1189203389","","0.6","0.8","0.4","0.2","","","","","0.3913946914","0.1189203389","0.005153708139","0.1101669797","","","","","","","74","J","1","","","133","main_expt"
"375","","bandit","212","751421","0.0-173.0-0.0","35009021","wem/bandit_either","A100Y89FZO4J0B","either","1","","","","","","","0","1","0","","0.4280120537","0.6","0.8","0.4","0.2","0.4280120537","0.07075860378","0.01308543257","0.060775537","","","","","","","","","","","72","H","0","img/none_selected.jpg","","134","main_expt"
"391","","bandit","213","753326","0.0-174.0-0.0","35009021","wem/bandit_either","A100Y89FZO4J0B","either","1","","","","","","","0","0","1","0.4385213509","","0.6","0.8","0.4","0.2","","","","","0.4385213509","0.1073185777","0.02634180281","0.0714416082","","","","","","","72","H","0","img/none_selected.jpg","","135","main_expt"
"311","","bandit","214","755149","0.0-175.0-0.0","35009021","wem/bandit_either","A100Y89FZO4J0B","either","1","","","","","","","0","0","1","","0.1115096907","0.6","0.8","0.4","0.2","0.4605212521","0.1001442491","0.04122629063","0.1115096907","","","","","","","","","","","76","L","3","","","136","main_expt"
"326","","bandit","215","756990","0.0-176.0-0.0","35009021","wem/bandit_either","A100Y89FZO4J0B","either","1","","","","","","","0","0","1","0.4729500637","","0.6","0.8","0.4","0.2","","","","","0.4729500637","0.1736681681","0.05517648788","0.1307091067","","","","","","","72","H","0","img/none_selected.jpg","","137","main_expt"
"375","","bandit","216","758880","0.0-177.0-0.0","35009021","wem/bandit_either","A100Y89FZO4J0B","either","1","","","","","","","0","0","1","","0.05929415862","0.6","0.8","0.4","0.2","0.4705425907","0.1839908368","0.05929415862","0.1289533412","","","","","","","","","","","75","K","2","","","138","main_expt"
"307","","bandit","217","760700","0.0-178.0-0.0","35009021","wem/bandit_either","A100Y89FZO4J0B","either","1","","","","","","","0","0","1","","0.1500833973","0.6","0.8","0.4","0.2","0.465423541","0.1500833973","0.05470710098","0.1215972271","","","","","","","","","","","74","J","1","","","139","main_expt"
"343","","bandit","218","762557","0.0-179.0-0.0","35009021","wem/bandit_either","A100Y89FZO4J0B","either","1","","","","","","","0","0","1","","0.1158179575","0.6","0.8","0.4","0.2","0.4486857012","0.1718879457","0.06062538604","0.1158179575","","","","","","","","","","","76","L","3","","","140","main_expt"
"328","","bandit","219","764396","0.0-180.0-0.0","35009021","wem/bandit_either","A100Y89FZO4J0B","either","1","","","","","","","0","0","1","","0.4053061298","0.6","0.8","0.4","0.2","0.4053061298","0.2025036279","0.05819772386","0.08691297649","","","","","","","","","","","72","H","0","img/none_selected.jpg","","141","main_expt"
"552","","bandit","220","766462","0.0-181.0-0.0","35009021","wem/bandit_either","A100Y89FZO4J0B","either","1","","","","","","","0","0","1","","0.3989731656","0.6","0.8","0.4","0.2","0.3989731656","0.1872564568","0.05329701838","0.1425267255","","","","","","","","","","","72","H","0","img/none_selected.jpg","","142","main_expt"
"309","","bandit","221","768284","0.0-182.0-0.0","35009021","wem/bandit_either","A100Y89FZO4J0B","either","1","","","","","","","0","0","1","0.1425141192","","0.6","0.8","0.4","0.2","","","","","0.3783570596","0.1676641842","0.06209903385","0.1425141192","","","","","","","76","L","3","","","143","main_expt"
"184","","bandit","222","769981","0.0-183.0-0.0","35009021","wem/bandit_either","A100Y89FZO4J0B","either","1","","","","","","","0","0","1","0.3485663762","","0.6","0.8","0.4","0.2","","","","","0.3485663762","0.1502987652","0.06954729647","0.1362652721","","","","","","","72","H","0","img/none_selected.jpg","","144","main_expt"
"519","","bandit","223","772013","0.0-184.0-0.0","35009021","wem/bandit_either","A100Y89FZO4J0B","either","1","","","","","","","0","0","1","0.1050568962","","0.6","0.8","0.4","0.2","","","","","0.3534190037","0.1050568962","0.062760129","0.1335650053","","","","","","","74","J","1","","","145","main_expt"
"407","","bandit","224","773933","0.0-185.0-0.0","35009021","wem/bandit_either","A100Y89FZO4J0B","either","1","","","","","","","0","0","1","0.05014677947","","0.6","0.8","0.4","0.2","","","","","0.342282706","0.1266784727","0.05014677947","0.1392461982","","","","","","","75","K","2","","","146","main_expt"
"551","","bandit","225","775999","0.0-186.0-0.0","35009021","wem/bandit_either","A100Y89FZO4J0B","either","1","","","","","","","1","0","0","0.3497384939","","0.6","0.8","0.4","0.2","","","","","0.3497384939","0.1121887101","0.04801868921","0.1060810453","","","","","","","72","H","0","img/none_selected.jpg","","147","main_expt"
"324","","bandit","226","777837","0.0-187.0-0.0","35009021","wem/bandit_either","A100Y89FZO4J0B","either","1","","","","","","","0","0","1","","0.3507348305","0.6","0.8","0.4","0.2","0.3507348305","0.1050077765","0.05298179562","0.1076054289","","","","","","","","","","","72","H","0","img/none_selected.jpg","","148","main_expt"
"412","","bandit","227","779759","0.0-188.0-0.0","35009021","wem/bandit_either","A100Y89FZO4J0B","either","1","","","","","","","0","0","1","0.306786392","","0.6","0.8","0.4","0.2","","","","","0.306786392","0.08725679698","0.05271587927","0.09143227578","","","","","","","72","H","0","img/none_selected.jpg","","149","main_expt"
"661","","bandit","228","781933","0.0-189.0-0.0","35009021","wem/bandit_either","A100Y89FZO4J0B","either","1","","","","","","","0","1","0","","0.3289077467","0.6","0.8","0.4","0.2","0.3289077467","0.04813781364","0.06153260368","0.08361181256","","","","","","","","","","","72","H","0","img/none_selected.jpg","","150","main_expt"
"348","","bandit","229","783789","0.0-190.0-0.0","35009021","wem/bandit_either","A100Y89FZO4J0B","either","1","","","","","","","1","0","0","0.2844912386","","0.6","0.8","0.4","0.2","","","","","0.2844912386","0.04690393958","0.07716317934","0.1038450747","","","","","","","72","H","0","img/none_selected.jpg","","151","main_expt"
"294","","bandit","230","785597","0.0-191.0-0.0","35009021","wem/bandit_either","A100Y89FZO4J0B","either","1","","","","","","","0","0","1","","0.3221551402","0.6","0.8","0.4","0.2","0.3221551402","0.05051779207","0.08370894892","0.1311897928","","","","","","","","","","","72","H","0","img/none_selected.jpg","","152","main_expt"
"280","","bandit","231","787389","0.0-192.0-0.0","35009021","wem/bandit_either","A100Y89FZO4J0B","either","1","","","","","","","0","0","1","0.0417019452","","0.6","0.8","0.4","0.2","","","","","0.288581716","0.0417019452","0.06235129306","0.1106636196","","","","","","","74","J","1","","","153","main_expt"
"262","","bandit","232","789165","0.0-193.0-0.0","35009021","wem/bandit_either","A100Y89FZO4J0B","either","1","","","","","","","0","0","1","","0.08044616817","0.6","0.8","0.4","0.2","0.3674714493","0.04565059468","0.08808261531","0.08044616817","","","","","","","","","","","76","L","3","","","154","main_expt"
"278","","bandit","233","790956","0.0-194.0-0.0","35009021","wem/bandit_either","A100Y89FZO4J0B","either","1","","","","","","","0","0","1","","0.3836765626","0.6","0.8","0.4","0.2","0.3836765626","0.0249337719","0.08415746701","0.09849608375","","","","","","","","","","","72","H","0","img/none_selected.jpg","","155","main_expt"
"406","","bandit","234","792877","0.0-195.0-0.0","35009021","wem/bandit_either","A100Y89FZO4J0B","either","1","","","","","","","0","0","1","","0.1363215429","0.6","0.8","0.4","0.2","0.3499766022","0.0207568711","0.1363215429","0.0679626842","","","","","","","","","","","75","K","2","","","156","main_expt"
"280","","bandit","235","794670","0.0-196.0-0.0","35009021","wem/bandit_either","A100Y89FZO4J0B","either","1","","","","","","","0","0","1","0.01044871803","","0.6","0.8","0.4","0.2","","","","","0.3083455354","0.01044871803","0.176329139","0.06316877849","","","","","","","74","J","1","","","157","main_expt"
"295","","bandit","236","796478","0.0-197.0-0.0","35009021","wem/bandit_either","A100Y89FZO4J0B","either","1","","","","","","","0","0","1","0.2780985587","","0.6","0.8","0.4","0.2","","","","","0.2780985587","0.008486032171","0.2239815039","0.06381796224","","","","","","","72","H","0","img/none_selected.jpg","","158","main_expt"
"885","","bandit","237","798878","0.0-198.0-0.0","35009021","wem/bandit_either","A100Y89FZO4J0B","either","1","","","","","","","0","0","1","","0.2721424699","0.6","0.8","0.4","0.2","0.2721424699","0.006770001311","0.1754735631","0.09986374221","","","","","","","","","","","72","H","0","img/none_selected.jpg","","159","main_expt"
"484","","bandit","238","800877","0.0-199.0-0.0","35009021","wem/bandit_either","A100Y89FZO4J0B","either","1","","","","","","","0","0","1","","0.3005636977","0.6","0.8","0.4","0.2","0.3005636977","0.005009972043","0.1820859676","0.08334790929","","","","","","","","","","","72","H","0","img/none_selected.jpg","","160","main_expt"
"471","","bandit","239","802863","0.0-200.0-0.0","35009021","wem/bandit_either","A100Y89FZO4J0B","either","1","","","","","","","0","0","1","","0.1771527669","0.6","0.8","0.4","0.2","0.2481613967","0.003825417776","0.1771527669","0.1094566723","","","","","","","","","","","75","K","2","","","161","main_expt"
"1160","","bandit","240","805534","0.0-201.0-0.0","35009021","wem/bandit_either","A100Y89FZO4J0B","either","1","","","","","","","0","0","1","0.2040880477","","0.6","0.8","0.4","0.2","","","","","0.2040880477","0.006458278423","0.209245514","0.1287108975","","","","","","","72","H","0","img/none_selected.jpg","","162","main_expt"
"583","","bandit","241","807630","0.0-202.0-0.0","35009021","wem/bandit_either","A100Y89FZO4J0B","either","1","","","","","","","0","0","1","","0.1811808859","0.6","0.8","0.4","0.2","0.256608811","0.01344146107","0.1864252411","0.1811808859","","","","","","","","","","","76","L","3","","","163","main_expt"
"395","","bandit","242","809534","0.0-203.0-0.0","35009021","wem/bandit_either","A100Y89FZO4J0B","either","1","","","","","","","0","0","1","0.004940614731","","0.6","0.8","0.4","0.2","","","","","0.2798468236","0.004940614731","0.1662237337","0.1374611454","","","","","","","74","J","1","","","164","main_expt"
"529","","bandit","243","811581","0.0-204.0-0.0","35009021","wem/bandit_either","A100Y89FZO4J0B","either","1","","","","","","","1","0","0","0.2689568899","","0.6","0.8","0.4","0.2","","","","","0.2689568899","0.007349038951","0.1375661656","0.1640313333","","","","","","","72","H","0","img/none_selected.jpg","","165","main_expt"
"357","","bandit","244","813454","0.0-205.0-0.0","35009021","wem/bandit_either","A100Y89FZO4J0B","either","1","","","","","","","0","0","1","0.2786045926","","0.6","0.8","0.4","0.2","","","","","0.2786045926","0.005679103294","0.1416727521","0.20052236","","","","","","","72","H","0","img/none_selected.jpg","","166","main_expt"
"661","","bandit","245","815629","0.0-206.0-0.0","35009021","wem/bandit_either","A100Y89FZO4J0B","either","1","","","","","","","0","0","1","","0.2507583434","0.6","0.8","0.4","0.2","0.2507583434","0.004037182679","0.1497541138","0.1945206589","","","","","","","","","","","72","H","0","img/none_selected.jpg","","167","main_expt"
"1590","","bandit","246","818734","0.0-207.0-0.0","35009021","wem/bandit_either","A100Y89FZO4J0B","either","1","","","","","","","0","0","1","0.1827624484","","0.6","0.8","0.4","0.2","","","","","0.1827624484","0.007111326723","0.1761460581","0.1902154162","","","","","","","72","H","0","img/none_selected.jpg","","168","main_expt"
"771","","bandit","247","821021","0.0-208.0-0.0","35009021","wem/bandit_either","A100Y89FZO4J0B","either","1","","","","","","","0","0","1","0.1558723634","","0.6","0.8","0.4","0.2","","","","","0.1558723634","0.01708305062","0.2248215173","0.1931964682","","","","","","","72","H","0","img/none_selected.jpg","","169","main_expt"
"548","","bandit","248","823084","0.0-209.0-0.0","35009021","wem/bandit_either","A100Y89FZO4J0B","either","1","","","","","","","1","0","0","0.2503105048","","0.6","0.8","0.4","0.2","","","","","0.1757164868","0.02105388628","0.2503105048","0.236179436","","","","","","","75","K","2","","","170","main_expt"
"408","","bandit","249","825004","0.0-210.0-0.0","35009021","wem/bandit_either","A100Y89FZO4J0B","either","1","","","","","","","0","0","1","","0.2515708499","0.6","0.8","0.4","0.2","0.1985597056","0.01477187034","0.2515708499","0.2229285478","","","","","","","","","","","75","K","2","","","171","main_expt"
"967","","bandit","250","827485","0.0-211.0-0.0","35009021","wem/bandit_either","A100Y89FZO4J0B","either","1","","","","","","","0","0","1","0.1725269859","","0.6","0.8","0.4","0.2","","","","","0.1725269859","0.00639283578","0.2601117771","0.1805811295","","","","","","","72","H","0","img/none_selected.jpg","","172","main_expt"
"646","","bandit","251","829645","0.0-212.0-0.0","35009021","wem/bandit_either","A100Y89FZO4J0B","either","1","","","","","","","0","1","0","","0.2277859889","0.6","0.8","0.4","0.2","0.1955807132","0.008503536177","0.2277859889","0.2203049146","","","","","","","","","","","75","K","2","","","173","main_expt"
"1690","","bandit","252","832845","0.0-213.0-0.0","35009021","wem/bandit_either","A100Y89FZO4J0B","either","1","","","","","","","0","0","1","","0.204090619","0.6","0.8","0.4","0.2","0.1712969398","0.01512836446","0.204090619","0.2079245196","","","","","","","","","","","75","K","2","","","174","main_expt"
"692","","bandit","253","835053","0.0-214.0-0.0","35009021","wem/bandit_either","A100Y89FZO4J0B","either","1","","","","","","","0","0","1","0.2145566876","","0.6","0.8","0.4","0.2","","","","","0.2145566876","0.034550241","0.2264282848","0.1904909119","","","","","","","72","H","0","img/none_selected.jpg","","175","main_expt"
"682","","bandit","254","837245","0.0-215.0-0.0","35009021","wem/bandit_either","A100Y89FZO4J0B","either","1","","","","","","","0","0","1","","0.01969997198","0.6","0.8","0.4","0.2","0.1987050603","0.01969997198","0.2263436383","0.1611975006","","","","","","","","","","","74","J","1","","","176","main_expt"
"325","","bandit","255","839085","0.0-216.0-0.0","35009021","wem/bandit_either","A100Y89FZO4J0B","either","1","","","","","","","0","0","1","0.2161967517","","0.6","0.8","0.4","0.2","","","","","0.2161967517","0.02558747067","0.2449632337","0.1747210449","","","","","","","72","H","0","img/none_selected.jpg","","177","main_expt"
"549","","bandit","256","841149","0.0-217.0-0.0","35009021","wem/bandit_either","A100Y89FZO4J0B","either","1","","","","","","","0","0","1","","0.1923885174","0.6","0.8","0.4","0.2","0.1790488899","0.02865462312","0.1923885174","0.1667690144","","","","","","","","","","","75","K","2","","","178","main_expt"
"757","","bandit","257","843422","0.0-218.0-0.0","35009021","wem/bandit_either","A100Y89FZO4J0B","either","1","","","","","","","0","0","1","","0.248539666","0.6","0.8","0.4","0.2","0.1254539317","0.05873937836","0.1791230597","0.248539666","","","","","","","","","","","76","L","3","","","179","main_expt"
"358","","bandit","258","845293","0.0-219.0-0.0","35009021","wem/bandit_either","A100Y89FZO4J0B","either","1","","","","","","","0","0","1","0.1761702366","","0.6","0.8","0.4","0.2","","","","","0.1761702366","0.04996702027","0.1641305094","0.2393284063","","","","","","","72","H","0","img/none_selected.jpg","","180","main_expt"
"500","","bandit","259","847310","0.0-220.0-0.0","35009021","wem/bandit_either","A100Y89FZO4J0B","either","1","","","","","","","0","0","1","","0.1567194189","0.6","0.8","0.4","0.2","0.2307221343","0.06192223509","0.1567194189","0.2450765022","","","","","","","","","","","75","K","2","","","181","main_expt"
"774","","bandit","260","849596","0.0-221.0-0.0","35009021","wem/bandit_either","A100Y89FZO4J0B","either","1","","","","","","","1","0","0","0.1656926355","","0.6","0.8","0.4","0.2","","","","","0.1656926355","0.07865608963","0.1805899487","0.2898963007","","","","","","","72","H","0","img/none_selected.jpg","","182","main_expt"
"345","","bandit","261","851453","0.0-222.0-0.0","35009021","wem/bandit_either","A100Y89FZO4J0B","either","1","","","","","","","0","0","1","","0.1997223474","0.6","0.8","0.4","0.2","0.1997223474","0.0695036973","0.1381226487","0.337419987","","","","","","","","","","","72","H","0","img/none_selected.jpg","","183","main_expt"
"404","","bandit","262","853373","0.0-223.0-0.0","35009021","wem/bandit_either","A100Y89FZO4J0B","either","1","","","","","","","0","0","1","","0.1157029232","0.6","0.8","0.4","0.2","0.1936006223","0.09883674892","0.1157029232","0.3334404967","","","","","","","","","","","75","K","2","","","184","main_expt"
"356","","bandit","263","855246","0.0-224.0-0.0","35009021","wem/bandit_either","A100Y89FZO4J0B","either","1","","","","","","","0","0","1","0.1794548994","","0.6","0.8","0.4","0.2","","","","","0.1794548994","0.1344132801","0.09007466759","0.3049781316","","","","","","","72","H","0","img/none_selected.jpg","","185","main_expt"
"372","","bandit","264","857133","0.0-225.0-0.0","35009021","wem/bandit_either","A100Y89FZO4J0B","either","1","","","","","","","0","0","1","0.1194183803","","0.6","0.8","0.4","0.2","","","","","0.1679588243","0.1194183803","0.07784091677","0.322039184","","","","","","","74","J","1","","","186","main_expt"
"468","","bandit","265","859117","0.0-226.0-0.0","35009021","wem/bandit_either","A100Y89FZO4J0B","either","1","","","","","","","0","0","1","0.1692259204","","0.6","0.8","0.4","0.2","","","","","0.1692259204","0.1456002269","0.1332261693","0.2898485093","","","","","","","72","H","0","img/none_selected.jpg","","187","main_expt"
"388","","bandit","266","861020","0.0-227.0-0.0","35009021","wem/bandit_either","A100Y89FZO4J0B","either","1","","","","","","","0","0","1","0.1302169342","","0.6","0.8","0.4","0.2","","","","","0.1796926114","0.1008589119","0.1302169342","0.3046836684","","","","","","","75","K","2","","","188","main_expt"
"677","","bandit","267","863213","0.0-228.0-0.0","35009021","wem/bandit_either","A100Y89FZO4J0B","either","1","","","","","","","0","0","1","","0.3437642557","0.6","0.8","0.4","0.2","0.1463090895","0.09109327247","0.1459867673","0.3437642557","","","","","","","","","","","76","L","3","","","189","main_expt"
"532","","bandit","268","865263","0.0-229.0-0.0","35009021","wem/bandit_either","A100Y89FZO4J0B","either","1","","","","","","","0","1","0","","0.1670442817","0.6","0.8","0.4","0.2","0.1670442817","0.133333279","0.1930387326","0.3685715368","","","","","","","","","","","72","H","0","img/none_selected.jpg","","190","main_expt"
"707","","bandit","269","867485","0.0-230.0-0.0","35009021","wem/bandit_either","A100Y89FZO4J0B","either","1","","","","","","","0","0","1","0.2148667481","","0.6","0.8","0.4","0.2","","","","","0.2148667481","0.1253338948","0.1447045196","0.4063368095","","","","","","","72","H","0","img/none_selected.jpg","","191","main_expt"
"1106","","bandit","270","870108","0.0-231.0-0.0","35009021","wem/bandit_either","A100Y89FZO4J0B","either","1","","","","","","","0","0","1","","0.1521301445","0.6","0.8","0.4","0.2","0.1891029698","0.1371372983","0.1521301445","0.4194789623","","","","","","","","","","","75","K","2","","","192","main_expt"
"420","","bandit","271","872045","0.0-232.0-0.0","35009021","wem/bandit_either","A100Y89FZO4J0B","either","1","","","","","","","0","0","1","0.1216552598","","0.6","0.8","0.4","0.2","","","","","0.1818436489","0.1269519223","0.1216552598","0.3914453041","","","","","","","75","K","2","","","193","main_expt"
"452","","bandit","272","874012","0.0-233.0-0.0","35009021","wem/bandit_either","A100Y89FZO4J0B","either","1","","","","","","","0","0","1","","0.2036833838","0.6","0.8","0.4","0.2","0.2036833838","0.1253972088","0.07681554104","0.3988429791","","","","","","","","","","","72","H","0","img/none_selected.jpg","","194","main_expt"
"948","","bandit","273","876476","0.0-234.0-0.0","35009021","wem/bandit_either","A100Y89FZO4J0B","either","1","","","","","","","0","0","1","","0.1231557279","0.6","0.8","0.4","0.2","0.2189502041","0.1231557279","0.07468822185","0.4212514022","","","","","","","","","","","74","J","1","","","195","main_expt"
"627","","bandit","274","878620","0.0-235.0-0.0","35009021","wem/bandit_either","A100Y89FZO4J0B","either","1","","","","","","","0","0","1","0.2011136523","","0.6","0.8","0.4","0.2","","","","","0.2011136523","0.2304226507","0.07634526252","0.4128950903","","","","","","","72","H","0","img/none_selected.jpg","","196","main_expt"
"869","","bandit","275","881004","0.0-236.0-0.0","35009021","wem/bandit_either","A100Y89FZO4J0B","either","1","","","","","","","0","1","0","","0.2295646827","0.6","0.8","0.4","0.2","0.2295646827","0.3102822931","0.06680697181","0.3979973083","","","","","","","","","","","72","H","0","img/none_selected.jpg","","197","main_expt"
"722","","bandit","276","883245","0.0-237.0-0.0","35009021","wem/bandit_either","A100Y89FZO4J0B","either","1","","","","","","","0","0","1","0.2570874699","","0.6","0.8","0.4","0.2","","","","","0.2570874699","0.3222054514","0.05107679344","0.3153467244","","","","","","","72","H","0","img/none_selected.jpg","","198","main_expt"
"789","","bandit","277","885549","0.0-238.0-0.0","35009021","wem/bandit_either","A100Y89FZO4J0B","either","1","","","","","","","0","0","1","","0.2215013189","0.6","0.8","0.4","0.2","0.2215013189","0.3416159467","0.06140804873","0.3121882746","","","","","","","","","","","72","H","0","img/none_selected.jpg","","199","main_expt"
"451","","bandit","278","887518","0.0-239.0-0.0","35009021","wem/bandit_either","A100Y89FZO4J0B","either","1","","","","","","","0","0","1","0.05697288244","","0.6","0.8","0.4","0.2","","","","","0.1681318695","0.3826655938","0.05697288244","0.3789620948","","","","","","","75","K","2","","","200","main_expt"
"466","","bandit","279","889501","0.0-240.0-0.0","35009021","wem/bandit_either","A100Y89FZO4J0B","either","1","","","","","","","0","0","1","","0.3575696279","0.6","0.8","0.4","0.2","0.1787039029","0.4117435103","0.04802221103","0.3575696279","","","","","","","","","","","76","L","3","","","201","main_expt"
"665","","bandit","280","891677","0.0-241.0-0.0","35009021","wem/bandit_either","A100Y89FZO4J0B","either","1","","","","","","","0","0","1","","0.3937046418","0.6","0.8","0.4","0.2","0.2180442152","0.4023622846","0.04583536071","0.3937046418","","","","","","","","","","","76","L","3","","","202","main_expt"
"576","","bandit","281","893774","0.0-242.0-0.0","35009021","wem/bandit_either","A100Y89FZO4J0B","either","1","","","","","","","0","0","1","0.4225273878","","0.6","0.8","0.4","0.2","","","","","0.262784421","0.4225273878","0.03655969434","0.3901943722","","","","","","","74","J","1","","","203","main_expt"
"547","","bandit","282","895836","0.0-243.0-0.0","35009021","wem/bandit_either","A100Y89FZO4J0B","either","1","","","","","","","1","0","0","0.2843732649","","0.6","0.8","0.4","0.2","","","","","0.2843732649","0.4151046429","0.05773518339","0.4099131859","","","","","","","72","H","0","img/none_selected.jpg","","204","main_expt"
"916","","bandit","283","898268","0.0-244.0-0.0","35009021","wem/bandit_either","A100Y89FZO4J0B","either","1","","","","","","","0","0","1","0.2549063301","","0.6","0.8","0.4","0.2","","","","","0.2549063301","0.4288165897","0.06616346658","0.4238238901","","","","","","","72","H","0","img/none_selected.jpg","","205","main_expt"
"1043","","bandit","284","900828","0.0-245.0-0.0","35009021","wem/bandit_either","A100Y89FZO4J0B","either","1","","","","","","","0","0","1","","0.2982701688","0.6","0.8","0.4","0.2","0.2982701688","0.436745712","0.09055598832","0.4139837541","","","","","","","","","","","72","H","0","img/none_selected.jpg","","206","main_expt"
"931","","bandit","285","903277","0.0-246.0-0.0","35009021","wem/bandit_either","A100Y89FZO4J0B","either","1","","","","","","","1","0","0","0.3423773839","","0.6","0.8","0.4","0.2","","","","","0.3423773839","0.4484652972","0.07583085731","0.3544894801","","","","","","","72","H","0","img/none_selected.jpg","","207","main_expt"
"672","","bandit","286","905468","0.0-247.0-0.0","35009021","wem/bandit_either","A100Y89FZO4J0B","either","1","","","","","","","0","0","1","","0.3321535101","0.6","0.8","0.4","0.2","0.3321535101","0.4516947584","0.09768014643","0.3703609936","","","","","","","","","","","72","H","0","img/none_selected.jpg","","208","main_expt"
"564","","bandit","287","907548","0.0-248.0-0.0","35009021","wem/bandit_either","A100Y89FZO4J0B","either","1","","","","","","","0","0","1","","0.08389795445","0.6","0.8","0.4","0.2","0.3467721984","0.4590139285","0.08389795445","0.3590511704","","","","","","","","","","","75","K","2","","","209","main_expt"
"801","","bandit","288","909867","0.0-249.0-0.0","35009021","wem/bandit_either","A100Y89FZO4J0B","either","1","","","","","","","0","0","1","0.3513447539","","0.6","0.8","0.4","0.2","","","","","0.3513447539","0.4378910613","0.07846525543","0.3781523972","","","","","","","72","H","0","img/none_selected.jpg","","210","main_expt"
"915","","bandit","289","912300","0.0-250.0-0.0","35009021","wem/bandit_either","A100Y89FZO4J0B","either","1","","","","","","","0","0","1","0.05906932722","","0.6","0.8","0.4","0.2","","","","","0.4003692624","0.4139384991","0.05906932722","0.3895188655","","","","","","","75","K","2","","","211","main_expt"
"419","","bandit","290","914235","0.0-251.0-0.0","35009021","wem/bandit_either","A100Y89FZO4J0B","either","1","","","","","","","1","0","0","0.3949660502","","0.6","0.8","0.4","0.2","","","","","0.3949660502","0.3659234609","0.04754192311","0.4075098947","","","","","","","72","H","0","img/none_selected.jpg","","212","main_expt"
"580","","bandit","291","916331","0.0-252.0-0.0","35009021","wem/bandit_either","A100Y89FZO4J0B","either","1","","","","","","","0","0","1","0.4233479157","","0.6","0.8","0.4","0.2","","","","","0.4233479157","0.3180572988","0.05481920189","0.4191075236","","","","","","","72","H","0","img/none_selected.jpg","","213","main_expt"
"372","","bandit","292","918221","0.0-253.0-0.0","35009021","wem/bandit_either","A100Y89FZO4J0B","either","1","","","","","","","0","1","0","","0.4182751871","0.6","0.8","0.4","0.2","0.4182751871","0.2611162072","0.07954578011","0.3799529118","","","","","","","","","","","72","H","0","img/none_selected.jpg","","214","main_expt"
"914","","bandit","293","920653","0.0-254.0-0.0","35009021","wem/bandit_either","A100Y89FZO4J0B","either","1","","","","","","","0","0","1","0.3745823719","","0.6","0.8","0.4","0.2","","","","","0.3745823719","0.2331309726","0.1078137614","0.3924699069","","","","","","","72","H","0","img/none_selected.jpg","","215","main_expt"
"386","","bandit","294","922556","0.0-255.0-0.0","35009021","wem/bandit_either","A100Y89FZO4J0B","either","1","","","","","","","0","0","1","0.1269525553","","0.6","0.8","0.4","0.2","","","","","0.3809837923","0.2428402293","0.1269525553","0.3556657658","","","","","","","75","K","2","","","216","main_expt"
"899","","bandit","295","924971","0.0-256.0-0.0","35009021","wem/bandit_either","A100Y89FZO4J0B","either","1","","","","","","","0","1","0","","0.3870416945","0.6","0.8","0.4","0.2","0.4144294186","0.2317762644","0.1849794572","0.3870416945","","","","","","","","","","","76","L","3","","","217","main_expt"
"452","","bandit","296","926940","0.0-257.0-0.0","35009021","wem/bandit_either","A100Y89FZO4J0B","either","1","","","","","","","1","0","0","0.3944581396","","0.6","0.8","0.4","0.2","","","","","0.4090742927","0.204309912","0.1903787706","0.3944581396","","","","","","","76","L","3","","","218","main_expt"
"737","","bandit","297","929197","0.0-258.0-0.0","35009021","wem/bandit_either","A100Y89FZO4J0B","either","1","","","","","","","0","0","1","","0.4256173987","0.6","0.8","0.4","0.2","0.3869695378","0.1685596251","0.1768508397","0.4256173987","","","","","","","","","","","76","L","3","","","219","main_expt"
"794","","bandit","298","931501","0.0-259.0-0.0","35009021","wem/bandit_either","A100Y89FZO4J0B","either","1","","","","","","","0","0","1","0.4240862242","","0.6","0.8","0.4","0.2","","","","","0.3814250035","0.2488487331","0.2176561852","0.4240862242","","","","","","","76","L","3","","","220","main_expt"
"409","","bandit","299","933420","0.0-260.0-0.0","35009021","wem/bandit_either","A100Y89FZO4J0B","either","1","","","","","","","0","1","0","","0.4364702466","0.6","0.8","0.4","0.2","0.3560431311","0.2789816034","0.2075488201","0.4364702466","","","","","","","","","","","76","L","3","","","221","main_expt"
"578","","bandit","300","935516","0.0-261.0-0.0","35009021","wem/bandit_either","A100Y89FZO4J0B","either","1","","","","","","","0","0","1","","0.4512924842","0.6","0.8","0.4","0.2","0.3424215647","0.242729834","0.2260831429","0.4512924842","","","","","","","","","","","76","L","3","","","222","main_expt"
"835","","bandit","301","937868","0.0-262.0-0.0","35009021","wem/bandit_either","A100Y89FZO4J0B","either","1","","","","","","","0","0","1","","0.4649948574","0.6","0.8","0.4","0.2","0.3118962833","0.196538567","0.2512075751","0.4649948574","","","","","","","","","","","76","L","3","","","223","main_expt"
"612","","bandit","302","939996","0.0-263.0-0.0","35009021","wem/bandit_either","A100Y89FZO4J0B","either","1","","","","","","","1","0","0","0.4692106987","","0.6","0.8","0.4","0.2","","","","","0.261290028","0.2189223785","0.3072691987","0.4692106987","","","","","","","76","L","3","","","224","main_expt"
"643","","bandit","303","942157","0.0-264.0-0.0","35009021","wem/bandit_either","A100Y89FZO4J0B","either","1","","","","","","","0","1","0","","0.4772226815","0.6","0.8","0.4","0.2","0.2748104332","0.2131207899","0.3358063032","0.4772226815","","","","","","","","","","","76","L","3","","","225","main_expt"
"705","","bandit","304","944379","0.0-265.0-0.0","35009021","wem/bandit_either","A100Y89FZO4J0B","either","1","","","","","","","0","0","1","","0.4828013869","0.6","0.8","0.4","0.2","0.2112523614","0.187439681","0.2994610032","0.4828013869","","","","","","","","","","","76","L","3","","","226","main_expt"
"628","","bandit","305","946524","0.0-266.0-0.0","35009021","wem/bandit_either","A100Y89FZO4J0B","either","1","","","","","","","0","0","1","","0.4805292857","0.6","0.8","0.4","0.2","0.1879164098","0.1522087394","0.2719992041","0.4805292857","","","","","","","","","","","76","L","3","","","227","main_expt"
"611","","bandit","306","948653","0.0-267.0-0.0","35009021","wem/bandit_either","A100Y89FZO4J0B","either","1","","","","","","","0","0","1","0.4770879938","","0.6","0.8","0.4","0.2","","","","","0.1857646906","0.1975586059","0.2601066631","0.4770879938","","","","","","","76","L","3","","","228","main_expt"
"578","","bandit","307","950749","0.0-268.0-0.0","35009021","wem/bandit_either","A100Y89FZO4J0B","either","1","","","","","","","0","0","1","0.4830225504","","0.6","0.8","0.4","0.2","","","","","0.1608888173","0.2280604414","0.2333982712","0.4830225504","","","","","","","76","L","3","","","229","main_expt"
"385","","bandit","308","952652","0.0-269.0-0.0","35009021","wem/bandit_either","A100Y89FZO4J0B","either","1","","","","","","","0","0","1","","0.1139945837","0.6","0.8","0.4","0.2","0.1139945837","0.2120359748","0.2179366985","0.4827210916","","","","","","","","","","","72","H","0","img/none_selected.jpg","","230","main_expt"
"1333","","bandit","309","955503","0.0-270.0-0.0","35009021","wem/bandit_either","A100Y89FZO4J0B","either","1","","","","","","","0","0","1","","0.210335649","0.6","0.8","0.4","0.2","0.1071229599","0.2260377558","0.210335649","0.4764813513","","","","","","","","","","","75","K","2","","","231","main_expt"
"910","","bandit","310","957932","0.0-271.0-0.0","35009021","wem/bandit_either","A100Y89FZO4J0B","either","1","","","","","","","0","0","1","","0.4794978353","0.6","0.8","0.4","0.2","0.1250262501","0.2810037348","0.2154905401","0.4794978353","","","","","","","","","","","76","L","3","","","232","main_expt"
"835","","bandit","311","960284","0.0-272.0-0.0","35009021","wem/bandit_either","A100Y89FZO4J0B","either","1","","","","","","","0","1","0","","0.4717583679","0.6","0.8","0.4","0.2","0.1262657767","0.3371590923","0.2199054097","0.4717583679","","","","","","","","","","","76","L","3","","","233","main_expt"
"755","","bandit","312","962556","0.0-273.0-0.0","35009021","wem/bandit_either","A100Y89FZO4J0B","either","1","","","","","","","0","1","0","","0.4801470087","0.6","0.8","0.4","0.2","0.1436583916","0.2614597929","0.2116885818","0.4801470087","","","","","","","","","","","76","L","3","","","234","main_expt"
"754","","bandit","313","964828","0.0-274.0-0.0","35009021","wem/bandit_either","A100Y89FZO4J0B","either","1","","","","","","","0","0","1","0.4698449305","","0.6","0.8","0.4","0.2","","","","","0.1776605917","0.2855471023","0.2037112673","0.4698449305","","","","","","","76","L","3","","","235","main_expt"
"642","","bandit","314","966987","0.0-275.0-0.0","35009021","wem/bandit_either","A100Y89FZO4J0B","either","1","","","","","","","0","0","1","0.2295670059","","0.6","0.8","0.4","0.2","","","","","0.2039581082","0.2806831757","0.2295670059","0.4750890902","","","","","","","75","K","2","","","236","main_expt"
"675","","bandit","315","969180","0.0-276.0-0.0","35009021","wem/bandit_either","A100Y89FZO4J0B","either","1","","","","","","","0","1","0","","0.490873849","0.6","0.8","0.4","0.2","0.1898025468","0.3314479917","0.2602584061","0.490873849","","","","","","","","","","","76","L","3","","","237","main_expt"
"963","","bandit","316","971660","0.0-277.0-0.0","35009021","wem/bandit_either","A100Y89FZO4J0B","either","1","","","","","","","0","1","0","","0.4658125052","0.6","0.8","0.4","0.2","0.20274426","0.3495093658","0.2505035884","0.4658125052","","","","","","","","","","","76","L","3","","","238","main_expt"
"595","","bandit","317","973772","0.0-278.0-0.0","35009021","wem/bandit_either","A100Y89FZO4J0B","either","1","","","","","","","0","0","1","","0.4717810478","0.6","0.8","0.4","0.2","0.2051086292","0.3413466471","0.209031891","0.4717810478","","","","","","","","","","","76","L","3","","","239","main_expt"
"913","","bandit","318","976203","0.0-279.0-0.0","35009021","wem/bandit_either","A100Y89FZO4J0B","either","1","","","","","","","0","0","1","","0.2203826704","0.6","0.8","0.4","0.2","0.1823871945","0.3848911707","0.2203826704","0.4751676635","","","","","","","","","","","75","K","2","","","240","main_expt"
"674","","bandit","319","978395","0.0-280.0-0.0","35009021","wem/bandit_either","A100Y89FZO4J0B","either","1","","","","","","","0","0","1","0.4782176083","","0.6","0.8","0.4","0.2","","","","","0.2206124516","0.3352713547","0.2502218434","0.4782176083","","","","","","","76","L","3","","","241","main_expt"
"1162","","bandit","320","981068","0.0-281.0-0.0","35009021","wem/bandit_either","A100Y89FZO4J0B","either","1","","","","","","","1","0","0","0.4842593171","","0.6","0.8","0.4","0.2","","","","","0.1822231347","0.3898112853","0.2465850657","0.4842593171","","","","","","","76","L","3","","","242","main_expt"
"914","","bandit","321","983500","0.0-282.0-0.0","35009021","wem/bandit_either","A100Y89FZO4J0B","either","1","","","","","","","0","1","0","","0.4877308522","0.6","0.8","0.4","0.2","0.1782216913","0.3746092993","0.2768687636","0.4877308522","","","","","","","","","","","76","L","3","","","243","main_expt"
"563","","bandit","322","985580","0.0-283.0-0.0","35009021","wem/bandit_either","A100Y89FZO4J0B","either","1","","","","","","","0","1","0","","0.4867000748","0.6","0.8","0.4","0.2","0.1683297066","0.3551642001","0.3318130554","0.4867000748","","","","","","","","","","","76","L","3","","","244","main_expt"
"1026","","bandit","323","988123","0.0-284.0-0.0","35009021","wem/bandit_either","A100Y89FZO4J0B","either","1","","","","","","","0","1","0","","0.4779689664","0.6","0.8","0.4","0.2","0.2394915997","0.3556023966","0.3549389872","0.4779689664","","","","","","","","","","","76","L","3","","","245","main_expt"
"738","","bandit","324","990379","0.0-285.0-0.0","35009021","wem/bandit_either","A100Y89FZO4J0B","either","1","","","","","","","0","1","0","","0.4691428495","0.6","0.8","0.4","0.2","0.2279590519","0.3265039954","0.333301522","0.4691428495","","","","","","","","","","","76","L","3","","","246","main_expt"
"977","","bandit","325","992876","0.0-286.0-0.0","35009021","wem/bandit_either","A100Y89FZO4J0B","either","1","","","","","","","0","1","0","","0.4726686318","0.6","0.8","0.4","0.2","0.2464238951","0.2868106963","0.3514606933","0.4726686318","","","","","","","","","","","76","L","3","","","247","main_expt"
"595","","bandit","326","994988","0.0-287.0-0.0","35009021","wem/bandit_either","A100Y89FZO4J0B","either","1","","","","","","","0","1","0","","0.4803067915","0.6","0.8","0.4","0.2","0.2743013104","0.3185934195","0.3714826816","0.4803067915","","","","","","","","","","","76","L","3","","","248","main_expt"
"978","","bandit","327","997484","0.0-288.0-0.0","35009021","wem/bandit_either","A100Y89FZO4J0B","either","1","","","","","","","0","1","0","","0.4711679289","0.6","0.8","0.4","0.2","0.265015958","0.358181829","0.386783615","0.4711679289","","","","","","","","","","","76","L","3","","","249","main_expt"
