"rt","responses","trial_type","trial_index","time_elapsed","internal_node_id","subjID","study","MID","cond","drift","key_press","expt_phase","target","like","value","connected","respCharCode","respKey","respChoiceNum","respChoice","gems","bombs","no_reward","GemPrChosen","BombPrChosen","practice","trial_counter","WinPr_0","LosePr_0","trial_label","GainOverPainPr_0","WinPr_1","GainOverPainPr_1","LosePr_1","LosePr_2","GainOverPainPr_2","LosePr_3","GainOverPainPr_3","WinPr_2","WinPr_3","Q0","Q1","Q2","gender","age","ethnicity"
"4151","{""Q0"":""A29VV8U7XTHC3B""}","survey-text","0","4167","0.0-0.0","35832077","wem/bandit_either","A29VV8U7XTHC3B","either","2","","","","","","","","","","","","","","","","","","","","","","","","","","","","","","","","","","","",""
"15585","","text","1","20755","0.0-1.0","35832077","wem/bandit_either","A29VV8U7XTHC3B","either","2","32","","","","","","","","","","","","","","","","","","","","","","","","","","","","","","","","","","",""
"7287","","text","2","28045","0.0-2.0","35832077","wem/bandit_either","A29VV8U7XTHC3B","either","2","32","","","","","","","","","","","","","","","","","","","","","","","","","","","","","","","","","","",""
"16359","","text","3","44407","0.0-3.0","35832077","wem/bandit_either","A29VV8U7XTHC3B","either","2","32","","","","","","","","","","","","","","","","","","","","","","","","","","","","","","","","","","",""
"9274","","text","4","53683","0.0-4.0","35832077","wem/bandit_either","A29VV8U7XTHC3B","either","2","32","","","","","","","","","","","","","","","","","","","","","","","","","","","","","","","","","","",""
"18554","","text","5","72238","0.0-5.0","35832077","wem/bandit_either","A29VV8U7XTHC3B","either","2","32","","","","","","","","","","","","","","","","","","","","","","","","","","","","","","","","","","",""
"7372","","text","6","79611","0.0-6.0","35832077","wem/bandit_either","A29VV8U7XTHC3B","either","2","32","","","","","","","","","","","","","","","","","","","","","","","","","","","","","","","","","","",""
"4080","","text","7","83693","0.0-7.0","35832077","wem/bandit_either","A29VV8U7XTHC3B","either","2","32","","","","","","","","","","","","","","","","","","","","","","","","","","","","","","","","","","",""
"9010","","identification","8","92728","0.0-8.0-0.0","35832077","wem/bandit_either","A29VV8U7XTHC3B","either","2","","identification_pre","the village of Zur","4","4","4","","","","","","","","","","","","","","","","","","","","","","","","","","","","","",""
"3576","","identification","9","97341","0.0-8.0-1.0","35832077","wem/bandit_either","A29VV8U7XTHC3B","either","2","","identification_pre","the village of Nyx","2","2","2","","","","","","","","","","","","","","","","","","","","","","","","","","","","","",""
"4371","","text","10","102718","0.0-9.0","35832077","wem/bandit_either","A29VV8U7XTHC3B","either","2","32","","","","","","","","","","","","","","","","","","","","","","","","","","","","","","","","","","",""
"4580","","text","11","107300","0.0-10.0","35832077","wem/bandit_either","A29VV8U7XTHC3B","either","2","32","","","","","","","","","","","","","","","","","","","","","","","","","","","","","","","","","","",""
"1767","","text","12","109068","0.0-11.0","35832077","wem/bandit_either","A29VV8U7XTHC3B","either","2","32","","","","","","","","","","","","","","","","","","","","","","","","","","","","","","","","","","",""
"4518","","text","13","113588","0.0-12.0","35832077","wem/bandit_either","A29VV8U7XTHC3B","either","2","32","","","","","","","","","","","","","","","","","","","","","","","","","","","","","","","","","","",""
"1707","","bandit","14","116804","0.0-13.0-0.0","35832077","wem/bandit_either","A29VV8U7XTHC3B","either","2","","","","","","","74","J","0","img/none_selected_demo.jpg","0","0","1","0","0","true","0","0","0","","","","","","","","","","","","","","","","",""
"767","","bandit","15","119077","0.0-14.0-0.0","35832077","wem/bandit_either","A29VV8U7XTHC3B","either","2","","","","","","","75","K","0","img/none_selected_demo.jpg","0","0","1","0","0","true","0","0","0","","","","","","","","","","","","","","","","",""
"27364","","text","16","146445","0.0-15.0","35832077","wem/bandit_either","A29VV8U7XTHC3B","either","2","32","","","","","","","","","","","","","","","","","","","","","","","","","","","","","","","","","","",""
"7238","","text","17","153687","0.0-16.0","35832077","wem/bandit_either","A29VV8U7XTHC3B","either","2","32","","","","","","","","","","","","","","","","","","","","","","","","","","","","","","","","","","",""
"9051","","text","18","162740","0.0-17.0","35832077","wem/bandit_either","A29VV8U7XTHC3B","either","2","32","","","","","","","","","","","","","","","","","","","","","","","","","","","","","","","","","","",""
"10525","","text","19","173268","0.0-18.0","35832077","wem/bandit_either","A29VV8U7XTHC3B","either","2","32","","","","","","","","","","","","","","","","","","","","","","","","","","","","","","","","","","",""
"1668","","bandit","20","176443","0.0-19.0-0.0","35832077","wem/bandit_either","A29VV8U7XTHC3B","either","2","","","","","","","74","J","0","img/none_selected_demo.jpg","1","0","0","0.8","","true","0","0.8","","80_20_practice","0.5","0.2","0.5","","","","","","","","","","","","",""
"987","","bandit","21","178940","0.0-19.0-1.0","35832077","wem/bandit_either","A29VV8U7XTHC3B","either","2","","","","","","","75","K","1","","0","0","1","","0.2","true","0","","0.8","80_20_practice","0.5","","0.5","0.2","","","","","","","","","","","",""
"611","","bandit","22","181061","0.0-19.0-2.0","35832077","wem/bandit_either","A29VV8U7XTHC3B","either","2","","","","","","","75","K","1","","0","0","1","","0.2","true","0","","0.8","80_20_practice","0.5","","0.5","0.2","","","","","","","","","","","",""
"536","","bandit","23","183111","0.0-19.0-3.0","35832077","wem/bandit_either","A29VV8U7XTHC3B","either","2","","","","","","","74","J","0","img/none_selected_demo.jpg","0","1","0","","0.8","true","0","","0.8","80_20_practice","0.5","","0.5","0.2","","","","","","","","","","","",""
"945","","bandit","24","185568","0.0-19.0-4.0","35832077","wem/bandit_either","A29VV8U7XTHC3B","either","2","","","","","","","74","J","0","img/none_selected_demo.jpg","1","0","0","0.8","","true","0","0.8","","80_20_practice","0.5","0.2","0.5","","","","","","","","","","","","",""
"639","","bandit","25","187717","0.0-19.0-5.0","35832077","wem/bandit_either","A29VV8U7XTHC3B","either","2","","","","","","","74","J","0","img/none_selected_demo.jpg","1","0","0","0.8","","true","0","0.8","","80_20_practice","0.5","0.2","0.5","","","","","","","","","","","","",""
"776","","bandit","26","190004","0.0-19.0-6.0","35832077","wem/bandit_either","A29VV8U7XTHC3B","either","2","","","","","","","74","J","0","img/none_selected_demo.jpg","1","0","0","0.8","","true","0","0.8","","80_20_practice","0.5","0.2","0.5","","","","","","","","","","","","",""
"649","","bandit","27","192164","0.0-19.0-7.0","35832077","wem/bandit_either","A29VV8U7XTHC3B","either","2","","","","","","","74","J","0","img/none_selected_demo.jpg","0","1","0","","0.8","true","0","","0.8","80_20_practice","0.5","","0.5","0.2","","","","","","","","","","","",""
"340","","bandit","28","194012","0.0-19.0-8.0","35832077","wem/bandit_either","A29VV8U7XTHC3B","either","2","","","","","","","75","K","1","","0","0","1","","0.2","true","0","","0.8","80_20_practice","0.5","","0.5","0.2","","","","","","","","","","","",""
"267","","bandit","29","195787","0.0-19.0-9.0","35832077","wem/bandit_either","A29VV8U7XTHC3B","either","2","","","","","","","75","K","1","","0","0","1","0.2","","true","0","0.8","","80_20_practice","0.5","0.2","0.5","","","","","","","","","","","","",""
"294","","bandit","30","197589","0.0-19.0-10.0","35832077","wem/bandit_either","A29VV8U7XTHC3B","either","2","","","","","","","75","K","1","","0","0","1","0.2","","true","0","0.8","","80_20_practice","0.5","0.2","0.5","","","","","","","","","","","","",""
"127","","bandit","31","199233","0.0-19.0-11.0","35832077","wem/bandit_either","A29VV8U7XTHC3B","either","2","","","","","","","74","J","0","img/none_selected_demo.jpg","0","0","1","","0.8","true","0","","0.8","80_20_practice","0.5","","0.5","0.2","","","","","","","","","","","",""
"295","","bandit","32","201037","0.0-19.0-12.0","35832077","wem/bandit_either","A29VV8U7XTHC3B","either","2","","","","","","","74","J","0","img/none_selected_demo.jpg","1","0","0","0.8","","true","0","0.8","","80_20_practice","0.5","0.2","0.5","","","","","","","","","","","","",""
"564","","bandit","33","203107","0.0-19.0-13.0","35832077","wem/bandit_either","A29VV8U7XTHC3B","either","2","","","","","","","74","J","0","img/none_selected_demo.jpg","1","0","0","0.8","","true","0","0.8","","80_20_practice","0.5","0.2","0.5","","","","","","","","","","","","",""
"611","","bandit","34","205226","0.0-19.0-14.0","35832077","wem/bandit_either","A29VV8U7XTHC3B","either","2","","","","","","","74","J","0","img/none_selected_demo.jpg","0","1","0","","0.8","true","0","","0.8","80_20_practice","0.5","","0.5","0.2","","","","","","","","","","","",""
"413","","bandit","35","207149","0.0-19.0-15.0","35832077","wem/bandit_either","A29VV8U7XTHC3B","either","2","","","","","","","74","J","0","img/none_selected_demo.jpg","0","1","0","","0.8","true","0","","0.8","80_20_practice","0.5","","0.5","0.2","","","","","","","","","","","",""
"256","","bandit","36","208917","0.0-19.0-16.0","35832077","wem/bandit_either","A29VV8U7XTHC3B","either","2","","","","","","","75","K","1","","0","0","1","","0.2","true","0","","0.8","80_20_practice","0.5","","0.5","0.2","","","","","","","","","","","",""
"272","","bandit","37","210700","0.0-19.0-17.0","35832077","wem/bandit_either","A29VV8U7XTHC3B","either","2","","","","","","","75","K","1","","0","0","1","0.2","","true","0","0.8","","80_20_practice","0.5","0.2","0.5","","","","","","","","","","","","",""
"589","","bandit","38","212796","0.0-19.0-18.0","35832077","wem/bandit_either","A29VV8U7XTHC3B","either","2","","","","","","","74","J","0","img/none_selected_demo.jpg","1","0","0","0.8","","true","0","0.8","","80_20_practice","0.5","0.2","0.5","","","","","","","","","","","","",""
"609","","bandit","39","214917","0.0-19.0-19.0","35832077","wem/bandit_either","A29VV8U7XTHC3B","either","2","","","","","","","74","J","0","img/none_selected_demo.jpg","0","1","0","","0.8","true","0","","0.8","80_20_practice","0.5","","0.5","0.2","","","","","","","","","","","",""
"3772","","text","40","218695","0.0-20.0","35832077","wem/bandit_either","A29VV8U7XTHC3B","either","2","32","","","","","","","","","","","","","","","","","","","","","","","","","","","","","","","","","","",""
"944","","bandit","41","221149","0.0-21.0-0.0","35832077","wem/bandit_either","A29VV8U7XTHC3B","either","2","","","","","","","74","J","0","img/none_selected_demo.jpg","1","0","0","1","0","true","0","1","0","","","0","","1","","","","","","","","","","","",""
"4603","","text","42","225755","0.0-22.0","35832077","wem/bandit_either","A29VV8U7XTHC3B","either","2","32","","","","","","","","","","","","","","","","","","","","","","","","","","","","","","","","","","",""
"2927","","text","43","228684","0.0-23.0","35832077","wem/bandit_either","A29VV8U7XTHC3B","either","2","32","","","","","","","","","","","","","","","","","","","","","","","","","","","","","","","","","","",""
"3182","","text","44","231868","0.0-24.0","35832077","wem/bandit_either","A29VV8U7XTHC3B","either","2","32","","","","","","","","","","","","","","","","","","","","","","","","","","","","","","","","","","",""
"5677","","text","45","237549","0.0-25.0","35832077","wem/bandit_either","A29VV8U7XTHC3B","either","2","32","","","","","","","","","","","","","","","","","","","","","","","","","","","","","","","","","","",""
"7766","","text","46","245318","0.0-26.0","35832077","wem/bandit_either","A29VV8U7XTHC3B","either","2","32","","","","","","","","","","","","","","","","","","","","","","","","","","","","","","","","","","",""
"6449","","text","47","251770","0.0-27.0","35832077","wem/bandit_either","A29VV8U7XTHC3B","either","2","32","","","","","","","","","","","","","","","","","","","","","","","","","","","","","","","","","","",""
"4145","","text","48","255919","0.0-28.0","35832077","wem/bandit_either","A29VV8U7XTHC3B","either","2","32","","","","","","","","","","","","","","","","","","","","","","","","","","","","","","","","","","",""
"3071","","text","49","258995","0.0-29.0","35832077","wem/bandit_either","A29VV8U7XTHC3B","either","2","32","","","","","","","","","","","","","","","","","","","","","","","","","","","","","","","","","","",""
"4639","","text","50","263636","0.0-30.0","35832077","wem/bandit_either","A29VV8U7XTHC3B","either","2","32","","","","","","","","","","","","","","","","","","","","","","","","","","","","","","","","","","",""
"1446","","text","51","265084","0.0-31.0","35832077","wem/bandit_either","A29VV8U7XTHC3B","either","2","32","","","","","","","","","","","","","","","","","","","","","","","","","","","","","","","","","","",""
"1269","","text","52","266358","0.0-32.0","35832077","wem/bandit_either","A29VV8U7XTHC3B","either","2","32","","","","","","","","","","","","","","","","","","","","","","","","","","","","","","","","","","",""
"957","","bandit","53","268828","0.0-33.0-0.0","35832077","wem/bandit_either","A29VV8U7XTHC3B","either","2","","","","","","","72","H","0","img/none_selected.jpg","0","1","0","","0.8","true","0","","0.8","full_practice","0.5","","0.5","0.2","0.6","0.5","0.2","0.5","","","","","","","",""
"386","","bandit","54","270732","0.0-33.0-1.0","35832077","wem/bandit_either","A29VV8U7XTHC3B","either","2","","","","","","","74","J","1","","0","0","1","0.2","","true","0","0.8","","full_practice","0.5","0.2","0.5","","","0.5","","0.5","0.6","0.2","","","","","",""
"283","","bandit","55","272525","0.0-33.0-2.0","35832077","wem/bandit_either","A29VV8U7XTHC3B","either","2","","","","","","","75","K","2","","0","1","0","","0.6","true","0","","0.8","full_practice","0.5","","0.5","0.2","0.6","0.5","0.2","0.5","","","","","","","",""
"254","","bandit","56","274293","0.0-33.0-3.0","35832077","wem/bandit_either","A29VV8U7XTHC3B","either","2","","","","","","","76","L","3","","0","0","1","0.2","","true","0","0.8","","full_practice","0.5","0.2","0.5","","","0.5","","0.5","0.6","0.2","","","","","",""
"435","","bandit","57","276233","0.0-33.0-4.0","35832077","wem/bandit_either","A29VV8U7XTHC3B","either","2","","","","","","","72","H","0","img/none_selected.jpg","1","0","0","0.8","","true","0","0.8","","full_practice","0.5","0.2","0.5","","","0.5","","0.5","0.6","0.2","","","","","",""
"248","","bandit","58","277988","0.0-33.0-5.0","35832077","wem/bandit_either","A29VV8U7XTHC3B","either","2","","","","","","","72","H","0","img/none_selected.jpg","0","1","0","","0.8","true","0","","0.8","full_practice","0.5","","0.5","0.2","0.6","0.5","0.2","0.5","","","","","","","",""
"200","","bandit","59","279699","0.0-33.0-6.0","35832077","wem/bandit_either","A29VV8U7XTHC3B","either","2","","","","","","","74","J","1","","0","0","1","","0.2","true","0","","0.8","full_practice","0.5","","0.5","0.2","0.6","0.5","0.2","0.5","","","","","","","",""
"10","","bandit","60","281223","0.0-33.0-7.0","35832077","wem/bandit_either","A29VV8U7XTHC3B","either","2","","","","","","","75","K","2","","0","0","1","","0.6","true","0","","0.8","full_practice","0.5","","0.5","0.2","0.6","0.5","0.2","0.5","","","","","","","",""
"394","","bandit","61","283125","0.0-33.0-8.0","35832077","wem/bandit_either","A29VV8U7XTHC3B","either","2","","","","","","","76","L","3","","0","0","1","","0.2","true","0","","0.8","full_practice","0.5","","0.5","0.2","0.6","0.5","0.2","0.5","","","","","","","",""
"157","","bandit","62","284794","0.0-33.0-9.0","35832077","wem/bandit_either","A29VV8U7XTHC3B","either","2","","","","","","","72","H","0","img/none_selected.jpg","1","0","0","0.8","","true","0","0.8","","full_practice","0.5","0.2","0.5","","","0.5","","0.5","0.6","0.2","","","","","",""
"4","","bandit","63","286306","0.0-33.0-10.0","35832077","wem/bandit_either","A29VV8U7XTHC3B","either","2","","","","","","","72","H","0","img/none_selected.jpg","0","1","0","","0.8","true","0","","0.8","full_practice","0.5","","0.5","0.2","0.6","0.5","0.2","0.5","","","","","","","",""
"292","","bandit","64","288107","0.0-33.0-11.0","35832077","wem/bandit_either","A29VV8U7XTHC3B","either","2","","","","","","","72","H","0","img/none_selected.jpg","1","0","0","0.8","","true","0","0.8","","full_practice","0.5","0.2","0.5","","","0.5","","0.5","0.6","0.2","","","","","",""
"277","","bandit","65","289894","0.0-33.0-12.0","35832077","wem/bandit_either","A29VV8U7XTHC3B","either","2","","","","","","","72","H","0","img/none_selected.jpg","0","1","0","","0.8","true","0","","0.8","full_practice","0.5","","0.5","0.2","0.6","0.5","0.2","0.5","","","","","","","",""
"371","","bandit","66","291773","0.0-33.0-13.0","35832077","wem/bandit_either","A29VV8U7XTHC3B","either","2","","","","","","","75","K","2","","0","1","0","","0.6","true","0","","0.8","full_practice","0.5","","0.5","0.2","0.6","0.5","0.2","0.5","","","","","","","",""
"123","","bandit","67","293406","0.0-33.0-14.0","35832077","wem/bandit_either","A29VV8U7XTHC3B","either","2","","","","","","","75","K","2","","0","1","0","","0.6","true","0","","0.8","full_practice","0.5","","0.5","0.2","0.6","0.5","0.2","0.5","","","","","","","",""
"227","","bandit","68","295150","0.0-33.0-15.0","35832077","wem/bandit_either","A29VV8U7XTHC3B","either","2","","","","","","","75","K","2","","1","0","0","0.6","","true","0","0.8","","full_practice","0.5","0.2","0.5","","","0.5","","0.5","0.6","0.2","","","","","",""
"270","","bandit","69","296933","0.0-33.0-16.0","35832077","wem/bandit_either","A29VV8U7XTHC3B","either","2","","","","","","","75","K","2","","0","0","1","","0.6","true","0","","0.8","full_practice","0.5","","0.5","0.2","0.6","0.5","0.2","0.5","","","","","","","",""
"273","","bandit","70","298720","0.0-33.0-17.0","35832077","wem/bandit_either","A29VV8U7XTHC3B","either","2","","","","","","","74","J","1","","1","0","0","0.2","","true","0","0.8","","full_practice","0.5","0.2","0.5","","","0.5","","0.5","0.6","0.2","","","","","",""
"225","","bandit","71","300454","0.0-33.0-18.0","35832077","wem/bandit_either","A29VV8U7XTHC3B","either","2","","","","","","","74","J","1","","0","0","1","0.2","","true","0","0.8","","full_practice","0.5","0.2","0.5","","","0.5","","0.5","0.6","0.2","","","","","",""
"180","","bandit","72","302148","0.0-33.0-19.0","35832077","wem/bandit_either","A29VV8U7XTHC3B","either","2","","","","","","","76","L","3","","0","0","1","","0.2","true","0","","0.8","full_practice","0.5","","0.5","0.2","0.6","0.5","0.2","0.5","","","","","","","",""
"2186","","text","73","304346","0.0-34.0","35832077","wem/bandit_either","A29VV8U7XTHC3B","either","2","32","","","","","","","","","","","","","","","","","","","","","","","","","","","","","","","","","","",""
"7934","","text","74","313284","0.0-35.0","35832077","wem/bandit_either","A29VV8U7XTHC3B","either","2","32","","","","","","","","","","","","","","","","","","","","","","","","","","","","","","","","","","",""
"6644","","text","75","319931","0.0-36.0","35832077","wem/bandit_either","A29VV8U7XTHC3B","either","2","32","","","","","","","","","","","","","","","","","","","","","","","","","","","","","","","","","","",""
"3910","","text","76","323844","0.0-37.0","35832077","wem/bandit_either","A29VV8U7XTHC3B","either","2","32","","","","","","","","","","","","","","","","","","","","","","","","","","","","","","","","","","",""
"4502","","text","77","328347","0.0-38.0","35832077","wem/bandit_either","A29VV8U7XTHC3B","either","2","32","","","","","","","","","","","","","","","","","","","","","","","","","","","","","","","","","","",""
"18422","","text","78","346772","0.0-39.0","35832077","wem/bandit_either","A29VV8U7XTHC3B","either","2","32","","","","","","","","","","","","","","","","","","","","","","","","","","","","","","","","","","",""
"620","","bandit","79","348905","0.0-40.0-0.0","35832077","wem/bandit_either","A29VV8U7XTHC3B","either","2","","","","","","","72","H","0","img/none_selected.jpg","0","0","1","","0.4781977867","","1","","0.4781977867","main_expt","0.2","","0.6","0.362799796","0.3653736811","0.4","0.326135308","0.8","","","","","","","",""
"161","","bandit","80","350580","0.0-41.0-0.0","35832077","wem/bandit_either","A29VV8U7XTHC3B","either","2","","","","","","","74","J","1","","0","1","0","","0.3891507205","","2","","0.4765481994","main_expt","0.2","","0.6","0.3891507205","0.3999069229","0.4","0.3564958201","0.8","","","","","","","",""
"132","","bandit","81","352231","0.0-42.0-0.0","35832077","wem/bandit_either","A29VV8U7XTHC3B","either","2","","","","","","","75","K","2","","0","0","1","","0.4363582421","","3","","0.4722158263","main_expt","0.2","","0.6","0.3151339382","0.4363582421","0.4","0.3309056029","0.8","","","","","","","",""
"238","","bandit","82","353980","0.0-43.0-0.0","35832077","wem/bandit_either","A29VV8U7XTHC3B","either","2","","","","","","","76","L","3","","0","1","0","","0.308467875","","4","","0.4609570051","main_expt","0.2","","0.6","0.250648122","0.4300921111","0.4","0.308467875","0.8","","","","","","","",""
"430","","bandit","83","355924","0.0-44.0-0.0","35832077","wem/bandit_either","A29VV8U7XTHC3B","either","2","","","","","","","74","J","1","","1","0","0","0.2382585344","","","5","0.4707799186","","main_expt","0.2","0.2382585344","0.6","","","0.4","","0.8","0.3863220662","0.3349995635","","","","","",""
"263","","bandit","84","357701","0.0-45.0-0.0","35832077","wem/bandit_either","A29VV8U7XTHC3B","either","2","","","","","","","76","L","3","","0","0","1","","0.3743101545","","6","","0.4676743975","main_expt","0.2","","0.6","0.2088101903","0.4192648028","0.4","0.3743101545","0.8","","","","","","","",""
"270","","bandit","85","359488","0.0-46.0-0.0","35832077","wem/bandit_either","A29VV8U7XTHC3B","either","2","","","","","","","74","J","1","","0","0","1","0.1884279889","","","7","0.4767364015","","main_expt","0.2","0.1884279889","0.6","","","0.4","","0.8","0.4218548145","0.377506125","","","","","",""
"291","","bandit","86","361293","0.0-47.0-0.0","35832077","wem/bandit_either","A29VV8U7XTHC3B","either","2","","","","","","","76","L","3","","0","0","1","0.3452849142","","","8","0.4837409877","","main_expt","0.2","0.2297930851","0.6","","","0.4","","0.8","0.4298914749","0.3452849142","","","","","",""
"229","","bandit","87","363036","0.0-48.0-0.0","35832077","wem/bandit_either","A29VV8U7XTHC3B","either","2","","","","","","","75","K","2","","0","0","1","","0.4215440671","","9","","0.4825212187","main_expt","0.2","","0.6","0.2219539873","0.4215440671","0.4","0.2713567333","0.8","","","","","","","",""
"534","","bandit","88","365086","0.0-49.0-0.0","35832077","wem/bandit_either","A29VV8U7XTHC3B","either","2","","","","","","","72","H","0","img/none_selected.jpg","1","0","0","0.4791264729","","","10","0.4791264729","","main_expt","0.2","0.2398128751","0.6","","","0.4","","0.8","0.3991616263","0.2712708503","","","","","",""
"181","","bandit","89","366780","0.0-50.0-0.0","35832077","wem/bandit_either","A29VV8U7XTHC3B","either","2","","","","","","","72","H","0","img/none_selected.jpg","0","1","0","","0.4762013833","","11","","0.4762013833","main_expt","0.2","","0.6","0.2551733424","0.4002673883","0.4","0.2635531688","0.8","","","","","","","",""
"260","","bandit","90","368555","0.0-51.0-0.0","35832077","wem/bandit_either","A29VV8U7XTHC3B","either","2","","","","","","","74","J","1","","0","0","1","","0.2593424883","","12","","0.4729837645","main_expt","0.2","","0.6","0.2593424883","0.368629831","0.4","0.2669056975","0.8","","","","","","","",""
"330","","bandit","91","370398","0.0-52.0-0.0","35832077","wem/bandit_either","A29VV8U7XTHC3B","either","2","","","","","","","74","J","1","","0","1","0","","0.2493591627","","13","","0.4749786695","main_expt","0.2","","0.6","0.2493591627","0.4189726289","0.4","0.3204456557","0.8","","","","","","","",""
"244","","bandit","92","372153","0.0-53.0-0.0","35832077","wem/bandit_either","A29VV8U7XTHC3B","either","2","","","","","","","74","J","1","","1","0","0","0.2686446846","","","14","0.4810115094","","main_expt","0.2","0.2686446846","0.6","","","0.4","","0.8","0.4352425359","0.3466526728","","","","","",""
"239","","bandit","93","373898","0.0-54.0-0.0","35832077","wem/bandit_either","A29VV8U7XTHC3B","either","2","","","","","","","72","H","0","img/none_selected.jpg","0","0","1","","0.4705329286","","15","","0.4705329286","main_expt","0.2","","0.6","0.2690169042","0.3819090161","0.4","0.3736671224","0.8","","","","","","","",""
"208","","bandit","94","375621","0.0-55.0-0.0","35832077","wem/bandit_either","A29VV8U7XTHC3B","either","2","","","","","","","72","H","0","img/none_selected.jpg","0","0","1","","0.4687419894","","16","","0.4687419894","main_expt","0.2","","0.6","0.2518303543","0.3737760256","0.4","0.3778143907","0.8","","","","","","","",""
"391","","bandit","95","377526","0.0-56.0-0.0","35832077","wem/bandit_either","A29VV8U7XTHC3B","either","2","","","","","","","75","K","2","","0","0","1","0.4151791473","","","17","0.4594180265","","main_expt","0.2","0.2406549936","0.6","","","0.4","","0.8","0.4151791473","0.3845750066","","","","","",""
"196","","bandit","96","379240","0.0-57.0-0.0","35832077","wem/bandit_either","A29VV8U7XTHC3B","either","2","","","","","","","76","L","3","","0","0","1","0.4041286345","","","18","0.425397146","","main_expt","0.2","0.2670149403","0.6","","","0.4","","0.8","0.4137363134","0.4041286345","","","","","",""
"299","","bandit","97","381053","0.0-58.0-0.0","35832077","wem/bandit_either","A29VV8U7XTHC3B","either","2","","","","","","","74","J","1","","0","0","1","0.2658482338","","","19","0.4201246927","","main_expt","0.2","0.2658482338","0.6","","","0.4","","0.8","0.4084056464","0.4127350431","","","","","",""
"366","","bandit","98","382932","0.0-59.0-0.0","35832077","wem/bandit_either","A29VV8U7XTHC3B","either","2","","","","","","","72","H","0","img/none_selected.jpg","0","0","1","","0.3954271328","","20","","0.3954271328","main_expt","0.2","","0.6","0.2452433766","0.4129175496","0.4","0.4107359536","0.8","","","","","","","",""
"87","","bandit","99","384534","0.0-60.0-0.0","35832077","wem/bandit_either","A29VV8U7XTHC3B","either","2","","","","","","","72","H","0","img/none_selected.jpg","0","0","1","","0.4196431029","","21","","0.4196431029","main_expt","0.2","","0.6","0.2298761452","0.3888488162","0.4","0.3954861765","0.8","","","","","","","",""
"183","","bandit","100","386232","0.0-61.0-0.0","35832077","wem/bandit_either","A29VV8U7XTHC3B","either","2","","","","","","","72","H","0","img/none_selected.jpg","0","0","1","","0.3843335182","","22","","0.3843335182","main_expt","0.2","","0.6","0.266827693","0.3873149631","0.4","0.3805979297","0.8","","","","","","","",""
"119","","bandit","101","387867","0.0-62.0-0.0","35832077","wem/bandit_either","A29VV8U7XTHC3B","either","2","","","","","","","74","J","1","","0","1","0","","0.2519769849","","23","","0.3839977458","main_expt","0.2","","0.6","0.2519769849","0.3659772031","0.4","0.425451992","0.8","","","","","","","",""
"163","","bandit","102","389540","0.0-63.0-0.0","35832077","wem/bandit_either","A29VV8U7XTHC3B","either","2","","","","","","","74","J","1","","0","0","1","0.2447613107","","","24","0.3338939571","","main_expt","0.2","0.2447613107","0.6","","","0.4","","0.8","0.3594327093","0.4699447661","","","","","",""
"296","","bandit","103","391348","0.0-64.0-0.0","35832077","wem/bandit_either","A29VV8U7XTHC3B","either","2","","","","","","","74","J","1","","0","0","1","","0.2350413847","","25","","0.324486952","main_expt","0.2","","0.6","0.2350413847","0.3719143394","0.4","0.4484050393","0.8","","","","","","","",""
"271","","bandit","104","393134","0.0-65.0-0.0","35832077","wem/bandit_either","A29VV8U7XTHC3B","either","2","","","","","","","75","K","2","","0","1","0","","0.3690014044","","26","","0.3095710384","main_expt","0.2","","0.6","0.207774486","0.3690014044","0.4","0.4190234423","0.8","","","","","","","",""
"229","","bandit","105","394876","0.0-66.0-0.0","35832077","wem/bandit_either","A29VV8U7XTHC3B","either","2","","","","","","","76","L","3","","0","0","1","0.4251478254","","","27","0.3355629191","","main_expt","0.2","0.2164182795","0.6","","","0.4","","0.8","0.3940030818","0.4251478254","","","","","",""
"215","","bandit","106","396605","0.0-67.0-0.0","35832077","wem/bandit_either","A29VV8U7XTHC3B","either","2","","","","","","","75","K","2","","1","0","0","0.4111080327","","","28","0.3668681485","","main_expt","0.2","0.2164031865","0.6","","","0.4","","0.8","0.4111080327","0.4287328697","","","","","",""
"218","","bandit","107","398340","0.0-68.0-0.0","35832077","wem/bandit_either","A29VV8U7XTHC3B","either","2","","","","","","","75","K","2","","0","0","1","","0.41290056","","29","","0.343198694","main_expt","0.2","","0.6","0.2770000278","0.41290056","0.4","0.4106025245","0.8","","","","","","","",""
"263","","bandit","108","400114","0.0-69.0-0.0","35832077","wem/bandit_either","A29VV8U7XTHC3B","either","2","","","","","","","75","K","2","","0","0","1","0.3937480262","","","30","0.326069126","","main_expt","0.2","0.2354797847","0.6","","","0.4","","0.8","0.3937480262","0.3942494676","","","","","",""
"258","","bandit","109","401885","0.0-70.0-0.0","35832077","wem/bandit_either","A29VV8U7XTHC3B","either","2","","","","","","","76","L","3","","0","0","1","","0.4285056211","","31","","0.3390127419","main_expt","0.2","","0.6","0.2692030882","0.3997016236","0.4","0.4285056211","0.8","","","","","","","",""
"224","","bandit","110","403620","0.0-71.0-0.0","35832077","wem/bandit_either","A29VV8U7XTHC3B","either","2","","","","","","","76","L","3","","0","0","1","0.4249454459","","","32","0.3360649894","","main_expt","0.2","0.2471118655","0.6","","","0.4","","0.8","0.3574295763","0.4249454459","","","","","",""
"351","","bandit","111","405485","0.0-72.0-0.0","35832077","wem/bandit_either","A29VV8U7XTHC3B","either","2","","","","","","","74","J","1","","0","0","1","0.2879199001","","","33","0.3052602024","","main_expt","0.2","0.2879199001","0.6","","","0.4","","0.8","0.3877818659","0.416417765","","","","","",""
"173","","bandit","112","407172","0.0-73.0-0.0","35832077","wem/bandit_either","A29VV8U7XTHC3B","either","2","","","","","","","72","H","0","img/none_selected.jpg","0","1","0","","0.3594788954","","34","","0.3594788954","main_expt","0.2","","0.6","0.3180115212","0.3799496232","0.4","0.4623714429","0.8","","","","","","","",""
"260","","bandit","113","408949","0.0-74.0-0.0","35832077","wem/bandit_either","A29VV8U7XTHC3B","either","2","","","","","","","72","H","0","img/none_selected.jpg","0","0","1","","0.380235832","","35","","0.380235832","main_expt","0.2","","0.6","0.2524306687","0.3577573403","0.4","0.4591977302","0.8","","","","","","","",""
"131","","bandit","114","410590","0.0-75.0-0.0","35832077","wem/bandit_either","A29VV8U7XTHC3B","either","2","","","","","","","72","H","0","img/none_selected.jpg","0","1","0","","0.3459989602","","36","","0.3459989602","main_expt","0.2","","0.6","0.2351869563","0.3895375856","0.4","0.4686235256","0.8","","","","","","","",""
"221","","bandit","115","412324","0.0-76.0-0.0","35832077","wem/bandit_either","A29VV8U7XTHC3B","either","2","","","","","","","74","J","1","","0","0","1","0.2629170466","","","37","0.3320905149","","main_expt","0.2","0.2629170466","0.6","","","0.4","","0.8","0.3783527007","0.4571547709","","","","","",""
"172","","bandit","116","414006","0.0-77.0-0.0","35832077","wem/bandit_either","A29VV8U7XTHC3B","either","2","","","","","","","74","J","1","","0","0","1","0.3090194305","","","38","0.3471020919","","main_expt","0.2","0.3090194305","0.6","","","0.4","","0.8","0.284076782","0.4688430709","","","","","",""
"211","","bandit","117","415732","0.0-78.0-0.0","35832077","wem/bandit_either","A29VV8U7XTHC3B","either","2","","","","","","","75","K","2","","0","0","1","0.3388972186","","","39","0.3401763967","","main_expt","0.2","0.2845371228","0.6","","","0.4","","0.8","0.3388972186","0.4612923778","","","","","",""
"310","","bandit","118","417554","0.0-79.0-0.0","35832077","wem/bandit_either","A29VV8U7XTHC3B","either","2","","","","","","","75","K","2","","0","0","1","","0.2663655232","","40","","0.3260487483","main_expt","0.2","","0.6","0.3076259244","0.2663655232","0.4","0.4576194683","0.8","","","","","","","",""
"184","","bandit","119","419255","0.0-80.0-0.0","35832077","wem/bandit_either","A29VV8U7XTHC3B","either","2","","","","","","","72","H","0","img/none_selected.jpg","0","1","0","","0.3390218734","","41","","0.3390218734","main_expt","0.2","","0.6","0.2888769276","0.2608266697","0.4","0.4473921051","0.8","","","","","","","",""
"207","","bandit","120","420972","0.0-81.0-0.0","35832077","wem/bandit_either","A29VV8U7XTHC3B","either","2","","","","","","","72","H","0","img/none_selected.jpg","0","1","0","","0.2889680017","","42","","0.2889680017","main_expt","0.2","","0.6","0.2639198141","0.2287676803","0.4","0.425470286","0.8","","","","","","","",""
"318","","bandit","121","422803","0.0-82.0-0.0","35832077","wem/bandit_either","A29VV8U7XTHC3B","either","2","","","","","","","72","H","0","img/none_selected.jpg","0","0","1","","0.2784828801","","43","","0.2784828801","main_expt","0.2","","0.6","0.2255441472","0.2043112358","0.4","0.4030522017","0.8","","","","","","","",""
"328","","bandit","122","424645","0.0-83.0-0.0","35832077","wem/bandit_either","A29VV8U7XTHC3B","either","2","","","","","","","72","H","0","img/none_selected.jpg","0","0","1","","0.2805729819","","44","","0.2805729819","main_expt","0.2","","0.6","0.2050272072","0.1957049551","0.4","0.4106315797","0.8","","","","","","","",""
"325","","bandit","123","426483","0.0-84.0-0.0","35832077","wem/bandit_either","A29VV8U7XTHC3B","either","2","","","","","","","75","K","2","","0","1","0","","0.2207366272","","45","","0.2195119073","main_expt","0.2","","0.6","0.239455925","0.2207366272","0.4","0.4258527362","0.8","","","","","","","",""
"614","","bandit","124","428612","0.0-85.0-0.0","35832077","wem/bandit_either","A29VV8U7XTHC3B","either","2","","","","","","","74","J","1","","0","0","1","","0.2414778298","","46","","0.2657932304","main_expt","0.2","","0.6","0.2414778298","0.1727988076","0.4","0.4425966235","0.8","","","","","","","",""
"45","","bandit","125","430171","0.0-86.0-0.0","35832077","wem/bandit_either","A29VV8U7XTHC3B","either","2","","","","","","","76","L","3","","0","0","1","","0.4428977597","","47","","0.2678398397","main_expt","0.2","","0.6","0.1884211613","0.1446735631","0.4","0.4428977597","0.8","","","","","","","",""
"255","","bandit","126","431940","0.0-87.0-0.0","35832077","wem/bandit_either","A29VV8U7XTHC3B","either","2","","","","","","","76","L","3","","1","0","0","0.4479964269","","","48","0.2866904938","","main_expt","0.2","0.1755274282","0.6","","","0.4","","0.8","0.1681765936","0.4479964269","","","","","",""
"293","","bandit","127","433750","0.0-88.0-0.0","35832077","wem/bandit_either","A29VV8U7XTHC3B","either","2","","","","","","","76","L","3","","1","0","0","0.4660387519","","","49","0.2803848884","","main_expt","0.2","0.1646396384","0.6","","","0.4","","0.8","0.1473883531","0.4660387519","","","","","",""
"250","","bandit","128","435510","0.0-89.0-0.0","35832077","wem/bandit_either","A29VV8U7XTHC3B","either","2","","","","","","","76","L","3","","1","0","0","0.4345757832","","","50","0.2587411269","","main_expt","0.2","0.2024226619","0.6","","","0.4","","0.8","0.1378170987","0.4345757832","","","","","",""
"291","","bandit","129","437315","0.0-90.0-0.0","35832077","wem/bandit_either","A29VV8U7XTHC3B","either","2","","","","","","","76","L","3","","1","0","0","0.4450950844","","","51","0.2212901065","","main_expt","0.2","0.1976760068","0.6","","","0.4","","0.8","0.1430360168","0.4450950844","","","","","",""
"333","","bandit","130","439165","0.0-91.0-0.0","35832077","wem/bandit_either","A29VV8U7XTHC3B","either","2","","","","","","","76","L","3","","1","0","0","0.4475354499","","","52","0.236006857","","main_expt","0.2","0.1796352224","0.6","","","0.4","","0.8","0.1731798725","0.4475354499","","","","","",""
"282","","bandit","131","440964","0.0-92.0-0.0","35832077","wem/bandit_either","A29VV8U7XTHC3B","either","2","","","","","","","76","L","3","","0","0","1","0.4627294295","","","53","0.2660825342","","main_expt","0.2","0.2451732725","0.6","","","0.4","","0.8","0.1312409056","0.4627294295","","","","","",""
"380","","bandit","132","442861","0.0-93.0-0.0","35832077","wem/bandit_either","A29VV8U7XTHC3B","either","2","","","","","","","76","L","3","","0","0","1","0.44829207","","","54","0.2458345041","","main_expt","0.2","0.2621482643","0.6","","","0.4","","0.8","0.1862053218","0.44829207","","","","","",""
"437","","bandit","133","444813","0.0-94.0-0.0","35832077","wem/bandit_either","A29VV8U7XTHC3B","either","2","","","","","","","75","K","2","","1","0","0","0.1733563037","","","55","0.2265690781","","main_expt","0.2","0.2441780383","0.6","","","0.4","","0.8","0.1733563037","0.4505537928","","","","","",""
"346","","bandit","134","446669","0.0-95.0-0.0","35832077","wem/bandit_either","A29VV8U7XTHC3B","either","2","","","","","","","75","K","2","","0","0","1","0.1728369204","","","56","0.2741820357","","main_expt","0.2","0.199729785","0.6","","","0.4","","0.8","0.1728369204","0.4686400132","","","","","",""
"381","","bandit","135","448562","0.0-96.0-0.0","35832077","wem/bandit_either","A29VV8U7XTHC3B","either","2","","","","","","","75","K","2","","0","0","1","","0.09176359954","","57","","0.2937641054","main_expt","0.2","","0.6","0.1945085845","0.09176359954","0.4","0.4572679106","0.8","","","","","","","",""
"271","","bandit","136","450350","0.0-97.0-0.0","35832077","wem/bandit_either","A29VV8U7XTHC3B","either","2","","","","","","","76","L","3","","0","0","1","0.4300169527","","","58","0.2949827607","","main_expt","0.2","0.2614759052","0.6","","","0.4","","0.8","0.04991422033","0.4300169527","","","","","",""
"515","","bandit","137","452381","0.0-98.0-0.0","35832077","wem/bandit_either","A29VV8U7XTHC3B","either","2","","","","","","","74","J","1","","0","0","1","","0.2426118991","","59","","0.2710075273","main_expt","0.2","","0.6","0.2426118991","0.053239915","0.4","0.4050829606","0.8","","","","","","","",""
"420","","bandit","138","454315","0.0-99.0-0.0","35832077","wem/bandit_either","A29VV8U7XTHC3B","either","2","","","","","","","75","K","2","","0","0","1","0.06994226662","","","60","0.2766623035","","main_expt","0.2","0.2623750897","0.6","","","0.4","","0.8","0.06994226662","0.4070720156","","","","","",""
"358","","bandit","139","456186","0.0-100.0-0.0","35832077","wem/bandit_either","A29VV8U7XTHC3B","either","2","","","","","","","76","L","3","","1","0","0","0.3895400789","","","61","0.2574592035","","main_expt","0.2","0.2139103784","0.6","","","0.4","","0.8","0.07064832373","0.3895400789","","","","","",""
"408","","bandit","140","458107","0.0-101.0-0.0","35832077","wem/bandit_either","A29VV8U7XTHC3B","either","2","","","","","","","76","L","3","","1","0","0","0.4050708951","","","62","0.2425209234","","main_expt","0.2","0.2566580444","0.6","","","0.4","","0.8","0.08925217872","0.4050708951","","","","","",""
"258","","bandit","141","459875","0.0-102.0-0.0","35832077","wem/bandit_either","A29VV8U7XTHC3B","either","2","","","","","","","76","L","3","","0","1","0","","0.3765761212","","63","","0.2294211584","main_expt","0.2","","0.6","0.2393402704","0.08505035955","0.4","0.3765761212","0.8","","","","","","","",""
"387","","bandit","142","461770","0.0-103.0-0.0","35832077","wem/bandit_either","A29VV8U7XTHC3B","either","2","","","","","","","75","K","2","","0","0","1","","0.09892528285","","64","","0.2350173232","main_expt","0.2","","0.6","0.300105392","0.09892528285","0.4","0.3859881554","0.8","","","","","","","",""
"388","","bandit","143","463672","0.0-104.0-0.0","35832077","wem/bandit_either","A29VV8U7XTHC3B","either","2","","","","","","","75","K","2","","0","0","1","","0.1428545766","","65","","0.2775473173","main_expt","0.2","","0.6","0.2584268813","0.1428545766","0.4","0.3817039273","0.8","","","","","","","",""
"379","","bandit","144","465565","0.0-105.0-0.0","35832077","wem/bandit_either","A29VV8U7XTHC3B","either","2","","","","","","","74","J","1","","0","0","1","0.2536378703","","","66","0.298861572","","main_expt","0.2","0.2536378703","0.6","","","0.4","","0.8","0.120440259","0.3622232449","","","","","",""
"333","","bandit","145","467413","0.0-106.0-0.0","35832077","wem/bandit_either","A29VV8U7XTHC3B","either","2","","","","","","","72","H","0","img/none_selected.jpg","0","0","1","","0.3043747659","","67","","0.3043747659","main_expt","0.2","","0.6","0.2548884231","0.2019700983","0.4","0.3768721334","0.8","","","","","","","",""
"371","","bandit","146","469300","0.0-107.0-0.0","35832077","wem/bandit_either","A29VV8U7XTHC3B","either","2","","","","","","","72","H","0","img/none_selected.jpg","0","0","1","","0.2533072519","","68","","0.2533072519","main_expt","0.2","","0.6","0.2105458193","0.1467862533","0.4","0.3826604183","0.8","","","","","","","",""
"406","","bandit","147","471221","0.0-108.0-0.0","35832077","wem/bandit_either","A29VV8U7XTHC3B","either","2","","","","","","","74","J","1","","0","0","1","0.2901666962","","","69","0.2451677402","","main_expt","0.2","0.2901666962","0.6","","","0.4","","0.8","0.09022805221","0.3981811202","","","","","",""
"318","","bandit","148","473058","0.0-109.0-0.0","35832077","wem/bandit_either","A29VV8U7XTHC3B","either","2","","","","","","","75","K","2","","0","1","0","","0.1128827508","","70","","0.2403061491","main_expt","0.2","","0.6","0.2973761433","0.1128827508","0.4","0.3936557204","0.8","","","","","","","",""
"423","","bandit","149","474997","0.0-110.0-0.0","35832077","wem/bandit_either","A29VV8U7XTHC3B","either","2","","","","","","","76","L","3","","1","0","0","0.3949471057","","","71","0.1917576795","","main_expt","0.2","0.2737706179","0.6","","","0.4","","0.8","0.1184182172","0.3949471057","","","","","",""
"347","","bandit","150","476861","0.0-111.0-0.0","35832077","wem/bandit_either","A29VV8U7XTHC3B","either","2","","","","","","","76","L","3","","0","0","1","","0.3888869603","","72","","0.1894079546","main_expt","0.2","","0.6","0.3005227265","0.1038133506","0.4","0.3888869603","0.8","","","","","","","",""
"356","","bandit","151","478735","0.0-112.0-0.0","35832077","wem/bandit_either","A29VV8U7XTHC3B","either","2","","","","","","","74","J","1","","0","1","0","","0.3205676235","","73","","0.235909594","main_expt","0.2","","0.6","0.3205676235","0.07830871569","0.4","0.4015056825","0.8","","","","","","","",""
"401","","bandit","152","480653","0.0-113.0-0.0","35832077","wem/bandit_either","A29VV8U7XTHC3B","either","2","","","","","","","76","L","3","","0","0","1","","0.4200542591","","74","","0.2772030277","main_expt","0.2","","0.6","0.3040473008","0.09226686474","0.4","0.4200542591","0.8","","","","","","","",""
"373","","bandit","153","482539","0.0-114.0-0.0","35832077","wem/bandit_either","A29VV8U7XTHC3B","either","2","","","","","","","72","H","0","img/none_selected.jpg","0","1","0","","0.2237268092","","75","","0.2237268092","main_expt","0.2","","0.6","0.2686744794","0.07948082514","0.4","0.4353174817","0.8","","","","","","","",""
"450","","bandit","154","484506","0.0-115.0-0.0","35832077","wem/bandit_either","A29VV8U7XTHC3B","either","2","","","","","","","75","K","2","","0","0","1","0.1279570505","","","76","0.1739375455","","main_expt","0.2","0.258707356","0.6","","","0.4","","0.8","0.1279570505","0.4196821318","","","","","",""
"333","","bandit","155","486356","0.0-116.0-0.0","35832077","wem/bandit_either","A29VV8U7XTHC3B","either","2","","","","","","","75","K","2","","0","0","1","","0.1202820049","","77","","0.1648796623","main_expt","0.2","","0.6","0.3010070056","0.1202820049","0.4","0.3787369199","0.8","","","","","","","",""
"372","","bandit","156","488244","0.0-117.0-0.0","35832077","wem/bandit_either","A29VV8U7XTHC3B","either","2","","","","","","","74","J","1","","0","0","1","0.2648586626","","","78","0.1637798684","","main_expt","0.2","0.2648586626","0.6","","","0.4","","0.8","0.1054071572","0.4314930014","","","","","",""
"373","","bandit","157","490132","0.0-118.0-0.0","35832077","wem/bandit_either","A29VV8U7XTHC3B","either","2","","","","","","","74","J","1","","0","0","1","","0.1984114041","","79","","0.1490076182","main_expt","0.2","","0.6","0.1984114041","0.1403095361","0.4","0.4155078174","0.8","","","","","","","",""
"461","","bandit","158","492108","0.0-119.0-0.0","35832077","wem/bandit_either","A29VV8U7XTHC3B","either","2","","","","","","","76","L","3","","0","0","1","","0.4226243671","","80","","0.1093198388","main_expt","0.2","","0.6","0.180325551","0.1891235553","0.4","0.4226243671","0.8","","","","","","","",""
"395","","bandit","159","494012","0.0-120.0-0.0","35832077","wem/bandit_either","A29VV8U7XTHC3B","either","2","","","","","","","76","L","3","","0","0","1","0.4474166549","","","81","0.08868186825","","main_expt","0.2","0.224531153","0.6","","","0.4","","0.8","0.1858030354","0.4474166549","","","","","",""
"467","","bandit","160","495996","0.0-121.0-0.0","35832077","wem/bandit_either","A29VV8U7XTHC3B","either","2","","","","","","","76","L","3","","0","0","1","0.4636297045","","","82","0.1073880826","","main_expt","0.2","0.221125015","0.6","","","0.4","","0.8","0.2476542501","0.4636297045","","","","","",""
"297","","bandit","161","497803","0.0-122.0-0.0","35832077","wem/bandit_either","A29VV8U7XTHC3B","either","2","","","","","","","75","K","2","","0","0","1","0.2188241074","","","83","0.1022587498","","main_expt","0.2","0.2143237207","0.6","","","0.4","","0.8","0.2188241074","0.467509749","","","","","",""
"524","","bandit","162","499846","0.0-123.0-0.0","35832077","wem/bandit_either","A29VV8U7XTHC3B","either","2","","","","","","","72","H","0","img/none_selected.jpg","0","1","0","","0.1085807699","","84","","0.1085807699","main_expt","0.2","","0.6","0.2097367537","0.2754771977","0.4","0.4551111531","0.8","","","","","","","",""
"254","","bandit","163","501622","0.0-124.0-0.0","35832077","wem/bandit_either","A29VV8U7XTHC3B","either","2","","","","","","","72","H","0","img/none_selected.jpg","0","0","1","","0.1263918358","","85","","0.1263918358","main_expt","0.2","","0.6","0.1661536269","0.2965575968","0.4","0.4621419017","0.8","","","","","","","",""
"355","","bandit","164","503494","0.0-125.0-0.0","35832077","wem/bandit_either","A29VV8U7XTHC3B","either","2","","","","","","","72","H","0","img/none_selected.jpg","0","0","1","","0.1481941301","","86","","0.1481941301","main_expt","0.2","","0.6","0.1364458955","0.257129161","0.4","0.4612050897","0.8","","","","","","","",""
"319","","bandit","165","505333","0.0-126.0-0.0","35832077","wem/bandit_either","A29VV8U7XTHC3B","either","2","","","","","","","74","J","1","","0","0","1","","0.08235553135","","87","","0.1447872846","main_expt","0.2","","0.6","0.08235553135","0.2338967043","0.4","0.4334675206","0.8","","","","","","","",""
"515","","bandit","166","507358","0.0-127.0-0.0","35832077","wem/bandit_either","A29VV8U7XTHC3B","either","2","","","","","","","74","J","1","","0","0","1","","0.0754832669","","88","","0.1391637727","main_expt","0.2","","0.6","0.0754832669","0.2161535794","0.4","0.4397617206","0.8","","","","","","","",""
"416","","bandit","167","509297","0.0-128.0-0.0","35832077","wem/bandit_either","A29VV8U7XTHC3B","either","2","","","","","","","74","J","1","","0","0","1","","0.109361408","","89","","0.1476089376","main_expt","0.2","","0.6","0.109361408","0.2043146745","0.4","0.4635478967","0.8","","","","","","","",""
"293","","bandit","168","511098","0.0-129.0-0.0","35832077","wem/bandit_either","A29VV8U7XTHC3B","either","2","","","","","","","75","K","2","","0","0","1","","0.2346009907","","90","","0.2081489191","main_expt","0.2","","0.6","0.07391079866","0.2346009907","0.4","0.4234969579","0.8","","","","","","","",""
"701","","bandit","169","513310","0.0-130.0-0.0","35832077","wem/bandit_either","A29VV8U7XTHC3B","either","2","","","","","","","75","K","2","","0","0","1","","0.2333967219","","91","","0.1834039029","main_expt","0.2","","0.6","0.1164594673","0.2333967219","0.4","0.4267507071","0.8","","","","","","","",""
"290","","bandit","170","515108","0.0-131.0-0.0","35832077","wem/bandit_either","A29VV8U7XTHC3B","either","2","","","","","","","76","L","3","","0","0","1","0.4089505196","","","92","0.2027314649","","main_expt","0.2","0.113043345","0.6","","","0.4","","0.8","0.2150480475","0.4089505196","","","","","",""
"49","","bandit","171","516675","0.0-132.0-0.0","35832077","wem/bandit_either","A29VV8U7XTHC3B","either","2","","","","","","","76","L","3","","0","0","1","0.4112501448","","","93","0.1738894496","","main_expt","0.2","0.1714352716","0.6","","","0.4","","0.8","0.2588080464","0.4112501448","","","","","",""
"251","","bandit","172","518446","0.0-133.0-0.0","35832077","wem/bandit_either","A29VV8U7XTHC3B","either","2","","","","","","","76","L","3","","0","0","1","0.452415855","","","94","0.2484708832","","main_expt","0.2","0.1253024032","0.6","","","0.4","","0.8","0.2748849181","0.452415855","","","","","",""
"313","","bandit","173","520275","0.0-134.0-0.0","35832077","wem/bandit_either","A29VV8U7XTHC3B","either","2","","","","","","","75","K","2","","0","1","0","","0.2791739054","","95","","0.2914685715","main_expt","0.2","","0.6","0.1401284447","0.2791739054","0.4","0.4589197587","0.8","","","","","","","",""
"347","","bandit","174","522133","0.0-135.0-0.0","35832077","wem/bandit_either","A29VV8U7XTHC3B","either","2","","","","","","","74","J","1","","1","0","0","0.1320491369","","","96","0.2417524935","","main_expt","0.2","0.1320491369","0.6","","","0.4","","0.8","0.3149564315","0.4481870348","","","","","",""
"411","","bandit","175","524063","0.0-136.0-0.0","35832077","wem/bandit_either","A29VV8U7XTHC3B","either","2","","","","","","","74","J","1","","0","0","1","","0.1518453759","","97","","0.2492821404","main_expt","0.2","","0.6","0.1518453759","0.372564007","0.4","0.4597072186","0.8","","","","","","","",""
"296","","bandit","176","525877","0.0-137.0-0.0","35832077","wem/bandit_either","A29VV8U7XTHC3B","either","2","","","","","","","74","J","1","","1","0","0","0.2173959583","","","98","0.3002958449","","main_expt","0.2","0.2173959583","0.6","","","0.4","","0.8","0.393328365","0.4705619112","","","","","",""
"288","","bandit","177","527675","0.0-138.0-0.0","35832077","wem/bandit_either","A29VV8U7XTHC3B","either","2","","","","","","","74","J","1","","0","0","1","","0.2618725657","","99","","0.3544832656","main_expt","0.2","","0.6","0.2618725657","0.421239771","0.4","0.4800968761","0.8","","","","","","","",""
"266","","bandit","178","529450","0.0-139.0-0.0","35832077","wem/bandit_either","A29VV8U7XTHC3B","either","2","","","","","","","74","J","1","","1","0","0","0.2487788848","","","100","0.3810954338","","main_expt","0.2","0.2487788848","0.6","","","0.4","","0.8","0.4130759476","0.4780143146","","","","","",""
"498","","bandit","179","531467","0.0-140.0-0.0","35832077","wem/bandit_either","A29VV8U7XTHC3B","either","2","","","","","","","74","J","1","","0","0","1","0.2890792313","","","101","0.4042362267","","main_expt","0.2","0.2890792313","0.6","","","0.4","","0.8","0.4089462913","0.4849002763","","","","","",""
"507","","bandit","180","533491","0.0-141.0-0.0","35832077","wem/bandit_either","A29VV8U7XTHC3B","either","2","","","","","","","74","J","1","","0","1","0","","0.3136369757","","102","","0.4594696392","main_expt","0.2","","0.6","0.3136369757","0.370330464","0.4","0.4886078379","0.8","","","","","","","",""
"419","","bandit","181","535429","0.0-142.0-0.0","35832077","wem/bandit_either","A29VV8U7XTHC3B","either","2","","","","","","","75","K","2","","0","0","1","","0.3306315663","","103","","0.4588766667","main_expt","0.2","","0.6","0.2364671533","0.3306315663","0.4","0.47121906","0.8","","","","","","","",""
"410","","bandit","182","537357","0.0-143.0-0.0","35832077","wem/bandit_either","A29VV8U7XTHC3B","either","2","","","","","","","75","K","2","","0","1","0","","0.354634178","","104","","0.4372785745","main_expt","0.2","","0.6","0.2202486688","0.354634178","0.4","0.4760763377","0.8","","","","","","","",""
"274","","bandit","183","539140","0.0-144.0-0.0","35832077","wem/bandit_either","A29VV8U7XTHC3B","either","2","","","","","","","76","L","3","","0","0","1","0.4701389446","","","105","0.4063887309","","main_expt","0.2","0.1854418088","0.6","","","0.4","","0.8","0.3896605338","0.4701389446","","","","","",""
"458","","bandit","184","541107","0.0-145.0-0.0","35832077","wem/bandit_either","A29VV8U7XTHC3B","either","2","","","","","","","72","H","0","img/none_selected.jpg","0","0","1","0.3778019321","","","106","0.3778019321","","main_expt","0.2","0.1596754559","0.6","","","0.4","","0.8","0.414339711","0.471324938","","","","","",""
"371","","bandit","185","542987","0.0-146.0-0.0","35832077","wem/bandit_either","A29VV8U7XTHC3B","either","2","","","","","","","76","L","3","","0","0","1","0.4786694594","","","107","0.3614143111","","main_expt","0.2","0.137099288","0.6","","","0.4","","0.8","0.4164239898","0.4786694594","","","","","",""
"500","","bandit","186","544996","0.0-147.0-0.0","35832077","wem/bandit_either","A29VV8U7XTHC3B","either","2","","","","","","","72","H","0","img/none_selected.jpg","0","0","1","","0.3681250399","","108","","0.3681250399","main_expt","0.2","","0.6","0.1443984823","0.3836571442","0.4","0.4810065258","0.8","","","","","","","",""
"370","","bandit","187","546886","0.0-148.0-0.0","35832077","wem/bandit_either","A29VV8U7XTHC3B","either","2","","","","","","","76","L","3","","1","0","0","0.4816764674","","","109","0.3446081275","","main_expt","0.2","0.1409511773","0.6","","","0.4","","0.8","0.3881214568","0.4816764674","","","","","",""
"252","","bandit","188","548660","0.0-149.0-0.0","35832077","wem/bandit_either","A29VV8U7XTHC3B","either","2","","","","","","","76","L","3","","0","0","1","0.4882082215","","","110","0.3681270965","","main_expt","0.2","0.1787750665","0.6","","","0.4","","0.8","0.4266873791","0.4882082215","","","","","",""
"265","","bandit","189","550443","0.0-150.0-0.0","35832077","wem/bandit_either","A29VV8U7XTHC3B","either","2","","","","","","","76","L","3","","0","1","0","","0.478642168","","111","","0.391379093","main_expt","0.2","","0.6","0.1862786225","0.4475699482","0.4","0.478642168","0.8","","","","","","","",""
"371","","bandit","190","552332","0.0-151.0-0.0","35832077","wem/bandit_either","A29VV8U7XTHC3B","either","2","","","","","","","75","K","2","","1","0","0","0.4190314983","","","112","0.4131544452","","main_expt","0.2","0.1654620982","0.6","","","0.4","","0.8","0.4190314983","0.4841415165","","","","","",""
"260","","bandit","191","554102","0.0-152.0-0.0","35832077","wem/bandit_either","A29VV8U7XTHC3B","either","2","","","","","","","75","K","2","","0","0","1","0.3666128881","","","113","0.3963985948","","main_expt","0.2","0.1582981878","0.6","","","0.4","","0.8","0.3666128881","0.4883212127","","","","","",""
"352","","bandit","192","555972","0.0-153.0-0.0","35832077","wem/bandit_either","A29VV8U7XTHC3B","either","2","","","","","","","75","K","2","","0","0","1","","0.3866259854","","114","","0.4117985871","main_expt","0.2","","0.6","0.1922757069","0.3866259854","0.4","0.4883790739","0.8","","","","","","","",""
"363","","bandit","193","557844","0.0-154.0-0.0","35832077","wem/bandit_either","A29VV8U7XTHC3B","either","2","","","","","","","75","K","2","","0","1","0","","0.354161152","","115","","0.394381103","main_expt","0.2","","0.6","0.185618385","0.354161152","0.4","0.4902011966","0.8","","","","","","","",""
"457","","bandit","194","559820","0.0-155.0-0.0","35832077","wem/bandit_either","A29VV8U7XTHC3B","either","2","","","","","","","74","J","1","","0","0","1","0.2057277395","","","116","0.3762408663","","main_expt","0.2","0.2057277395","0.6","","","0.4","","0.8","0.3170745426","0.4844723045","","","","","",""
"527","","bandit","195","561870","0.0-156.0-0.0","35832077","wem/bandit_either","A29VV8U7XTHC3B","either","2","","","","","","","72","H","0","img/none_selected.jpg","0","0","1","0.3823674378","","","117","0.3823674378","","main_expt","0.2","0.2288411079","0.6","","","0.4","","0.8","0.304536318","0.4895589844","","","","","",""
"270","","bandit","196","563660","0.0-157.0-0.0","35832077","wem/bandit_either","A29VV8U7XTHC3B","either","2","","","","","","","74","J","1","","0","0","1","0.2207517482","","","118","0.4050195855","","main_expt","0.2","0.2207517482","0.6","","","0.4","","0.8","0.3411026949","0.4899729034","","","","","",""
"327","","bandit","197","565499","0.0-158.0-0.0","35832077","wem/bandit_either","A29VV8U7XTHC3B","either","2","","","","","","","72","H","0","img/none_selected.jpg","0","1","0","","0.4227562767","","119","","0.4227562767","main_expt","0.2","","0.6","0.1955286499","0.3447942488","0.4","0.4947041593","0.8","","","","","","","",""
"234","","bandit","198","567241","0.0-159.0-0.0","35832077","wem/bandit_either","A29VV8U7XTHC3B","either","2","","","","","","","74","J","1","","0","0","1","","0.2427950695","","120","","0.4163810796","main_expt","0.2","","0.6","0.2427950695","0.3686185352","0.4","0.4916865355","0.8","","","","","","","",""
"284","","bandit","199","569036","0.0-160.0-0.0","35832077","wem/bandit_either","A29VV8U7XTHC3B","either","2","","","","","","","75","K","2","","0","0","1","","0.3547669752","","121","","0.406821829","main_expt","0.2","","0.6","0.2479682904","0.3547669752","0.4","0.4860386064","0.8","","","","","","","",""
"259","","bandit","200","570820","0.0-161.0-0.0","35832077","wem/bandit_either","A29VV8U7XTHC3B","either","2","","","","","","","76","L","3","","0","0","1","0.483083859","","","122","0.3999449125","","main_expt","0.2","0.3081985406","0.6","","","0.4","","0.8","0.365994073","0.483083859","","","","","",""
"235","","bandit","201","572566","0.0-162.0-0.0","35832077","wem/bandit_either","A29VV8U7XTHC3B","either","2","","","","","","","74","J","1","","0","0","1","","0.3089359708","","123","","0.366626489","main_expt","0.2","","0.6","0.3089359708","0.3120596142","0.4","0.4791491275","0.8","","","","","","","",""
"240","","bandit","202","574325","0.0-163.0-0.0","35832077","wem/bandit_either","A29VV8U7XTHC3B","either","2","","","","","","","75","K","2","","0","0","1","0.302161917","","","124","0.3706278578","","main_expt","0.2","0.3298338218","0.6","","","0.4","","0.8","0.302161917","0.4776777384","","","","","",""
"9","","bandit","203","575854","0.0-164.0-0.0","35832077","wem/bandit_either","A29VV8U7XTHC3B","either","2","","","","","","","76","L","3","","0","0","1","0.478983255","","","125","0.3545504723","","main_expt","0.2","0.2795250441","0.6","","","0.4","","0.8","0.2794370347","0.478983255","","","","","",""
"260","","bandit","204","577636","0.0-165.0-0.0","35832077","wem/bandit_either","A29VV8U7XTHC3B","either","2","","","","","","","72","H","0","img/none_selected.jpg","0","0","1","","0.3106298006","","126","","0.3106298006","main_expt","0.2","","0.6","0.2184127205","0.2466154908","0.4","0.4724726719","0.8","","","","","","","",""
"331","","bandit","205","579485","0.0-166.0-0.0","35832077","wem/bandit_either","A29VV8U7XTHC3B","either","2","","","","","","","74","J","1","","0","0","1","0.2488858907","","","127","0.3351405197","","main_expt","0.2","0.2488858907","0.6","","","0.4","","0.8","0.2712823261","0.4796244369","","","","","",""
"272","","bandit","206","581278","0.0-167.0-0.0","35832077","wem/bandit_either","A29VV8U7XTHC3B","either","2","","","","","","","75","K","2","","0","0","1","0.2095517986","","","128","0.2984422464","","main_expt","0.2","0.2850827173","0.6","","","0.4","","0.8","0.2095517986","0.4825212971","","","","","",""
"231","","bandit","207","583028","0.0-168.0-0.0","35832077","wem/bandit_either","A29VV8U7XTHC3B","either","2","","","","","","","76","L","3","","0","0","1","0.4877535013","","","129","0.2027892291","","main_expt","0.2","0.2867242009","0.6","","","0.4","","0.8","0.1986866195","0.4877535013","","","","","",""
"209","","bandit","208","584754","0.0-169.0-0.0","35832077","wem/bandit_either","A29VV8U7XTHC3B","either","2","","","","","","","75","K","2","","0","0","1","","0.172959111","","130","","0.13768179","main_expt","0.2","","0.6","0.2509552002","0.172959111","0.4","0.4833646461","0.8","","","","","","","",""
"208","","bandit","209","586477","0.0-170.0-0.0","35832077","wem/bandit_either","A29VV8U7XTHC3B","either","2","","","","","","","74","J","1","","0","0","1","0.2172434631","","","131","0.1352832961","","main_expt","0.2","0.2172434631","0.6","","","0.4","","0.8","0.163172462","0.4790990265","","","","","",""
"256","","bandit","210","588251","0.0-171.0-0.0","35832077","wem/bandit_either","A29VV8U7XTHC3B","either","2","","","","","","","72","H","0","img/none_selected.jpg","0","0","1","","0.08660982753","","132","","0.08660982753","main_expt","0.2","","0.6","0.158295755","0.161148659","0.4","0.4882311922","0.8","","","","","","","",""
"604","","bandit","211","590374","0.0-172.0-0.0","35832077","wem/bandit_either","A29VV8U7XTHC3B","either","2","","","","","","","74","J","1","","0","0","1","","0.185310911","","133","","0.1020907376","main_expt","0.2","","0.6","0.185310911","0.1735641072","0.4","0.4889625365","0.8","","","","","","","",""
"367","","bandit","212","592262","0.0-173.0-0.0","35832077","wem/bandit_either","A29VV8U7XTHC3B","either","2","","","","","","","75","K","2","","0","0","1","0.1597390633","","","134","0.1231499397","","main_expt","0.2","0.1966535246","0.6","","","0.4","","0.8","0.1597390633","0.4916783795","","","","","",""
"253","","bandit","213","594029","0.0-174.0-0.0","35832077","wem/bandit_either","A29VV8U7XTHC3B","either","2","","","","","","","76","L","3","","0","1","0","","0.4904315354","","135","","0.1524236556","main_expt","0.2","","0.6","0.2290191974","0.1460070414","0.4","0.4904315354","0.8","","","","","","","",""
"233","","bandit","214","595771","0.0-175.0-0.0","35832077","wem/bandit_either","A29VV8U7XTHC3B","either","2","","","","","","","75","K","2","","0","0","1","","0.105474526","","136","","0.1954247664","main_expt","0.2","","0.6","0.2929229053","0.105474526","0.4","0.491666595","0.8","","","","","","","",""
"265","","bandit","215","597556","0.0-176.0-0.0","35832077","wem/bandit_either","A29VV8U7XTHC3B","either","2","","","","","","","74","J","1","","0","0","1","0.2780805385","","","137","0.1833989084","","main_expt","0.2","0.2780805385","0.6","","","0.4","","0.8","0.08835118593","0.4917142499","","","","","",""
"265","","bandit","216","599340","0.0-177.0-0.0","35832077","wem/bandit_either","A29VV8U7XTHC3B","either","2","","","","","","","72","H","0","img/none_selected.jpg","0","0","1","","0.1490533902","","138","","0.1490533902","main_expt","0.2","","0.6","0.217224157","0.06418360449","0.4","0.4870170403","0.8","","","","","","","",""
"257","","bandit","217","601119","0.0-178.0-0.0","35832077","wem/bandit_either","A29VV8U7XTHC3B","either","2","","","","","","","74","J","1","","0","1","0","","0.2323391466","","139","","0.1318817547","main_expt","0.2","","0.6","0.2323391466","0.03554325754","0.4","0.4834992155","0.8","","","","","","","",""
"247","","bandit","218","602887","0.0-179.0-0.0","35832077","wem/bandit_either","A29VV8U7XTHC3B","either","2","","","","","","","75","K","2","","0","0","1","","0.04477370895","","140","","0.1877412345","main_expt","0.2","","0.6","0.244475209","0.04477370895","0.4","0.4927392517","0.8","","","","","","","",""
"286","","bandit","219","604694","0.0-180.0-0.0","35832077","wem/bandit_either","A29VV8U7XTHC3B","either","2","","","","","","","72","H","0","img/none_selected.jpg","0","0","1","","0.2363671377","","141","","0.2363671377","main_expt","0.2","","0.6","0.232604034","0.03780119019","0.4","0.4872377518","0.8","","","","","","","",""
"271","","bandit","220","606485","0.0-181.0-0.0","35832077","wem/bandit_either","A29VV8U7XTHC3B","either","2","","","","","","","75","K","2","","0","0","1","0.03149913875","","","142","0.2546402356","","main_expt","0.2","0.2447345556","0.6","","","0.4","","0.8","0.03149913875","0.4846254936","","","","","",""
"254","","bandit","221","608260","0.0-182.0-0.0","35832077","wem/bandit_either","A29VV8U7XTHC3B","either","2","","","","","","","72","H","0","img/none_selected.jpg","0","0","1","","0.2825544685","","143","","0.2825544685","main_expt","0.2","","0.6","0.26413271","0.04191513266","0.4","0.4815328815","0.8","","","","","","","",""
"264","","bandit","222","610037","0.0-183.0-0.0","35832077","wem/bandit_either","A29VV8U7XTHC3B","either","2","","","","","","","75","K","2","","0","0","1","","0.05613120157","","144","","0.2731230023","main_expt","0.2","","0.6","0.1988203511","0.05613120157","0.4","0.4854048375","0.8","","","","","","","",""
"283","","bandit","223","611831","0.0-184.0-0.0","35832077","wem/bandit_either","A29VV8U7XTHC3B","either","2","","","","","","","72","H","0","img/none_selected.jpg","1","0","0","0.2943814715","","","145","0.2943814715","","main_expt","0.2","0.217822638","0.6","","","0.4","","0.8","0.03827589539","0.4813029389","","","","","",""
"108","","bandit","224","613462","0.0-185.0-0.0","35832077","wem/bandit_either","A29VV8U7XTHC3B","either","2","","","","","","","72","H","0","img/none_selected.jpg","0","0","1","0.328634005","","","146","0.328634005","","main_expt","0.2","0.2009042904","0.6","","","0.4","","0.8","0.02861175853","0.4884824202","","","","","",""
"231","","bandit","225","615213","0.0-186.0-0.0","35832077","wem/bandit_either","A29VV8U7XTHC3B","either","2","","","","","","","72","H","0","img/none_selected.jpg","0","0","1","","0.3511209141","","147","","0.3511209141","main_expt","0.2","","0.6","0.2080446297","0.02140640811","0.4","0.4835291327","0.8","","","","","","","",""
"260","","bandit","226","616995","0.0-187.0-0.0","35832077","wem/bandit_either","A29VV8U7XTHC3B","either","2","","","","","","","72","H","0","img/none_selected.jpg","0","0","1","","0.3874996206","","148","","0.3874996206","main_expt","0.2","","0.6","0.1536700415","0.0202041473","0.4","0.4716003481","0.8","","","","","","","",""
"316","","bandit","227","618819","0.0-188.0-0.0","35832077","wem/bandit_either","A29VV8U7XTHC3B","either","2","","","","","","","72","H","0","img/none_selected.jpg","0","1","0","","0.3476646045","","149","","0.3476646045","main_expt","0.2","","0.6","0.1593661633","0.01154190459","0.4","0.4341886607","0.8","","","","","","","",""
"113","","bandit","228","620454","0.0-189.0-0.0","35832077","wem/bandit_either","A29VV8U7XTHC3B","either","2","","","","","","","74","J","1","","0","0","1","0.144955896","","","150","0.3323010919","","main_expt","0.2","0.144955896","0.6","","","0.4","","0.8","0.01291237021","0.4014438172","","","","","",""
"88","","bandit","229","622062","0.0-190.0-0.0","35832077","wem/bandit_either","A29VV8U7XTHC3B","either","2","","","","","","","75","K","2","","0","0","1","","0.0137789916","","151","","0.3954477196","main_expt","0.2","","0.6","0.2123564028","0.0137789916","0.4","0.3980713407","0.8","","","","","","","",""
"136","","bandit","230","623711","0.0-191.0-0.0","35832077","wem/bandit_either","A29VV8U7XTHC3B","either","2","","","","","","","76","L","3","","0","0","1","0.4002357887","","","152","0.4186327087","","main_expt","0.2","0.2301890466","0.6","","","0.4","","0.8","0.01985271471","0.4002357887","","","","","",""
"1604","","bandit","231","626837","0.0-192.0-0.0","35832077","wem/bandit_either","A29VV8U7XTHC3B","either","2","","","","","","","74","J","1","","1","0","0","0.2295153641","","","153","0.4029566754","","main_expt","0.2","0.2295153641","0.6","","","0.4","","0.8","0.02951100453","0.388677987","","","","","",""
"222","","bandit","232","628582","0.0-193.0-0.0","35832077","wem/bandit_either","A29VV8U7XTHC3B","either","2","","","","","","","74","J","1","","0","0","1","","0.2163321136","","154","","0.4037751878","main_expt","0.2","","0.6","0.2163321136","0.02325572033","0.4","0.3817747688","0.8","","","","","","","",""
"116","","bandit","233","630222","0.0-194.0-0.0","35832077","wem/bandit_either","A29VV8U7XTHC3B","either","2","","","","","","","74","J","1","","0","0","1","0.2257858177","","","155","0.4078727314","","main_expt","0.2","0.2257858177","0.6","","","0.4","","0.8","0.03925092562","0.327727533","","","","","",""
"19","","bandit","234","631763","0.0-195.0-0.0","35832077","wem/bandit_either","A29VV8U7XTHC3B","either","2","","","","","","","76","L","3","","0","0","1","","0.2821504166","","156","","0.3941681487","main_expt","0.2","","0.6","0.2077891775","0.05532081832","0.4","0.2821504166","0.8","","","","","","","",""
"68","","bandit","235","633339","0.0-196.0-0.0","35832077","wem/bandit_either","A29VV8U7XTHC3B","either","2","","","","","","","76","L","3","","0","0","1","0.2784527126","","","157","0.3417147062","","main_expt","0.2","0.1742908387","0.6","","","0.4","","0.8","0.05983660039","0.2784527126","","","","","",""
"410","","bandit","236","635268","0.0-197.0-0.0","35832077","wem/bandit_either","A29VV8U7XTHC3B","either","2","","","","","","","75","K","2","","0","0","1","0.09347744845","","","158","0.2963220618","","main_expt","0.2","0.162057643","0.6","","","0.4","","0.8","0.09347744845","0.2857058734","","","","","",""
"277","","bandit","237","637060","0.0-198.0-0.0","35832077","wem/bandit_either","A29VV8U7XTHC3B","either","2","","","","","","","75","K","2","","0","0","1","0.09649648717","","","159","0.2961528309","","main_expt","0.2","0.1805514511","0.6","","","0.4","","0.8","0.09649648717","0.2349295223","","","","","",""
"281","","bandit","238","638862","0.0-199.0-0.0","35832077","wem/bandit_either","A29VV8U7XTHC3B","either","2","","","","","","","74","J","1","","0","0","1","","0.1724629995","","160","","0.2842772575","main_expt","0.2","","0.6","0.1724629995","0.08382429791","0.4","0.2275717407","0.8","","","","","","","",""
"335","","bandit","239","640718","0.0-200.0-0.0","35832077","wem/bandit_either","A29VV8U7XTHC3B","either","2","","","","","","","74","J","1","","0","0","1","","0.1660992999","","161","","0.2747674873","main_expt","0.2","","0.6","0.1660992999","0.1466352983","0.4","0.2559884592","0.8","","","","","","","",""
"409","","bandit","240","642637","0.0-201.0-0.0","35832077","wem/bandit_either","A29VV8U7XTHC3B","either","2","","","","","","","76","L","3","","1","0","0","0.2670526618","","","162","0.2993190406","","main_expt","0.2","0.2281832109","0.6","","","0.4","","0.8","0.1569467617","0.2670526618","","","","","",""
"25","","bandit","241","644181","0.0-202.0-0.0","35832077","wem/bandit_either","A29VV8U7XTHC3B","either","2","","","","","","","76","L","3","","0","0","1","0.2618894379","","","163","0.3102408377","","main_expt","0.2","0.2144285545","0.6","","","0.4","","0.8","0.1437935099","0.2618894379","","","","","",""
"275","","bandit","242","645967","0.0-203.0-0.0","35832077","wem/bandit_either","A29VV8U7XTHC3B","either","2","","","","","","","76","L","3","","0","0","1","0.2977476978","","","164","0.2607878409","","main_expt","0.2","0.2131293933","0.6","","","0.4","","0.8","0.1503677763","0.2977476978","","","","","",""
"235","","bandit","243","647716","0.0-204.0-0.0","35832077","wem/bandit_either","A29VV8U7XTHC3B","either","2","","","","","","","74","J","1","","0","0","1","","0.251698227","","165","","0.2470054868","main_expt","0.2","","0.6","0.251698227","0.1574825995","0.4","0.3138636066","0.8","","","","","","","",""
"145","","bandit","244","649382","0.0-205.0-0.0","35832077","wem/bandit_either","A29VV8U7XTHC3B","either","2","","","","","","","75","K","2","","0","0","1","0.1500633275","","","166","0.2629624785","","main_expt","0.2","0.2831539445","0.6","","","0.4","","0.8","0.1500633275","0.3204338644","","","","","",""
"240","","bandit","245","651131","0.0-206.0-0.0","35832077","wem/bandit_either","A29VV8U7XTHC3B","either","2","","","","","","","74","J","1","","1","0","0","0.2496169508","","","167","0.2745713682","","main_expt","0.2","0.2496169508","0.6","","","0.4","","0.8","0.1137242654","0.3600517585","","","","","",""
"178","","bandit","246","652821","0.0-207.0-0.0","35832077","wem/bandit_either","A29VV8U7XTHC3B","either","2","","","","","","","74","J","1","","0","0","1","0.2315540067","","","168","0.2557249153","","main_expt","0.2","0.2315540067","0.6","","","0.4","","0.8","0.145192941","0.3678373827","","","","","",""
"153","","bandit","247","654495","0.0-208.0-0.0","35832077","wem/bandit_either","A29VV8U7XTHC3B","either","2","","","","","","","76","L","3","","1","0","0","0.3421512568","","","169","0.2016321063","","main_expt","0.2","0.1825517174","0.6","","","0.4","","0.8","0.1863479632","0.3421512568","","","","","",""
"157","","bandit","248","656175","0.0-209.0-0.0","35832077","wem/bandit_either","A29VV8U7XTHC3B","either","2","","","","","","","76","L","3","","0","0","1","0.3917895485","","","170","0.2210696627","","main_expt","0.2","0.2535959064","0.6","","","0.4","","0.8","0.142304713","0.3917895485","","","","","",""
"17","","bandit","249","657715","0.0-210.0-0.0","35832077","wem/bandit_either","A29VV8U7XTHC3B","either","2","","","","","","","76","L","3","","0","0","1","0.3206692194","","","171","0.1627904758","","main_expt","0.2","0.3004284576","0.6","","","0.4","","0.8","0.1739768979","0.3206692194","","","","","",""
"56","","bandit","250","659292","0.0-211.0-0.0","35832077","wem/bandit_either","A29VV8U7XTHC3B","either","2","","","","","","","74","J","1","","0","1","0","","0.2716191145","","172","","0.1421076649","main_expt","0.2","","0.6","0.2716191145","0.2172659048","0.4","0.3198600846","0.8","","","","","","","",""
"215","","bandit","251","661020","0.0-212.0-0.0","35832077","wem/bandit_either","A29VV8U7XTHC3B","either","2","","","","","","","75","K","2","","0","0","1","0.2419731025","","","173","0.165050165","","main_expt","0.2","0.3253138029","0.6","","","0.4","","0.8","0.2419731025","0.2641483633","","","","","",""
"18","","bandit","252","662550","0.0-213.0-0.0","35832077","wem/bandit_either","A29VV8U7XTHC3B","either","2","","","","","","","72","H","0","img/none_selected.jpg","0","0","1","","0.1406738207","","174","","0.1406738207","main_expt","0.2","","0.6","0.3419591401","0.2239571331","0.4","0.2248062597","0.8","","","","","","","",""
"13","","bandit","253","664085","0.0-214.0-0.0","35832077","wem/bandit_either","A29VV8U7XTHC3B","either","2","","","","","","","75","K","2","","0","0","1","","0.2311410243","","175","","0.138310495","main_expt","0.2","","0.6","0.3442692367","0.2311410243","0.4","0.2370379408","0.8","","","","","","","",""
"240","","bandit","254","665835","0.0-215.0-0.0","35832077","wem/bandit_either","A29VV8U7XTHC3B","either","2","","","","","","","72","H","0","img/none_selected.jpg","0","0","1","","0.1675243642","","176","","0.1675243642","main_expt","0.2","","0.6","0.3397266539","0.2610077479","0.4","0.2157433706","0.8","","","","","","","",""
"20","","bandit","255","667380","0.0-216.0-0.0","35832077","wem/bandit_either","A29VV8U7XTHC3B","either","2","","","","","","","75","K","2","","0","0","1","","0.2780938204","","177","","0.1919885971","main_expt","0.2","","0.6","0.2997078274","0.2780938204","0.4","0.2014791824","0.8","","","","","","","",""
"0","","bandit","256","668906","0.0-217.0-0.0","35832077","wem/bandit_either","A29VV8U7XTHC3B","either","2","","","","","","","72","H","0","img/none_selected.jpg","0","0","1","","0.2365392944","","178","","0.2365392944","main_expt","0.2","","0.6","0.3064007527","0.3151752793","0.4","0.1913564418","0.8","","","","","","","",""
"530","","bandit","257","670949","0.0-218.0-0.0","35832077","wem/bandit_either","A29VV8U7XTHC3B","either","2","","","","","","","75","K","2","","0","1","0","","0.2799621139","","179","","0.2509455726","main_expt","0.2","","0.6","0.3533432679","0.2799621139","0.4","0.1980728016","0.8","","","","","","","",""
"118","","bandit","258","672590","0.0-219.0-0.0","35832077","wem/bandit_either","A29VV8U7XTHC3B","either","2","","","","","","","76","L","3","","0","0","1","0.1833491223","","","180","0.2767223981","","main_expt","0.2","0.3652522579","0.6","","","0.4","","0.8","0.3170936092","0.1833491223","","","","","",""
"42","","bandit","259","674157","0.0-220.0-0.0","35832077","wem/bandit_either","A29VV8U7XTHC3B","either","2","","","","","","","74","J","1","","1","0","0","0.3383156657","","","181","0.314600373","","main_expt","0.2","0.3383156657","0.6","","","0.4","","0.8","0.28101752","0.1342686697","","","","","",""
"94","","bandit","260","675772","0.0-221.0-0.0","35832077","wem/bandit_either","A29VV8U7XTHC3B","either","2","","","","","","","74","J","1","","0","0","1","0.2902116232","","","182","0.3943610609","","main_expt","0.2","0.2902116232","0.6","","","0.4","","0.8","0.3043342224","0.1636660304","","","","","",""
"502","","bandit","261","677797","0.0-222.0-0.0","35832077","wem/bandit_either","A29VV8U7XTHC3B","either","2","","","","","","","74","J","1","","0","1","0","","0.3026157476","","183","","0.3586422101","main_expt","0.2","","0.6","0.3026157476","0.3192524042","0.4","0.136761637","0.8","","","","","","","",""
"293","","bandit","262","679603","0.0-223.0-0.0","35832077","wem/bandit_either","A29VV8U7XTHC3B","either","2","","","","","","","75","K","2","","1","0","0","0.3332516821","","","184","0.3879999062","","main_expt","0.2","0.3360229169","0.6","","","0.4","","0.8","0.3332516821","0.1685989701","","","","","",""
"225","","bandit","263","681339","0.0-224.0-0.0","35832077","wem/bandit_either","A29VV8U7XTHC3B","either","2","","","","","","","75","K","2","","1","0","0","0.3228184693","","","185","0.3831340227","","main_expt","0.2","0.3336456265","0.6","","","0.4","","0.8","0.3228184693","0.1663529744","","","","","",""
"83","","bandit","264","682932","0.0-225.0-0.0","35832077","wem/bandit_either","A29VV8U7XTHC3B","either","2","","","","","","","75","K","2","","0","1","0","","0.3111703144","","186","","0.3999004662","main_expt","0.2","","0.6","0.3308881938","0.3111703144","0.4","0.1916836285","0.8","","","","","","","",""
"239","","bandit","265","684693","0.0-226.0-0.0","35832077","wem/bandit_either","A29VV8U7XTHC3B","either","2","","","","","","","76","L","3","","0","0","1","0.1686829448","","","187","0.3875363153","","main_expt","0.2","0.325530054","0.6","","","0.4","","0.8","0.3353611299","0.1686829448","","","","","",""
"317","","bandit","266","686532","0.0-227.0-0.0","35832077","wem/bandit_either","A29VV8U7XTHC3B","either","2","","","","","","","76","L","3","","0","0","1","0.1461675531","","","188","0.3875691392","","main_expt","0.2","0.3055482451","0.6","","","0.4","","0.8","0.3646937268","0.1461675531","","","","","",""
"29","","bandit","267","688086","0.0-228.0-0.0","35832077","wem/bandit_either","A29VV8U7XTHC3B","either","2","","","","","","","72","H","0","img/none_selected.jpg","0","1","0","","0.4166866882","","189","","0.4166866882","main_expt","0.2","","0.6","0.3002345065","0.3891323825","0.4","0.1382971047","0.8","","","","","","","",""
"227","","bandit","268","689835","0.0-229.0-0.0","35832077","wem/bandit_either","A29VV8U7XTHC3B","either","2","","","","","","","74","J","1","","0","0","1","","0.2693931213","","190","","0.4124474499","main_expt","0.2","","0.6","0.2693931213","0.3860741766","0.4","0.1898135375","0.8","","","","","","","",""
"185","","bandit","269","691541","0.0-230.0-0.0","35832077","wem/bandit_either","A29VV8U7XTHC3B","either","2","","","","","","","75","K","2","","0","0","1","","0.3864243721","","191","","0.3638199534","main_expt","0.2","","0.6","0.3009284261","0.3864243721","0.4","0.1264917812","0.8","","","","","","","",""
"158","","bandit","270","693222","0.0-231.0-0.0","35832077","wem/bandit_either","A29VV8U7XTHC3B","either","2","","","","","","","76","L","3","","0","0","1","0.1185409567","","","192","0.3711146034","","main_expt","0.2","0.3157917784","0.6","","","0.4","","0.8","0.400448014","0.1185409567","","","","","",""
"379","","bandit","271","695126","0.0-232.0-0.0","35832077","wem/bandit_either","A29VV8U7XTHC3B","either","2","","","","","","","74","J","1","","0","0","1","","0.2999212614","","193","","0.3654165885","main_expt","0.2","","0.6","0.2999212614","0.3895367297","0.4","0.09837948322","0.8","","","","","","","",""
"173","","bandit","272","696820","0.0-233.0-0.0","35832077","wem/bandit_either","A29VV8U7XTHC3B","either","2","","","","","","","75","K","2","","1","0","0","0.4032313792","","","194","0.3537818584","","main_expt","0.2","0.3287494418","0.6","","","0.4","","0.8","0.4032313792","0.137690802","","","","","",""
"33","","bandit","273","698364","0.0-234.0-0.0","35832077","wem/bandit_either","A29VV8U7XTHC3B","either","2","","","","","","","75","K","2","","0","0","1","0.337234763","","","195","0.3597494918","","main_expt","0.2","0.3031978913","0.6","","","0.4","","0.8","0.337234763","0.1683354775","","","","","",""
"109","","bandit","274","699998","0.0-235.0-0.0","35832077","wem/bandit_either","A29VV8U7XTHC3B","either","2","","","","","","","75","K","2","","1","0","0","0.3950764453","","","196","0.3479121901","","main_expt","0.2","0.2901303692","0.6","","","0.4","","0.8","0.3950764453","0.1561951964","","","","","",""
"218","","bandit","275","701731","0.0-236.0-0.0","35832077","wem/bandit_either","A29VV8U7XTHC3B","either","2","","","","","","","75","K","2","","1","0","0","0.4193743727","","","197","0.3596292454","","main_expt","0.2","0.2444781728","0.6","","","0.4","","0.8","0.4193743727","0.1329868482","","","","","",""
"131","","bandit","276","703375","0.0-237.0-0.0","35832077","wem/bandit_either","A29VV8U7XTHC3B","either","2","","","","","","","75","K","2","","1","0","0","0.4375347816","","","198","0.3555371828","","main_expt","0.2","0.2140047665","0.6","","","0.4","","0.8","0.4375347816","0.1730826789","","","","","",""
"194","","bandit","277","705084","0.0-238.0-0.0","35832077","wem/bandit_either","A29VV8U7XTHC3B","either","2","","","","","","","75","K","2","","0","0","1","","0.4315030007","","199","","0.4016486285","main_expt","0.2","","0.6","0.2077842613","0.4315030007","0.4","0.1385649096","0.8","","","","","","","",""
"251","","bandit","278","706857","0.0-239.0-0.0","35832077","wem/bandit_either","A29VV8U7XTHC3B","either","2","","","","","","","75","K","2","","1","0","0","0.4340108373","","","200","0.3871107612","","main_expt","0.2","0.180488049","0.6","","","0.4","","0.8","0.4340108373","0.1941139053","","","","","",""
"91","","bandit","279","708460","0.0-240.0-0.0","35832077","wem/bandit_either","A29VV8U7XTHC3B","either","2","","","","","","","75","K","2","","0","0","1","0.441078118","","","201","0.3856539452","","main_expt","0.2","0.2084987087","0.6","","","0.4","","0.8","0.441078118","0.1825013029","","","","","",""
"396","","bandit","280","710364","0.0-241.0-0.0","35832077","wem/bandit_either","A29VV8U7XTHC3B","either","2","","","","","","","75","K","2","","0","0","1","","0.4143682719","","202","","0.358588673","main_expt","0.2","","0.6","0.1869669721","0.4143682719","0.4","0.162440572","0.8","","","","","","","",""
"225","","bandit","281","712110","0.0-242.0-0.0","35832077","wem/bandit_either","A29VV8U7XTHC3B","either","2","","","","","","","75","K","2","","0","0","1","0.4280720422","","","203","0.3460881607","","main_expt","0.2","0.1383076553","0.6","","","0.4","","0.8","0.4280720422","0.1914238456","","","","","",""
"227","","bandit","282","713861","0.0-243.0-0.0","35832077","wem/bandit_either","A29VV8U7XTHC3B","either","2","","","","","","","75","K","2","","0","0","1","","0.4113524858","","204","","0.3091432968","main_expt","0.2","","0.6","0.1656187697","0.4113524858","0.4","0.1849793247","0.8","","","","","","","",""
"2","","bandit","283","715389","0.0-244.0-0.0","35832077","wem/bandit_either","A29VV8U7XTHC3B","either","2","","","","","","","75","K","2","","0","0","1","0.4151465815","","","205","0.3016396897","","main_expt","0.2","0.1699285253","0.6","","","0.4","","0.8","0.4151465815","0.1722293799","","","","","",""
"316","","bandit","284","717231","0.0-245.0-0.0","35832077","wem/bandit_either","A29VV8U7XTHC3B","either","2","","","","","","","75","K","2","","1","0","0","0.4002359997","","","206","0.3300702997","","main_expt","0.2","0.161732949","0.6","","","0.4","","0.8","0.4002359997","0.1625694713","","","","","",""
"246","","bandit","285","718998","0.0-246.0-0.0","35832077","wem/bandit_either","A29VV8U7XTHC3B","either","2","","","","","","","75","K","2","","0","0","1","0.3692387261","","","207","0.2648848683","","main_expt","0.2","0.1699017951","0.6","","","0.4","","0.8","0.3692387261","0.1079769143","","","","","",""
"293","","bandit","286","720806","0.0-247.0-0.0","35832077","wem/bandit_either","A29VV8U7XTHC3B","either","2","","","","","","","75","K","2","","0","0","1","0.3283471685","","","208","0.2502792914","","main_expt","0.2","0.1592107695","0.6","","","0.4","","0.8","0.3283471685","0.1380178959","","","","","",""
"3","","bandit","287","722333","0.0-248.0-0.0","35832077","wem/bandit_either","A29VV8U7XTHC3B","either","2","","","","","","","75","K","2","","0","0","1","0.2924758898","","","209","0.2770073026","","main_expt","0.2","0.1659907122","0.6","","","0.4","","0.8","0.2924758898","0.1538506734","","","","","",""
"388","","bandit","288","724246","0.0-249.0-0.0","35832077","wem/bandit_either","A29VV8U7XTHC3B","either","2","","","","","","","75","K","2","","0","0","1","","0.2279470939","","210","","0.3451435735","main_expt","0.2","","0.6","0.229525517","0.2279470939","0.4","0.1406222791","0.8","","","","","","","",""
"180","","bandit","289","725939","0.0-250.0-0.0","35832077","wem/bandit_either","A29VV8U7XTHC3B","either","2","","","","","","","75","K","2","","0","0","1","","0.2131844406","","211","","0.3514478275","main_expt","0.2","","0.6","0.2434605193","0.2131844406","0.4","0.08987887408","0.8","","","","","","","",""
"129","","bandit","290","727599","0.0-251.0-0.0","35832077","wem/bandit_either","A29VV8U7XTHC3B","either","2","","","","","","","75","K","2","","0","0","1","0.1601793481","","","212","0.3579324364","","main_expt","0.2","0.1633214123","0.6","","","0.4","","0.8","0.1601793481","0.1277875359","","","","","",""
"27","","bandit","291","729149","0.0-252.0-0.0","35832077","wem/bandit_either","A29VV8U7XTHC3B","either","2","","","","","","","75","K","2","","0","0","1","","0.1354109392","","213","","0.3231243524","main_expt","0.2","","0.6","0.1014835246","0.1354109392","0.4","0.134271297","0.8","","","","","","","",""
"152","","bandit","292","730820","0.0-253.0-0.0","35832077","wem/bandit_either","A29VV8U7XTHC3B","either","2","","","","","","","75","K","2","","0","0","1","","0.1142105534","","214","","0.2798540136","main_expt","0.2","","0.6","0.09587264096","0.1142105534","0.4","0.1385204111","0.8","","","","","","","",""
"168","","bandit","293","732510","0.0-254.0-0.0","35832077","wem/bandit_either","A29VV8U7XTHC3B","either","2","","","","","","","76","L","3","","0","0","1","0.1089132689","","","215","0.2469391402","","main_expt","0.2","0.08342689115","0.6","","","0.4","","0.8","0.1031311673","0.1089132689","","","","","",""
"169","","bandit","294","734203","0.0-255.0-0.0","35832077","wem/bandit_either","A29VV8U7XTHC3B","either","2","","","","","","","75","K","2","","0","0","1","0.1031732366","","","216","0.3211823944","","main_expt","0.2","0.05361264496","0.6","","","0.4","","0.8","0.1031732366","0.1299508563","","","","","",""
"127","","bandit","295","735844","0.0-256.0-0.0","35832077","wem/bandit_either","A29VV8U7XTHC3B","either","2","","","","","","","75","K","2","","0","0","1","","0.1188097379","","217","","0.3545519007","main_expt","0.2","","0.6","0.09912420903","0.1188097379","0.4","0.131109262","0.8","","","","","","","",""
"60","","bandit","296","737426","0.0-257.0-0.0","35832077","wem/bandit_either","A29VV8U7XTHC3B","either","2","","","","","","","74","J","1","","0","0","1","0.1021137889","","","218","0.3781539282","","main_expt","0.2","0.1021137889","0.6","","","0.4","","0.8","0.1096623481","0.1039495344","","","","","",""
"27","","bandit","297","738966","0.0-258.0-0.0","35832077","wem/bandit_either","A29VV8U7XTHC3B","either","2","","","","","","","76","L","3","","0","0","1","","0.09488552944","","219","","0.3674409598","main_expt","0.2","","0.6","0.1025207236","0.08679630722","0.4","0.09488552944","0.8","","","","","","","",""
"163","","bandit","298","740656","0.0-259.0-0.0","35832077","wem/bandit_either","A29VV8U7XTHC3B","either","2","","","","","","","72","H","0","img/none_selected.jpg","0","1","0","","0.315237632","","220","","0.315237632","main_expt","0.2","","0.6","0.1049734862","0.1482089448","0.4","0.1311925698","0.8","","","","","","","",""
"257","","bandit","299","742436","0.0-260.0-0.0","35832077","wem/bandit_either","A29VV8U7XTHC3B","either","2","","","","","","","74","J","1","","0","0","1","0.08244295151","","","221","0.3572442142","","main_expt","0.2","0.08244295151","0.6","","","0.4","","0.8","0.217172314","0.08224132258","","","","","",""
"228","","bandit","300","744187","0.0-261.0-0.0","35832077","wem/bandit_either","A29VV8U7XTHC3B","either","2","","","","","","","74","J","1","","0","0","1","","0.09815111748","","222","","0.2796125419","main_expt","0.2","","0.6","0.09815111748","0.2227738938","0.4","0.06870998364","0.8","","","","","","","",""
"91","","bandit","301","745804","0.0-262.0-0.0","35832077","wem/bandit_either","A29VV8U7XTHC3B","either","2","","","","","","","75","K","2","","0","0","1","","0.2768694491","","223","","0.2265565182","main_expt","0.2","","0.6","0.09925351505","0.2768694491","0.4","0.111762886","0.8","","","","","","","",""
"26","","bandit","302","747339","0.0-263.0-0.0","35832077","wem/bandit_either","A29VV8U7XTHC3B","either","2","","","","","","","75","K","2","","0","0","1","","0.2895694018","","224","","0.1727872262","main_expt","0.2","","0.6","0.07842644678","0.2895694018","0.4","0.09652303785","0.8","","","","","","","",""
"270","","bandit","303","749133","0.0-264.0-0.0","35832077","wem/bandit_either","A29VV8U7XTHC3B","either","2","","","","","","","75","K","2","","1","0","0","0.3515154126","","","225","0.1580797834","","main_expt","0.2","0.05284632075","0.6","","","0.4","","0.8","0.3515154126","0.09424892582","","","","","",""
"119","","bandit","304","750782","0.0-265.0-0.0","35832077","wem/bandit_either","A29VV8U7XTHC3B","either","2","","","","","","","75","K","2","","0","0","1","0.3960872924","","","226","0.1206031336","","main_expt","0.2","0.06788221328","0.6","","","0.4","","0.8","0.3960872924","0.1094697254","","","","","",""
"99","","bandit","305","752404","0.0-266.0-0.0","35832077","wem/bandit_either","A29VV8U7XTHC3B","either","2","","","","","","","75","K","2","","0","1","0","","0.3301105445","","227","","0.1218099769","main_expt","0.2","","0.6","0.04226868229","0.3301105445","0.4","0.1055794081","0.8","","","","","","","",""
"48","","bandit","306","753961","0.0-267.0-0.0","35832077","wem/bandit_either","A29VV8U7XTHC3B","either","2","","","","","","","76","L","3","","0","0","1","0.1210232629","","","228","0.08458740206","","main_expt","0.2","0.06174471126","0.6","","","0.4","","0.8","0.3679650562","0.1210232629","","","","","",""
"253","","bandit","307","755723","0.0-268.0-0.0","35832077","wem/bandit_either","A29VV8U7XTHC3B","either","2","","","","","","","76","L","3","","0","0","1","0.1249199002","","","229","0.06311990622","","main_expt","0.2","0.06122033102","0.6","","","0.4","","0.8","0.3413725311","0.1249199002","","","","","",""
"705","","bandit","308","757940","0.0-269.0-0.0","35832077","wem/bandit_either","A29VV8U7XTHC3B","either","2","","","","","","","76","L","3","","0","0","1","0.1423167866","","","230","0.04674316758","","main_expt","0.2","0.09369367087","0.6","","","0.4","","0.8","0.3652503211","0.1423167866","","","","","",""
"213","","bandit","309","759675","0.0-270.0-0.0","35832077","wem/bandit_either","A29VV8U7XTHC3B","either","2","","","","","","","76","L","3","","0","0","1","0.1441411413","","","231","0.06697327866","","main_expt","0.2","0.1378364932","0.6","","","0.4","","0.8","0.3774172636","0.1441411413","","","","","",""
"101","","bandit","310","761303","0.0-271.0-0.0","35832077","wem/bandit_either","A29VV8U7XTHC3B","either","2","","","","","","","76","L","3","","0","0","1","0.1132866493","","","232","0.08617656909","","main_expt","0.2","0.1138343256","0.6","","","0.4","","0.8","0.3507397895","0.1132866493","","","","","",""
"86","","bandit","311","762898","0.0-272.0-0.0","35832077","wem/bandit_either","A29VV8U7XTHC3B","either","2","","","","","","","76","L","3","","0","0","1","","0.07587191469","","233","","0.08388286328","main_expt","0.2","","0.6","0.1602674987","0.3228668676","0.4","0.07587191469","0.8","","","","","","","",""
"72","","bandit","312","764482","0.0-273.0-0.0","35832077","wem/bandit_either","A29VV8U7XTHC3B","either","2","","","","","","","76","L","3","","0","0","1","0.08330376307","","","234","0.08303297831","","main_expt","0.2","0.1399599793","0.6","","","0.4","","0.8","0.3219168209","0.08330376307","","","","","",""
"171","","bandit","313","766165","0.0-274.0-0.0","35832077","wem/bandit_either","A29VV8U7XTHC3B","either","2","","","","","","","75","K","2","","0","1","0","","0.2907257894","","235","","0.08228619446","main_expt","0.2","","0.6","0.1577883936","0.2907257894","0.4","0.07960395758","0.8","","","","","","","",""
"167","","bandit","314","767851","0.0-275.0-0.0","35832077","wem/bandit_either","A29VV8U7XTHC3B","either","2","","","","","","","74","J","1","","0","0","1","0.1206463377","","","236","0.07856112713","","main_expt","0.2","0.1206463377","0.6","","","0.4","","0.8","0.2879125653","0.06703487678","","","","","",""
"171","","bandit","315","769548","0.0-276.0-0.0","35832077","wem/bandit_either","A29VV8U7XTHC3B","either","2","","","","","","","72","H","0","img/none_selected.jpg","0","1","0","","0.09394336493","","237","","0.09394336493","main_expt","0.2","","0.6","0.1224948263","0.3055933028","0.4","0.07970276757","0.8","","","","","","","",""
"255","","bandit","316","771327","0.0-277.0-0.0","35832077","wem/bandit_either","A29VV8U7XTHC3B","either","2","","","","","","","74","J","1","","0","0","1","","0.1163601633","","238","","0.1044036833","main_expt","0.2","","0.6","0.1163601633","0.3197806133","0.4","0.05589422377","0.8","","","","","","","",""
"185","","bandit","317","773034","0.0-278.0-0.0","35832077","wem/bandit_either","A29VV8U7XTHC3B","either","2","","","","","","","76","L","3","","0","0","1","","0.07304711058","","239","","0.1010835707","main_expt","0.2","","0.6","0.09302868556","0.2699970134","0.4","0.07304711058","0.8","","","","","","","",""
"322","","bandit","318","774869","0.0-279.0-0.0","35832077","wem/bandit_either","A29VV8U7XTHC3B","either","2","","","","","","","74","J","1","","0","0","1","","0.1142909623","","240","","0.1196592177","main_expt","0.2","","0.6","0.1142909623","0.2594796501","0.4","0.05193691484","0.8","","","","","","","",""
"211","","bandit","319","776605","0.0-280.0-0.0","35832077","wem/bandit_either","A29VV8U7XTHC3B","either","2","","","","","","","76","L","3","","0","0","1","0.06844812817","","","241","0.127320561","","main_expt","0.2","0.1694552561","0.6","","","0.4","","0.8","0.252227353","0.06844812817","","","","","",""
"105","","bandit","320","778229","0.0-281.0-0.0","35832077","wem/bandit_either","A29VV8U7XTHC3B","either","2","","","","","","","74","J","1","","0","0","1","0.1828807391","","","242","0.10641745","","main_expt","0.2","0.1828807391","0.6","","","0.4","","0.8","0.301231011","0.07869989264","","","","","",""
"416","","bandit","321","780172","0.0-282.0-0.0","35832077","wem/bandit_either","A29VV8U7XTHC3B","either","2","","","","","","","76","L","3","","0","0","1","0.06084245892","","","243","0.131785075","","main_expt","0.2","0.1236361748","0.6","","","0.4","","0.8","0.2903867436","0.06084245892","","","","","",""
"31","","bandit","322","781715","0.0-283.0-0.0","35832077","wem/bandit_either","A29VV8U7XTHC3B","either","2","","","","","","","74","J","1","","0","0","1","0.1131162958","","","244","0.1150513838","","main_expt","0.2","0.1131162958","0.6","","","0.4","","0.8","0.2659167858","0.04982625113","","","","","",""
"130","","bandit","323","783358","0.0-284.0-0.0","35832077","wem/bandit_either","A29VV8U7XTHC3B","either","2","","","","","","","76","L","3","","0","0","1","0.04708965441","","","245","0.1651966394","","main_expt","0.2","0.08611006768","0.6","","","0.4","","0.8","0.254087564","0.04708965441","","","","","",""
"63","","bandit","324","784949","0.0-285.0-0.0","35832077","wem/bandit_either","A29VV8U7XTHC3B","either","2","","","","","","","75","K","2","","0","0","1","","0.2551799517","","246","","0.1555796254","main_expt","0.2","","0.6","0.1123216353","0.2551799517","0.4","0.0280961865","0.8","","","","","","","",""
"195","","bandit","325","786670","0.0-286.0-0.0","35832077","wem/bandit_either","A29VV8U7XTHC3B","either","2","","","","","","","75","K","2","","0","0","1","","0.2629335529","","247","","0.1703980626","main_expt","0.2","","0.6","0.09475638668","0.2629335529","0.4","0.04499456282","0.8","","","","","","","",""
"3","","bandit","326","788198","0.0-287.0-0.0","35832077","wem/bandit_either","A29VV8U7XTHC3B","either","2","","","","","","","75","K","2","","0","0","1","0.2393496224","","","248","0.1502680902","","main_expt","0.2","0.08309477664","0.6","","","0.4","","0.8","0.2393496224","0.03910304398","","","","","",""
"280","","bandit","327","790005","0.0-288.0-0.0","35832077","wem/bandit_either","A29VV8U7XTHC3B","either","2","","","","","","","74","J","1","","0","0","1","0.09118761135","","","249","0.1515252412","","main_expt","0.2","0.09118761135","0.6","","","0.4","","0.8","0.2612635012","0.02658952892","","","","","",""
"208","","bandit","328","791726","0.0-289.0-0.0","35832077","wem/bandit_either","A29VV8U7XTHC3B","either","2","","","","","","","76","L","3","","0","0","1","0.02715120894","","","250","0.164479444","","main_expt","0.2","0.1173751119","0.6","","","0.4","","0.8","0.2729339083","0.02715120894","","","","","",""
"312","","bandit","329","793555","0.0-290.0-0.0","35832077","wem/bandit_either","A29VV8U7XTHC3B","either","2","","","","","","","72","H","0","img/none_selected.jpg","0","0","1","","0.1036013708","","251","","0.1036013708","main_expt","0.2","","0.6","0.10167128","0.2394547858","0.4","0.02468122838","0.8","","","","","","","",""
"60","","bandit","330","795141","0.0-291.0-0.0","35832077","wem/bandit_either","A29VV8U7XTHC3B","either","2","","","","","","","72","H","0","img/none_selected.jpg","0","1","0","","0.1206404305","","252","","0.1206404305","main_expt","0.2","","0.6","0.1297907712","0.1971678968","0.4","0.01934001153","0.8","","","","","","","",""
"220","","bandit","331","796886","0.0-292.0-0.0","35832077","wem/bandit_either","A29VV8U7XTHC3B","either","2","","","","","","","74","J","1","","0","0","1","0.08555329314","","","253","0.144481093","","main_expt","0.2","0.08555329314","0.6","","","0.4","","0.8","0.2194815642","0.01552303999","","","","","",""
"216","","bandit","332","798629","0.0-293.0-0.0","35832077","wem/bandit_either","A29VV8U7XTHC3B","either","2","","","","","","","74","J","1","","0","0","1","0.05661737176","","","254","0.1495858552","","main_expt","0.2","0.05661737176","0.6","","","0.4","","0.8","0.2365987297","0.02294208798","","","","","",""
"261","","bandit","333","800405","0.0-294.0-0.0","35832077","wem/bandit_either","A29VV8U7XTHC3B","either","2","","","","","","","74","J","1","","0","0","1","0.04453848373","","","255","0.1670870388","","main_expt","0.2","0.04453848373","0.6","","","0.4","","0.8","0.2300386291","0.03654195668","","","","","",""
