"rt","responses","trial_type","trial_index","time_elapsed","internal_node_id","subjID","study","MID","cond","drift","key_press","expt_phase","target","like","value","connected","gems","bombs","no_reward","GemPrChosen","BombPrChosen","GainOverPainPr_0","GainOverPainPr_1","GainOverPainPr_2","GainOverPainPr_3","LosePr_0","LosePr_1","LosePr_2","LosePr_3","WinPr_0","WinPr_1","WinPr_2","WinPr_3","Q0","Q1","Q2","gender","age","ethnicity","respCharCode","respKey","respChoiceNum","respChoice","practice","trial_counter","trial_label"
"51863","{""Q0"":""A37EV8RZ82WT8E""}","survey-text","0","51867","0.0-0.0","36443359","wem/bandit_either","A37EV8RZ82WT8E","either","1","","","","","","","","","","","","","","","","","","","","","","","","","","","","","","","","","","","",""
"6209","","text","1","59079","0.0-1.0","36443359","wem/bandit_either","A37EV8RZ82WT8E","either","1","32","","","","","","","","","","","","","","","","","","","","","","","","","","","","","","","","","","",""
"1230","","text","2","60310","0.0-2.0","36443359","wem/bandit_either","A37EV8RZ82WT8E","either","1","32","","","","","","","","","","","","","","","","","","","","","","","","","","","","","","","","","","",""
"1968","","text","3","62279","0.0-3.0","36443359","wem/bandit_either","A37EV8RZ82WT8E","either","1","32","","","","","","","","","","","","","","","","","","","","","","","","","","","","","","","","","","",""
"1199","","text","4","63478","0.0-4.0","36443359","wem/bandit_either","A37EV8RZ82WT8E","either","1","32","","","","","","","","","","","","","","","","","","","","","","","","","","","","","","","","","","",""
"1694","","text","5","65174","0.0-5.0","36443359","wem/bandit_either","A37EV8RZ82WT8E","either","1","32","","","","","","","","","","","","","","","","","","","","","","","","","","","","","","","","","","",""
"976","","text","6","66150","0.0-6.0","36443359","wem/bandit_either","A37EV8RZ82WT8E","either","1","32","","","","","","","","","","","","","","","","","","","","","","","","","","","","","","","","","","",""
"815","","text","7","66966","0.0-7.0","36443359","wem/bandit_either","A37EV8RZ82WT8E","either","1","32","","","","","","","","","","","","","","","","","","","","","","","","","","","","","","","","","","",""
"5154","","identification","8","72135","0.0-8.0-0.0","36443359","wem/bandit_either","A37EV8RZ82WT8E","either","1","","identification_pre","the village of Zur","","","","","","","","","","","","","","","","","","","","","","","","","","","","","","","","",""
"3267","","identification","9","76412","0.0-8.0-1.0","36443359","wem/bandit_either","A37EV8RZ82WT8E","either","1","","identification_pre","the village of Nyx","","","","","","","","","","","","","","","","","","","","","","","","","","","","","","","","",""
"8289","","text","10","85703","0.0-9.0","36443359","wem/bandit_either","A37EV8RZ82WT8E","either","1","32","","","","","","","","","","","","","","","","","","","","","","","","","","","","","","","","","","",""
"1087","","text","11","86790","0.0-10.0","36443359","wem/bandit_either","A37EV8RZ82WT8E","either","1","32","","","","","","","","","","","","","","","","","","","","","","","","","","","","","","","","","","",""
"863","","text","12","87654","0.0-11.0","36443359","wem/bandit_either","A37EV8RZ82WT8E","either","1","32","","","","","","","","","","","","","","","","","","","","","","","","","","","","","","","","","","",""
"544","","text","13","88198","0.0-12.0","36443359","wem/bandit_either","A37EV8RZ82WT8E","either","1","32","","","","","","","","","","","","","","","","","","","","","","","","","","","","","","","","","","",""
"12126","","bandit","14","101831","0.0-13.0-0.0","36443359","wem/bandit_either","A37EV8RZ82WT8E","either","1","","","","","","","0","0","1","0","0","","","","","0","","","","0","","","","","","","","","","74","J","0","img/none_selected_demo.jpg","true","0",""
"2909","","bandit","15","106244","0.0-14.0-0.0","36443359","wem/bandit_either","A37EV8RZ82WT8E","either","1","","","","","","","0","0","1","0","0","","","","","0","","","","0","","","","","","","","","","75","K","0","img/none_selected_demo.jpg","true","0",""
"28320","","text","16","134565","0.0-15.0","36443359","wem/bandit_either","A37EV8RZ82WT8E","either","1","32","","","","","","","","","","","","","","","","","","","","","","","","","","","","","","","","","","",""
"47215","","text","17","181781","0.0-16.0","36443359","wem/bandit_either","A37EV8RZ82WT8E","either","1","32","","","","","","","","","","","","","","","","","","","","","","","","","","","","","","","","","","",""
"7471","","text","18","189253","0.0-17.0","36443359","wem/bandit_either","A37EV8RZ82WT8E","either","1","32","","","","","","","","","","","","","","","","","","","","","","","","","","","","","","","","","","",""
"1374","","text","19","190628","0.0-18.0","36443359","wem/bandit_either","A37EV8RZ82WT8E","either","1","32","","","","","","","","","","","","","","","","","","","","","","","","","","","","","","","","","","",""
"10511","","bandit","20","202644","0.0-19.0-0.0","36443359","wem/bandit_either","A37EV8RZ82WT8E","either","1","","","","","","","0","1","0","","0.8","0.5","0.5","","","0.8","0.2","","","","","","","","","","","","","74","J","0","img/none_selected_demo.jpg","true","0","80_20_practice"
"463","","bandit","21","204611","0.0-19.0-1.0","36443359","wem/bandit_either","A37EV8RZ82WT8E","either","1","","","","","","","0","0","1","","0.2","0.5","0.5","","","0.8","0.2","","","","","","","","","","","","","75","K","1","","true","0","80_20_practice"
"15","","bandit","22","206130","0.0-19.0-2.0","36443359","wem/bandit_either","A37EV8RZ82WT8E","either","1","","","","","","","1","0","0","0.8","","0.5","0.5","","","","","","","0.8","0.2","","","","","","","","","74","J","0","img/none_selected_demo.jpg","true","0","80_20_practice"
"384","","bandit","23","208018","0.0-19.0-3.0","36443359","wem/bandit_either","A37EV8RZ82WT8E","either","1","","","","","","","0","0","1","0.8","","0.5","0.5","","","","","","","0.8","0.2","","","","","","","","","74","J","0","img/none_selected_demo.jpg","true","0","80_20_practice"
"657","","bandit","24","210178","0.0-19.0-4.0","36443359","wem/bandit_either","A37EV8RZ82WT8E","either","1","","","","","","","0","1","0","","0.8","0.5","0.5","","","0.8","0.2","","","","","","","","","","","","","74","J","0","img/none_selected_demo.jpg","true","0","80_20_practice"
"417","","bandit","25","212099","0.0-19.0-5.0","36443359","wem/bandit_either","A37EV8RZ82WT8E","either","1","","","","","","","0","0","1","0.2","","0.5","0.5","","","","","","","0.8","0.2","","","","","","","","","75","K","1","","true","0","80_20_practice"
"1024","","bandit","26","214626","0.0-19.0-6.0","36443359","wem/bandit_either","A37EV8RZ82WT8E","either","1","","","","","","","0","0","1","0.2","","0.5","0.5","","","","","","","0.8","0.2","","","","","","","","","75","K","1","","true","0","80_20_practice"
"832","","bandit","27","216962","0.0-19.0-7.0","36443359","wem/bandit_either","A37EV8RZ82WT8E","either","1","","","","","","","1","0","0","0.8","","0.5","0.5","","","","","","","0.8","0.2","","","","","","","","","74","J","0","img/none_selected_demo.jpg","true","0","80_20_practice"
"465","","bandit","28","218930","0.0-19.0-8.0","36443359","wem/bandit_either","A37EV8RZ82WT8E","either","1","","","","","","","0","0","1","","0.8","0.5","0.5","","","0.8","0.2","","","","","","","","","","","","","74","J","0","img/none_selected_demo.jpg","true","0","80_20_practice"
"225","","bandit","29","220659","0.0-19.0-9.0","36443359","wem/bandit_either","A37EV8RZ82WT8E","either","1","","","","","","","0","1","0","","0.8","0.5","0.5","","","0.8","0.2","","","","","","","","","","","","","74","J","0","img/none_selected_demo.jpg","true","0","80_20_practice"
"159","","bandit","30","222322","0.0-19.0-10.0","36443359","wem/bandit_either","A37EV8RZ82WT8E","either","1","","","","","","","0","1","0","","0.8","0.5","0.5","","","0.8","0.2","","","","","","","","","","","","","74","J","0","img/none_selected_demo.jpg","true","0","80_20_practice"
"241","","bandit","31","224067","0.0-19.0-11.0","36443359","wem/bandit_either","A37EV8RZ82WT8E","either","1","","","","","","","0","0","1","0.2","","0.5","0.5","","","","","","","0.8","0.2","","","","","","","","","75","K","1","","true","0","80_20_practice"
"176","","bandit","32","225746","0.0-19.0-12.0","36443359","wem/bandit_either","A37EV8RZ82WT8E","either","1","","","","","","","0","0","1","","0.2","0.5","0.5","","","0.8","0.2","","","","","","","","","","","","","75","K","1","","true","0","80_20_practice"
"113","","bandit","33","227363","0.0-19.0-13.0","36443359","wem/bandit_either","A37EV8RZ82WT8E","either","1","","","","","","","1","0","0","0.2","","0.5","0.5","","","","","","","0.8","0.2","","","","","","","","","75","K","1","","true","0","80_20_practice"
"256","","bandit","34","229124","0.0-19.0-14.0","36443359","wem/bandit_either","A37EV8RZ82WT8E","either","1","","","","","","","0","0","1","","0.2","0.5","0.5","","","0.8","0.2","","","","","","","","","","","","","75","K","1","","true","0","80_20_practice"
"240","","bandit","35","230867","0.0-19.0-15.0","36443359","wem/bandit_either","A37EV8RZ82WT8E","either","1","","","","","","","0","0","1","","0.2","0.5","0.5","","","0.8","0.2","","","","","","","","","","","","","75","K","1","","true","0","80_20_practice"
"111","","bandit","36","232481","0.0-19.0-16.0","36443359","wem/bandit_either","A37EV8RZ82WT8E","either","1","","","","","","","0","1","0","","0.8","0.5","0.5","","","0.8","0.2","","","","","","","","","","","","","74","J","0","img/none_selected_demo.jpg","true","0","80_20_practice"
"193","","bandit","37","234178","0.0-19.0-17.0","36443359","wem/bandit_either","A37EV8RZ82WT8E","either","1","","","","","","","0","0","1","","0.2","0.5","0.5","","","0.8","0.2","","","","","","","","","","","","","75","K","1","","true","0","80_20_practice"
"176","","bandit","38","235858","0.0-19.0-18.0","36443359","wem/bandit_either","A37EV8RZ82WT8E","either","1","","","","","","","0","0","1","0.2","","0.5","0.5","","","","","","","0.8","0.2","","","","","","","","","75","K","1","","true","0","80_20_practice"
"209","","bandit","39","237570","0.0-19.0-19.0","36443359","wem/bandit_either","A37EV8RZ82WT8E","either","1","","","","","","","0","1","0","","0.8","0.5","0.5","","","0.8","0.2","","","","","","","","","","","","","74","J","0","img/none_selected_demo.jpg","true","0","80_20_practice"
"87969","","text","40","325541","0.0-20.0","36443359","wem/bandit_either","A37EV8RZ82WT8E","either","1","32","","","","","","","","","","","","","","","","","","","","","","","","","","","","","","","","","","",""
"734","","bandit","41","327777","0.0-21.0-0.0","36443359","wem/bandit_either","A37EV8RZ82WT8E","either","1","","","","","","","1","0","0","1","0","","","","","0","1","","","1","0","","","","","","","","","74","J","0","img/none_selected_demo.jpg","true","0",""
"1729","","text","42","329508","0.0-22.0","36443359","wem/bandit_either","A37EV8RZ82WT8E","either","1","32","","","","","","","","","","","","","","","","","","","","","","","","","","","","","","","","","","",""
"1150","","text","43","330660","0.0-23.0","36443359","wem/bandit_either","A37EV8RZ82WT8E","either","1","32","","","","","","","","","","","","","","","","","","","","","","","","","","","","","","","","","","",""
"495","","text","44","331156","0.0-24.0","36443359","wem/bandit_either","A37EV8RZ82WT8E","either","1","32","","","","","","","","","","","","","","","","","","","","","","","","","","","","","","","","","","",""
"559","","text","45","331715","0.0-25.0","36443359","wem/bandit_either","A37EV8RZ82WT8E","either","1","32","","","","","","","","","","","","","","","","","","","","","","","","","","","","","","","","","","",""
"175","","text","46","331891","0.0-26.0","36443359","wem/bandit_either","A37EV8RZ82WT8E","either","1","32","","","","","","","","","","","","","","","","","","","","","","","","","","","","","","","","","","",""
"175","","text","47","332067","0.0-27.0","36443359","wem/bandit_either","A37EV8RZ82WT8E","either","1","32","","","","","","","","","","","","","","","","","","","","","","","","","","","","","","","","","","",""
"158","","text","48","332227","0.0-28.0","36443359","wem/bandit_either","A37EV8RZ82WT8E","either","1","32","","","","","","","","","","","","","","","","","","","","","","","","","","","","","","","","","","",""
"239","","text","49","332467","0.0-29.0","36443359","wem/bandit_either","A37EV8RZ82WT8E","either","1","32","","","","","","","","","","","","","","","","","","","","","","","","","","","","","","","","","","",""
"143","","text","50","332612","0.0-30.0","36443359","wem/bandit_either","A37EV8RZ82WT8E","either","1","32","","","","","","","","","","","","","","","","","","","","","","","","","","","","","","","","","","",""
"191","","text","51","332804","0.0-31.0","36443359","wem/bandit_either","A37EV8RZ82WT8E","either","1","32","","","","","","","","","","","","","","","","","","","","","","","","","","","","","","","","","","",""
"238","","text","52","333044","0.0-32.0","36443359","wem/bandit_either","A37EV8RZ82WT8E","either","1","32","","","","","","","","","","","","","","","","","","","","","","","","","","","","","","","","","","",""
"781","","bandit","53","335329","0.0-33.0-0.0","36443359","wem/bandit_either","A37EV8RZ82WT8E","either","1","","","","","","","0","0","1","0.2","","0.5","0.5","0.5","0.5","","","","","0.8","0.2","0.6","0.2","","","","","","","74","J","1","","true","0","full_practice"
"353","","bandit","54","337187","0.0-33.0-1.0","36443359","wem/bandit_either","A37EV8RZ82WT8E","either","1","","","","","","","0","0","1","","0.2","0.5","0.5","0.5","0.5","0.8","0.2","0.6","0.2","","","","","","","","","","","76","L","3","","true","0","full_practice"
"590","","bandit","55","339281","0.0-33.0-2.0","36443359","wem/bandit_either","A37EV8RZ82WT8E","either","1","","","","","","","0","1","0","","0.8","0.5","0.5","0.5","0.5","0.8","0.2","0.6","0.2","","","","","","","","","","","72","H","0","img/none_selected.jpg","true","0","full_practice"
"416","","bandit","56","341203","0.0-33.0-3.0","36443359","wem/bandit_either","A37EV8RZ82WT8E","either","1","","","","","","","0","0","1","","0.6","0.5","0.5","0.5","0.5","0.8","0.2","0.6","0.2","","","","","","","","","","","75","K","2","","true","0","full_practice"
"414","","bandit","57","343123","0.0-33.0-4.0","36443359","wem/bandit_either","A37EV8RZ82WT8E","either","1","","","","","","","0","0","1","0.2","","0.5","0.5","0.5","0.5","","","","","0.8","0.2","0.6","0.2","","","","","","","76","L","3","","true","0","full_practice"
"591","","bandit","58","345217","0.0-33.0-5.0","36443359","wem/bandit_either","A37EV8RZ82WT8E","either","1","","","","","","","0","0","1","0.2","","0.5","0.5","0.5","0.5","","","","","0.8","0.2","0.6","0.2","","","","","","","74","J","1","","true","0","full_practice"
"545","","bandit","59","347266","0.0-33.0-6.0","36443359","wem/bandit_either","A37EV8RZ82WT8E","either","1","","","","","","","0","1","0","","0.8","0.5","0.5","0.5","0.5","0.8","0.2","0.6","0.2","","","","","","","","","","","72","H","0","img/none_selected.jpg","true","0","full_practice"
"272","","bandit","60","349042","0.0-33.0-7.0","36443359","wem/bandit_either","A37EV8RZ82WT8E","either","1","","","","","","","1","0","0","0.2","","0.5","0.5","0.5","0.5","","","","","0.8","0.2","0.6","0.2","","","","","","","76","L","3","","true","0","full_practice"
"319","","bandit","61","350866","0.0-33.0-8.0","36443359","wem/bandit_either","A37EV8RZ82WT8E","either","1","","","","","","","0","0","1","0.6","","0.5","0.5","0.5","0.5","","","","","0.8","0.2","0.6","0.2","","","","","","","75","K","2","","true","0","full_practice"
"288","","bandit","62","352657","0.0-33.0-9.0","36443359","wem/bandit_either","A37EV8RZ82WT8E","either","1","","","","","","","0","1","0","","0.2","0.5","0.5","0.5","0.5","0.8","0.2","0.6","0.2","","","","","","","","","","","76","L","3","","true","0","full_practice"
"432","","bandit","63","354595","0.0-33.0-10.0","36443359","wem/bandit_either","A37EV8RZ82WT8E","either","1","","","","","","","0","0","1","","0.2","0.5","0.5","0.5","0.5","0.8","0.2","0.6","0.2","","","","","","","","","","","74","J","1","","true","0","full_practice"
"495","","bandit","64","356593","0.0-33.0-11.0","36443359","wem/bandit_either","A37EV8RZ82WT8E","either","1","","","","","","","0","1","0","","0.6","0.5","0.5","0.5","0.5","0.8","0.2","0.6","0.2","","","","","","","","","","","75","K","2","","true","0","full_practice"
"624","","bandit","65","358723","0.0-33.0-12.0","36443359","wem/bandit_either","A37EV8RZ82WT8E","either","1","","","","","","","0","0","1","0.2","","0.5","0.5","0.5","0.5","","","","","0.8","0.2","0.6","0.2","","","","","","","76","L","3","","true","0","full_practice"
"1855","","bandit","66","362082","0.0-33.0-13.0","36443359","wem/bandit_either","A37EV8RZ82WT8E","either","1","","","","","","","1","0","0","0.8","","0.5","0.5","0.5","0.5","","","","","0.8","0.2","0.6","0.2","","","","","","","72","H","0","img/none_selected.jpg","true","0","full_practice"
"1008","","bandit","67","364595","0.0-33.0-14.0","36443359","wem/bandit_either","A37EV8RZ82WT8E","either","1","","","","","","","0","0","1","0.2","","0.5","0.5","0.5","0.5","","","","","0.8","0.2","0.6","0.2","","","","","","","76","L","3","","true","0","full_practice"
"799","","bandit","68","366898","0.0-33.0-15.0","36443359","wem/bandit_either","A37EV8RZ82WT8E","either","1","","","","","","","1","0","0","0.6","","0.5","0.5","0.5","0.5","","","","","0.8","0.2","0.6","0.2","","","","","","","75","K","2","","true","0","full_practice"
"257","","bandit","69","368658","0.0-33.0-16.0","36443359","wem/bandit_either","A37EV8RZ82WT8E","either","1","","","","","","","0","0","1","","0.2","0.5","0.5","0.5","0.5","0.8","0.2","0.6","0.2","","","","","","","","","","","74","J","1","","true","0","full_practice"
"575","","bandit","70","370737","0.0-33.0-17.0","36443359","wem/bandit_either","A37EV8RZ82WT8E","either","1","","","","","","","0","1","0","","0.8","0.5","0.5","0.5","0.5","0.8","0.2","0.6","0.2","","","","","","","","","","","72","H","0","img/none_selected.jpg","true","0","full_practice"
"544","","bandit","71","372786","0.0-33.0-18.0","36443359","wem/bandit_either","A37EV8RZ82WT8E","either","1","","","","","","","0","0","1","","0.2","0.5","0.5","0.5","0.5","0.8","0.2","0.6","0.2","","","","","","","","","","","76","L","3","","true","0","full_practice"
"271","","bandit","72","374562","0.0-33.0-19.0","36443359","wem/bandit_either","A37EV8RZ82WT8E","either","1","","","","","","","0","0","1","","0.6","0.5","0.5","0.5","0.5","0.8","0.2","0.6","0.2","","","","","","","","","","","75","K","2","","true","0","full_practice"
"3440","","text","73","378004","0.0-34.0","36443359","wem/bandit_either","A37EV8RZ82WT8E","either","1","32","","","","","","","","","","","","","","","","","","","","","","","","","","","","","","","","","","",""
"1734","","text","74","380739","0.0-35.0","36443359","wem/bandit_either","A37EV8RZ82WT8E","either","1","32","","","","","","","","","","","","","","","","","","","","","","","","","","","","","","","","","","",""
"1391","","text","75","382132","0.0-36.0","36443359","wem/bandit_either","A37EV8RZ82WT8E","either","1","32","","","","","","","","","","","","","","","","","","","","","","","","","","","","","","","","","","",""
"1279","","text","76","383411","0.0-37.0","36443359","wem/bandit_either","A37EV8RZ82WT8E","either","1","32","","","","","","","","","","","","","","","","","","","","","","","","","","","","","","","","","","",""
"1262","","text","77","384676","0.0-38.0","36443359","wem/bandit_either","A37EV8RZ82WT8E","either","1","32","","","","","","","","","","","","","","","","","","","","","","","","","","","","","","","","","","",""
"495","","text","78","385172","0.0-39.0","36443359","wem/bandit_either","A37EV8RZ82WT8E","either","1","32","","","","","","","","","","","","","","","","","","","","","","","","","","","","","","","","","","",""
"718","","bandit","79","387394","0.0-40.0-0.0","36443359","wem/bandit_either","A37EV8RZ82WT8E","either","1","","","","","","","0","0","1","0.3592836462","","0.6","0.4","0.8","0.2","","","","","0.02943109976","0.3592836462","0.4269289603","0.0798457429","","","","","","","74","J","1","","","1","main_expt"
"255","","bandit","80","389156","0.0-41.0-0.0","36443359","wem/bandit_either","A37EV8RZ82WT8E","either","1","","","","","","","0","0","1","","0.07621336767","0.6","0.4","0.8","0.2","0.06336112212","0.3454903542","0.4660243271","0.07621336767","","","","","","","","","","","76","L","3","","","2","main_expt"
"240","","bandit","81","390899","0.0-42.0-0.0","36443359","wem/bandit_either","A37EV8RZ82WT8E","either","1","","","","","","","0","0","1","0.07335687118","","0.6","0.4","0.8","0.2","","","","","0.07335687118","0.2941512374","0.4738503749","0.07476295528","","","","","","","72","H","0","img/none_selected.jpg","","3","main_expt"
"1950","","bandit","82","394355","0.0-43.0-0.0","36443359","wem/bandit_either","A37EV8RZ82WT8E","either","1","","","","","","","0","1","0","","0.4618500418","0.6","0.4","0.8","0.2","0.06156305515","0.2851241965","0.4618500418","0.06526985361","","","","","","","","","","","75","K","2","","","4","main_expt"
"223","","bandit","83","396082","0.0-44.0-0.0","36443359","wem/bandit_either","A37EV8RZ82WT8E","either","1","","","","","","","0","0","1","","0.05487735528","0.6","0.4","0.8","0.2","0.08141194251","0.3172925843","0.4488935273","0.05487735528","","","","","","","","","","","76","L","3","","","5","main_expt"
"593","","bandit","84","398178","0.0-45.0-0.0","36443359","wem/bandit_either","A37EV8RZ82WT8E","either","1","","","","","","","0","0","1","","0.3319153021","0.6","0.4","0.8","0.2","0.1104821702","0.3319153021","0.4437832297","0.04340015571","","","","","","","","","","","74","J","1","","","6","main_expt"
"2512","","bandit","85","402196","0.0-46.0-0.0","36443359","wem/bandit_either","A37EV8RZ82WT8E","either","1","","","","","","","0","0","1","0.1191408541","","0.6","0.4","0.8","0.2","","","","","0.1191408541","0.3553039772","0.4310077805","0.04575060371","","","","","","","72","H","0","img/none_selected.jpg","","7","main_expt"
"1743","","bandit","86","405443","0.0-47.0-0.0","36443359","wem/bandit_either","A37EV8RZ82WT8E","either","1","","","","","","","0","0","1","0.06112087539","","0.6","0.4","0.8","0.2","","","","","0.1517570037","0.3868093767","0.4480386191","0.06112087539","","","","","","","76","L","3","","","8","main_expt"
"1807","","bandit","87","408756","0.0-48.0-0.0","36443359","wem/bandit_either","A37EV8RZ82WT8E","either","1","","","","","","","0","0","1","0.3754406694","","0.6","0.4","0.8","0.2","","","","","0.1738087075","0.3754406694","0.4460224538","0.07854191076","","","","","","","74","J","1","","","9","main_expt"
"1806","","bandit","88","412067","0.0-49.0-0.0","36443359","wem/bandit_either","A37EV8RZ82WT8E","either","1","","","","","","","0","0","1","0.3954493452","","0.6","0.4","0.8","0.2","","","","","0.2033535465","0.3537433427","0.3954493452","0.06865483858","","","","","","","75","K","2","","","10","main_expt"
"1472","","bandit","89","415043","0.0-50.0-0.0","36443359","wem/bandit_either","A37EV8RZ82WT8E","either","1","","","","","","","0","0","1","","0.3793358735","0.6","0.4","0.8","0.2","0.1751631116","0.3793358735","0.4064238371","0.05083805298","","","","","","","","","","","74","J","1","","","11","main_expt"
"1230","","bandit","90","417778","0.0-51.0-0.0","36443359","wem/bandit_either","A37EV8RZ82WT8E","either","1","","","","","","","0","0","1","0.3800428212","","0.6","0.4","0.8","0.2","","","","","0.1787487179","0.3800428212","0.3800839449","0.1038792476","","","","","","","74","J","1","","","12","main_expt"
"1","","bandit","91","419284","0.0-52.0-0.0","36443359","wem/bandit_either","A37EV8RZ82WT8E","either","1","","","","","","","0","0","1","0.3866628193","","0.6","0.4","0.8","0.2","","","","","0.1794712961","0.3647981021","0.3866628193","0.1197284353","","","","","","","75","K","2","","","13","main_expt"
"63","","bandit","92","420850","0.0-53.0-0.0","36443359","wem/bandit_either","A37EV8RZ82WT8E","either","1","","","","","","","0","0","1","","0.135681701","0.6","0.4","0.8","0.2","0.2482140722","0.3646471907","0.326509825","0.135681701","","","","","","","","","","","76","L","3","","","14","main_expt"
"287","","bandit","93","422643","0.0-54.0-0.0","36443359","wem/bandit_either","A37EV8RZ82WT8E","either","1","","","","","","","0","0","1","","0.3549291363","0.6","0.4","0.8","0.2","0.2859415589","0.3549291363","0.2428529647","0.125153919","","","","","","","","","","","74","J","1","","","15","main_expt"
"159","","bandit","94","424306","0.0-55.0-0.0","36443359","wem/bandit_either","A37EV8RZ82WT8E","either","1","","","","","","","0","0","1","0.3727350689","","0.6","0.4","0.8","0.2","","","","","0.26587149","0.3727350689","0.2332962783","0.1096891688","","","","","","","74","J","1","","","16","main_expt"
"369","","bandit","95","426178","0.0-56.0-0.0","36443359","wem/bandit_either","A37EV8RZ82WT8E","either","1","","","","","","","0","0","1","","0.1051581447","0.6","0.4","0.8","0.2","0.2776265896","0.3112083829","0.2271032234","0.1051581447","","","","","","","","","","","76","L","3","","","17","main_expt"
"368","","bandit","96","428050","0.0-57.0-0.0","36443359","wem/bandit_either","A37EV8RZ82WT8E","either","1","","","","","","","0","0","1","0.2403081055","","0.6","0.4","0.8","0.2","","","","","0.3223387563","0.2403081055","0.1701710303","0.1437943492","","","","","","","74","J","1","","","18","main_expt"
"928","","bandit","97","430482","0.0-58.0-0.0","36443359","wem/bandit_either","A37EV8RZ82WT8E","either","1","","","","","","","0","0","1","","0.1405615485","0.6","0.4","0.8","0.2","0.3192918255","0.2377482675","0.2070198111","0.1405615485","","","","","","","","","","","76","L","3","","","19","main_expt"
"464","","bandit","98","432450","0.0-59.0-0.0","36443359","wem/bandit_either","A37EV8RZ82WT8E","either","1","","","","","","","0","0","1","","0.1063334751","0.6","0.4","0.8","0.2","0.2739159796","0.2607530295","0.2412547966","0.1063334751","","","","","","","","","","","76","L","3","","","20","main_expt"
"832","","bandit","99","434786","0.0-60.0-0.0","36443359","wem/bandit_either","A37EV8RZ82WT8E","either","1","","","","","","","0","0","1","","0.2919400674","0.6","0.4","0.8","0.2","0.2454385858","0.2919400674","0.2184758186","0.07848250716","","","","","","","","","","","74","J","1","","","21","main_expt"
"527","","bandit","100","436819","0.0-61.0-0.0","36443359","wem/bandit_either","A37EV8RZ82WT8E","either","1","","","","","","","0","0","1","","0.1005082742","0.6","0.4","0.8","0.2","0.2340842041","0.2995681058","0.1849325376","0.1005082742","","","","","","","","","","","76","L","3","","","22","main_expt"
"2079","","bandit","101","440402","0.0-62.0-0.0","36443359","wem/bandit_either","A37EV8RZ82WT8E","either","1","","","","","","","0","0","1","","0.292554742","0.6","0.4","0.8","0.2","0.1840173947","0.292554742","0.1521197653","0.0792694407","","","","","","","","","","","74","J","1","","","23","main_expt"
"509","","bandit","102","442420","0.0-63.0-0.0","36443359","wem/bandit_either","A37EV8RZ82WT8E","either","1","","","","","","","0","0","1","0.1759403195","","0.6","0.4","0.8","0.2","","","","","0.1745529383","0.3616894364","0.1759403195","0.07358699385","","","","","","","75","K","2","","","24","main_expt"
"1020","","bandit","103","444945","0.0-64.0-0.0","36443359","wem/bandit_either","A37EV8RZ82WT8E","either","1","","","","","","","0","0","1","","0.142208116","0.6","0.4","0.8","0.2","0.1756582033","0.3575757263","0.09479311865","0.142208116","","","","","","","","","","","76","L","3","","","25","main_expt"
"976","","bandit","104","447428","0.0-65.0-0.0","36443359","wem/bandit_either","A37EV8RZ82WT8E","either","1","","","","","","","0","0","1","","0.3635346368","0.6","0.4","0.8","0.2","0.2086365416","0.3635346368","0.08156123497","0.1245113583","","","","","","","","","","","74","J","1","","","26","main_expt"
"1581","","bandit","105","450514","0.0-66.0-0.0","36443359","wem/bandit_either","A37EV8RZ82WT8E","either","1","","","","","","","0","0","1","0.4109801844","","0.6","0.4","0.8","0.2","","","","","0.2139763749","0.4109801844","0.1102307873","0.118364605","","","","","","","74","J","1","","","27","main_expt"
"1039","","bandit","106","453058","0.0-67.0-0.0","36443359","wem/bandit_either","A37EV8RZ82WT8E","either","1","","","","","","","0","0","1","","0.3772962545","0.6","0.4","0.8","0.2","0.1613483267","0.3772962545","0.08274430796","0.1105930361","","","","","","","","","","","74","J","1","","","28","main_expt"
"863","","bandit","107","455427","0.0-68.0-0.0","36443359","wem/bandit_either","A37EV8RZ82WT8E","either","1","","","","","","","0","1","0","","0.3875745016","0.6","0.4","0.8","0.2","0.1712488152","0.3875745016","0.1086911099","0.1118713044","","","","","","","","","","","74","J","1","","","29","main_expt"
"767","","bandit","108","457699","0.0-69.0-0.0","36443359","wem/bandit_either","A37EV8RZ82WT8E","either","1","","","","","","","0","0","1","0.1116575632","","0.6","0.4","0.8","0.2","","","","","0.1675524316","0.3780019893","0.1116575632","0.1914750456","","","","","","","75","K","2","","","30","main_expt"
"1390","","bandit","109","460593","0.0-70.0-0.0","36443359","wem/bandit_either","A37EV8RZ82WT8E","either","1","","","","","","","1","0","0","0.2367730164","","0.6","0.4","0.8","0.2","","","","","0.140325158","0.416860241","0.07828091442","0.2367730164","","","","","","","76","L","3","","","31","main_expt"
"1073","","bandit","110","463171","0.0-71.0-0.0","36443359","wem/bandit_either","A37EV8RZ82WT8E","either","1","","","","","","","0","0","1","0.1553940025","","0.6","0.4","0.8","0.2","","","","","0.1553940025","0.4242573056","0.07550395781","0.2109574779","","","","","","","72","H","0","img/none_selected.jpg","","32","main_expt"
"671","","bandit","111","465347","0.0-72.0-0.0","36443359","wem/bandit_either","A37EV8RZ82WT8E","either","1","","","","","","","0","0","1","","0.2005542758","0.6","0.4","0.8","0.2","0.1925614924","0.4185546122","0.1445529326","0.2005542758","","","","","","","","","","","76","L","3","","","33","main_expt"
"2191","","bandit","112","469043","0.0-73.0-0.0","36443359","wem/bandit_either","A37EV8RZ82WT8E","either","1","","","","","","","0","0","1","0.1091775744","","0.6","0.4","0.8","0.2","","","","","0.2150530123","0.4268308419","0.1091775744","0.180377021","","","","","","","75","K","2","","","34","main_expt"
"702","","bandit","113","471250","0.0-74.0-0.0","36443359","wem/bandit_either","A37EV8RZ82WT8E","either","1","","","","","","","0","0","1","0.2111187229","","0.6","0.4","0.8","0.2","","","","","0.2688968874","0.4265642185","0.1297995116","0.2111187229","","","","","","","76","L","3","","","35","main_expt"
"447","","bandit","114","473202","0.0-75.0-0.0","36443359","wem/bandit_either","A37EV8RZ82WT8E","either","1","","","","","","","0","0","1","0.09468550628","","0.6","0.4","0.8","0.2","","","","","0.2977459964","0.4066287969","0.09468550628","0.2119332756","","","","","","","75","K","2","","","36","main_expt"
"382","","bandit","115","475089","0.0-76.0-0.0","36443359","wem/bandit_either","A37EV8RZ82WT8E","either","1","","","","","","","0","0","1","","0.2256131965","0.6","0.4","0.8","0.2","0.2684429955","0.4611471687","0.09396978408","0.2256131965","","","","","","","","","","","76","L","3","","","37","main_expt"
"177","","bandit","116","476772","0.0-77.0-0.0","36443359","wem/bandit_either","A37EV8RZ82WT8E","either","1","","","","","","","0","0","1","","0.4482708269","0.6","0.4","0.8","0.2","0.2490186117","0.4482708269","0.1062257399","0.1975147253","","","","","","","","","","","74","J","1","","","38","main_expt"
"1391","","bandit","117","479668","0.0-78.0-0.0","36443359","wem/bandit_either","A37EV8RZ82WT8E","either","1","","","","","","","0","0","1","0.09676453159","","0.6","0.4","0.8","0.2","","","","","0.2548033483","0.4402774387","0.09676453159","0.1595648847","","","","","","","75","K","2","","","39","main_expt"
"413","","bandit","118","481586","0.0-79.0-0.0","36443359","wem/bandit_either","A37EV8RZ82WT8E","either","1","","","","","","","0","1","0","","0.4385128538","0.6","0.4","0.8","0.2","0.2688720753","0.4385128538","0.08197179495","0.1626610004","","","","","","","","","","","74","J","1","","","40","main_expt"
"1887","","bandit","119","484978","0.0-80.0-0.0","36443359","wem/bandit_either","A37EV8RZ82WT8E","either","1","","","","","","","0","0","1","","0.1982402655","0.6","0.4","0.8","0.2","0.297778532","0.4380640779","0.14416382","0.1982402655","","","","","","","","","","","76","L","3","","","41","main_expt"
"1198","","bandit","120","487683","0.0-81.0-0.0","36443359","wem/bandit_either","A37EV8RZ82WT8E","either","1","","","","","","","0","0","1","","0.2449207522","0.6","0.4","0.8","0.2","0.2449207522","0.4265224768","0.1070927036","0.1863610343","","","","","","","","","","","72","H","0","img/none_selected.jpg","","42","main_expt"
"1055","","bandit","121","490243","0.0-82.0-0.0","36443359","wem/bandit_either","A37EV8RZ82WT8E","either","1","","","","","","","0","0","1","0.1214526226","","0.6","0.4","0.8","0.2","","","","","0.2457567503","0.435880106","0.1214526226","0.2418389683","","","","","","","75","K","2","","","43","main_expt"
"302","","bandit","122","492050","0.0-83.0-0.0","36443359","wem/bandit_either","A37EV8RZ82WT8E","either","1","","","","","","","0","0","1","0.4450576882","","0.6","0.4","0.8","0.2","","","","","0.2432732657","0.4450576882","0.1450738833","0.1943491227","","","","","","","74","J","1","","","44","main_expt"
"63","","bandit","123","493618","0.0-84.0-0.0","36443359","wem/bandit_either","A37EV8RZ82WT8E","either","1","","","","","","","0","0","1","","0.1543250971","0.6","0.4","0.8","0.2","0.2656772236","0.4382030275","0.09632230927","0.1543250971","","","","","","","","","","","76","L","3","","","45","main_expt"
"1279","","bandit","124","496401","0.0-85.0-0.0","36443359","wem/bandit_either","A37EV8RZ82WT8E","either","1","","","","","","","0","0","1","","0.09719433791","0.6","0.4","0.8","0.2","0.2432112423","0.4412369426","0.103211431","0.09719433791","","","","","","","","","","","76","L","3","","","46","main_expt"
"16","","bandit","125","497922","0.0-86.0-0.0","36443359","wem/bandit_either","A37EV8RZ82WT8E","either","1","","","","","","","0","0","1","","0.2992745976","0.6","0.4","0.8","0.2","0.2992745976","0.4588863431","0.09916324924","0.1228880329","","","","","","","","","","","72","H","0","img/none_selected.jpg","","47","main_expt"
"864","","bandit","126","500291","0.0-87.0-0.0","36443359","wem/bandit_either","A37EV8RZ82WT8E","either","1","","","","","","","0","0","1","","0.1068532567","0.6","0.4","0.8","0.2","0.2594611615","0.4408788818","0.1090242341","0.1068532567","","","","","","","","","","","76","L","3","","","48","main_expt"
"29","","bandit","127","501826","0.0-88.0-0.0","36443359","wem/bandit_either","A37EV8RZ82WT8E","either","1","","","","","","","0","0","1","","0.1265186769","0.6","0.4","0.8","0.2","0.2767916858","0.4232064109","0.1265186769","0.1044048509","","","","","","","","","","","75","K","2","","","49","main_expt"
"575","","bandit","128","503905","0.0-89.0-0.0","36443359","wem/bandit_either","A37EV8RZ82WT8E","either","1","","","","","","","0","0","1","0.4210883962","","0.6","0.4","0.8","0.2","","","","","0.2762534014","0.4210883962","0.1397440907","0.1072026782","","","","","","","74","J","1","","","50","main_expt"
"272","","bandit","129","505682","0.0-90.0-0.0","36443359","wem/bandit_either","A37EV8RZ82WT8E","either","1","","","","","","","0","0","1","","0.1287882573","0.6","0.4","0.8","0.2","0.3379376541","0.4225635581","0.153600331","0.1287882573","","","","","","","","","","","76","L","3","","","51","main_expt"
"414","","bandit","130","507601","0.0-91.0-0.0","36443359","wem/bandit_either","A37EV8RZ82WT8E","either","1","","","","","","","0","0","1","0.3395267946","","0.6","0.4","0.8","0.2","","","","","0.3395267946","0.4146237098","0.1718407591","0.1298059469","","","","","","","72","H","0","img/none_selected.jpg","","52","main_expt"
"671","","bandit","131","509778","0.0-92.0-0.0","36443359","wem/bandit_either","A37EV8RZ82WT8E","either","1","","","","","","","0","0","1","","0.3763623321","0.6","0.4","0.8","0.2","0.29674647","0.3763623321","0.1945727614","0.07423060895","","","","","","","","","","","74","J","1","","","53","main_expt"
"14286","","bandit","132","525570","0.0-93.0-0.0","36443359","wem/bandit_either","A37EV8RZ82WT8E","either","1","","","","","","","1","0","0","0.2450542523","","0.6","0.4","0.8","0.2","","","","","0.3372955831","0.3289081181","0.2450542523","0.08562383645","","","","","","","75","K","2","","","54","main_expt"
"1102","","bandit","133","528176","0.0-94.0-0.0","36443359","wem/bandit_either","A37EV8RZ82WT8E","either","1","","","","","","","0","0","1","","0.3025984711","0.6","0.4","0.8","0.2","0.3506099842","0.3025984711","0.2547241938","0.0757818623","","","","","","","","","","","74","J","1","","","55","main_expt"
"768","","bandit","134","530448","0.0-95.0-0.0","36443359","wem/bandit_either","A37EV8RZ82WT8E","either","1","","","","","","","0","0","1","","0.09897923035","0.6","0.4","0.8","0.2","0.3418029788","0.2921333137","0.2595112895","0.09897923035","","","","","","","","","","","76","L","3","","","56","main_expt"
"463","","bandit","135","532416","0.0-96.0-0.0","36443359","wem/bandit_either","A37EV8RZ82WT8E","either","1","","","","","","","0","0","1","","0.3317177772","0.6","0.4","0.8","0.2","0.3162475816","0.3317177772","0.2610276213","0.1160875525","","","","","","","","","","","74","J","1","","","57","main_expt"
"688","","bandit","136","534609","0.0-97.0-0.0","36443359","wem/bandit_either","A37EV8RZ82WT8E","either","1","","","","","","","1","0","0","0.2354201416","","0.6","0.4","0.8","0.2","","","","","0.3269881105","0.3240244649","0.2354201416","0.1134641846","","","","","","","75","K","2","","","58","main_expt"
"224","","bandit","137","536337","0.0-98.0-0.0","36443359","wem/bandit_either","A37EV8RZ82WT8E","either","1","","","","","","","0","0","1","0.1177083384","","0.6","0.4","0.8","0.2","","","","","0.2901324944","0.2988076671","0.2346370837","0.1177083384","","","","","","","76","L","3","","","59","main_expt"
"1215","","bandit","138","539057","0.0-99.0-0.0","36443359","wem/bandit_either","A37EV8RZ82WT8E","either","1","","","","","","","0","0","1","","0.1125723432","0.6","0.4","0.8","0.2","0.289588464","0.3096792726","0.2315637733","0.1125723432","","","","","","","","","","","76","L","3","","","60","main_expt"
"718","","bandit","139","541280","0.0-100.0-0.0","36443359","wem/bandit_either","A37EV8RZ82WT8E","either","1","","","","","","","0","0","1","","0.09911093426","0.6","0.4","0.8","0.2","0.2782845563","0.2821336973","0.2599537756","0.09911093426","","","","","","","","","","","76","L","3","","","61","main_expt"
"3327","","bandit","140","546113","0.0-101.0-0.0","36443359","wem/bandit_either","A37EV8RZ82WT8E","either","1","","","","","","","0","0","1","","0.2414244345","0.6","0.4","0.8","0.2","0.3165490401","0.2414244345","0.2594941563","0.09440438105","","","","","","","","","","","74","J","1","","","62","main_expt"
"2479","","bandit","141","550098","0.0-102.0-0.0","36443359","wem/bandit_either","A37EV8RZ82WT8E","either","1","","","","","","","0","0","1","","0.213639373","0.6","0.4","0.8","0.2","0.3034564924","0.213639373","0.2660839385","0.1015409351","","","","","","","","","","","74","J","1","","","63","main_expt"
"2462","","bandit","142","554064","0.0-103.0-0.0","36443359","wem/bandit_either","A37EV8RZ82WT8E","either","1","","","","","","","0","0","1","","0.07049798599","0.6","0.4","0.8","0.2","0.2506654962","0.1876308072","0.2426585031","0.07049798599","","","","","","","","","","","76","L","3","","","64","main_expt"
"3743","","bandit","143","559311","0.0-104.0-0.0","36443359","wem/bandit_either","A37EV8RZ82WT8E","either","1","","","","","","","0","0","1","","0.05735603507","0.6","0.4","0.8","0.2","0.253414466","0.1841803182","0.2581047566","0.05735603507","","","","","","","","","","","76","L","3","","","65","main_expt"
"673","","bandit","144","561489","0.0-105.0-0.0","36443359","wem/bandit_either","A37EV8RZ82WT8E","either","1","","","","","","","0","0","1","","0.187417598","0.6","0.4","0.8","0.2","0.2836500186","0.187417598","0.2872127433","0.0621258055","","","","","","","","","","","74","J","1","","","66","main_expt"
"4062","","bandit","145","567056","0.0-106.0-0.0","36443359","wem/bandit_either","A37EV8RZ82WT8E","either","1","","","","","","","0","0","1","0.3232337643","","0.6","0.4","0.8","0.2","","","","","0.3217852231","0.1395950637","0.3232337643","0.06966106928","","","","","","","75","K","2","","","67","main_expt"
"927","","bandit","146","569488","0.0-107.0-0.0","36443359","wem/bandit_either","A37EV8RZ82WT8E","either","1","","","","","","","0","0","1","0.1363519197","","0.6","0.4","0.8","0.2","","","","","0.3574581916","0.1363519197","0.3376006622","0.09965709916","","","","","","","74","J","1","","","68","main_expt"
"463","","bandit","147","571459","0.0-108.0-0.0","36443359","wem/bandit_either","A37EV8RZ82WT8E","either","1","","","","","","","0","0","1","0.1117144852","","0.6","0.4","0.8","0.2","","","","","0.3884563005","0.1117144852","0.2917609244","0.1428217854","","","","","","","74","J","1","","","69","main_expt"
"1870","","bandit","148","574832","0.0-109.0-0.0","36443359","wem/bandit_either","A37EV8RZ82WT8E","either","1","","","","","","","0","0","1","0.1866845388","","0.6","0.4","0.8","0.2","","","","","0.3920047773","0.09667493602","0.2218665627","0.1866845388","","","","","","","76","L","3","","","70","main_expt"
"448","","bandit","149","576784","0.0-110.0-0.0","36443359","wem/bandit_either","A37EV8RZ82WT8E","either","1","","","","","","","0","0","1","0.4066376731","","0.6","0.4","0.8","0.2","","","","","0.4066376731","0.09186933139","0.2409383839","0.1702545286","","","","","","","72","H","0","img/none_selected.jpg","","71","main_expt"
"480","","bandit","150","578768","0.0-111.0-0.0","36443359","wem/bandit_either","A37EV8RZ82WT8E","either","1","","","","","","","0","0","1","0.1836279043","","0.6","0.4","0.8","0.2","","","","","0.3443789926","0.09472009463","0.1920783453","0.1836279043","","","","","","","76","L","3","","","72","main_expt"
"495","","bandit","151","580768","0.0-112.0-0.0","36443359","wem/bandit_either","A37EV8RZ82WT8E","either","1","","","","","","","1","0","0","0.1905254877","","0.6","0.4","0.8","0.2","","","","","0.3227553012","0.1167805336","0.1905254877","0.1644348242","","","","","","","75","K","2","","","73","main_expt"
"1039","","bandit","152","583313","0.0-113.0-0.0","36443359","wem/bandit_either","A37EV8RZ82WT8E","either","1","","","","","","","0","0","1","","0.1833421201","0.6","0.4","0.8","0.2","0.3336652139","0.1465151254","0.184198213","0.1833421201","","","","","","","","","","","76","L","3","","","74","main_expt"
"94","","bandit","153","584914","0.0-114.0-0.0","36443359","wem/bandit_either","A37EV8RZ82WT8E","either","1","","","","","","","0","0","1","0.1519653276","","0.6","0.4","0.8","0.2","","","","","0.2890150868","0.123285719","0.1881920243","0.1519653276","","","","","","","76","L","3","","","75","main_expt"
"511","","bandit","154","586930","0.0-115.0-0.0","36443359","wem/bandit_either","A37EV8RZ82WT8E","either","1","","","","","","","0","0","1","","0.1392606081","0.6","0.4","0.8","0.2","0.2673490463","0.1392606081","0.1988930589","0.1506622639","","","","","","","","","","","74","J","1","","","76","main_expt"
"318","","bandit","155","588753","0.0-116.0-0.0","36443359","wem/bandit_either","A37EV8RZ82WT8E","either","1","","","","","","","0","0","1","","0.1860897766","0.6","0.4","0.8","0.2","0.2858541315","0.099337717","0.2255968657","0.1860897766","","","","","","","","","","","76","L","3","","","77","main_expt"
"447","","bandit","156","590705","0.0-117.0-0.0","36443359","wem/bandit_either","A37EV8RZ82WT8E","either","1","","","","","","","0","0","1","","0.1618556875","0.6","0.4","0.8","0.2","0.2639968829","0.09666605973","0.1917014014","0.1618556875","","","","","","","","","","","76","L","3","","","78","main_expt"
"399","","bandit","157","592610","0.0-118.0-0.0","36443359","wem/bandit_either","A37EV8RZ82WT8E","either","1","","","","","","","0","0","1","","0.2304888896","0.6","0.4","0.8","0.2","0.2304888896","0.09639353985","0.2092129429","0.1976853889","","","","","","","","","","","72","H","0","img/none_selected.jpg","","79","main_expt"
"111","","bandit","158","594226","0.0-119.0-0.0","36443359","wem/bandit_either","A37EV8RZ82WT8E","either","1","","","","","","","0","0","1","","0.09566996791","0.6","0.4","0.8","0.2","0.1991809665","0.09566996791","0.1974306726","0.2198838985","","","","","","","","","","","74","J","1","","","80","main_expt"
"927","","bandit","159","596658","0.0-120.0-0.0","36443359","wem/bandit_either","A37EV8RZ82WT8E","either","1","","","","","","","0","0","1","","0.07958501382","0.6","0.4","0.8","0.2","0.1627434897","0.07958501382","0.1414754506","0.2167005254","","","","","","","","","","","74","J","1","","","81","main_expt"
"910","","bandit","160","599073","0.0-121.0-0.0","36443359","wem/bandit_either","A37EV8RZ82WT8E","either","1","","","","","","","0","0","1","","0.1422587364","0.6","0.4","0.8","0.2","0.1624637972","0.08833774835","0.1422587364","0.2527486409","","","","","","","","","","","75","K","2","","","82","main_expt"
"287","","bandit","161","600865","0.0-122.0-0.0","36443359","wem/bandit_either","A37EV8RZ82WT8E","either","1","","","","","","","0","0","1","","0.1079415531","0.6","0.4","0.8","0.2","0.1900332","0.09109006352","0.1079415531","0.2569721607","","","","","","","","","","","75","K","2","","","83","main_expt"
"303","","bandit","162","602673","0.0-123.0-0.0","36443359","wem/bandit_either","A37EV8RZ82WT8E","either","1","","","","","","","0","1","0","","0.05321730921","0.6","0.4","0.8","0.2","0.1705646391","0.05321730921","0.07696487024","0.2535394321","","","","","","","","","","","74","J","1","","","84","main_expt"
"591","","bandit","163","604769","0.0-124.0-0.0","36443359","wem/bandit_either","A37EV8RZ82WT8E","either","1","","","","","","","0","1","0","","0.2255799186","0.6","0.4","0.8","0.2","0.2053302659","0.03321009489","0.08313016423","0.2255799186","","","","","","","","","","","76","L","3","","","85","main_expt"
"831","","bandit","164","607105","0.0-125.0-0.0","36443359","wem/bandit_either","A37EV8RZ82WT8E","either","1","","","","","","","0","0","1","0.102083396","","0.6","0.4","0.8","0.2","","","","","0.2128685413","0.04864990798","0.102083396","0.2197080914","","","","","","","75","K","2","","","86","main_expt"
"30","","bandit","165","608642","0.0-126.0-0.0","36443359","wem/bandit_either","A37EV8RZ82WT8E","either","1","","","","","","","0","0","1","","0.2230338057","0.6","0.4","0.8","0.2","0.213778815","0.07919268752","0.09067070718","0.2230338057","","","","","","","","","","","76","L","3","","","87","main_expt"
"318","","bandit","166","610465","0.0-127.0-0.0","36443359","wem/bandit_either","A37EV8RZ82WT8E","either","1","","","","","","","0","0","1","0.2484269739","","0.6","0.4","0.8","0.2","","","","","0.2102340809","0.05835116993","0.1421970704","0.2484269739","","","","","","","76","L","3","","","88","main_expt"
"414","","bandit","167","612388","0.0-128.0-0.0","36443359","wem/bandit_either","A37EV8RZ82WT8E","either","1","","","","","","","0","0","1","0.1809358483","","0.6","0.4","0.8","0.2","","","","","0.1809358483","0.05115519592","0.219142046","0.2733562597","","","","","","","72","H","0","img/none_selected.jpg","","89","main_expt"
"362","","bandit","168","614258","0.0-129.0-0.0","36443359","wem/bandit_either","A37EV8RZ82WT8E","either","1","","","","","","","0","0","1","0.07819273649","","0.6","0.4","0.8","0.2","","","","","0.1293356972","0.07819273649","0.2806923657","0.2973868449","","","","","","","74","J","1","","","90","main_expt"
"654","","bandit","169","616418","0.0-130.0-0.0","36443359","wem/bandit_either","A37EV8RZ82WT8E","either","1","","","","","","","0","0","1","0.05564661524","","0.6","0.4","0.8","0.2","","","","","0.1136224352","0.05564661524","0.2819660137","0.3067689268","","","","","","","74","J","1","","","91","main_expt"
"462","","bandit","170","618386","0.0-131.0-0.0","36443359","wem/bandit_either","A37EV8RZ82WT8E","either","1","","","","","","","0","0","1","0.2719776188","","0.6","0.4","0.8","0.2","","","","","0.07539152519","0.05914103421","0.3370305887","0.2719776188","","","","","","","76","L","3","","","92","main_expt"
"428","","bandit","171","620322","0.0-132.0-0.0","36443359","wem/bandit_either","A37EV8RZ82WT8E","either","1","","","","","","","0","0","1","","0.03944324463","0.6","0.4","0.8","0.2","0.08243558305","0.03944324463","0.3722719914","0.3081791896","","","","","","","","","","","74","J","1","","","93","main_expt"
"463","","bandit","172","622290","0.0-133.0-0.0","36443359","wem/bandit_either","A37EV8RZ82WT8E","either","1","","","","","","","0","0","1","0.05023017475","","0.6","0.4","0.8","0.2","","","","","0.09807673793","0.05023017475","0.3840030774","0.356667856","","","","","","","74","J","1","","","94","main_expt"
"94","","bandit","173","623889","0.0-134.0-0.0","36443359","wem/bandit_either","A37EV8RZ82WT8E","either","1","","","","","","","0","0","1","0.4050844552","","0.6","0.4","0.8","0.2","","","","","0.09746204728","0.07311956304","0.4050844552","0.3300765204","","","","","","","75","K","2","","","95","main_expt"
"1087","","bandit","174","626482","0.0-135.0-0.0","36443359","wem/bandit_either","A37EV8RZ82WT8E","either","1","","","","","","","0","0","1","0.08559835745","","0.6","0.4","0.8","0.2","","","","","0.08559835745","0.09573717159","0.4081076376","0.3642735905","","","","","","","72","H","0","img/none_selected.jpg","","96","main_expt"
"236","","bandit","175","628226","0.0-136.0-0.0","36443359","wem/bandit_either","A37EV8RZ82WT8E","either","1","","","","","","","1","0","0","0.3885664579","","0.6","0.4","0.8","0.2","","","","","0.0732645996","0.1235519285","0.4142780263","0.3885664579","","","","","","","76","L","3","","","97","main_expt"
"654","","bandit","176","630386","0.0-137.0-0.0","36443359","wem/bandit_either","A37EV8RZ82WT8E","either","1","","","","","","","0","0","1","0.4162912028","","0.6","0.4","0.8","0.2","","","","","0.05343209845","0.1274282425","0.4131193208","0.4162912028","","","","","","","76","L","3","","","98","main_expt"
"270","","bandit","177","632161","0.0-138.0-0.0","36443359","wem/bandit_either","A37EV8RZ82WT8E","either","1","","","","","","","0","0","1","0.05144299931","","0.6","0.4","0.8","0.2","","","","","0.05144299931","0.1457321849","0.428944851","0.4074153657","","","","","","","72","H","0","img/none_selected.jpg","","99","main_expt"
"654","","bandit","178","634320","0.0-139.0-0.0","36443359","wem/bandit_either","A37EV8RZ82WT8E","either","1","","","","","","","0","0","1","","0.1492128348","0.6","0.4","0.8","0.2","0.03934302155","0.1492128348","0.4279797645","0.3349137267","","","","","","","","","","","74","J","1","","","100","main_expt"
"240","","bandit","179","636066","0.0-140.0-0.0","36443359","wem/bandit_either","A37EV8RZ82WT8E","either","1","","","","","","","0","1","0","","0.2732947861","0.6","0.4","0.8","0.2","0.05783306622","0.125019219","0.4189249443","0.2732947861","","","","","","","","","","","76","L","3","","","101","main_expt"
"1086","","bandit","180","638657","0.0-141.0-0.0","36443359","wem/bandit_either","A37EV8RZ82WT8E","either","1","","","","","","","0","0","1","0.4279241466","","0.6","0.4","0.8","0.2","","","","","0.06484492547","0.1008510245","0.4279241466","0.2584454073","","","","","","","75","K","2","","","102","main_expt"
"47","","bandit","181","640209","0.0-142.0-0.0","36443359","wem/bandit_either","A37EV8RZ82WT8E","either","1","","","","","","","0","0","1","0.0701259157","","0.6","0.4","0.8","0.2","","","","","0.0701259157","0.1087281004","0.419390052","0.2143891894","","","","","","","72","H","0","img/none_selected.jpg","","103","main_expt"
"384","","bandit","182","642097","0.0-143.0-0.0","36443359","wem/bandit_either","A37EV8RZ82WT8E","either","1","","","","","","","0","0","1","0.3761202226","","0.6","0.4","0.8","0.2","","","","","0.06922647753","0.143855427","0.3761202226","0.1354346047","","","","","","","75","K","2","","","104","main_expt"
"221","","bandit","183","643825","0.0-144.0-0.0","36443359","wem/bandit_either","A37EV8RZ82WT8E","either","1","","","","","","","0","0","1","0.4229881466","","0.6","0.4","0.8","0.2","","","","","0.07802312096","0.1606853024","0.4229881466","0.1615963473","","","","","","","75","K","2","","","105","main_expt"
"544","","bandit","184","645873","0.0-145.0-0.0","36443359","wem/bandit_either","A37EV8RZ82WT8E","either","1","","","","","","","0","1","0","","0.4110558218","0.6","0.4","0.8","0.2","0.08930313369","0.1612939645","0.4110558218","0.1738621023","","","","","","","","","","","75","K","2","","","106","main_expt"
"494","","bandit","185","647871","0.0-146.0-0.0","36443359","wem/bandit_either","A37EV8RZ82WT8E","either","1","","","","","","","0","0","1","","0.4176599015","0.6","0.4","0.8","0.2","0.1397733654","0.1778053335","0.4176599015","0.1799671425","","","","","","","","","","","75","K","2","","","107","main_expt"
"446","","bandit","186","649826","0.0-147.0-0.0","36443359","wem/bandit_either","A37EV8RZ82WT8E","either","1","","","","","","","0","0","1","","0.1844274074","0.6","0.4","0.8","0.2","0.1505899732","0.1826465361","0.4210396584","0.1844274074","","","","","","","","","","","76","L","3","","","108","main_expt"
"795","","bandit","187","652128","0.0-148.0-0.0","36443359","wem/bandit_either","A37EV8RZ82WT8E","either","1","","","","","","","0","1","0","","0.1702708828","0.6","0.4","0.8","0.2","0.1162436109","0.1737022726","0.4328015469","0.1702708828","","","","","","","","","","","76","L","3","","","109","main_expt"
"2287","","bandit","188","655920","0.0-149.0-0.0","36443359","wem/bandit_either","A37EV8RZ82WT8E","either","1","","","","","","","0","0","1","","0.1658344406","0.6","0.4","0.8","0.2","0.08267976014","0.1658344406","0.4495585744","0.1964407335","","","","","","","","","","","74","J","1","","","110","main_expt"
"1246","","bandit","189","658671","0.0-150.0-0.0","36443359","wem/bandit_either","A37EV8RZ82WT8E","either","1","","","","","","","0","0","1","","0.1777579569","0.6","0.4","0.8","0.2","0.09389793805","0.240619448","0.4237631325","0.1777579569","","","","","","","","","","","76","L","3","","","111","main_expt"
"496","","bandit","190","660672","0.0-151.0-0.0","36443359","wem/bandit_either","A37EV8RZ82WT8E","either","1","","","","","","","0","0","1","","0.07903418564","0.6","0.4","0.8","0.2","0.07903418564","0.1927397719","0.4521571561","0.1395994444","","","","","","","","","","","72","H","0","img/none_selected.jpg","","112","main_expt"
"238","","bandit","191","662416","0.0-152.0-0.0","36443359","wem/bandit_either","A37EV8RZ82WT8E","either","1","","","","","","","0","0","1","","0.1205999431","0.6","0.4","0.8","0.2","0.05501139052","0.234725565","0.4350762846","0.1205999431","","","","","","","","","","","76","L","3","","","113","main_expt"
"14","","bandit","192","663937","0.0-153.0-0.0","36443359","wem/bandit_either","A37EV8RZ82WT8E","either","1","","","","","","","0","0","1","","0.09123355482","0.6","0.4","0.8","0.2","0.07627702456","0.1950215869","0.4315824664","0.09123355482","","","","","","","","","","","76","L","3","","","114","main_expt"
"1198","","bandit","193","666641","0.0-154.0-0.0","36443359","wem/bandit_either","A37EV8RZ82WT8E","either","1","","","","","","","0","0","1","0.4127349624","","0.6","0.4","0.8","0.2","","","","","0.03985247356","0.2575833325","0.4127349624","0.09554471192","","","","","","","75","K","2","","","115","main_expt"
"365","","bandit","194","668512","0.0-155.0-0.0","36443359","wem/bandit_either","A37EV8RZ82WT8E","either","1","","","","","","","0","0","1","","0.1942182492","0.6","0.4","0.8","0.2","0.0683792979","0.2296468005","0.4468356006","0.1942182492","","","","","","","","","","","76","L","3","","","116","main_expt"
"510","","bandit","195","670527","0.0-156.0-0.0","36443359","wem/bandit_either","A37EV8RZ82WT8E","either","1","","","","","","","0","0","1","","0.03956212276","0.6","0.4","0.8","0.2","0.03956212276","0.2816483341","0.4458703805","0.2208250117","","","","","","","","","","","72","H","0","img/none_selected.jpg","","117","main_expt"
"720","","bandit","196","672753","0.0-157.0-0.0","36443359","wem/bandit_either","A37EV8RZ82WT8E","either","1","","","","","","","0","0","1","","0.1687975443","0.6","0.4","0.8","0.2","0.04459229253","0.2626769985","0.4500370674","0.1687975443","","","","","","","","","","","76","L","3","","","118","main_expt"
"749","","bandit","197","675009","0.0-158.0-0.0","36443359","wem/bandit_either","A37EV8RZ82WT8E","either","1","","","","","","","0","0","1","","0.1546105485","0.6","0.4","0.8","0.2","0.03386957434","0.2418090277","0.4704359259","0.1546105485","","","","","","","","","","","76","L","3","","","119","main_expt"
"4223","","bandit","198","680737","0.0-159.0-0.0","36443359","wem/bandit_either","A37EV8RZ82WT8E","either","1","","","","","","","0","0","1","","0.143668411","0.6","0.4","0.8","0.2","0.03305427522","0.2603236095","0.4578798539","0.143668411","","","","","","","","","","","76","L","3","","","120","main_expt"
"2301","","bandit","199","684544","0.0-160.0-0.0","36443359","wem/bandit_either","A37EV8RZ82WT8E","either","1","","","","","","","0","0","1","0.1098317425","","0.6","0.4","0.8","0.2","","","","","0.03146098963","0.2381785671","0.4591190262","0.1098317425","","","","","","","76","L","3","","","121","main_expt"
"110","","bandit","200","686161","0.0-161.0-0.0","36443359","wem/bandit_either","A37EV8RZ82WT8E","either","1","","","","","","","0","0","1","0.02311797033","","0.6","0.4","0.8","0.2","","","","","0.02311797033","0.2388462554","0.4643737298","0.1097832873","","","","","","","72","H","0","img/none_selected.jpg","","122","main_expt"
"1310","","bandit","201","688976","0.0-162.0-0.0","36443359","wem/bandit_either","A37EV8RZ82WT8E","either","1","","","","","","","0","0","1","","0.1145900252","0.6","0.4","0.8","0.2","0.0171261738","0.2079929623","0.451586091","0.1145900252","","","","","","","","","","","76","L","3","","","123","main_expt"
"1999","","bandit","202","692482","0.0-163.0-0.0","36443359","wem/bandit_either","A37EV8RZ82WT8E","either","1","","","","","","","0","0","1","0.4456906556","","0.6","0.4","0.8","0.2","","","","","0.03468299263","0.2148400852","0.4456906556","0.1137783892","","","","","","","75","K","2","","","124","main_expt"
"316","","bandit","203","694304","0.0-164.0-0.0","36443359","wem/bandit_either","A37EV8RZ82WT8E","either","1","","","","","","","0","0","1","","0.02544516396","0.6","0.4","0.8","0.2","0.02544516396","0.2185056602","0.4240876494","0.145605256","","","","","","","","","","","72","H","0","img/none_selected.jpg","","125","main_expt"
"942","","bandit","204","696751","0.0-165.0-0.0","36443359","wem/bandit_either","A37EV8RZ82WT8E","either","1","","","","","","","0","0","1","","0.4008501573","0.6","0.4","0.8","0.2","0.03059506073","0.2152323899","0.4008501573","0.1443839055","","","","","","","","","","","75","K","2","","","126","main_expt"
"95","","bandit","205","698352","0.0-166.0-0.0","36443359","wem/bandit_either","A37EV8RZ82WT8E","either","1","","","","","","","1","0","0","0.1434222382","","0.6","0.4","0.8","0.2","","","","","0.0339638967","0.1699446714","0.4066073101","0.1434222382","","","","","","","76","L","3","","","127","main_expt"
"1102","","bandit","206","700959","0.0-167.0-0.0","36443359","wem/bandit_either","A37EV8RZ82WT8E","either","1","","","","","","","0","0","1","","0.1299446217","0.6","0.4","0.8","0.2","0.02632978063","0.1299446217","0.4270302575","0.1412168693","","","","","","","","","","","74","J","1","","","128","main_expt"
"241","","bandit","207","702704","0.0-168.0-0.0","36443359","wem/bandit_either","A37EV8RZ82WT8E","either","1","","","","","","","0","0","1","","0.1299487573","0.6","0.4","0.8","0.2","0.02640977482","0.1299487573","0.4401824822","0.1086871361","","","","","","","","","","","74","J","1","","","129","main_expt"
"589","","bandit","208","704799","0.0-169.0-0.0","36443359","wem/bandit_either","A37EV8RZ82WT8E","either","1","","","","","","","0","0","1","","0.03646961518","0.6","0.4","0.8","0.2","0.03646961518","0.1172580566","0.4160959849","0.1672766288","","","","","","","","","","","72","H","0","img/none_selected.jpg","","130","main_expt"
"526","","bandit","209","706832","0.0-170.0-0.0","36443359","wem/bandit_either","A37EV8RZ82WT8E","either","1","","","","","","","0","0","1","","0.02171712127","0.6","0.4","0.8","0.2","0.02171712127","0.1289979545","0.4374535298","0.157110596","","","","","","","","","","","72","H","0","img/none_selected.jpg","","131","main_expt"
"319","","bandit","210","708658","0.0-171.0-0.0","36443359","wem/bandit_either","A37EV8RZ82WT8E","either","1","","","","","","","0","1","0","","0.4382483821","0.6","0.4","0.8","0.2","0.01004766493","0.1243754988","0.4382483821","0.1338697581","","","","","","","","","","","75","K","2","","","132","main_expt"
"653","","bandit","211","710816","0.0-172.0-0.0","36443359","wem/bandit_either","A37EV8RZ82WT8E","either","1","","","","","","","0","0","1","0.005153708139","","0.6","0.4","0.8","0.2","","","","","0.005153708139","0.1189203389","0.3913946914","0.1101669797","","","","","","","72","H","0","img/none_selected.jpg","","133","main_expt"
"207","","bandit","212","712529","0.0-173.0-0.0","36443359","wem/bandit_either","A37EV8RZ82WT8E","either","1","","","","","","","0","0","1","0.01308543257","","0.6","0.4","0.8","0.2","","","","","0.01308543257","0.07075860378","0.4280120537","0.060775537","","","","","","","72","H","0","img/none_selected.jpg","","134","main_expt"
"2957","","bandit","213","716993","0.0-174.0-0.0","36443359","wem/bandit_either","A37EV8RZ82WT8E","either","1","","","","","","","0","0","1","","0.1073185777","0.6","0.4","0.8","0.2","0.02634180281","0.1073185777","0.4385213509","0.0714416082","","","","","","","","","","","74","J","1","","","135","main_expt"
"414","","bandit","214","718913","0.0-175.0-0.0","36443359","wem/bandit_either","A37EV8RZ82WT8E","either","1","","","","","","","0","0","1","","0.1115096907","0.6","0.4","0.8","0.2","0.04122629063","0.1001442491","0.4605212521","0.1115096907","","","","","","","","","","","76","L","3","","","136","main_expt"
"878","","bandit","215","721297","0.0-176.0-0.0","36443359","wem/bandit_either","A37EV8RZ82WT8E","either","1","","","","","","","0","0","1","","0.1307091067","0.6","0.4","0.8","0.2","0.05517648788","0.1736681681","0.4729500637","0.1307091067","","","","","","","","","","","76","L","3","","","137","main_expt"
"1247","","bandit","216","724050","0.0-177.0-0.0","36443359","wem/bandit_either","A37EV8RZ82WT8E","either","1","","","","","","","0","0","1","0.1839908368","","0.6","0.4","0.8","0.2","","","","","0.05929415862","0.1839908368","0.4705425907","0.1289533412","","","","","","","74","J","1","","","138","main_expt"
"429","","bandit","217","725984","0.0-178.0-0.0","36443359","wem/bandit_either","A37EV8RZ82WT8E","either","1","","","","","","","0","0","1","0.465423541","","0.6","0.4","0.8","0.2","","","","","0.05470710098","0.1500833973","0.465423541","0.1215972271","","","","","","","75","K","2","","","139","main_expt"
"1134","","bandit","218","728626","0.0-179.0-0.0","36443359","wem/bandit_either","A37EV8RZ82WT8E","either","1","","","","","","","0","0","1","","0.1158179575","0.6","0.4","0.8","0.2","0.06062538604","0.1718879457","0.4486857012","0.1158179575","","","","","","","","","","","76","L","3","","","140","main_expt"
"253","","bandit","219","730385","0.0-180.0-0.0","36443359","wem/bandit_either","A37EV8RZ82WT8E","either","1","","","","","","","0","0","1","","0.2025036279","0.6","0.4","0.8","0.2","0.05819772386","0.2025036279","0.4053061298","0.08691297649","","","","","","","","","","","74","J","1","","","141","main_expt"
"877","","bandit","220","732769","0.0-181.0-0.0","36443359","wem/bandit_either","A37EV8RZ82WT8E","either","1","","","","","","","0","0","1","0.1425267255","","0.6","0.4","0.8","0.2","","","","","0.05329701838","0.1872564568","0.3989731656","0.1425267255","","","","","","","76","L","3","","","142","main_expt"
"926","","bandit","221","735201","0.0-182.0-0.0","36443359","wem/bandit_either","A37EV8RZ82WT8E","either","1","","","","","","","0","0","1","0.1676641842","","0.6","0.4","0.8","0.2","","","","","0.06209903385","0.1676641842","0.3783570596","0.1425141192","","","","","","","74","J","1","","","143","main_expt"
"526","","bandit","222","737232","0.0-183.0-0.0","36443359","wem/bandit_either","A37EV8RZ82WT8E","either","1","","","","","","","0","0","1","0.1502987652","","0.6","0.4","0.8","0.2","","","","","0.06954729647","0.1502987652","0.3485663762","0.1362652721","","","","","","","74","J","1","","","144","main_expt"
"798","","bandit","223","739537","0.0-184.0-0.0","36443359","wem/bandit_either","A37EV8RZ82WT8E","either","1","","","","","","","0","0","1","0.1050568962","","0.6","0.4","0.8","0.2","","","","","0.062760129","0.1050568962","0.3534190037","0.1335650053","","","","","","","74","J","1","","","145","main_expt"
"174","","bandit","224","741216","0.0-185.0-0.0","36443359","wem/bandit_either","A37EV8RZ82WT8E","either","1","","","","","","","0","0","1","","0.1392461982","0.6","0.4","0.8","0.2","0.05014677947","0.1266784727","0.342282706","0.1392461982","","","","","","","","","","","76","L","3","","","146","main_expt"
"335","","bandit","225","743056","0.0-186.0-0.0","36443359","wem/bandit_either","A37EV8RZ82WT8E","either","1","","","","","","","0","0","1","0.1121887101","","0.6","0.4","0.8","0.2","","","","","0.04801868921","0.1121887101","0.3497384939","0.1060810453","","","","","","","74","J","1","","","147","main_expt"
"670","","bandit","226","745234","0.0-187.0-0.0","36443359","wem/bandit_either","A37EV8RZ82WT8E","either","1","","","","","","","0","0","1","","0.1076054289","0.6","0.4","0.8","0.2","0.05298179562","0.1050077765","0.3507348305","0.1076054289","","","","","","","","","","","76","L","3","","","148","main_expt"
"74","","bandit","227","746817","0.0-188.0-0.0","36443359","wem/bandit_either","A37EV8RZ82WT8E","either","1","","","","","","","0","0","1","","0.09143227578","0.6","0.4","0.8","0.2","0.05271587927","0.08725679698","0.306786392","0.09143227578","","","","","","","","","","","76","L","3","","","149","main_expt"
"286","","bandit","228","748609","0.0-189.0-0.0","36443359","wem/bandit_either","A37EV8RZ82WT8E","either","1","","","","","","","1","0","0","0.3289077467","","0.6","0.4","0.8","0.2","","","","","0.06153260368","0.04813781364","0.3289077467","0.08361181256","","","","","","","75","K","2","","","150","main_expt"
"30","","bandit","229","750146","0.0-190.0-0.0","36443359","wem/bandit_either","A37EV8RZ82WT8E","either","1","","","","","","","0","0","1","0.1038450747","","0.6","0.4","0.8","0.2","","","","","0.07716317934","0.04690393958","0.2844912386","0.1038450747","","","","","","","76","L","3","","","151","main_expt"
"429","","bandit","230","752081","0.0-191.0-0.0","36443359","wem/bandit_either","A37EV8RZ82WT8E","either","1","","","","","","","0","0","1","","0.05051779207","0.6","0.4","0.8","0.2","0.08370894892","0.05051779207","0.3221551402","0.1311897928","","","","","","","","","","","74","J","1","","","152","main_expt"
"139","","bandit","231","753730","0.0-192.0-0.0","36443359","wem/bandit_either","A37EV8RZ82WT8E","either","1","","","","","","","0","0","1","0.1106636196","","0.6","0.4","0.8","0.2","","","","","0.06235129306","0.0417019452","0.288581716","0.1106636196","","","","","","","76","L","3","","","153","main_expt"
"396","","bandit","232","755633","0.0-193.0-0.0","36443359","wem/bandit_either","A37EV8RZ82WT8E","either","1","","","","","","","0","0","1","","0.08044616817","0.6","0.4","0.8","0.2","0.08808261531","0.04565059468","0.3674714493","0.08044616817","","","","","","","","","","","76","L","3","","","154","main_expt"
"366","","bandit","233","757505","0.0-194.0-0.0","36443359","wem/bandit_either","A37EV8RZ82WT8E","either","1","","","","","","","0","0","1","","0.3836765626","0.6","0.4","0.8","0.2","0.08415746701","0.0249337719","0.3836765626","0.09849608375","","","","","","","","","","","75","K","2","","","155","main_expt"
"61","","bandit","234","759072","0.0-195.0-0.0","36443359","wem/bandit_either","A37EV8RZ82WT8E","either","1","","","","","","","0","0","1","","0.0207568711","0.6","0.4","0.8","0.2","0.1363215429","0.0207568711","0.3499766022","0.0679626842","","","","","","","","","","","74","J","1","","","156","main_expt"
"223","","bandit","235","760801","0.0-196.0-0.0","36443359","wem/bandit_either","A37EV8RZ82WT8E","either","1","","","","","","","0","0","1","","0.176329139","0.6","0.4","0.8","0.2","0.176329139","0.01044871803","0.3083455354","0.06316877849","","","","","","","","","","","72","H","0","img/none_selected.jpg","","157","main_expt"
"684","","bandit","236","762993","0.0-197.0-0.0","36443359","wem/bandit_either","A37EV8RZ82WT8E","either","1","","","","","","","0","0","1","","0.008486032171","0.6","0.4","0.8","0.2","0.2239815039","0.008486032171","0.2780985587","0.06381796224","","","","","","","","","","","74","J","1","","","158","main_expt"
"318","","bandit","237","764816","0.0-198.0-0.0","36443359","wem/bandit_either","A37EV8RZ82WT8E","either","1","","","","","","","0","0","1","","0.09986374221","0.6","0.4","0.8","0.2","0.1754735631","0.006770001311","0.2721424699","0.09986374221","","","","","","","","","","","76","L","3","","","159","main_expt"
"158","","bandit","238","766481","0.0-199.0-0.0","36443359","wem/bandit_either","A37EV8RZ82WT8E","either","1","","","","","","","0","0","1","0.005009972043","","0.6","0.4","0.8","0.2","","","","","0.1820859676","0.005009972043","0.3005636977","0.08334790929","","","","","","","74","J","1","","","160","main_expt"
"206","","bandit","239","768193","0.0-200.0-0.0","36443359","wem/bandit_either","A37EV8RZ82WT8E","either","1","","","","","","","0","0","1","","0.1094566723","0.6","0.4","0.8","0.2","0.1771527669","0.003825417776","0.2481613967","0.1094566723","","","","","","","","","","","76","L","3","","","161","main_expt"
"173","","bandit","240","769872","0.0-201.0-0.0","36443359","wem/bandit_either","A37EV8RZ82WT8E","either","1","","","","","","","0","0","1","","0.1287108975","0.6","0.4","0.8","0.2","0.209245514","0.006458278423","0.2040880477","0.1287108975","","","","","","","","","","","76","L","3","","","162","main_expt"
"637","","bandit","241","772016","0.0-202.0-0.0","36443359","wem/bandit_either","A37EV8RZ82WT8E","either","1","","","","","","","1","0","0","0.256608811","","0.6","0.4","0.8","0.2","","","","","0.1864252411","0.01344146107","0.256608811","0.1811808859","","","","","","","75","K","2","","","163","main_expt"
"302","","bandit","242","773824","0.0-203.0-0.0","36443359","wem/bandit_either","A37EV8RZ82WT8E","either","1","","","","","","","0","0","1","","0.004940614731","0.6","0.4","0.8","0.2","0.1662237337","0.004940614731","0.2798468236","0.1374611454","","","","","","","","","","","74","J","1","","","164","main_expt"
"381","","bandit","243","775713","0.0-204.0-0.0","36443359","wem/bandit_either","A37EV8RZ82WT8E","either","1","","","","","","","0","0","1","0.007349038951","","0.6","0.4","0.8","0.2","","","","","0.1375661656","0.007349038951","0.2689568899","0.1640313333","","","","","","","74","J","1","","","165","main_expt"
"909","","bandit","244","778128","0.0-205.0-0.0","36443359","wem/bandit_either","A37EV8RZ82WT8E","either","1","","","","","","","0","0","1","0.1416727521","","0.6","0.4","0.8","0.2","","","","","0.1416727521","0.005679103294","0.2786045926","0.20052236","","","","","","","72","H","0","img/none_selected.jpg","","166","main_expt"
"157","","bandit","245","779793","0.0-206.0-0.0","36443359","wem/bandit_either","A37EV8RZ82WT8E","either","1","","","","","","","0","1","0","","0.1945206589","0.6","0.4","0.8","0.2","0.1497541138","0.004037182679","0.2507583434","0.1945206589","","","","","","","","","","","76","L","3","","","167","main_expt"
"318","","bandit","246","781617","0.0-207.0-0.0","36443359","wem/bandit_either","A37EV8RZ82WT8E","either","1","","","","","","","0","0","1","0.1761460581","","0.6","0.4","0.8","0.2","","","","","0.1761460581","0.007111326723","0.1827624484","0.1902154162","","","","","","","72","H","0","img/none_selected.jpg","","168","main_expt"
"316","","bandit","247","783441","0.0-208.0-0.0","36443359","wem/bandit_either","A37EV8RZ82WT8E","either","1","","","","","","","0","0","1","","0.2248215173","0.6","0.4","0.8","0.2","0.2248215173","0.01708305062","0.1558723634","0.1931964682","","","","","","","","","","","72","H","0","img/none_selected.jpg","","169","main_expt"
"252","","bandit","248","785201","0.0-209.0-0.0","36443359","wem/bandit_either","A37EV8RZ82WT8E","either","1","","","","","","","0","1","0","","0.1757164868","0.6","0.4","0.8","0.2","0.2503105048","0.02105388628","0.1757164868","0.236179436","","","","","","","","","","","75","K","2","","","170","main_expt"
"222","","bandit","249","786930","0.0-210.0-0.0","36443359","wem/bandit_either","A37EV8RZ82WT8E","either","1","","","","","","","0","0","1","","0.01477187034","0.6","0.4","0.8","0.2","0.2515708499","0.01477187034","0.1985597056","0.2229285478","","","","","","","","","","","74","J","1","","","171","main_expt"
"93","","bandit","250","788528","0.0-211.0-0.0","36443359","wem/bandit_either","A37EV8RZ82WT8E","either","1","","","","","","","0","1","0","","0.1725269859","0.6","0.4","0.8","0.2","0.2601117771","0.00639283578","0.1725269859","0.1805811295","","","","","","","","","","","75","K","2","","","172","main_expt"
"303","","bandit","251","790336","0.0-212.0-0.0","36443359","wem/bandit_either","A37EV8RZ82WT8E","either","1","","","","","","","0","0","1","","0.2203049146","0.6","0.4","0.8","0.2","0.2277859889","0.008503536177","0.1955807132","0.2203049146","","","","","","","","","","","76","L","3","","","173","main_expt"
"430","","bandit","252","792272","0.0-213.0-0.0","36443359","wem/bandit_either","A37EV8RZ82WT8E","either","1","","","","","","","0","0","1","0.204090619","","0.6","0.4","0.8","0.2","","","","","0.204090619","0.01512836446","0.1712969398","0.2079245196","","","","","","","72","H","0","img/none_selected.jpg","","174","main_expt"
"703","","bandit","253","794480","0.0-214.0-0.0","36443359","wem/bandit_either","A37EV8RZ82WT8E","either","1","","","","","","","0","0","1","","0.034550241","0.6","0.4","0.8","0.2","0.2264282848","0.034550241","0.2145566876","0.1904909119","","","","","","","","","","","74","J","1","","","175","main_expt"
"173","","bandit","254","796160","0.0-215.0-0.0","36443359","wem/bandit_either","A37EV8RZ82WT8E","either","1","","","","","","","0","0","1","","0.1987050603","0.6","0.4","0.8","0.2","0.2263436383","0.01969997198","0.1987050603","0.1611975006","","","","","","","","","","","75","K","2","","","176","main_expt"
"1054","","bandit","255","798721","0.0-216.0-0.0","36443359","wem/bandit_either","A37EV8RZ82WT8E","either","1","","","","","","","0","0","1","0.2161967517","","0.6","0.4","0.8","0.2","","","","","0.2449632337","0.02558747067","0.2161967517","0.1747210449","","","","","","","75","K","2","","","177","main_expt"
"653","","bandit","256","800880","0.0-217.0-0.0","36443359","wem/bandit_either","A37EV8RZ82WT8E","either","1","","","","","","","0","0","1","","0.02865462312","0.6","0.4","0.8","0.2","0.1923885174","0.02865462312","0.1790488899","0.1667690144","","","","","","","","","","","74","J","1","","","178","main_expt"
"862","","bandit","257","803248","0.0-218.0-0.0","36443359","wem/bandit_either","A37EV8RZ82WT8E","either","1","","","","","","","0","0","1","","0.05873937836","0.6","0.4","0.8","0.2","0.1791230597","0.05873937836","0.1254539317","0.248539666","","","","","","","","","","","74","J","1","","","179","main_expt"
"1103","","bandit","258","805857","0.0-219.0-0.0","36443359","wem/bandit_either","A37EV8RZ82WT8E","either","1","","","","","","","0","0","1","0.04996702027","","0.6","0.4","0.8","0.2","","","","","0.1641305094","0.04996702027","0.1761702366","0.2393284063","","","","","","","74","J","1","","","180","main_expt"
"750","","bandit","259","808113","0.0-220.0-0.0","36443359","wem/bandit_either","A37EV8RZ82WT8E","either","1","","","","","","","1","0","0","0.2307221343","","0.6","0.4","0.8","0.2","","","","","0.1567194189","0.06192223509","0.2307221343","0.2450765022","","","","","","","75","K","2","","","181","main_expt"
"684","","bandit","260","810305","0.0-221.0-0.0","36443359","wem/bandit_either","A37EV8RZ82WT8E","either","1","","","","","","","0","0","1","","0.2898963007","0.6","0.4","0.8","0.2","0.1805899487","0.07865608963","0.1656926355","0.2898963007","","","","","","","","","","","76","L","3","","","182","main_expt"
"30","","bandit","261","811841","0.0-222.0-0.0","36443359","wem/bandit_either","A37EV8RZ82WT8E","either","1","","","","","","","0","0","1","0.1997223474","","0.6","0.4","0.8","0.2","","","","","0.1381226487","0.0695036973","0.1997223474","0.337419987","","","","","","","75","K","2","","","183","main_expt"
"125","","bandit","262","813471","0.0-223.0-0.0","36443359","wem/bandit_either","A37EV8RZ82WT8E","either","1","","","","","","","0","0","1","","0.1157029232","0.6","0.4","0.8","0.2","0.1157029232","0.09883674892","0.1936006223","0.3334404967","","","","","","","","","","","72","H","0","img/none_selected.jpg","","184","main_expt"
"766","","bandit","263","815744","0.0-224.0-0.0","36443359","wem/bandit_either","A37EV8RZ82WT8E","either","1","","","","","","","0","0","1","","0.1344132801","0.6","0.4","0.8","0.2","0.09007466759","0.1344132801","0.1794548994","0.3049781316","","","","","","","","","","","74","J","1","","","185","main_expt"
"1","","bandit","264","817252","0.0-225.0-0.0","36443359","wem/bandit_either","A37EV8RZ82WT8E","either","1","","","","","","","0","0","1","0.1679588243","","0.6","0.4","0.8","0.2","","","","","0.07784091677","0.1194183803","0.1679588243","0.322039184","","","","","","","75","K","2","","","186","main_expt"
"153","","bandit","265","818912","0.0-226.0-0.0","36443359","wem/bandit_either","A37EV8RZ82WT8E","either","1","","","","","","","0","0","1","","0.1456002269","0.6","0.4","0.8","0.2","0.1332261693","0.1456002269","0.1692259204","0.2898485093","","","","","","","","","","","74","J","1","","","187","main_expt"
"845","","bandit","266","821264","0.0-227.0-0.0","36443359","wem/bandit_either","A37EV8RZ82WT8E","either","1","","","","","","","0","0","1","0.3046836684","","0.6","0.4","0.8","0.2","","","","","0.1302169342","0.1008589119","0.1796926114","0.3046836684","","","","","","","76","L","3","","","188","main_expt"
"574","","bandit","267","823345","0.0-228.0-0.0","36443359","wem/bandit_either","A37EV8RZ82WT8E","either","1","","","","","","","0","0","1","0.1459867673","","0.6","0.4","0.8","0.2","","","","","0.1459867673","0.09109327247","0.1463090895","0.3437642557","","","","","","","72","H","0","img/none_selected.jpg","","189","main_expt"
"1036","","bandit","268","825889","0.0-229.0-0.0","36443359","wem/bandit_either","A37EV8RZ82WT8E","either","1","","","","","","","0","0","1","","0.133333279","0.6","0.4","0.8","0.2","0.1930387326","0.133333279","0.1670442817","0.3685715368","","","","","","","","","","","74","J","1","","","190","main_expt"
"173","","bandit","269","827569","0.0-230.0-0.0","36443359","wem/bandit_either","A37EV8RZ82WT8E","either","1","","","","","","","0","0","1","","0.2148667481","0.6","0.4","0.8","0.2","0.1447045196","0.1253338948","0.2148667481","0.4063368095","","","","","","","","","","","75","K","2","","","191","main_expt"
"1","","bandit","270","829075","0.0-231.0-0.0","36443359","wem/bandit_either","A37EV8RZ82WT8E","either","1","","","","","","","0","0","1","0.1891029698","","0.6","0.4","0.8","0.2","","","","","0.1521301445","0.1371372983","0.1891029698","0.4194789623","","","","","","","75","K","2","","","192","main_expt"
"41","","bandit","271","830623","0.0-232.0-0.0","36443359","wem/bandit_either","A37EV8RZ82WT8E","either","1","","","","","","","0","1","0","","0.3914453041","0.6","0.4","0.8","0.2","0.1216552598","0.1269519223","0.1818436489","0.3914453041","","","","","","","","","","","76","L","3","","","193","main_expt"
"382","","bandit","272","832512","0.0-233.0-0.0","36443359","wem/bandit_either","A37EV8RZ82WT8E","either","1","","","","","","","0","0","1","0.07681554104","","0.6","0.4","0.8","0.2","","","","","0.07681554104","0.1253972088","0.2036833838","0.3988429791","","","","","","","72","H","0","img/none_selected.jpg","","194","main_expt"
"302","","bandit","273","834319","0.0-234.0-0.0","36443359","wem/bandit_either","A37EV8RZ82WT8E","either","1","","","","","","","0","0","1","","0.1231557279","0.6","0.4","0.8","0.2","0.07468822185","0.1231557279","0.2189502041","0.4212514022","","","","","","","","","","","74","J","1","","","195","main_expt"
"44","","bandit","274","835871","0.0-235.0-0.0","36443359","wem/bandit_either","A37EV8RZ82WT8E","either","1","","","","","","","1","0","0","0.2011136523","","0.6","0.4","0.8","0.2","","","","","0.07634526252","0.2304226507","0.2011136523","0.4128950903","","","","","","","75","K","2","","","196","main_expt"
"1710","","bandit","275","839088","0.0-236.0-0.0","36443359","wem/bandit_either","A37EV8RZ82WT8E","either","1","","","","","","","0","0","1","","0.3102822931","0.6","0.4","0.8","0.2","0.06680697181","0.3102822931","0.2295646827","0.3979973083","","","","","","","","","","","74","J","1","","","197","main_expt"
"235","","bandit","276","840830","0.0-237.0-0.0","36443359","wem/bandit_either","A37EV8RZ82WT8E","either","1","","","","","","","1","0","0","0.3153467244","","0.6","0.4","0.8","0.2","","","","","0.05107679344","0.3222054514","0.2570874699","0.3153467244","","","","","","","76","L","3","","","198","main_expt"
"478","","bandit","277","842815","0.0-238.0-0.0","36443359","wem/bandit_either","A37EV8RZ82WT8E","either","1","","","","","","","0","0","1","","0.3121882746","0.6","0.4","0.8","0.2","0.06140804873","0.3416159467","0.2215013189","0.3121882746","","","","","","","","","","","76","L","3","","","199","main_expt"
"637","","bandit","278","844959","0.0-239.0-0.0","36443359","wem/bandit_either","A37EV8RZ82WT8E","either","1","","","","","","","0","0","1","","0.3826655938","0.6","0.4","0.8","0.2","0.05697288244","0.3826655938","0.1681318695","0.3789620948","","","","","","","","","","","74","J","1","","","200","main_expt"
"2221","","bandit","279","848687","0.0-240.0-0.0","36443359","wem/bandit_either","A37EV8RZ82WT8E","either","1","","","","","","","0","0","1","","0.4117435103","0.6","0.4","0.8","0.2","0.04802221103","0.4117435103","0.1787039029","0.3575696279","","","","","","","","","","","74","J","1","","","201","main_expt"
"205","","bandit","280","850399","0.0-241.0-0.0","36443359","wem/bandit_either","A37EV8RZ82WT8E","either","1","","","","","","","0","0","1","","0.04583536071","0.6","0.4","0.8","0.2","0.04583536071","0.4023622846","0.2180442152","0.3937046418","","","","","","","","","","","72","H","0","img/none_selected.jpg","","202","main_expt"
"140","","bandit","281","852047","0.0-242.0-0.0","36443359","wem/bandit_either","A37EV8RZ82WT8E","either","1","","","","","","","0","1","0","","0.3901943722","0.6","0.4","0.8","0.2","0.03655969434","0.4225273878","0.262784421","0.3901943722","","","","","","","","","","","76","L","3","","","203","main_expt"
"174","","bandit","282","853728","0.0-243.0-0.0","36443359","wem/bandit_either","A37EV8RZ82WT8E","either","1","","","","","","","0","0","1","","0.05773518339","0.6","0.4","0.8","0.2","0.05773518339","0.4151046429","0.2843732649","0.4099131859","","","","","","","","","","","72","H","0","img/none_selected.jpg","","204","main_expt"
"3117","","bandit","283","858351","0.0-244.0-0.0","36443359","wem/bandit_either","A37EV8RZ82WT8E","either","1","","","","","","","0","0","1","","0.4288165897","0.6","0.4","0.8","0.2","0.06616346658","0.4288165897","0.2549063301","0.4238238901","","","","","","","","","","","74","J","1","","","205","main_expt"
"5806","","bandit","284","865664","0.0-245.0-0.0","36443359","wem/bandit_either","A37EV8RZ82WT8E","either","1","","","","","","","0","1","0","","0.436745712","0.6","0.4","0.8","0.2","0.09055598832","0.436745712","0.2982701688","0.4139837541","","","","","","","","","","","74","J","1","","","206","main_expt"
"11980","","bandit","285","879152","0.0-246.0-0.0","36443359","wem/bandit_either","A37EV8RZ82WT8E","either","1","","","","","","","0","1","0","","0.4484652972","0.6","0.4","0.8","0.2","0.07583085731","0.4484652972","0.3423773839","0.3544894801","","","","","","","","","","","74","J","1","","","207","main_expt"
"7212","","bandit","286","887872","0.0-247.0-0.0","36443359","wem/bandit_either","A37EV8RZ82WT8E","either","1","","","","","","","0","0","1","","0.4516947584","0.6","0.4","0.8","0.2","0.09768014643","0.4516947584","0.3321535101","0.3703609936","","","","","","","","","","","74","J","1","","","208","main_expt"
"557","","bandit","287","889936","0.0-248.0-0.0","36443359","wem/bandit_either","A37EV8RZ82WT8E","either","1","","","","","","","0","0","1","","0.3590511704","0.6","0.4","0.8","0.2","0.08389795445","0.4590139285","0.3467721984","0.3590511704","","","","","","","","","","","76","L","3","","","209","main_expt"
"12","","bandit","288","891455","0.0-249.0-0.0","36443359","wem/bandit_either","A37EV8RZ82WT8E","either","1","","","","","","","0","0","1","0.3513447539","","0.6","0.4","0.8","0.2","","","","","0.07846525543","0.4378910613","0.3513447539","0.3781523972","","","","","","","75","K","2","","","210","main_expt"
"269","","bandit","289","893231","0.0-250.0-0.0","36443359","wem/bandit_either","A37EV8RZ82WT8E","either","1","","","","","","","0","0","1","","0.3895188655","0.6","0.4","0.8","0.2","0.05906932722","0.4139384991","0.4003692624","0.3895188655","","","","","","","","","","","76","L","3","","","211","main_expt"
"1021","","bandit","290","895759","0.0-251.0-0.0","36443359","wem/bandit_either","A37EV8RZ82WT8E","either","1","","","","","","","0","0","1","","0.4075098947","0.6","0.4","0.8","0.2","0.04754192311","0.3659234609","0.3949660502","0.4075098947","","","","","","","","","","","76","L","3","","","212","main_expt"
"492","","bandit","291","897759","0.0-252.0-0.0","36443359","wem/bandit_either","A37EV8RZ82WT8E","either","1","","","","","","","0","0","1","0.3180572988","","0.6","0.4","0.8","0.2","","","","","0.05481920189","0.3180572988","0.4233479157","0.4191075236","","","","","","","74","J","1","","","213","main_expt"
"477","","bandit","292","899743","0.0-253.0-0.0","36443359","wem/bandit_either","A37EV8RZ82WT8E","either","1","","","","","","","0","1","0","","0.2611162072","0.6","0.4","0.8","0.2","0.07954578011","0.2611162072","0.4182751871","0.3799529118","","","","","","","","","","","74","J","1","","","214","main_expt"
"93","","bandit","293","901343","0.0-254.0-0.0","36443359","wem/bandit_either","A37EV8RZ82WT8E","either","1","","","","","","","0","0","1","0.3745823719","","0.6","0.4","0.8","0.2","","","","","0.1078137614","0.2331309726","0.3745823719","0.3924699069","","","","","","","75","K","2","","","215","main_expt"
"382","","bandit","294","903231","0.0-255.0-0.0","36443359","wem/bandit_either","A37EV8RZ82WT8E","either","1","","","","","","","0","0","1","","0.3556657658","0.6","0.4","0.8","0.2","0.1269525553","0.2428402293","0.3809837923","0.3556657658","","","","","","","","","","","76","L","3","","","216","main_expt"
"46","","bandit","295","904784","0.0-256.0-0.0","36443359","wem/bandit_either","A37EV8RZ82WT8E","either","1","","","","","","","0","0","1","","0.3870416945","0.6","0.4","0.8","0.2","0.1849794572","0.2317762644","0.4144294186","0.3870416945","","","","","","","","","","","76","L","3","","","217","main_expt"
"3852","","bandit","296","910144","0.0-257.0-0.0","36443359","wem/bandit_either","A37EV8RZ82WT8E","either","1","","","","","","","0","0","1","","0.204309912","0.6","0.4","0.8","0.2","0.1903787706","0.204309912","0.4090742927","0.3944581396","","","","","","","","","","","74","J","1","","","218","main_expt"
"605","","bandit","297","912255","0.0-258.0-0.0","36443359","wem/bandit_either","A37EV8RZ82WT8E","either","1","","","","","","","0","0","1","0.3869695378","","0.6","0.4","0.8","0.2","","","","","0.1768508397","0.1685596251","0.3869695378","0.4256173987","","","","","","","75","K","2","","","219","main_expt"
"764","","bandit","298","914527","0.0-259.0-0.0","36443359","wem/bandit_either","A37EV8RZ82WT8E","either","1","","","","","","","0","1","0","","0.2488487331","0.6","0.4","0.8","0.2","0.2176561852","0.2488487331","0.3814250035","0.4240862242","","","","","","","","","","","74","J","1","","","220","main_expt"
"45","","bandit","299","916078","0.0-260.0-0.0","36443359","wem/bandit_either","A37EV8RZ82WT8E","either","1","","","","","","","0","0","1","0.4364702466","","0.6","0.4","0.8","0.2","","","","","0.2075488201","0.2789816034","0.3560431311","0.4364702466","","","","","","","76","L","3","","","221","main_expt"
"445","","bandit","300","918030","0.0-261.0-0.0","36443359","wem/bandit_either","A37EV8RZ82WT8E","either","1","","","","","","","0","0","1","","0.242729834","0.6","0.4","0.8","0.2","0.2260831429","0.242729834","0.3424215647","0.4512924842","","","","","","","","","","","74","J","1","","","222","main_expt"
"430","","bandit","301","919967","0.0-262.0-0.0","36443359","wem/bandit_either","A37EV8RZ82WT8E","either","1","","","","","","","0","1","0","","0.196538567","0.6","0.4","0.8","0.2","0.2512075751","0.196538567","0.3118962833","0.4649948574","","","","","","","","","","","74","J","1","","","223","main_expt"
"685","","bandit","302","922160","0.0-263.0-0.0","36443359","wem/bandit_either","A37EV8RZ82WT8E","either","1","","","","","","","0","0","1","","0.3072691987","0.6","0.4","0.8","0.2","0.3072691987","0.2189223785","0.261290028","0.4692106987","","","","","","","","","","","72","H","0","img/none_selected.jpg","","224","main_expt"
"123","","bandit","303","923792","0.0-264.0-0.0","36443359","wem/bandit_either","A37EV8RZ82WT8E","either","1","","","","","","","0","0","1","","0.4772226815","0.6","0.4","0.8","0.2","0.3358063032","0.2131207899","0.2748104332","0.4772226815","","","","","","","","","","","76","L","3","","","225","main_expt"
"588","","bandit","304","925887","0.0-265.0-0.0","36443359","wem/bandit_either","A37EV8RZ82WT8E","either","1","","","","","","","0","0","1","","0.187439681","0.6","0.4","0.8","0.2","0.2994610032","0.187439681","0.2112523614","0.4828013869","","","","","","","","","","","74","J","1","","","226","main_expt"
"540","","bandit","305","927934","0.0-266.0-0.0","36443359","wem/bandit_either","A37EV8RZ82WT8E","either","1","","","","","","","0","1","0","","0.1522087394","0.6","0.4","0.8","0.2","0.2719992041","0.1522087394","0.1879164098","0.4805292857","","","","","","","","","","","74","J","1","","","227","main_expt"
"78","","bandit","306","929519","0.0-267.0-0.0","36443359","wem/bandit_either","A37EV8RZ82WT8E","either","1","","","","","","","0","0","1","","0.1975586059","0.6","0.4","0.8","0.2","0.2601066631","0.1975586059","0.1857646906","0.4770879938","","","","","","","","","","","74","J","1","","","228","main_expt"
"1","","bandit","307","931027","0.0-268.0-0.0","36443359","wem/bandit_either","A37EV8RZ82WT8E","either","1","","","","","","","0","1","0","","0.4830225504","0.6","0.4","0.8","0.2","0.2333982712","0.2280604414","0.1608888173","0.4830225504","","","","","","","","","","","76","L","3","","","229","main_expt"
"105","","bandit","308","932638","0.0-269.0-0.0","36443359","wem/bandit_either","A37EV8RZ82WT8E","either","1","","","","","","","0","0","1","","0.1139945837","0.6","0.4","0.8","0.2","0.2179366985","0.2120359748","0.1139945837","0.4827210916","","","","","","","","","","","75","K","2","","","230","main_expt"
"349","","bandit","309","934494","0.0-270.0-0.0","36443359","wem/bandit_either","A37EV8RZ82WT8E","either","1","","","","","","","0","0","1","","0.4764813513","0.6","0.4","0.8","0.2","0.210335649","0.2260377558","0.1071229599","0.4764813513","","","","","","","","","","","76","L","3","","","231","main_expt"
"1118","","bandit","310","937120","0.0-271.0-0.0","36443359","wem/bandit_either","A37EV8RZ82WT8E","either","1","","","","","","","0","0","1","","0.2154905401","0.6","0.4","0.8","0.2","0.2154905401","0.2810037348","0.1250262501","0.4794978353","","","","","","","","","","","72","H","0","img/none_selected.jpg","","232","main_expt"
"731","","bandit","311","939358","0.0-272.0-0.0","36443359","wem/bandit_either","A37EV8RZ82WT8E","either","1","","","","","","","0","0","1","0.2199054097","","0.6","0.4","0.8","0.2","","","","","0.2199054097","0.3371590923","0.1262657767","0.4717583679","","","","","","","72","H","0","img/none_selected.jpg","","233","main_expt"
"222","","bandit","312","941086","0.0-273.0-0.0","36443359","wem/bandit_either","A37EV8RZ82WT8E","either","1","","","","","","","1","0","0","0.1436583916","","0.6","0.4","0.8","0.2","","","","","0.2116885818","0.2614597929","0.1436583916","0.4801470087","","","","","","","75","K","2","","","234","main_expt"
"1917","","bandit","313","944510","0.0-274.0-0.0","36443359","wem/bandit_either","A37EV8RZ82WT8E","either","1","","","","","","","0","0","1","0.2855471023","","0.6","0.4","0.8","0.2","","","","","0.2037112673","0.2855471023","0.1776605917","0.4698449305","","","","","","","74","J","1","","","235","main_expt"
"684","","bandit","314","946702","0.0-275.0-0.0","36443359","wem/bandit_either","A37EV8RZ82WT8E","either","1","","","","","","","0","0","1","0.2806831757","","0.6","0.4","0.8","0.2","","","","","0.2295670059","0.2806831757","0.2039581082","0.4750890902","","","","","","","74","J","1","","","236","main_expt"
"286","","bandit","315","948495","0.0-276.0-0.0","36443359","wem/bandit_either","A37EV8RZ82WT8E","either","1","","","","","","","0","1","0","","0.490873849","0.6","0.4","0.8","0.2","0.2602584061","0.3314479917","0.1898025468","0.490873849","","","","","","","","","","","76","L","3","","","237","main_expt"
"235","","bandit","316","950240","0.0-277.0-0.0","36443359","wem/bandit_either","A37EV8RZ82WT8E","either","1","","","","","","","0","0","1","","0.2505035884","0.6","0.4","0.8","0.2","0.2505035884","0.3495093658","0.20274426","0.4658125052","","","","","","","","","","","72","H","0","img/none_selected.jpg","","238","main_expt"
"77","","bandit","317","951824","0.0-278.0-0.0","36443359","wem/bandit_either","A37EV8RZ82WT8E","either","1","","","","","","","0","0","1","0.209031891","","0.6","0.4","0.8","0.2","","","","","0.209031891","0.3413466471","0.2051086292","0.4717810478","","","","","","","72","H","0","img/none_selected.jpg","","239","main_expt"
"396","","bandit","318","953728","0.0-279.0-0.0","36443359","wem/bandit_either","A37EV8RZ82WT8E","either","1","","","","","","","0","0","1","0.1823871945","","0.6","0.4","0.8","0.2","","","","","0.2203826704","0.3848911707","0.1823871945","0.4751676635","","","","","","","75","K","2","","","240","main_expt"
"605","","bandit","319","955841","0.0-280.0-0.0","36443359","wem/bandit_either","A37EV8RZ82WT8E","either","1","","","","","","","0","1","0","","0.4782176083","0.6","0.4","0.8","0.2","0.2502218434","0.3352713547","0.2206124516","0.4782176083","","","","","","","","","","","76","L","3","","","241","main_expt"
"827","","bandit","320","958175","0.0-281.0-0.0","36443359","wem/bandit_either","A37EV8RZ82WT8E","either","1","","","","","","","1","0","0","0.4842593171","","0.6","0.4","0.8","0.2","","","","","0.2465850657","0.3898112853","0.1822231347","0.4842593171","","","","","","","76","L","3","","","242","main_expt"
"653","","bandit","321","960335","0.0-282.0-0.0","36443359","wem/bandit_either","A37EV8RZ82WT8E","either","1","","","","","","","0","1","0","","0.3746092993","0.6","0.4","0.8","0.2","0.2768687636","0.3746092993","0.1782216913","0.4877308522","","","","","","","","","","","74","J","1","","","243","main_expt"
"1022","","bandit","322","962865","0.0-283.0-0.0","36443359","wem/bandit_either","A37EV8RZ82WT8E","either","1","","","","","","","0","1","0","","0.4867000748","0.6","0.4","0.8","0.2","0.3318130554","0.3551642001","0.1683297066","0.4867000748","","","","","","","","","","","76","L","3","","","244","main_expt"
"396","","bandit","323","964767","0.0-284.0-0.0","36443359","wem/bandit_either","A37EV8RZ82WT8E","either","1","","","","","","","1","0","0","0.2394915997","","0.6","0.4","0.8","0.2","","","","","0.3549389872","0.3556023966","0.2394915997","0.4779689664","","","","","","","75","K","2","","","245","main_expt"
"1583","","bandit","324","967856","0.0-285.0-0.0","36443359","wem/bandit_either","A37EV8RZ82WT8E","either","1","","","","","","","0","0","1","0.3265039954","","0.6","0.4","0.8","0.2","","","","","0.333301522","0.3265039954","0.2279590519","0.4691428495","","","","","","","74","J","1","","","246","main_expt"
"651","","bandit","325","970015","0.0-286.0-0.0","36443359","wem/bandit_either","A37EV8RZ82WT8E","either","1","","","","","","","0","0","1","0.2464238951","","0.6","0.4","0.8","0.2","","","","","0.3514606933","0.2868106963","0.2464238951","0.4726686318","","","","","","","75","K","2","","","247","main_expt"
"2748","","bandit","326","974271","0.0-287.0-0.0","36443359","wem/bandit_either","A37EV8RZ82WT8E","either","1","","","","","","","0","0","1","0.3714826816","","0.6","0.4","0.8","0.2","","","","","0.3714826816","0.3185934195","0.2743013104","0.4803067915","","","","","","","72","H","0","img/none_selected.jpg","","248","main_expt"
"1582","","bandit","327","977359","0.0-288.0-0.0","36443359","wem/bandit_either","A37EV8RZ82WT8E","either","1","","","","","","","1","0","0","0.386783615","","0.6","0.4","0.8","0.2","","","","","0.386783615","0.358181829","0.265015958","0.4711679289","","","","","","","72","H","0","img/none_selected.jpg","","249","main_expt"
"1451","","bandit","328","980320","0.0-289.0-0.0","36443359","wem/bandit_either","A37EV8RZ82WT8E","either","1","","","","","","","0","0","1","0.401921917","","0.6","0.4","0.8","0.2","","","","","0.401921917","0.3548152509","0.2414596854","0.4353456883","","","","","","","72","H","0","img/none_selected.jpg","","250","main_expt"
"605","","bandit","329","982431","0.0-290.0-0.0","36443359","wem/bandit_either","A37EV8RZ82WT8E","either","1","","","","","","","0","0","1","0.3481631732","","0.6","0.4","0.8","0.2","","","","","0.4214807698","0.3481631732","0.2747351927","0.4224206017","","","","","","","74","J","1","","","251","main_expt"
"637","","bandit","330","984575","0.0-291.0-0.0","36443359","wem/bandit_either","A37EV8RZ82WT8E","either","1","","","","","","","0","0","1","","0.4171240554","0.6","0.4","0.8","0.2","0.3562017588","0.3357984296","0.2814651432","0.4171240554","","","","","","","","","","","76","L","3","","","252","main_expt"
"1100","","bandit","331","987183","0.0-292.0-0.0","36443359","wem/bandit_either","A37EV8RZ82WT8E","either","1","","","","","","","0","0","1","","0.2585495719","0.6","0.4","0.8","0.2","0.2749590952","0.2585495719","0.2185424791","0.4255780754","","","","","","","","","","","74","J","1","","","253","main_expt"
"413","","bandit","332","989104","0.0-293.0-0.0","36443359","wem/bandit_either","A37EV8RZ82WT8E","either","1","","","","","","","0","0","1","0.2898909049","","0.6","0.4","0.8","0.2","","","","","0.2898909049","0.2503838878","0.1714714561","0.4183488494","","","","","","","72","H","0","img/none_selected.jpg","","254","main_expt"
"538","","bandit","333","991153","0.0-294.0-0.0","36443359","wem/bandit_either","A37EV8RZ82WT8E","either","1","","","","","","","0","0","1","0.1407879831","","0.6","0.4","0.8","0.2","","","","","0.3175460208","0.3011071058","0.1407879831","0.3767889497","","","","","","","75","K","2","","","255","main_expt"
