"rt","responses","trial_type","trial_index","time_elapsed","internal_node_id","subjID","study","MID","cond","drift","key_press","expt_phase","target","like","value","connected","gems","bombs","no_reward","GemPrChosen","BombPrChosen","GainOverPainPr_0","GainOverPainPr_1","GainOverPainPr_2","GainOverPainPr_3","LosePr_0","LosePr_1","LosePr_2","LosePr_3","WinPr_0","WinPr_1","WinPr_2","WinPr_3","Q0","Q1","Q2","gender","age","ethnicity","respCharCode","respKey","respChoiceNum","respChoice","practice","trial_counter","trial_label"
"1810","{""Q0"":""A3PYEW6693PCHT""}","survey-text","0","1822","0.0-0.0","36674978","wem/bandit_either","A3PYEW6693PCHT","either","5","","","","","","","","","","","","","","","","","","","","","","","","","","","","","","","","","","","",""
"12587","","text","1","15414","0.0-1.0","36674978","wem/bandit_either","A3PYEW6693PCHT","either","5","32","","","","","","","","","","","","","","","","","","","","","","","","","","","","","","","","","","",""
"6375","","text","2","21791","0.0-2.0","36674978","wem/bandit_either","A3PYEW6693PCHT","either","5","32","","","","","","","","","","","","","","","","","","","","","","","","","","","","","","","","","","",""
"13267","","text","3","35060","0.0-3.0","36674978","wem/bandit_either","A3PYEW6693PCHT","either","5","32","","","","","","","","","","","","","","","","","","","","","","","","","","","","","","","","","","",""
"12654","","text","4","47716","0.0-4.0","36674978","wem/bandit_either","A3PYEW6693PCHT","either","5","32","","","","","","","","","","","","","","","","","","","","","","","","","","","","","","","","","","",""
"19082","","text","5","66798","0.0-5.0","36674978","wem/bandit_either","A3PYEW6693PCHT","either","5","32","","","","","","","","","","","","","","","","","","","","","","","","","","","","","","","","","","",""
"5115","","text","6","71914","0.0-6.0","36674978","wem/bandit_either","A3PYEW6693PCHT","either","5","32","","","","","","","","","","","","","","","","","","","","","","","","","","","","","","","","","","",""
"3521","","text","7","75438","0.0-7.0","36674978","wem/bandit_either","A3PYEW6693PCHT","either","5","32","","","","","","","","","","","","","","","","","","","","","","","","","","","","","","","","","","",""
"8439","","identification","8","83908","0.0-8.0-0.0","36674978","wem/bandit_either","A3PYEW6693PCHT","either","5","","identification_pre","the village of Zur","","","","","","","","","","","","","","","","","","","","","","","","","","","","","","","","",""
"8569","","identification","9","93500","0.0-8.0-1.0","36674978","wem/bandit_either","A3PYEW6693PCHT","either","5","","identification_pre","the village of Nyx","","","","","","","","","","","","","","","","","","","","","","","","","","","","","","","","",""
"4989","","text","10","99493","0.0-9.0","36674978","wem/bandit_either","A3PYEW6693PCHT","either","5","32","","","","","","","","","","","","","","","","","","","","","","","","","","","","","","","","","","",""
"2774","","text","11","102270","0.0-10.0","36674978","wem/bandit_either","A3PYEW6693PCHT","either","5","32","","","","","","","","","","","","","","","","","","","","","","","","","","","","","","","","","","",""
"1630","","text","12","103902","0.0-11.0","36674978","wem/bandit_either","A3PYEW6693PCHT","either","5","32","","","","","","","","","","","","","","","","","","","","","","","","","","","","","","","","","","",""
"4637","","text","13","108541","0.0-12.0","36674978","wem/bandit_either","A3PYEW6693PCHT","either","5","32","","","","","","","","","","","","","","","","","","","","","","","","","","","","","","","","","","",""
"1410","","bandit","14","111460","0.0-13.0-0.0","36674978","wem/bandit_either","A3PYEW6693PCHT","either","5","","","","","","","0","0","1","0","0","","","","","0","","","","0","","","","","","","","","","74","J","0","img/none_selected_demo.jpg","true","0",""
"1747","","bandit","15","114722","0.0-14.0-0.0","36674978","wem/bandit_either","A3PYEW6693PCHT","either","5","","","","","","","0","0","1","0","0","","","","","0","","","","0","","","","","","","","","","75","K","0","img/none_selected_demo.jpg","true","0",""
"6880","","text","16","121605","0.0-15.0","36674978","wem/bandit_either","A3PYEW6693PCHT","either","5","32","","","","","","","","","","","","","","","","","","","","","","","","","","","","","","","","","","",""
"8914","","text","17","130521","0.0-16.0","36674978","wem/bandit_either","A3PYEW6693PCHT","either","5","32","","","","","","","","","","","","","","","","","","","","","","","","","","","","","","","","","","",""
"6075","","text","18","136600","0.0-17.0","36674978","wem/bandit_either","A3PYEW6693PCHT","either","5","32","","","","","","","","","","","","","","","","","","","","","","","","","","","","","","","","","","",""
"4430","","text","19","141032","0.0-18.0","36674978","wem/bandit_either","A3PYEW6693PCHT","either","5","32","","","","","","","","","","","","","","","","","","","","","","","","","","","","","","","","","","",""
"992","","bandit","20","143534","0.0-19.0-0.0","36674978","wem/bandit_either","A3PYEW6693PCHT","either","5","","","","","","","0","1","0","","0.8","0.5","0.5","","","0.8","0.2","","","","","","","","","","","","","74","J","0","img/none_selected_demo.jpg","true","0","80_20_practice"
"1041","","bandit","21","146082","0.0-19.0-1.0","36674978","wem/bandit_either","A3PYEW6693PCHT","either","5","","","","","","","0","1","0","","0.8","0.5","0.5","","","0.8","0.2","","","","","","","","","","","","","74","J","0","img/none_selected_demo.jpg","true","0","80_20_practice"
"1597","","bandit","22","149187","0.0-19.0-2.0","36674978","wem/bandit_either","A3PYEW6693PCHT","either","5","","","","","","","0","0","1","0.8","","0.5","0.5","","","","","","","0.8","0.2","","","","","","","","","74","J","0","img/none_selected_demo.jpg","true","0","80_20_practice"
"828","","bandit","23","151529","0.0-19.0-3.0","36674978","wem/bandit_either","A3PYEW6693PCHT","either","5","","","","","","","0","0","1","","0.8","0.5","0.5","","","0.8","0.2","","","","","","","","","","","","","74","J","0","img/none_selected_demo.jpg","true","0","80_20_practice"
"608","","bandit","24","153651","0.0-19.0-4.0","36674978","wem/bandit_either","A3PYEW6693PCHT","either","5","","","","","","","0","1","0","","0.2","0.5","0.5","","","0.8","0.2","","","","","","","","","","","","","75","K","1","","true","0","80_20_practice"
"583","","bandit","25","155743","0.0-19.0-5.0","36674978","wem/bandit_either","A3PYEW6693PCHT","either","5","","","","","","","0","0","1","0.2","","0.5","0.5","","","","","","","0.8","0.2","","","","","","","","","75","K","1","","true","0","80_20_practice"
"497","","bandit","26","157747","0.0-19.0-6.0","36674978","wem/bandit_either","A3PYEW6693PCHT","either","5","","","","","","","1","0","0","0.2","","0.5","0.5","","","","","","","0.8","0.2","","","","","","","","","75","K","1","","true","0","80_20_practice"
"557","","bandit","27","159814","0.0-19.0-7.0","36674978","wem/bandit_either","A3PYEW6693PCHT","either","5","","","","","","","0","0","1","","0.2","0.5","0.5","","","0.8","0.2","","","","","","","","","","","","","75","K","1","","true","0","80_20_practice"
"529","","bandit","28","161850","0.0-19.0-8.0","36674978","wem/bandit_either","A3PYEW6693PCHT","either","5","","","","","","","0","0","1","0.2","","0.5","0.5","","","","","","","0.8","0.2","","","","","","","","","75","K","1","","true","0","80_20_practice"
"502","","bandit","29","163859","0.0-19.0-9.0","36674978","wem/bandit_either","A3PYEW6693PCHT","either","5","","","","","","","1","0","0","0.8","","0.5","0.5","","","","","","","0.8","0.2","","","","","","","","","74","J","0","img/none_selected_demo.jpg","true","0","80_20_practice"
"424","","bandit","30","165794","0.0-19.0-10.0","36674978","wem/bandit_either","A3PYEW6693PCHT","either","5","","","","","","","1","0","0","0.8","","0.5","0.5","","","","","","","0.8","0.2","","","","","","","","","74","J","0","img/none_selected_demo.jpg","true","0","80_20_practice"
"602","","bandit","31","167905","0.0-19.0-11.0","36674978","wem/bandit_either","A3PYEW6693PCHT","either","5","","","","","","","1","0","0","0.8","","0.5","0.5","","","","","","","0.8","0.2","","","","","","","","","74","J","0","img/none_selected_demo.jpg","true","0","80_20_practice"
"477","","bandit","32","169890","0.0-19.0-12.0","36674978","wem/bandit_either","A3PYEW6693PCHT","either","5","","","","","","","0","1","0","","0.8","0.5","0.5","","","0.8","0.2","","","","","","","","","","","","","74","J","0","img/none_selected_demo.jpg","true","0","80_20_practice"
"640","","bandit","33","172043","0.0-19.0-13.0","36674978","wem/bandit_either","A3PYEW6693PCHT","either","5","","","","","","","0","1","0","","0.8","0.5","0.5","","","0.8","0.2","","","","","","","","","","","","","74","J","0","img/none_selected_demo.jpg","true","0","80_20_practice"
"578","","bandit","34","174142","0.0-19.0-14.0","36674978","wem/bandit_either","A3PYEW6693PCHT","either","5","","","","","","","0","1","0","","0.8","0.5","0.5","","","0.8","0.2","","","","","","","","","","","","","74","J","0","img/none_selected_demo.jpg","true","0","80_20_practice"
"674","","bandit","35","176325","0.0-19.0-15.0","36674978","wem/bandit_either","A3PYEW6693PCHT","either","5","","","","","","","0","1","0","","0.8","0.5","0.5","","","0.8","0.2","","","","","","","","","","","","","74","J","0","img/none_selected_demo.jpg","true","0","80_20_practice"
"772","","bandit","36","178604","0.0-19.0-16.0","36674978","wem/bandit_either","A3PYEW6693PCHT","either","5","","","","","","","0","1","0","","0.8","0.5","0.5","","","0.8","0.2","","","","","","","","","","","","","74","J","0","img/none_selected_demo.jpg","true","0","80_20_practice"
"695","","bandit","37","180811","0.0-19.0-17.0","36674978","wem/bandit_either","A3PYEW6693PCHT","either","5","","","","","","","1","0","0","0.8","","0.5","0.5","","","","","","","0.8","0.2","","","","","","","","","74","J","0","img/none_selected_demo.jpg","true","0","80_20_practice"
"745","","bandit","38","183070","0.0-19.0-18.0","36674978","wem/bandit_either","A3PYEW6693PCHT","either","5","","","","","","","0","0","1","0.8","","0.5","0.5","","","","","","","0.8","0.2","","","","","","","","","74","J","0","img/none_selected_demo.jpg","true","0","80_20_practice"
"768","","bandit","39","185350","0.0-19.0-19.0","36674978","wem/bandit_either","A3PYEW6693PCHT","either","5","","","","","","","0","1","0","","0.8","0.5","0.5","","","0.8","0.2","","","","","","","","","","","","","74","J","0","img/none_selected_demo.jpg","true","0","80_20_practice"
"3913","","text","40","189269","0.0-20.0","36674978","wem/bandit_either","A3PYEW6693PCHT","either","5","32","","","","","","","","","","","","","","","","","","","","","","","","","","","","","","","","","","",""
"1217","","bandit","41","191995","0.0-21.0-0.0","36674978","wem/bandit_either","A3PYEW6693PCHT","either","5","","","","","","","1","0","0","1","0","","","","","0","1","","","1","0","","","","","","","","","74","J","0","img/none_selected_demo.jpg","true","0",""
"4888","","text","42","196887","0.0-22.0","36674978","wem/bandit_either","A3PYEW6693PCHT","either","5","32","","","","","","","","","","","","","","","","","","","","","","","","","","","","","","","","","","",""
"2272","","text","43","199161","0.0-23.0","36674978","wem/bandit_either","A3PYEW6693PCHT","either","5","32","","","","","","","","","","","","","","","","","","","","","","","","","","","","","","","","","","",""
"2093","","text","44","201258","0.0-24.0","36674978","wem/bandit_either","A3PYEW6693PCHT","either","5","32","","","","","","","","","","","","","","","","","","","","","","","","","","","","","","","","","","",""
"2534","","text","45","203796","0.0-25.0","36674978","wem/bandit_either","A3PYEW6693PCHT","either","5","32","","","","","","","","","","","","","","","","","","","","","","","","","","","","","","","","","","",""
"7852","","text","46","211652","0.0-26.0","36674978","wem/bandit_either","A3PYEW6693PCHT","either","5","32","","","","","","","","","","","","","","","","","","","","","","","","","","","","","","","","","","",""
"1902","","text","47","213556","0.0-27.0","36674978","wem/bandit_either","A3PYEW6693PCHT","either","5","32","","","","","","","","","","","","","","","","","","","","","","","","","","","","","","","","","","",""
"3853","","text","48","217413","0.0-28.0","36674978","wem/bandit_either","A3PYEW6693PCHT","either","5","32","","","","","","","","","","","","","","","","","","","","","","","","","","","","","","","","","","",""
"2432","","text","49","219848","0.0-29.0","36674978","wem/bandit_either","A3PYEW6693PCHT","either","5","32","","","","","","","","","","","","","","","","","","","","","","","","","","","","","","","","","","",""
"4389","","text","50","224239","0.0-30.0","36674978","wem/bandit_either","A3PYEW6693PCHT","either","5","32","","","","","","","","","","","","","","","","","","","","","","","","","","","","","","","","","","",""
"1343","","text","51","225586","0.0-31.0","36674978","wem/bandit_either","A3PYEW6693PCHT","either","5","32","","","","","","","","","","","","","","","","","","","","","","","","","","","","","","","","","","",""
"1916","","text","52","227506","0.0-32.0","36674978","wem/bandit_either","A3PYEW6693PCHT","either","5","32","","","","","","","","","","","","","","","","","","","","","","","","","","","","","","","","","","",""
"887","","bandit","53","229904","0.0-33.0-0.0","36674978","wem/bandit_either","A3PYEW6693PCHT","either","5","","","","","","","0","1","0","","0.8","0.5","0.5","0.5","0.5","0.8","0.2","0.6","0.2","","","","","","","","","","","72","H","0","img/none_selected.jpg","true","0","full_practice"
"347","","bandit","54","231763","0.0-33.0-1.0","36674978","wem/bandit_either","A3PYEW6693PCHT","either","5","","","","","","","0","1","0","","0.8","0.5","0.5","0.5","0.5","0.8","0.2","0.6","0.2","","","","","","","","","","","72","H","0","img/none_selected.jpg","true","0","full_practice"
"366","","bandit","55","233641","0.0-33.0-2.0","36674978","wem/bandit_either","A3PYEW6693PCHT","either","5","","","","","","","0","0","1","0.8","","0.5","0.5","0.5","0.5","","","","","0.8","0.2","0.6","0.2","","","","","","","72","H","0","img/none_selected.jpg","true","0","full_practice"
"431","","bandit","56","235581","0.0-33.0-3.0","36674978","wem/bandit_either","A3PYEW6693PCHT","either","5","","","","","","","0","0","1","0.8","","0.5","0.5","0.5","0.5","","","","","0.8","0.2","0.6","0.2","","","","","","","72","H","0","img/none_selected.jpg","true","0","full_practice"
"248","","bandit","57","237336","0.0-33.0-4.0","36674978","wem/bandit_either","A3PYEW6693PCHT","either","5","","","","","","","0","0","1","0.2","","0.5","0.5","0.5","0.5","","","","","0.8","0.2","0.6","0.2","","","","","","","74","J","1","","true","0","full_practice"
"200","","bandit","58","239045","0.0-33.0-5.0","36674978","wem/bandit_either","A3PYEW6693PCHT","either","5","","","","","","","0","0","1","0.2","","0.5","0.5","0.5","0.5","","","","","0.8","0.2","0.6","0.2","","","","","","","74","J","1","","true","0","full_practice"
"329","","bandit","59","240887","0.0-33.0-6.0","36674978","wem/bandit_either","A3PYEW6693PCHT","either","5","","","","","","","0","0","1","","0.2","0.5","0.5","0.5","0.5","0.8","0.2","0.6","0.2","","","","","","","","","","","74","J","1","","true","0","full_practice"
"503","","bandit","60","242897","0.0-33.0-7.0","36674978","wem/bandit_either","A3PYEW6693PCHT","either","5","","","","","","","0","1","0","","0.6","0.5","0.5","0.5","0.5","0.8","0.2","0.6","0.2","","","","","","","","","","","75","K","2","","true","0","full_practice"
"230","","bandit","61","244638","0.0-33.0-8.0","36674978","wem/bandit_either","A3PYEW6693PCHT","either","5","","","","","","","1","0","0","0.6","","0.5","0.5","0.5","0.5","","","","","0.8","0.2","0.6","0.2","","","","","","","75","K","2","","true","0","full_practice"
"765","","bandit","62","246917","0.0-33.0-9.0","36674978","wem/bandit_either","A3PYEW6693PCHT","either","5","","","","","","","0","1","0","","0.6","0.5","0.5","0.5","0.5","0.8","0.2","0.6","0.2","","","","","","","","","","","75","K","2","","true","0","full_practice"
"544","","bandit","63","248974","0.0-33.0-10.0","36674978","wem/bandit_either","A3PYEW6693PCHT","either","5","","","","","","","0","0","1","","0.6","0.5","0.5","0.5","0.5","0.8","0.2","0.6","0.2","","","","","","","","","","","75","K","2","","true","0","full_practice"
"446","","bandit","64","250927","0.0-33.0-11.0","36674978","wem/bandit_either","A3PYEW6693PCHT","either","5","","","","","","","0","0","1","0.2","","0.5","0.5","0.5","0.5","","","","","0.8","0.2","0.6","0.2","","","","","","","76","L","3","","true","0","full_practice"
"331","","bandit","65","252767","0.0-33.0-12.0","36674978","wem/bandit_either","A3PYEW6693PCHT","either","5","","","","","","","0","0","1","0.2","","0.5","0.5","0.5","0.5","","","","","0.8","0.2","0.6","0.2","","","","","","","76","L","3","","true","0","full_practice"
"400","","bandit","66","254680","0.0-33.0-13.0","36674978","wem/bandit_either","A3PYEW6693PCHT","either","5","","","","","","","0","0","1","0.2","","0.5","0.5","0.5","0.5","","","","","0.8","0.2","0.6","0.2","","","","","","","76","L","3","","true","0","full_practice"
"284","","bandit","67","256473","0.0-33.0-14.0","36674978","wem/bandit_either","A3PYEW6693PCHT","either","5","","","","","","","0","0","1","","0.2","0.5","0.5","0.5","0.5","0.8","0.2","0.6","0.2","","","","","","","","","","","76","L","3","","true","0","full_practice"
"328","","bandit","68","258309","0.0-33.0-15.0","36674978","wem/bandit_either","A3PYEW6693PCHT","either","5","","","","","","","0","0","1","0.8","","0.5","0.5","0.5","0.5","","","","","0.8","0.2","0.6","0.2","","","","","","","72","H","0","img/none_selected.jpg","true","0","full_practice"
"338","","bandit","69","260162","0.0-33.0-16.0","36674978","wem/bandit_either","A3PYEW6693PCHT","either","5","","","","","","","0","1","0","","0.8","0.5","0.5","0.5","0.5","0.8","0.2","0.6","0.2","","","","","","","","","","","72","H","0","img/none_selected.jpg","true","0","full_practice"
"368","","bandit","70","262039","0.0-33.0-17.0","36674978","wem/bandit_either","A3PYEW6693PCHT","either","5","","","","","","","0","0","1","","0.6","0.5","0.5","0.5","0.5","0.8","0.2","0.6","0.2","","","","","","","","","","","75","K","2","","true","0","full_practice"
"220","","bandit","71","263770","0.0-33.0-18.0","36674978","wem/bandit_either","A3PYEW6693PCHT","either","5","","","","","","","0","0","1","0.6","","0.5","0.5","0.5","0.5","","","","","0.8","0.2","0.6","0.2","","","","","","","75","K","2","","true","0","full_practice"
"439","","bandit","72","265723","0.0-33.0-19.0","36674978","wem/bandit_either","A3PYEW6693PCHT","either","5","","","","","","","0","0","1","0.6","","0.5","0.5","0.5","0.5","","","","","0.8","0.2","0.6","0.2","","","","","","","75","K","2","","true","0","full_practice"
"2451","","text","73","268201","0.0-34.0","36674978","wem/bandit_either","A3PYEW6693PCHT","either","5","32","","","","","","","","","","","","","","","","","","","","","","","","","","","","","","","","","","",""
"10671","","text","74","279880","0.0-35.0","36674978","wem/bandit_either","A3PYEW6693PCHT","either","5","32","","","","","","","","","","","","","","","","","","","","","","","","","","","","","","","","","","",""
"8410","","text","75","288295","0.0-36.0","36674978","wem/bandit_either","A3PYEW6693PCHT","either","5","32","","","","","","","","","","","","","","","","","","","","","","","","","","","","","","","","","","",""
"4708","","text","76","293007","0.0-37.0","36674978","wem/bandit_either","A3PYEW6693PCHT","either","5","32","","","","","","","","","","","","","","","","","","","","","","","","","","","","","","","","","","",""
"3553","","text","77","296564","0.0-38.0","36674978","wem/bandit_either","A3PYEW6693PCHT","either","5","32","","","","","","","","","","","","","","","","","","","","","","","","","","","","","","","","","","",""
"3831","","text","78","300400","0.0-39.0","36674978","wem/bandit_either","A3PYEW6693PCHT","either","5","32","","","","","","","","","","","","","","","","","","","","","","","","","","","","","","","","","","",""
"1440","","bandit","79","303350","0.0-40.0-0.0","36674978","wem/bandit_either","A3PYEW6693PCHT","either","5","","","","","","","0","0","1","0.4265570961","","0.8","0.6","0.2","0.4","","","","","0.4265570961","0.3340388524","0.1165465043","0.3897275569","","","","","","","72","H","0","img/none_selected.jpg","","1","main_expt"
"293","","bandit","80","305153","0.0-41.0-0.0","36674978","wem/bandit_either","A3PYEW6693PCHT","either","5","","","","","","","1","0","0","0.4177099958","","0.8","0.6","0.2","0.4","","","","","0.4177099958","0.3223834482","0.08371899021","0.3911966266","","","","","","","72","H","0","img/none_selected.jpg","","2","main_expt"
"444","","bandit","81","307117","0.0-42.0-0.0","36674978","wem/bandit_either","A3PYEW6693PCHT","either","5","","","","","","","0","1","0","","0.4192185534","0.8","0.6","0.2","0.4","0.4192185534","0.3585509001","0.04339790364","0.4074861021","","","","","","","","","","","72","H","0","img/none_selected.jpg","","3","main_expt"
"429","","bandit","82","309058","0.0-43.0-0.0","36674978","wem/bandit_either","A3PYEW6693PCHT","either","5","","","","","","","0","0","1","0.4241610434","","0.8","0.6","0.2","0.4","","","","","0.4241610434","0.3416436242","0.04073472785","0.3965638453","","","","","","","72","H","0","img/none_selected.jpg","","4","main_expt"
"352","","bandit","83","310922","0.0-44.0-0.0","36674978","wem/bandit_either","A3PYEW6693PCHT","either","5","","","","","","","0","0","1","0.3444758892","","0.8","0.6","0.2","0.4","","","","","0.4284837315","0.3444758892","0.04731773769","0.3688269119","","","","","","","74","J","1","","","5","main_expt"
"329","","bandit","84","312764","0.0-45.0-0.0","36674978","wem/bandit_either","A3PYEW6693PCHT","either","5","","","","","","","1","0","0","0.3574177426","","0.8","0.6","0.2","0.4","","","","","0.4328708062","0.3574177426","0.05617088868","0.3865867917","","","","","","","74","J","1","","","6","main_expt"
"540","","bandit","85","314816","0.0-46.0-0.0","36674978","wem/bandit_either","A3PYEW6693PCHT","either","5","","","","","","","0","0","1","","0.3634052143","0.8","0.6","0.2","0.4","0.4176545671","0.3634052143","0.05606577856","0.4294719924","","","","","","","","","","","74","J","1","","","7","main_expt"
"511","","bandit","86","316839","0.0-47.0-0.0","36674978","wem/bandit_either","A3PYEW6693PCHT","either","5","","","","","","","0","0","1","","0.3675420607","0.8","0.6","0.2","0.4","0.4022395488","0.3675420607","0.09244853328","0.4210378118","","","","","","","","","","","74","J","1","","","8","main_expt"
"322","","bandit","87","318674","0.0-48.0-0.0","36674978","wem/bandit_either","A3PYEW6693PCHT","either","5","","","","","","","0","0","1","","0.1271341085","0.8","0.6","0.2","0.4","0.3929004949","0.3921196104","0.1271341085","0.4502112583","","","","","","","","","","","75","K","2","","","9","main_expt"
"318","","bandit","88","320509","0.0-49.0-0.0","36674978","wem/bandit_either","A3PYEW6693PCHT","either","5","","","","","","","0","0","1","0.1370717255","","0.8","0.6","0.2","0.4","","","","","0.3863711448","0.4026182126","0.1370717255","0.4452653155","","","","","","","75","K","2","","","10","main_expt"
"319","","bandit","89","322346","0.0-50.0-0.0","36674978","wem/bandit_either","A3PYEW6693PCHT","either","5","","","","","","","0","0","1","","0.1275050207","0.8","0.6","0.2","0.4","0.4205849279","0.3543069494","0.1275050207","0.4352349267","","","","","","","","","","","75","K","2","","","11","main_expt"
"271","","bandit","90","324127","0.0-51.0-0.0","36674978","wem/bandit_either","A3PYEW6693PCHT","either","5","","","","","","","0","0","1","","0.122317004","0.8","0.6","0.2","0.4","0.4525069231","0.3504097904","0.122317004","0.4029030639","","","","","","","","","","","75","K","2","","","12","main_expt"
"250","","bandit","91","325886","0.0-52.0-0.0","36674978","wem/bandit_either","A3PYEW6693PCHT","either","5","","","","","","","1","0","0","0.4198147105","","0.8","0.6","0.2","0.4","","","","","0.4485799753","0.2787441393","0.1251711411","0.4198147105","","","","","","","76","L","3","","","13","main_expt"
"269","","bandit","92","327665","0.0-53.0-0.0","36674978","wem/bandit_either","A3PYEW6693PCHT","either","5","","","","","","","0","1","0","","0.3761312174","0.8","0.6","0.2","0.4","0.4504049656","0.2723245106","0.1380641988","0.3761312174","","","","","","","","","","","76","L","3","","","14","main_expt"
"363","","bandit","93","329539","0.0-54.0-0.0","36674978","wem/bandit_either","A3PYEW6693PCHT","either","5","","","","","","","1","0","0","0.4017507227","","0.8","0.6","0.2","0.4","","","","","0.4281165459","0.3687644442","0.2010812313","0.4017507227","","","","","","","76","L","3","","","15","main_expt"
"272","","bandit","94","331330","0.0-55.0-0.0","36674978","wem/bandit_either","A3PYEW6693PCHT","either","5","","","","","","","1","0","0","0.3859888637","","0.8","0.6","0.2","0.4","","","","","0.4035101098","0.3992289848","0.1747275657","0.3859888637","","","","","","","76","L","3","","","16","main_expt"
"346","","bandit","95","333186","0.0-56.0-0.0","36674978","wem/bandit_either","A3PYEW6693PCHT","either","5","","","","","","","1","0","0","0.3706978481","","0.8","0.6","0.2","0.4","","","","","0.4063691663","0.4067061876","0.1816524112","0.3706978481","","","","","","","76","L","3","","","17","main_expt"
"329","","bandit","96","335029","0.0-57.0-0.0","36674978","wem/bandit_either","A3PYEW6693PCHT","either","5","","","","","","","1","0","0","0.3323991027","","0.8","0.6","0.2","0.4","","","","","0.4201618032","0.3969002131","0.1700798448","0.3323991027","","","","","","","76","L","3","","","18","main_expt"
"388","","bandit","97","336933","0.0-58.0-0.0","36674978","wem/bandit_either","A3PYEW6693PCHT","either","5","","","","","","","1","0","0","0.3868389751","","0.8","0.6","0.2","0.4","","","","","0.3868389751","0.3930099592","0.1998500639","0.3301718366","","","","","","","72","H","0","img/none_selected.jpg","","19","main_expt"
"384","","bandit","98","338828","0.0-59.0-0.0","36674978","wem/bandit_either","A3PYEW6693PCHT","either","5","","","","","","","0","1","0","","0.3868875991","0.8","0.6","0.2","0.4","0.3868875991","0.3791602553","0.2418808817","0.3714618997","","","","","","","","","","","72","H","0","img/none_selected.jpg","","20","main_expt"
"349","","bandit","99","340688","0.0-60.0-0.0","36674978","wem/bandit_either","A3PYEW6693PCHT","either","5","","","","","","","0","1","0","","0.4253770554","0.8","0.6","0.2","0.4","0.4253770554","0.4127515201","0.2293341009","0.3621694591","","","","","","","","","","","72","H","0","img/none_selected.jpg","","21","main_expt"
"460","","bandit","100","342663","0.0-61.0-0.0","36674978","wem/bandit_either","A3PYEW6693PCHT","either","5","","","","","","","0","1","0","","0.4285762007","0.8","0.6","0.2","0.4","0.4285762007","0.4164833055","0.2074184163","0.3648829928","","","","","","","","","","","72","H","0","img/none_selected.jpg","","22","main_expt"
"475","","bandit","101","344649","0.0-62.0-0.0","36674978","wem/bandit_either","A3PYEW6693PCHT","either","5","","","","","","","0","1","0","","0.4082522222","0.8","0.6","0.2","0.4","0.4082522222","0.4143027846","0.1832507358","0.2856994719","","","","","","","","","","","72","H","0","img/none_selected.jpg","","23","main_expt"
"485","","bandit","102","346647","0.0-63.0-0.0","36674978","wem/bandit_either","A3PYEW6693PCHT","either","5","","","","","","","0","0","1","0.4027270218","","0.8","0.6","0.2","0.4","","","","","0.4027270218","0.3649270698","0.1469425149","0.3152516524","","","","","","","72","H","0","img/none_selected.jpg","","24","main_expt"
"435","","bandit","103","348591","0.0-64.0-0.0","36674978","wem/bandit_either","A3PYEW6693PCHT","either","5","","","","","","","0","0","1","","0.2778145345","0.8","0.6","0.2","0.4","0.4100212433","0.392676409","0.102794739","0.2778145345","","","","","","","","","","","76","L","3","","","25","main_expt"
"452","","bandit","104","350560","0.0-65.0-0.0","36674978","wem/bandit_either","A3PYEW6693PCHT","either","5","","","","","","","1","0","0","0.3170506137","","0.8","0.6","0.2","0.4","","","","","0.4190791169","0.4031565401","0.1173732637","0.3170506137","","","","","","","76","L","3","","","26","main_expt"
"326","","bandit","105","352400","0.0-66.0-0.0","36674978","wem/bandit_either","A3PYEW6693PCHT","either","5","","","","","","","1","0","0","0.3223143746","","0.8","0.6","0.2","0.4","","","","","0.4527212376","0.4245959001","0.08835016803","0.3223143746","","","","","","","76","L","3","","","27","main_expt"
"511","","bandit","106","354424","0.0-67.0-0.0","36674978","wem/bandit_either","A3PYEW6693PCHT","either","5","","","","","","","0","0","1","","0.3234472479","0.8","0.6","0.2","0.4","0.4480998813","0.4232885055","0.1134440288","0.3234472479","","","","","","","","","","","76","L","3","","","28","main_expt"
"497","","bandit","107","356434","0.0-68.0-0.0","36674978","wem/bandit_either","A3PYEW6693PCHT","either","5","","","","","","","0","0","1","","0.2881425904","0.8","0.6","0.2","0.4","0.4628669208","0.4495512981","0.1982905849","0.2881425904","","","","","","","","","","","76","L","3","","","29","main_expt"
"242","","bandit","108","358187","0.0-69.0-0.0","36674978","wem/bandit_either","A3PYEW6693PCHT","either","5","","","","","","","0","0","1","0.4565655028","","0.8","0.6","0.2","0.4","","","","","0.4565655028","0.4485299892","0.2366655967","0.2326555855","","","","","","","72","H","0","img/none_selected.jpg","","30","main_expt"
"260","","bandit","109","359964","0.0-70.0-0.0","36674978","wem/bandit_either","A3PYEW6693PCHT","either","5","","","","","","","0","0","1","0.4686031056","","0.8","0.6","0.2","0.4","","","","","0.4686031056","0.4599237238","0.1622470467","0.2364604256","","","","","","","72","H","0","img/none_selected.jpg","","31","main_expt"
"288","","bandit","110","361762","0.0-71.0-0.0","36674978","wem/bandit_either","A3PYEW6693PCHT","either","5","","","","","","","0","0","1","0.4508116693","","0.8","0.6","0.2","0.4","","","","","0.4659582456","0.4508116693","0.1771911602","0.2451982598","","","","","","","74","J","1","","","32","main_expt"
"242","","bandit","111","363516","0.0-72.0-0.0","36674978","wem/bandit_either","A3PYEW6693PCHT","either","5","","","","","","","0","0","1","","0.1622836308","0.8","0.6","0.2","0.4","0.4810757035","0.45101727","0.1622836308","0.2360369815","","","","","","","","","","","75","K","2","","","33","main_expt"
"220","","bandit","112","365246","0.0-73.0-0.0","36674978","wem/bandit_either","A3PYEW6693PCHT","either","5","","","","","","","0","0","1","","0.1655985557","0.8","0.6","0.2","0.4","0.4842727378","0.4340174653","0.1655985557","0.2317763892","","","","","","","","","","","75","K","2","","","34","main_expt"
"285","","bandit","113","367046","0.0-74.0-0.0","36674978","wem/bandit_either","A3PYEW6693PCHT","either","5","","","","","","","0","0","1","","0.4040147441","0.8","0.6","0.2","0.4","0.4745470136","0.4040147441","0.1492797185","0.2527891731","","","","","","","","","","","74","J","1","","","35","main_expt"
"247","","bandit","114","368805","0.0-75.0-0.0","36674978","wem/bandit_either","A3PYEW6693PCHT","either","5","","","","","","","0","1","0","","0.2641283143","0.8","0.6","0.2","0.4","0.4440965139","0.4268829696","0.1504543003","0.2641283143","","","","","","","","","","","76","L","3","","","36","main_expt"
"206","","bandit","115","370533","0.0-76.0-0.0","36674978","wem/bandit_either","A3PYEW6693PCHT","either","5","","","","","","","0","0","1","0.2309310423","","0.8","0.6","0.2","0.4","","","","","0.4544425755","0.4562327564","0.1064249526","0.2309310423","","","","","","","76","L","3","","","37","main_expt"
"344","","bandit","116","372390","0.0-77.0-0.0","36674978","wem/bandit_either","A3PYEW6693PCHT","either","5","","","","","","","0","0","1","0.2093170459","","0.8","0.6","0.2","0.4","","","","","0.4700138218","0.4481627861","0.1346530267","0.2093170459","","","","","","","76","L","3","","","38","main_expt"
"288","","bandit","117","374189","0.0-78.0-0.0","36674978","wem/bandit_either","A3PYEW6693PCHT","either","5","","","","","","","0","1","0","","0.466948448","0.8","0.6","0.2","0.4","0.466948448","0.4475890948","0.1303494481","0.1398625959","","","","","","","","","","","72","H","0","img/none_selected.jpg","","39","main_expt"
"409","","bandit","118","376122","0.0-79.0-0.0","36674978","wem/bandit_either","A3PYEW6693PCHT","either","5","","","","","","","0","0","1","0.4679256248","","0.8","0.6","0.2","0.4","","","","","0.4679256248","0.4501575696","0.1492074344","0.09690087606","","","","","","","72","H","0","img/none_selected.jpg","","40","main_expt"
"543","","bandit","119","378184","0.0-80.0-0.0","36674978","wem/bandit_either","A3PYEW6693PCHT","either","5","","","","","","","1","0","0","0.445537573","","0.8","0.6","0.2","0.4","","","","","0.445537573","0.4121884666","0.1370672299","0.1129569356","","","","","","","72","H","0","img/none_selected.jpg","","41","main_expt"
"367","","bandit","120","380062","0.0-81.0-0.0","36674978","wem/bandit_either","A3PYEW6693PCHT","either","5","","","","","","","0","0","1","0.4521531226","","0.8","0.6","0.2","0.4","","","","","0.4521531226","0.4379939247","0.08144147181","0.1227033228","","","","","","","72","H","0","img/none_selected.jpg","","42","main_expt"
"238","","bandit","121","381813","0.0-82.0-0.0","36674978","wem/bandit_either","A3PYEW6693PCHT","either","5","","","","","","","0","0","1","","0.08393287497","0.8","0.6","0.2","0.4","0.4695072217","0.4271747655","0.06793865388","0.08393287497","","","","","","","","","","","76","L","3","","","43","main_expt"
"241","","bandit","122","383568","0.0-83.0-0.0","36674978","wem/bandit_either","A3PYEW6693PCHT","either","5","","","","","","","0","0","1","","0.06260074275","0.8","0.6","0.2","0.4","0.4807409838","0.4480494518","0.05295344446","0.06260074275","","","","","","","","","","","76","L","3","","","44","main_expt"
"325","","bandit","123","385412","0.0-84.0-0.0","36674978","wem/bandit_either","A3PYEW6693PCHT","either","5","","","","","","","0","0","1","0.08062123592","","0.8","0.6","0.2","0.4","","","","","0.4507048108","0.4269729589","0.02744239742","0.08062123592","","","","","","","76","L","3","","","45","main_expt"
"288","","bandit","124","387211","0.0-85.0-0.0","36674978","wem/bandit_either","A3PYEW6693PCHT","either","5","","","","","","","0","0","1","","0.1110847749","0.8","0.6","0.2","0.4","0.4382321206","0.4475746277","0.02347437243","0.1110847749","","","","","","","","","","","76","L","3","","","46","main_expt"
"255","","bandit","125","388982","0.0-86.0-0.0","36674978","wem/bandit_either","A3PYEW6693PCHT","either","5","","","","","","","0","0","1","0.4393937913","","0.8","0.6","0.2","0.4","","","","","0.4393937913","0.4295618238","0.02418160198","0.05346849493","","","","","","","72","H","0","img/none_selected.jpg","","47","main_expt"
"357","","bandit","126","390853","0.0-87.0-0.0","36674978","wem/bandit_either","A3PYEW6693PCHT","either","5","","","","","","","0","0","1","0.440318131","","0.8","0.6","0.2","0.4","","","","","0.440318131","0.4431907244","0.01182676654","0.04499733497","","","","","","","72","H","0","img/none_selected.jpg","","48","main_expt"
"277","","bandit","127","392640","0.0-88.0-0.0","36674978","wem/bandit_either","A3PYEW6693PCHT","either","5","","","","","","","0","0","1","","0.4187732916","0.8","0.6","0.2","0.4","0.4362102412","0.4187732916","0.0186287842","0.07378534534","","","","","","","","","","","74","J","1","","","49","main_expt"
"99","","bandit","128","394254","0.0-89.0-0.0","36674978","wem/bandit_either","A3PYEW6693PCHT","either","5","","","","","","","0","1","0","","0.02550629551","0.8","0.6","0.2","0.4","0.44488671","0.356579213","0.02550629551","0.06168845619","","","","","","","","","","","75","K","2","","","50","main_expt"
"237","","bandit","129","396011","0.0-90.0-0.0","36674978","wem/bandit_either","A3PYEW6693PCHT","either","5","","","","","","","0","0","1","","0.04366809707","0.8","0.6","0.2","0.4","0.4633405548","0.2629404955","0.04366809707","0.1062028567","","","","","","","","","","","75","K","2","","","51","main_expt"
"217","","bandit","130","397747","0.0-91.0-0.0","36674978","wem/bandit_either","A3PYEW6693PCHT","either","5","","","","","","","0","0","1","0.1379608546","","0.8","0.6","0.2","0.4","","","","","0.4528043762","0.2919747068","0.04357168116","0.1379608546","","","","","","","76","L","3","","","52","main_expt"
"226","","bandit","131","399482","0.0-92.0-0.0","36674978","wem/bandit_either","A3PYEW6693PCHT","either","5","","","","","","","1","0","0","0.4390431751","","0.8","0.6","0.2","0.4","","","","","0.4390431751","0.3809901122","0.03899227154","0.1356826849","","","","","","","72","H","0","img/none_selected.jpg","","53","main_expt"
"223","","bandit","132","401216","0.0-93.0-0.0","36674978","wem/bandit_either","A3PYEW6693PCHT","either","5","","","","","","","0","1","0","","0.4549270822","0.8","0.6","0.2","0.4","0.4549270822","0.3452518694","0.04009146386","0.1038772241","","","","","","","","","","","72","H","0","img/none_selected.jpg","","54","main_expt"
"264","","bandit","133","402999","0.0-94.0-0.0","36674978","wem/bandit_either","A3PYEW6693PCHT","either","5","","","","","","","1","0","0","0.4710341864","","0.8","0.6","0.2","0.4","","","","","0.4710341864","0.3263112327","0.0155768565","0.1689791829","","","","","","","72","H","0","img/none_selected.jpg","","55","main_expt"
"368","","bandit","134","404893","0.0-95.0-0.0","36674978","wem/bandit_either","A3PYEW6693PCHT","either","5","","","","","","","1","0","0","0.4745834276","","0.8","0.6","0.2","0.4","","","","","0.4745834276","0.3308963945","0.02112461672","0.1108888145","","","","","","","72","H","0","img/none_selected.jpg","","56","main_expt"
"326","","bandit","135","406734","0.0-96.0-0.0","36674978","wem/bandit_either","A3PYEW6693PCHT","either","5","","","","","","","0","0","1","0.489318572","","0.8","0.6","0.2","0.4","","","","","0.489318572","0.3150326571","0.0126553198","0.1206542402","","","","","","","72","H","0","img/none_selected.jpg","","57","main_expt"
"279","","bandit","136","408528","0.0-97.0-0.0","36674978","wem/bandit_either","A3PYEW6693PCHT","either","5","","","","","","","0","0","1","0.480037986","","0.8","0.6","0.2","0.4","","","","","0.480037986","0.3049116772","0.01131359515","0.09707343937","","","","","","","72","H","0","img/none_selected.jpg","","58","main_expt"
"339","","bandit","137","410380","0.0-98.0-0.0","36674978","wem/bandit_either","A3PYEW6693PCHT","either","5","","","","","","","0","0","1","0.4593461039","","0.8","0.6","0.2","0.4","","","","","0.4593461039","0.3050987947","0.01030075821","0.1044384952","","","","","","","72","H","0","img/none_selected.jpg","","59","main_expt"
"190","","bandit","138","412083","0.0-99.0-0.0","36674978","wem/bandit_either","A3PYEW6693PCHT","either","5","","","","","","","0","0","1","","0.08890369623","0.8","0.6","0.2","0.4","0.446051488","0.3274009355","0.005868957973","0.08890369623","","","","","","","","","","","76","L","3","","","60","main_expt"
"277","","bandit","139","413878","0.0-100.0-0.0","36674978","wem/bandit_either","A3PYEW6693PCHT","either","5","","","","","","","0","0","1","","0.4391285327","0.8","0.6","0.2","0.4","0.4391285327","0.3428943983","0.004361943215","0.08921221942","","","","","","","","","","","72","H","0","img/none_selected.jpg","","61","main_expt"
"224","","bandit","140","415617","0.0-101.0-0.0","36674978","wem/bandit_either","A3PYEW6693PCHT","either","5","","","","","","","0","0","1","","0.09812025034","0.8","0.6","0.2","0.4","0.4063883723","0.3549763931","0.005208412743","0.09812025034","","","","","","","","","","","76","L","3","","","62","main_expt"
"239","","bandit","141","417369","0.0-102.0-0.0","36674978","wem/bandit_either","A3PYEW6693PCHT","either","5","","","","","","","0","0","1","","0.3496678451","0.8","0.6","0.2","0.4","0.4330387396","0.3496678451","0.006461011255","0.09006279409","","","","","","","","","","","74","J","1","","","63","main_expt"
"153","","bandit","142","419038","0.0-103.0-0.0","36674978","wem/bandit_either","A3PYEW6693PCHT","either","5","","","","","","","0","0","1","","0.01267926231","0.8","0.6","0.2","0.4","0.4207902426","0.3188537263","0.01267926231","0.1118976224","","","","","","","","","","","75","K","2","","","64","main_expt"
"204","","bandit","143","420753","0.0-104.0-0.0","36674978","wem/bandit_either","A3PYEW6693PCHT","either","5","","","","","","","0","0","1","0.009732787917","","0.8","0.6","0.2","0.4","","","","","0.3719582347","0.3191795336","0.009732787917","0.1053817613","","","","","","","75","K","2","","","65","main_expt"
"192","","bandit","144","422457","0.0-105.0-0.0","36674978","wem/bandit_either","A3PYEW6693PCHT","either","5","","","","","","","0","0","1","","0.1307356695","0.8","0.6","0.2","0.4","0.3748569955","0.268616347","0.01092542651","0.1307356695","","","","","","","","","","","76","L","3","","","66","main_expt"
"166","","bandit","145","424137","0.0-106.0-0.0","36674978","wem/bandit_either","A3PYEW6693PCHT","either","5","","","","","","","0","0","1","","0.1418436428","0.8","0.6","0.2","0.4","0.335252031","0.259194563","0.02125534741","0.1418436428","","","","","","","","","","","76","L","3","","","67","main_expt"
"594","","bandit","146","426248","0.0-107.0-0.0","36674978","wem/bandit_either","A3PYEW6693PCHT","either","5","","","","","","","0","0","1","","0.1459089566","0.8","0.6","0.2","0.4","0.3199157278","0.2281204868","0.02360283027","0.1459089566","","","","","","","","","","","76","L","3","","","68","main_expt"
"89","","bandit","147","427851","0.0-108.0-0.0","36674978","wem/bandit_either","A3PYEW6693PCHT","either","5","","","","","","","0","0","1","0.3068525281","","0.8","0.6","0.2","0.4","","","","","0.3068525281","0.2195844169","0.02539305756","0.1809721424","","","","","","","72","H","0","img/none_selected.jpg","","69","main_expt"
"248","","bandit","148","429611","0.0-109.0-0.0","36674978","wem/bandit_either","A3PYEW6693PCHT","either","5","","","","","","","0","0","1","0.3181076016","","0.8","0.6","0.2","0.4","","","","","0.3181076016","0.1883338509","0.05014388586","0.1784068974","","","","","","","72","H","0","img/none_selected.jpg","","70","main_expt"
"259","","bandit","149","431383","0.0-110.0-0.0","36674978","wem/bandit_either","A3PYEW6693PCHT","either","5","","","","","","","0","1","0","","0.1639708178","0.8","0.6","0.2","0.4","0.2926426422","0.1639708178","0.04209054697","0.1973023396","","","","","","","","","","","74","J","1","","","71","main_expt"
"159","","bandit","150","433064","0.0-111.0-0.0","36674978","wem/bandit_either","A3PYEW6693PCHT","either","5","","","","","","","0","0","1","0.1312842785","","0.8","0.6","0.2","0.4","","","","","0.2380263643","0.1312842785","0.05611199342","0.2436342847","","","","","","","74","J","1","","","72","main_expt"
"218","","bandit","151","434802","0.0-112.0-0.0","36674978","wem/bandit_either","A3PYEW6693PCHT","either","5","","","","","","","0","0","1","","0.05293238473","0.8","0.6","0.2","0.4","0.2407197948","0.1805041857","0.05293238473","0.1992173182","","","","","","","","","","","75","K","2","","","73","main_expt"
"98","","bandit","152","436417","0.0-113.0-0.0","36674978","wem/bandit_either","A3PYEW6693PCHT","either","5","","","","","","","0","0","1","","0.0318456884","0.8","0.6","0.2","0.4","0.2317468449","0.1739557812","0.0318456884","0.2347098304","","","","","","","","","","","75","K","2","","","74","main_expt"
"143","","bandit","153","438073","0.0-114.0-0.0","36674978","wem/bandit_either","A3PYEW6693PCHT","either","5","","","","","","","0","0","1","","0.2641442137","0.8","0.6","0.2","0.4","0.2545997551","0.2434916027","0.03873230677","0.2641442137","","","","","","","","","","","76","L","3","","","75","main_expt"
"135","","bandit","154","439725","0.0-115.0-0.0","36674978","wem/bandit_either","A3PYEW6693PCHT","either","5","","","","","","","0","0","1","0.3192644053","","0.8","0.6","0.2","0.4","","","","","0.2890845388","0.2438468568","0.03304947682","0.3192644053","","","","","","","76","L","3","","","76","main_expt"
"93","","bandit","155","441332","0.0-116.0-0.0","36674978","wem/bandit_either","A3PYEW6693PCHT","either","5","","","","","","","0","0","1","0.2386362654","","0.8","0.6","0.2","0.4","","","","","0.2386362654","0.2425324642","0.02607887458","0.3351132613","","","","","","","72","H","0","img/none_selected.jpg","","77","main_expt"
"191","","bandit","156","443037","0.0-117.0-0.0","36674978","wem/bandit_either","A3PYEW6693PCHT","either","5","","","","","","","0","0","1","","0.2673679704","0.8","0.6","0.2","0.4","0.2673679704","0.205588479","0.02492981692","0.3086784207","","","","","","","","","","","72","H","0","img/none_selected.jpg","","78","main_expt"
"242","","bandit","157","444796","0.0-118.0-0.0","36674978","wem/bandit_either","A3PYEW6693PCHT","either","5","","","","","","","1","0","0","0.2813811921","","0.8","0.6","0.2","0.4","","","","","0.2813811921","0.213062191","0.01824110002","0.3076482073","","","","","","","72","H","0","img/none_selected.jpg","","79","main_expt"
"392","","bandit","158","446706","0.0-119.0-0.0","36674978","wem/bandit_either","A3PYEW6693PCHT","either","5","","","","","","","0","0","1","0.2419447949","","0.8","0.6","0.2","0.4","","","","","0.2419447949","0.1852926048","0.0202176162","0.3605025214","","","","","","","72","H","0","img/none_selected.jpg","","80","main_expt"
"363","","bandit","159","448592","0.0-120.0-0.0","36674978","wem/bandit_either","A3PYEW6693PCHT","either","5","","","","","","","1","0","0","0.3286166321","","0.8","0.6","0.2","0.4","","","","","0.323481111","0.2332942271","0.0252752587","0.3286166321","","","","","","","76","L","3","","","81","main_expt"
"526","","bandit","160","450643","0.0-121.0-0.0","36674978","wem/bandit_either","A3PYEW6693PCHT","either","5","","","","","","","0","0","1","","0.3459677762","0.8","0.6","0.2","0.4","0.3097244961","0.2087797338","0.05668457717","0.3459677762","","","","","","","","","","","76","L","3","","","82","main_expt"
"170","","bandit","161","452331","0.0-122.0-0.0","36674978","wem/bandit_either","A3PYEW6693PCHT","either","5","","","","","","","0","1","0","","0.2787498647","0.8","0.6","0.2","0.4","0.2787498647","0.2049979043","0.07760530004","0.3092751195","","","","","","","","","","","72","H","0","img/none_selected.jpg","","83","main_expt"
"308","","bandit","162","454155","0.0-123.0-0.0","36674978","wem/bandit_either","A3PYEW6693PCHT","either","5","","","","","","","0","0","1","0.2589524449","","0.8","0.6","0.2","0.4","","","","","0.2589524449","0.2151780091","0.03696005566","0.3044630387","","","","","","","72","H","0","img/none_selected.jpg","","84","main_expt"
"480","","bandit","163","456152","0.0-124.0-0.0","36674978","wem/bandit_either","A3PYEW6693PCHT","either","5","","","","","","","0","0","1","0.1497615914","","0.8","0.6","0.2","0.4","","","","","0.2769318636","0.1497615914","0.04177257934","0.2812480587","","","","","","","74","J","1","","","85","main_expt"
"276","","bandit","164","457943","0.0-125.0-0.0","36674978","wem/bandit_either","A3PYEW6693PCHT","either","5","","","","","","","0","0","1","","0.1223687677","0.8","0.6","0.2","0.4","0.2849222391","0.1223687677","0.0385770192","0.2506532223","","","","","","","","","","","74","J","1","","","86","main_expt"
"240","","bandit","165","459697","0.0-126.0-0.0","36674978","wem/bandit_either","A3PYEW6693PCHT","either","5","","","","","","","0","0","1","0.03720252147","","0.8","0.6","0.2","0.4","","","","","0.3131087309","0.1472857413","0.03720252147","0.2269900387","","","","","","","75","K","2","","","87","main_expt"
"138","","bandit","166","461350","0.0-127.0-0.0","36674978","wem/bandit_either","A3PYEW6693PCHT","either","5","","","","","","","0","0","1","","0.06746059371","0.8","0.6","0.2","0.4","0.3038587512","0.1252586248","0.06746059371","0.1504729919","","","","","","","","","","","75","K","2","","","88","main_expt"
"5","","bandit","167","462871","0.0-128.0-0.0","36674978","wem/bandit_either","A3PYEW6693PCHT","either","5","","","","","","","0","0","1","","0.1382070302","0.8","0.6","0.2","0.4","0.3308022157","0.1194927994","0.04069757945","0.1382070302","","","","","","","","","","","76","L","3","","","89","main_expt"
"576","","bandit","168","464959","0.0-129.0-0.0","36674978","wem/bandit_either","A3PYEW6693PCHT","either","5","","","","","","","0","0","1","","0.1364765349","0.8","0.6","0.2","0.4","0.3574922351","0.1589750007","0.07325379503","0.1364765349","","","","","","","","","","","76","L","3","","","90","main_expt"
"425","","bandit","169","466904","0.0-130.0-0.0","36674978","wem/bandit_either","A3PYEW6693PCHT","either","5","","","","","","","0","0","1","","0.09318196272","0.8","0.6","0.2","0.4","0.3729517688","0.1859960426","0.06877471811","0.09318196272","","","","","","","","","","","76","L","3","","","91","main_expt"
"421","","bandit","170","468837","0.0-131.0-0.0","36674978","wem/bandit_either","A3PYEW6693PCHT","either","5","","","","","","","0","0","1","","0.06946097624","0.8","0.6","0.2","0.4","0.398352994","0.192419488","0.04115987362","0.06946097624","","","","","","","","","","","76","L","3","","","92","main_expt"
"161","","bandit","171","470512","0.0-132.0-0.0","36674978","wem/bandit_either","A3PYEW6693PCHT","either","5","","","","","","","1","0","0","0.4135860398","","0.8","0.6","0.2","0.4","","","","","0.4135860398","0.1716033463","0.07078892783","0.08102832817","","","","","","","72","H","0","img/none_selected.jpg","","93","main_expt"
"254","","bandit","172","472289","0.0-133.0-0.0","36674978","wem/bandit_either","A3PYEW6693PCHT","either","5","","","","","","","1","0","0","0.3786880174","","0.8","0.6","0.2","0.4","","","","","0.3786880174","0.1935897604","0.05572868433","0.1271360848","","","","","","","72","H","0","img/none_selected.jpg","","94","main_expt"
"355","","bandit","173","474165","0.0-134.0-0.0","36674978","wem/bandit_either","A3PYEW6693PCHT","either","5","","","","","","","0","0","1","0.3823424718","","0.8","0.6","0.2","0.4","","","","","0.3823424718","0.2193228015","0.05056929995","0.1097592989","","","","","","","72","H","0","img/none_selected.jpg","","95","main_expt"
"416","","bandit","174","476103","0.0-135.0-0.0","36674978","wem/bandit_either","A3PYEW6693PCHT","either","5","","","","","","","0","0","1","","0.3642725552","0.8","0.6","0.2","0.4","0.3642725552","0.3262643469","0.04159874267","0.1085490834","","","","","","","","","","","72","H","0","img/none_selected.jpg","","96","main_expt"
"375","","bandit","175","477995","0.0-136.0-0.0","36674978","wem/bandit_either","A3PYEW6693PCHT","either","5","","","","","","","0","0","1","0.3197717944","","0.8","0.6","0.2","0.4","","","","","0.3197717944","0.3207405496","0.03654451862","0.1049812554","","","","","","","72","H","0","img/none_selected.jpg","","97","main_expt"
"603","","bandit","176","480112","0.0-137.0-0.0","36674978","wem/bandit_either","A3PYEW6693PCHT","either","5","","","","","","","0","0","1","0.2514424369","","0.8","0.6","0.2","0.4","","","","","0.2514424369","0.3712856991","0.04190300095","0.08177978443","","","","","","","72","H","0","img/none_selected.jpg","","98","main_expt"
"218","","bandit","177","481851","0.0-138.0-0.0","36674978","wem/bandit_either","A3PYEW6693PCHT","either","5","","","","","","","0","0","1","","0.07574087804","0.8","0.6","0.2","0.4","0.2926772137","0.3740145378","0.08742990617","0.07574087804","","","","","","","","","","","76","L","3","","","99","main_expt"
"152","","bandit","178","483515","0.0-139.0-0.0","36674978","wem/bandit_either","A3PYEW6693PCHT","either","5","","","","","","","0","0","1","","0.07829319678","0.8","0.6","0.2","0.4","0.234485335","0.3776295542","0.08966523481","0.07829319678","","","","","","","","","","","76","L","3","","","100","main_expt"
"3","","bandit","179","485038","0.0-140.0-0.0","36674978","wem/bandit_either","A3PYEW6693PCHT","either","5","","","","","","","0","0","1","0.3592666398","","0.8","0.6","0.2","0.4","","","","","0.250352175","0.3592666398","0.07849065771","0.07919243683","","","","","","","74","J","1","","","101","main_expt"
"176","","bandit","180","486733","0.0-141.0-0.0","36674978","wem/bandit_either","A3PYEW6693PCHT","either","5","","","","","","","0","0","1","0.1054267613","","0.8","0.6","0.2","0.4","","","","","0.2139972863","0.3412191773","0.1054267613","0.1052753188","","","","","","","75","K","2","","","102","main_expt"
"291","","bandit","181","488539","0.0-142.0-0.0","36674978","wem/bandit_either","A3PYEW6693PCHT","either","5","","","","","","","0","0","1","0.1120981937","","0.8","0.6","0.2","0.4","","","","","0.20092706","0.3133100433","0.1120981937","0.1248526142","","","","","","","75","K","2","","","103","main_expt"
"248","","bandit","182","490310","0.0-143.0-0.0","36674978","wem/bandit_either","A3PYEW6693PCHT","either","5","","","","","","","1","0","0","0.3219148419","","0.8","0.6","0.2","0.4","","","","","0.2305366804","0.3219148419","0.1034740879","0.142969925","","","","","","","74","J","1","","","104","main_expt"
"235","","bandit","183","492066","0.0-144.0-0.0","36674978","wem/bandit_either","A3PYEW6693PCHT","either","5","","","","","","","0","0","1","0.3300892518","","0.8","0.6","0.2","0.4","","","","","0.2102135581","0.3300892518","0.07597240327","0.13947254","","","","","","","74","J","1","","","105","main_expt"
"222","","bandit","184","493809","0.0-145.0-0.0","36674978","wem/bandit_either","A3PYEW6693PCHT","either","5","","","","","","","0","0","1","","0.1124257427","0.8","0.6","0.2","0.4","0.2219457329","0.3401839058","0.1124257427","0.1329526997","","","","","","","","","","","75","K","2","","","106","main_expt"
"227","","bandit","185","495557","0.0-146.0-0.0","36674978","wem/bandit_either","A3PYEW6693PCHT","either","5","","","","","","","0","0","1","","0.1727290233","0.8","0.6","0.2","0.4","0.3048423019","0.3784706915","0.1133168519","0.1727290233","","","","","","","","","","","76","L","3","","","107","main_expt"
"33","","bandit","186","497114","0.0-147.0-0.0","36674978","wem/bandit_either","A3PYEW6693PCHT","either","5","","","","","","","0","0","1","","0.1864487031","0.8","0.6","0.2","0.4","0.258150515","0.3945753887","0.1752395656","0.1864487031","","","","","","","","","","","76","L","3","","","108","main_expt"
"520","","bandit","187","499155","0.0-148.0-0.0","36674978","wem/bandit_either","A3PYEW6693PCHT","either","5","","","","","","","1","0","0","0.1859129148","","0.8","0.6","0.2","0.4","","","","","0.1859129148","0.356827327","0.1862973424","0.2463216238","","","","","","","72","H","0","img/none_selected.jpg","","109","main_expt"
"563","","bandit","188","501244","0.0-149.0-0.0","36674978","wem/bandit_either","A3PYEW6693PCHT","either","5","","","","","","","0","0","1","0.1371624404","","0.8","0.6","0.2","0.4","","","","","0.1371624404","0.2344179837","0.2015845776","0.2431522628","","","","","","","72","H","0","img/none_selected.jpg","","110","main_expt"
"327","","bandit","189","503090","0.0-150.0-0.0","36674978","wem/bandit_either","A3PYEW6693PCHT","either","5","","","","","","","0","1","0","","0.1757476643","0.8","0.6","0.2","0.4","0.1258232978","0.2644823096","0.2003651753","0.1757476643","","","","","","","","","","","76","L","3","","","111","main_expt"
"189","","bandit","190","504796","0.0-151.0-0.0","36674978","wem/bandit_either","A3PYEW6693PCHT","either","5","","","","","","","0","0","1","","0.2451518953","0.8","0.6","0.2","0.4","0.1529967373","0.28311182","0.21392293","0.2451518953","","","","","","","","","","","76","L","3","","","112","main_expt"
"304","","bandit","191","506622","0.0-152.0-0.0","36674978","wem/bandit_either","A3PYEW6693PCHT","either","5","","","","","","","0","0","1","","0.2407836715","0.8","0.6","0.2","0.4","0.148248117","0.2413269532","0.1606798039","0.2407836715","","","","","","","","","","","76","L","3","","","113","main_expt"
"267","","bandit","192","508401","0.0-153.0-0.0","36674978","wem/bandit_either","A3PYEW6693PCHT","either","5","","","","","","","0","0","1","0.3099317417","","0.8","0.6","0.2","0.4","","","","","0.1562208239","0.3100969134","0.2095980235","0.3099317417","","","","","","","76","L","3","","","114","main_expt"
"222","","bandit","193","510144","0.0-154.0-0.0","36674978","wem/bandit_either","A3PYEW6693PCHT","either","5","","","","","","","0","0","1","","0.2550279667","0.8","0.6","0.2","0.4","0.2138032898","0.329842252","0.2550279667","0.3180754701","","","","","","","","","","","75","K","2","","","115","main_expt"
"127","","bandit","194","511786","0.0-155.0-0.0","36674978","wem/bandit_either","A3PYEW6693PCHT","either","5","","","","","","","0","0","1","0.3223706096","","0.8","0.6","0.2","0.4","","","","","0.2331260325","0.3223706096","0.2471764387","0.2919742107","","","","","","","74","J","1","","","116","main_expt"
"318","","bandit","195","513624","0.0-156.0-0.0","36674978","wem/bandit_either","A3PYEW6693PCHT","either","5","","","","","","","0","0","1","0.1826309729","","0.8","0.6","0.2","0.4","","","","","0.1826309729","0.3098408215","0.2730878341","0.2799774295","","","","","","","72","H","0","img/none_selected.jpg","","117","main_expt"
"960","","bandit","196","516107","0.0-157.0-0.0","36674978","wem/bandit_either","A3PYEW6693PCHT","either","5","","","","","","","0","0","1","0.1511269107","","0.8","0.6","0.2","0.4","","","","","0.1511269107","0.2974554567","0.2071462199","0.2646714695","","","","","","","72","H","0","img/none_selected.jpg","","118","main_expt"
"339","","bandit","197","517961","0.0-158.0-0.0","36674978","wem/bandit_either","A3PYEW6693PCHT","either","5","","","","","","","0","0","1","0.1559979654","","0.8","0.6","0.2","0.4","","","","","0.1559979654","0.3598468986","0.2275232499","0.3179839519","","","","","","","72","H","0","img/none_selected.jpg","","119","main_expt"
"342","","bandit","198","519823","0.0-159.0-0.0","36674978","wem/bandit_either","A3PYEW6693PCHT","either","5","","","","","","","0","0","1","0.3302262658","","0.8","0.6","0.2","0.4","","","","","0.1463004055","0.2984373086","0.2767559596","0.3302262658","","","","","","","76","L","3","","","120","main_expt"
"159","","bandit","199","521505","0.0-160.0-0.0","36674978","wem/bandit_either","A3PYEW6693PCHT","either","5","","","","","","","0","0","1","0.1418195479","","0.8","0.6","0.2","0.4","","","","","0.1418195479","0.2973090059","0.3448590315","0.3500549905","","","","","","","72","H","0","img/none_selected.jpg","","121","main_expt"
"568","","bandit","200","523590","0.0-161.0-0.0","36674978","wem/bandit_either","A3PYEW6693PCHT","either","5","","","","","","","0","0","1","","0.2686616284","0.8","0.6","0.2","0.4","0.1270782113","0.3382791822","0.3593301016","0.2686616284","","","","","","","","","","","76","L","3","","","122","main_expt"
"328","","bandit","201","525432","0.0-162.0-0.0","36674978","wem/bandit_either","A3PYEW6693PCHT","either","5","","","","","","","0","0","1","0.2277230314","","0.8","0.6","0.2","0.4","","","","","0.1207154071","0.3154347028","0.3680529171","0.2277230314","","","","","","","76","L","3","","","123","main_expt"
"85","","bandit","202","527035","0.0-163.0-0.0","36674978","wem/bandit_either","A3PYEW6693PCHT","either","5","","","","","","","0","1","0","","0.3476523483","0.8","0.6","0.2","0.4","0.1229329119","0.2966737815","0.3476523483","0.3287090939","","","","","","","","","","","75","K","2","","","124","main_expt"
"181","","bandit","203","528736","0.0-164.0-0.0","36674978","wem/bandit_either","A3PYEW6693PCHT","either","5","","","","","","","0","0","1","","0.3564603465","0.8","0.6","0.2","0.4","0.09241122996","0.3094831126","0.3564603465","0.3687339586","","","","","","","","","","","75","K","2","","","125","main_expt"
"240","","bandit","204","530487","0.0-165.0-0.0","36674978","wem/bandit_either","A3PYEW6693PCHT","either","5","","","","","","","0","0","1","","0.3836195774","0.8","0.6","0.2","0.4","0.08418962236","0.2488993205","0.3550684458","0.3836195774","","","","","","","","","","","76","L","3","","","126","main_expt"
"207","","bandit","205","532209","0.0-166.0-0.0","36674978","wem/bandit_either","A3PYEW6693PCHT","either","5","","","","","","","0","0","1","0.154715772","","0.8","0.6","0.2","0.4","","","","","0.154715772","0.1953487027","0.3235559827","0.3617365958","","","","","","","72","H","0","img/none_selected.jpg","","127","main_expt"
"785","","bandit","206","534512","0.0-167.0-0.0","36674978","wem/bandit_either","A3PYEW6693PCHT","either","5","","","","","","","1","0","0","0.1556709078","","0.8","0.6","0.2","0.4","","","","","0.1556709078","0.2171889907","0.312087491","0.3235283493","","","","","","","72","H","0","img/none_selected.jpg","","128","main_expt"
"278","","bandit","207","536321","0.0-168.0-0.0","36674978","wem/bandit_either","A3PYEW6693PCHT","either","5","","","","","","","0","0","1","0.1214200615","","0.8","0.6","0.2","0.4","","","","","0.1214200615","0.2467699801","0.2843272188","0.3453830546","","","","","","","72","H","0","img/none_selected.jpg","","129","main_expt"
"546","","bandit","208","538384","0.0-169.0-0.0","36674978","wem/bandit_either","A3PYEW6693PCHT","either","5","","","","","","","0","0","1","","0.3242747857","0.8","0.6","0.2","0.4","0.1377283829","0.2814443482","0.2128416856","0.3242747857","","","","","","","","","","","76","L","3","","","130","main_expt"
"393","","bandit","209","540302","0.0-170.0-0.0","36674978","wem/bandit_either","A3PYEW6693PCHT","either","5","","","","","","","0","1","0","","0.3417201858","0.8","0.6","0.2","0.4","0.1397421628","0.2834176508","0.2403879813","0.3417201858","","","","","","","","","","","76","L","3","","","131","main_expt"
"213","","bandit","210","542038","0.0-171.0-0.0","36674978","wem/bandit_either","A3PYEW6693PCHT","either","5","","","","","","","0","0","1","","0.3498614837","0.8","0.6","0.2","0.4","0.1061875113","0.2429908031","0.2811421594","0.3498614837","","","","","","","","","","","76","L","3","","","132","main_expt"
"763","","bandit","211","544317","0.0-172.0-0.0","36674978","wem/bandit_either","A3PYEW6693PCHT","either","5","","","","","","","0","0","1","0.3053559495","","0.8","0.6","0.2","0.4","","","","","0.07774811701","0.3053559495","0.3002858371","0.3134828643","","","","","","","74","J","1","","","133","main_expt"
"415","","bandit","212","546255","0.0-173.0-0.0","36674978","wem/bandit_either","A3PYEW6693PCHT","either","5","","","","","","","0","0","1","","0.277406375","0.8","0.6","0.2","0.4","0.08211281178","0.2693478067","0.277406375","0.3554593188","","","","","","","","","","","75","K","2","","","134","main_expt"
"472","","bandit","213","548247","0.0-174.0-0.0","36674978","wem/bandit_either","A3PYEW6693PCHT","either","5","","","","","","","0","0","1","0.3150900126","","0.8","0.6","0.2","0.4","","","","","0.1123817552","0.3369166079","0.2897147582","0.3150900126","","","","","","","76","L","3","","","135","main_expt"
"97","","bandit","214","549867","0.0-175.0-0.0","36674978","wem/bandit_either","A3PYEW6693PCHT","either","5","","","","","","","0","0","1","0.1478339482","","0.8","0.6","0.2","0.4","","","","","0.1478339482","0.268603144","0.3590576628","0.3199395785","","","","","","","72","H","0","img/none_selected.jpg","","136","main_expt"
"312","","bandit","215","551694","0.0-176.0-0.0","36674978","wem/bandit_either","A3PYEW6693PCHT","either","5","","","","","","","0","0","1","","0.1374936615","0.8","0.6","0.2","0.4","0.1374936615","0.2373427956","0.3822427384","0.33362357","","","","","","","","","","","72","H","0","img/none_selected.jpg","","137","main_expt"
"274","","bandit","216","553490","0.0-177.0-0.0","36674978","wem/bandit_either","A3PYEW6693PCHT","either","5","","","","","","","0","0","1","0.3611324022","","0.8","0.6","0.2","0.4","","","","","0.159761955","0.2206869265","0.3410071165","0.3611324022","","","","","","","76","L","3","","","138","main_expt"
"136","","bandit","217","555142","0.0-178.0-0.0","36674978","wem/bandit_either","A3PYEW6693PCHT","either","5","","","","","","","0","0","1","0.1363721132","","0.8","0.6","0.2","0.4","","","","","0.1363721132","0.2177966349","0.3738014659","0.3504145086","","","","","","","72","H","0","img/none_selected.jpg","","139","main_expt"
"237","","bandit","218","556892","0.0-179.0-0.0","36674978","wem/bandit_either","A3PYEW6693PCHT","either","5","","","","","","","0","0","1","0.1031445192","","0.8","0.6","0.2","0.4","","","","","0.1031445192","0.2387685432","0.422575493","0.309774603","","","","","","","72","H","0","img/none_selected.jpg","","140","main_expt"
"324","","bandit","219","558730","0.0-180.0-0.0","36674978","wem/bandit_either","A3PYEW6693PCHT","either","5","","","","","","","0","1","0","","0.09805286369","0.8","0.6","0.2","0.4","0.09805286369","0.2575087366","0.4439129864","0.3506531288","","","","","","","","","","","72","H","0","img/none_selected.jpg","","141","main_expt"
"157","","bandit","220","560404","0.0-181.0-0.0","36674978","wem/bandit_either","A3PYEW6693PCHT","either","5","","","","","","","0","0","1","0.1149002948","","0.8","0.6","0.2","0.4","","","","","0.1149002948","0.2392038972","0.4323802182","0.2965027242","","","","","","","72","H","0","img/none_selected.jpg","","142","main_expt"
"169","","bandit","221","562092","0.0-182.0-0.0","36674978","wem/bandit_either","A3PYEW6693PCHT","either","5","","","","","","","0","1","0","","0.2087517366","0.8","0.6","0.2","0.4","0.1209542099","0.2216470548","0.4358412593","0.2087517366","","","","","","","","","","","76","L","3","","","143","main_expt"
"242","","bandit","222","563853","0.0-183.0-0.0","36674978","wem/bandit_either","A3PYEW6693PCHT","either","5","","","","","","","0","0","1","","0.2313605626","0.8","0.6","0.2","0.4","0.1202521083","0.2224896139","0.4407373256","0.2313605626","","","","","","","","","","","76","L","3","","","144","main_expt"
"369","","bandit","223","565738","0.0-184.0-0.0","36674978","wem/bandit_either","A3PYEW6693PCHT","either","5","","","","","","","0","0","1","","0.1785565547","0.8","0.6","0.2","0.4","0.1619743669","0.1925605464","0.4661091035","0.1785565547","","","","","","","","","","","76","L","3","","","145","main_expt"
"336","","bandit","224","567594","0.0-185.0-0.0","36674978","wem/bandit_either","A3PYEW6693PCHT","either","5","","","","","","","0","0","1","0.1664631043","","0.8","0.6","0.2","0.4","","","","","0.1664631043","0.2069800611","0.4637097668","0.1770660648","","","","","","","72","H","0","img/none_selected.jpg","","146","main_expt"
"120","","bandit","225","569241","0.0-186.0-0.0","36674978","wem/bandit_either","A3PYEW6693PCHT","either","5","","","","","","","0","0","1","","0.1063371611","0.8","0.6","0.2","0.4","0.1669241763","0.2489662189","0.4700491642","0.1063371611","","","","","","","","","","","76","L","3","","","147","main_expt"
"290","","bandit","226","571055","0.0-187.0-0.0","36674978","wem/bandit_either","A3PYEW6693PCHT","either","5","","","","","","","0","0","1","0.1581456949","","0.8","0.6","0.2","0.4","","","","","0.1581456949","0.1946464158","0.4648109734","0.1216370817","","","","","","","72","H","0","img/none_selected.jpg","","148","main_expt"
"423","","bandit","227","572992","0.0-188.0-0.0","36674978","wem/bandit_either","A3PYEW6693PCHT","either","5","","","","","","","0","0","1","0.1698392466","","0.8","0.6","0.2","0.4","","","","","0.1698392466","0.1826562491","0.4635511513","0.1024256959","","","","","","","72","H","0","img/none_selected.jpg","","149","main_expt"
"646","","bandit","228","575158","0.0-189.0-0.0","36674978","wem/bandit_either","A3PYEW6693PCHT","either","5","","","","","","","0","0","1","","0.1371094633","0.8","0.6","0.2","0.4","0.2140114634","0.1750473563","0.4445017148","0.1371094633","","","","","","","","","","","76","L","3","","","150","main_expt"
"1356","","bandit","229","578038","0.0-190.0-0.0","36674978","wem/bandit_either","A3PYEW6693PCHT","either","5","","","","","","","0","0","1","0.1702433702","","0.8","0.6","0.2","0.4","","","","","0.2392960001","0.1109536645","0.4434799742","0.1702433702","","","","","","","76","L","3","","","151","main_expt"
"300","","bandit","230","579853","0.0-191.0-0.0","36674978","wem/bandit_either","A3PYEW6693PCHT","either","5","","","","","","","1","0","0","0.2095863317","","0.8","0.6","0.2","0.4","","","","","0.2095863317","0.1143086707","0.4451665291","0.1860489046","","","","","","","72","H","0","img/none_selected.jpg","","152","main_expt"
"635","","bandit","231","582004","0.0-192.0-0.0","36674978","wem/bandit_either","A3PYEW6693PCHT","either","5","","","","","","","1","0","0","0.2543258611","","0.8","0.6","0.2","0.4","","","","","0.2543258611","0.1236290712","0.4401532833","0.2117094388","","","","","","","72","H","0","img/none_selected.jpg","","153","main_expt"
"1242","","bandit","232","584763","0.0-193.0-0.0","36674978","wem/bandit_either","A3PYEW6693PCHT","either","5","","","","","","","1","0","0","0.2602259906","","0.8","0.6","0.2","0.4","","","","","0.2602259906","0.1600695342","0.4516855879","0.2072389033","","","","","","","72","H","0","img/none_selected.jpg","","154","main_expt"
"873","","bandit","233","587154","0.0-194.0-0.0","36674978","wem/bandit_either","A3PYEW6693PCHT","either","5","","","","","","","1","0","0","0.2750581274","","0.8","0.6","0.2","0.4","","","","","0.2750581274","0.1770288166","0.4480264808","0.1986333914","","","","","","","72","H","0","img/none_selected.jpg","","155","main_expt"
"614","","bandit","234","589289","0.0-195.0-0.0","36674978","wem/bandit_either","A3PYEW6693PCHT","either","5","","","","","","","0","0","1","","0.2054640346","0.8","0.6","0.2","0.4","0.2438045727","0.1761817894","0.4260414265","0.2054640346","","","","","","","","","","","76","L","3","","","156","main_expt"
"1630","","bandit","235","592443","0.0-196.0-0.0","36674978","wem/bandit_either","A3PYEW6693PCHT","either","5","","","","","","","0","1","0","","0.4365201507","0.8","0.6","0.2","0.4","0.2857025143","0.1998830888","0.4365201507","0.1810715383","","","","","","","","","","","75","K","2","","","157","main_expt"
"168","","bandit","236","594130","0.0-197.0-0.0","36674978","wem/bandit_either","A3PYEW6693PCHT","either","5","","","","","","","1","0","0","0.4076244479","","0.8","0.6","0.2","0.4","","","","","0.2887719476","0.2150354531","0.4076244479","0.2118906364","","","","","","","75","K","2","","","158","main_expt"
"435","","bandit","237","596080","0.0-198.0-0.0","36674978","wem/bandit_either","A3PYEW6693PCHT","either","5","","","","","","","0","0","1","","0.403953851","0.8","0.6","0.2","0.4","0.2859462397","0.2221069796","0.403953851","0.2293976715","","","","","","","","","","","75","K","2","","","159","main_expt"
"438","","bandit","238","598035","0.0-199.0-0.0","36674978","wem/bandit_either","A3PYEW6693PCHT","either","5","","","","","","","1","0","0","0.207432816","","0.8","0.6","0.2","0.4","","","","","0.207432816","0.2627335039","0.4282135537","0.2186051381","","","","","","","72","H","0","img/none_selected.jpg","","160","main_expt"
"1934","","bandit","239","601496","0.0-200.0-0.0","36674978","wem/bandit_either","A3PYEW6693PCHT","either","5","","","","","","","0","0","1","0.1611694724","","0.8","0.6","0.2","0.4","","","","","0.1611694724","0.2922457848","0.4479073124","0.2175927206","","","","","","","72","H","0","img/none_selected.jpg","","161","main_expt"
"1398","","bandit","240","604414","0.0-201.0-0.0","36674978","wem/bandit_either","A3PYEW6693PCHT","either","5","","","","","","","0","1","0","","0.2370404117","0.8","0.6","0.2","0.4","0.14378348","0.3040212123","0.4456201243","0.2370404117","","","","","","","","","","","76","L","3","","","162","main_expt"
"649","","bandit","241","606579","0.0-202.0-0.0","36674978","wem/bandit_either","A3PYEW6693PCHT","either","5","","","","","","","0","0","1","0.2778780432","","0.8","0.6","0.2","0.4","","","","","0.1707099899","0.2933359027","0.4384930657","0.2778780432","","","","","","","76","L","3","","","163","main_expt"
"665","","bandit","242","608762","0.0-203.0-0.0","36674978","wem/bandit_either","A3PYEW6693PCHT","either","5","","","","","","","0","0","1","0.1933693166","","0.8","0.6","0.2","0.4","","","","","0.1933693166","0.2388203062","0.4231568034","0.2643388611","","","","","","","72","H","0","img/none_selected.jpg","","164","main_expt"
"620","","bandit","243","610898","0.0-204.0-0.0","36674978","wem/bandit_either","A3PYEW6693PCHT","either","5","","","","","","","0","0","1","","0.2406324952","0.8","0.6","0.2","0.4","0.2406324952","0.2646204916","0.4412535734","0.1967204453","","","","","","","","","","","72","H","0","img/none_selected.jpg","","165","main_expt"
"954","","bandit","244","613367","0.0-205.0-0.0","36674978","wem/bandit_either","A3PYEW6693PCHT","either","5","","","","","","","0","0","1","0.1567937345","","0.8","0.6","0.2","0.4","","","","","0.2650462377","0.2591758032","0.438364003","0.1567937345","","","","","","","76","L","3","","","166","main_expt"
"1127","","bandit","245","616018","0.0-206.0-0.0","36674978","wem/bandit_either","A3PYEW6693PCHT","either","5","","","","","","","0","0","1","0.1201482918","","0.8","0.6","0.2","0.4","","","","","0.245875583","0.1955934818","0.4290991351","0.1201482918","","","","","","","76","L","3","","","167","main_expt"
"982","","bandit","246","618517","0.0-207.0-0.0","36674978","wem/bandit_either","A3PYEW6693PCHT","either","5","","","","","","","0","0","1","","0.257303599","0.8","0.6","0.2","0.4","0.257303599","0.2090603634","0.4510860662","0.0936051119","","","","","","","","","","","72","H","0","img/none_selected.jpg","","168","main_expt"
"193","","bandit","247","620236","0.0-208.0-0.0","36674978","wem/bandit_either","A3PYEW6693PCHT","either","5","","","","","","","0","0","1","0.2993732043","","0.8","0.6","0.2","0.4","","","","","0.2993732043","0.2678479696","0.4491424364","0.08775096918","","","","","","","72","H","0","img/none_selected.jpg","","169","main_expt"
"267","","bandit","248","622030","0.0-209.0-0.0","36674978","wem/bandit_either","A3PYEW6693PCHT","either","5","","","","","","","1","0","0","0.06743429675","","0.8","0.6","0.2","0.4","","","","","0.3388977639","0.2532125956","0.4332244901","0.06743429675","","","","","","","76","L","3","","","170","main_expt"
"300","","bandit","249","623846","0.0-210.0-0.0","36674978","wem/bandit_either","A3PYEW6693PCHT","either","5","","","","","","","0","0","1","","0.05979118822","0.8","0.6","0.2","0.4","0.2947926635","0.2568627054","0.4405036994","0.05979118822","","","","","","","","","","","76","L","3","","","171","main_expt"
"312","","bandit","250","625676","0.0-211.0-0.0","36674978","wem/bandit_either","A3PYEW6693PCHT","either","5","","","","","","","0","0","1","","0.03200499914","0.8","0.6","0.2","0.4","0.2892529657","0.2451563353","0.4358521759","0.03200499914","","","","","","","","","","","76","L","3","","","172","main_expt"
"286","","bandit","251","627490","0.0-212.0-0.0","36674978","wem/bandit_either","A3PYEW6693PCHT","either","5","","","","","","","0","0","1","0.04613358223","","0.8","0.6","0.2","0.4","","","","","0.2571917514","0.3003395367","0.4471617722","0.04613358223","","","","","","","76","L","3","","","173","main_expt"
"786","","bandit","252","629794","0.0-213.0-0.0","36674978","wem/bandit_either","A3PYEW6693PCHT","either","5","","","","","","","0","0","1","","0.05969677181","0.8","0.6","0.2","0.4","0.244173221","0.2545998681","0.4560251174","0.05969677181","","","","","","","","","","","76","L","3","","","174","main_expt"
"26","","bandit","253","631336","0.0-214.0-0.0","36674978","wem/bandit_either","A3PYEW6693PCHT","either","5","","","","","","","0","0","1","","0.4379349024","0.8","0.6","0.2","0.4","0.2038098688","0.3383135611","0.4379349024","0.05930066603","","","","","","","","","","","75","K","2","","","175","main_expt"
"234","","bandit","254","633085","0.0-215.0-0.0","36674978","wem/bandit_either","A3PYEW6693PCHT","either","5","","","","","","","1","0","0","0.2053823003","","0.8","0.6","0.2","0.4","","","","","0.2053823003","0.3880627729","0.4328841116","0.08110879181","","","","","","","72","H","0","img/none_selected.jpg","","176","main_expt"
"160","","bandit","255","634768","0.0-216.0-0.0","36674978","wem/bandit_either","A3PYEW6693PCHT","either","5","","","","","","","0","0","1","0.2193083282","","0.8","0.6","0.2","0.4","","","","","0.2193083282","0.3920994557","0.3965365967","0.07611568943","","","","","","","72","H","0","img/none_selected.jpg","","177","main_expt"
"223","","bandit","256","636506","0.0-217.0-0.0","36674978","wem/bandit_either","A3PYEW6693PCHT","either","5","","","","","","","1","0","0","0.1220467165","","0.8","0.6","0.2","0.4","","","","","0.1904263594","0.3882277994","0.3899234309","0.1220467165","","","","","","","76","L","3","","","178","main_expt"
"223","","bandit","257","638246","0.0-218.0-0.0","36674978","wem/bandit_either","A3PYEW6693PCHT","either","5","","","","","","","0","0","1","","0.1698853315","0.8","0.6","0.2","0.4","0.2212788648","0.3939691408","0.4238443777","0.1698853315","","","","","","","","","","","76","L","3","","","179","main_expt"
"271","","bandit","258","640039","0.0-219.0-0.0","36674978","wem/bandit_either","A3PYEW6693PCHT","either","5","","","","","","","0","0","1","","0.1374762061","0.8","0.6","0.2","0.4","0.2640717145","0.4074656662","0.4487400994","0.1374762061","","","","","","","","","","","76","L","3","","","180","main_expt"
"184","","bandit","259","641748","0.0-220.0-0.0","36674978","wem/bandit_either","A3PYEW6693PCHT","either","5","","","","","","","0","0","1","0.2426483564","","0.8","0.6","0.2","0.4","","","","","0.2426483564","0.3724421945","0.4314573438","0.09961924189","","","","","","","72","H","0","img/none_selected.jpg","","181","main_expt"
"218","","bandit","260","643481","0.0-221.0-0.0","36674978","wem/bandit_either","A3PYEW6693PCHT","either","5","","","","","","","0","1","0","","0.2001563476","0.8","0.6","0.2","0.4","0.2001563476","0.2998177931","0.4458059303","0.1391043194","","","","","","","","","","","72","H","0","img/none_selected.jpg","","182","main_expt"
"294","","bandit","261","645303","0.0-222.0-0.0","36674978","wem/bandit_either","A3PYEW6693PCHT","either","5","","","","","","","1","0","0","0.2167094124","","0.8","0.6","0.2","0.4","","","","","0.2167094124","0.3629728763","0.4485460149","0.1336424596","","","","","","","72","H","0","img/none_selected.jpg","","183","main_expt"
"228","","bandit","262","647053","0.0-223.0-0.0","36674978","wem/bandit_either","A3PYEW6693PCHT","either","5","","","","","","","0","0","1","0.2402813617","","0.8","0.6","0.2","0.4","","","","","0.2402813617","0.3763603645","0.4078350507","0.115911235","","","","","","","72","H","0","img/none_selected.jpg","","184","main_expt"
"263","","bandit","263","648832","0.0-224.0-0.0","36674978","wem/bandit_either","A3PYEW6693PCHT","either","5","","","","","","","0","0","1","0.2745112141","","0.8","0.6","0.2","0.4","","","","","0.2745112141","0.3472982705","0.3805788675","0.1394203739","","","","","","","72","H","0","img/none_selected.jpg","","185","main_expt"
"226","","bandit","264","650581","0.0-225.0-0.0","36674978","wem/bandit_either","A3PYEW6693PCHT","either","5","","","","","","","0","0","1","0.2774566956","","0.8","0.6","0.2","0.4","","","","","0.2774566956","0.3095995051","0.4236809331","0.1557479742","","","","","","","72","H","0","img/none_selected.jpg","","186","main_expt"
"207","","bandit","265","652316","0.0-226.0-0.0","36674978","wem/bandit_either","A3PYEW6693PCHT","either","5","","","","","","","0","0","1","","0.4058627081","0.8","0.6","0.2","0.4","0.2876011691","0.2567332284","0.4058627081","0.1823611596","","","","","","","","","","","75","K","2","","","187","main_expt"
"152","","bandit","266","653993","0.0-227.0-0.0","36674978","wem/bandit_either","A3PYEW6693PCHT","either","5","","","","","","","0","0","1","0.2555256861","","0.8","0.6","0.2","0.4","","","","","0.2947112378","0.2555256861","0.3913346521","0.1854179297","","","","","","","74","J","1","","","188","main_expt"
"189","","bandit","267","655714","0.0-228.0-0.0","36674978","wem/bandit_either","A3PYEW6693PCHT","either","5","","","","","","","0","0","1","","0.1875645599","0.8","0.6","0.2","0.4","0.2581494","0.2009875262","0.3760164219","0.1875645599","","","","","","","","","","","76","L","3","","","189","main_expt"
"383","","bandit","268","657614","0.0-229.0-0.0","36674978","wem/bandit_either","A3PYEW6693PCHT","either","5","","","","","","","0","0","1","0.2018323604","","0.8","0.6","0.2","0.4","","","","","0.1756323468","0.2055488595","0.3327352817","0.2018323604","","","","","","","76","L","3","","","190","main_expt"
"250","","bandit","269","659391","0.0-230.0-0.0","36674978","wem/bandit_either","A3PYEW6693PCHT","either","5","","","","","","","0","0","1","0.221094727","","0.8","0.6","0.2","0.4","","","","","0.2521570866","0.1506387864","0.3015177445","0.221094727","","","","","","","76","L","3","","","191","main_expt"
"32","","bandit","270","660945","0.0-231.0-0.0","36674978","wem/bandit_either","A3PYEW6693PCHT","either","5","","","","","","","0","0","1","0.2964739449","","0.8","0.6","0.2","0.4","","","","","0.2964739449","0.2027442266","0.2773298268","0.2320570195","","","","","","","72","H","0","img/none_selected.jpg","","192","main_expt"
"104","","bandit","271","662563","0.0-232.0-0.0","36674978","wem/bandit_either","A3PYEW6693PCHT","either","5","","","","","","","0","0","1","","0.2612966838","0.8","0.6","0.2","0.4","0.2612966838","0.1969137872","0.2836613797","0.2948950962","","","","","","","","","","","72","H","0","img/none_selected.jpg","","193","main_expt"
"85","","bandit","272","664173","0.0-233.0-0.0","36674978","wem/bandit_either","A3PYEW6693PCHT","either","5","","","","","","","0","0","1","0.2602906927","","0.8","0.6","0.2","0.4","","","","","0.3292914436","0.2114994946","0.2799350415","0.2602906927","","","","","","","76","L","3","","","194","main_expt"
"203","","bandit","273","665898","0.0-234.0-0.0","36674978","wem/bandit_either","A3PYEW6693PCHT","either","5","","","","","","","0","0","1","0.4070308407","","0.8","0.6","0.2","0.4","","","","","0.4070308407","0.2467939011","0.2068597772","0.1771499101","","","","","","","72","H","0","img/none_selected.jpg","","195","main_expt"
"405","","bandit","274","667823","0.0-235.0-0.0","36674978","wem/bandit_either","A3PYEW6693PCHT","either","5","","","","","","","1","0","0","0.3494820729","","0.8","0.6","0.2","0.4","","","","","0.3494820729","0.2731811988","0.2679469531","0.1746274925","","","","","","","72","H","0","img/none_selected.jpg","","196","main_expt"
"78","","bandit","275","669420","0.0-236.0-0.0","36674978","wem/bandit_either","A3PYEW6693PCHT","either","5","","","","","","","0","0","1","0.3571939809","","0.8","0.6","0.2","0.4","","","","","0.3571939809","0.2512114903","0.2448078588","0.193224684","","","","","","","72","H","0","img/none_selected.jpg","","197","main_expt"
"47","","bandit","276","670983","0.0-237.0-0.0","36674978","wem/bandit_either","A3PYEW6693PCHT","either","5","","","","","","","1","0","0","0.1771509929","","0.8","0.6","0.2","0.4","","","","","0.382430028","0.190651112","0.2433987968","0.1771509929","","","","","","","76","L","3","","","198","main_expt"
"353","","bandit","277","672851","0.0-238.0-0.0","36674978","wem/bandit_either","A3PYEW6693PCHT","either","5","","","","","","","0","0","1","0.2466668772","","0.8","0.6","0.2","0.4","","","","","0.3353474301","0.1701189695","0.2653624242","0.2466668772","","","","","","","76","L","3","","","199","main_expt"
"315","","bandit","278","674684","0.0-239.0-0.0","36674978","wem/bandit_either","A3PYEW6693PCHT","either","5","","","","","","","0","0","1","0.3321976498","","0.8","0.6","0.2","0.4","","","","","0.3321976498","0.1656975488","0.2551376492","0.2477816141","","","","","","","72","H","0","img/none_selected.jpg","","200","main_expt"
"400","","bandit","279","676612","0.0-240.0-0.0","36674978","wem/bandit_either","A3PYEW6693PCHT","either","5","","","","","","","0","0","1","0.3218117355","","0.8","0.6","0.2","0.4","","","","","0.3218117355","0.1647298582","0.2660639347","0.2744817861","","","","","","","72","H","0","img/none_selected.jpg","","201","main_expt"
"82","","bandit","280","678211","0.0-241.0-0.0","36674978","wem/bandit_either","A3PYEW6693PCHT","either","5","","","","","","","0","1","0","","0.3043062986","0.8","0.6","0.2","0.4","0.2949214693","0.1242041815","0.2220900594","0.3043062986","","","","","","","","","","","76","L","3","","","202","main_expt"
"209","","bandit","281","679939","0.0-242.0-0.0","36674978","wem/bandit_either","A3PYEW6693PCHT","either","5","","","","","","","0","0","1","0.272185569","","0.8","0.6","0.2","0.4","","","","","0.300077299","0.1684487429","0.1543353204","0.272185569","","","","","","","76","L","3","","","203","main_expt"
"66","","bandit","282","681522","0.0-243.0-0.0","36674978","wem/bandit_either","A3PYEW6693PCHT","either","5","","","","","","","0","0","1","","0.1605482003","0.8","0.6","0.2","0.4","0.2866085977","0.1666409686","0.1605482003","0.2610767704","","","","","","","","","","","75","K","2","","","204","main_expt"
"173","","bandit","283","683224","0.0-244.0-0.0","36674978","wem/bandit_either","A3PYEW6693PCHT","either","5","","","","","","","0","0","1","","0.1406914754","0.8","0.6","0.2","0.4","0.2695546272","0.2197286508","0.1406914754","0.2832615928","","","","","","","","","","","75","K","2","","","205","main_expt"
"141","","bandit","284","684901","0.0-245.0-0.0","36674978","wem/bandit_either","A3PYEW6693PCHT","either","5","","","","","","","1","0","0","0.2622178416","","0.8","0.6","0.2","0.4","","","","","0.2622178416","0.2754509052","0.1138947463","0.300913322","","","","","","","72","H","0","img/none_selected.jpg","","206","main_expt"
"131","","bandit","285","686549","0.0-246.0-0.0","36674978","wem/bandit_either","A3PYEW6693PCHT","either","5","","","","","","","1","0","0","0.3260258847","","0.8","0.6","0.2","0.4","","","","","0.2498186578","0.2664869377","0.1096702189","0.3260258847","","","","","","","76","L","3","","","207","main_expt"
"128","","bandit","286","688201","0.0-247.0-0.0","36674978","wem/bandit_either","A3PYEW6693PCHT","either","5","","","","","","","0","0","1","","0.2335358635","0.8","0.6","0.2","0.4","0.2335358635","0.2686565688","0.09922356593","0.3173829003","","","","","","","","","","","72","H","0","img/none_selected.jpg","","208","main_expt"
"47","","bandit","287","689775","0.0-248.0-0.0","36674978","wem/bandit_either","A3PYEW6693PCHT","either","5","","","","","","","0","1","0","","0.3153846937","0.8","0.6","0.2","0.4","0.2638942681","0.2380255957","0.101567507","0.3153846937","","","","","","","","","","","76","L","3","","","209","main_expt"
"125","","bandit","288","691417","0.0-249.0-0.0","36674978","wem/bandit_either","A3PYEW6693PCHT","either","5","","","","","","","0","0","1","","0.3010876552","0.8","0.6","0.2","0.4","0.2526926237","0.2507768727","0.08675379402","0.3010876552","","","","","","","","","","","76","L","3","","","210","main_expt"
"13","","bandit","289","692955","0.0-250.0-0.0","36674978","wem/bandit_either","A3PYEW6693PCHT","either","5","","","","","","","0","1","0","","0.2740367769","0.8","0.6","0.2","0.4","0.2740367769","0.2685142319","0.07512021269","0.2864900033","","","","","","","","","","","72","H","0","img/none_selected.jpg","","211","main_expt"
"78","","bandit","290","694549","0.0-251.0-0.0","36674978","wem/bandit_either","A3PYEW6693PCHT","either","5","","","","","","","0","0","1","","0.2440836191","0.8","0.6","0.2","0.4","0.2440836191","0.260511483","0.08144254236","0.3163372434","","","","","","","","","","","72","H","0","img/none_selected.jpg","","212","main_expt"
"123","","bandit","291","696196","0.0-252.0-0.0","36674978","wem/bandit_either","A3PYEW6693PCHT","either","5","","","","","","","0","1","0","","0.2701305136","0.8","0.6","0.2","0.4","0.2341903104","0.2579605047","0.06585574052","0.2701305136","","","","","","","","","","","76","L","3","","","213","main_expt"
"151","","bandit","292","697863","0.0-253.0-0.0","36674978","wem/bandit_either","A3PYEW6693PCHT","either","5","","","","","","","0","0","1","","0.2097526345","0.8","0.6","0.2","0.4","0.2097526345","0.2470456849","0.08686614453","0.302599165","","","","","","","","","","","72","H","0","img/none_selected.jpg","","214","main_expt"
"109","","bandit","293","699494","0.0-254.0-0.0","36674978","wem/bandit_either","A3PYEW6693PCHT","either","5","","","","","","","0","0","1","0.2968005471","","0.8","0.6","0.2","0.4","","","","","0.1796882487","0.3285383036","0.1068548489","0.2968005471","","","","","","","76","L","3","","","215","main_expt"
"2","","bandit","294","701023","0.0-255.0-0.0","36674978","wem/bandit_either","A3PYEW6693PCHT","either","5","","","","","","","0","0","1","","0.1211736082","0.8","0.6","0.2","0.4","0.2237900511","0.3780044773","0.1211736082","0.2835536598","","","","","","","","","","","75","K","2","","","216","main_expt"
"146","","bandit","295","702683","0.0-256.0-0.0","36674978","wem/bandit_either","A3PYEW6693PCHT","either","5","","","","","","","0","0","1","","0.2520762718","0.8","0.6","0.2","0.4","0.2265358539","0.3939228946","0.09343701815","0.2520762718","","","","","","","","","","","76","L","3","","","217","main_expt"
"127","","bandit","296","704335","0.0-257.0-0.0","36674978","wem/bandit_either","A3PYEW6693PCHT","either","5","","","","","","","0","0","1","","0.2562699476","0.8","0.6","0.2","0.4","0.2364013437","0.3198270803","0.1001055386","0.2562699476","","","","","","","","","","","76","L","3","","","218","main_expt"
"56","","bandit","297","705917","0.0-258.0-0.0","36674978","wem/bandit_either","A3PYEW6693PCHT","either","5","","","","","","","0","0","1","0.2810560361","","0.8","0.6","0.2","0.4","","","","","0.2810560361","0.3502502288","0.09524874014","0.3002431464","","","","","","","72","H","0","img/none_selected.jpg","","219","main_expt"
"81","","bandit","298","707517","0.0-259.0-0.0","36674978","wem/bandit_either","A3PYEW6693PCHT","either","5","","","","","","","0","0","1","","0.1304899995","0.8","0.6","0.2","0.4","0.3027429446","0.3402456168","0.1304899995","0.3365413303","","","","","","","","","","","75","K","2","","","220","main_expt"
"190","","bandit","299","709232","0.0-260.0-0.0","36674978","wem/bandit_either","A3PYEW6693PCHT","either","5","","","","","","","0","0","1","","0.1272814923","0.8","0.6","0.2","0.4","0.3132134988","0.3770059732","0.1272814923","0.2946103072","","","","","","","","","","","75","K","2","","","221","main_expt"
"471","","bandit","300","711236","0.0-261.0-0.0","36674978","wem/bandit_either","A3PYEW6693PCHT","either","5","","","","","","","0","1","0","","0.3267284332","0.8","0.6","0.2","0.4","0.2424821827","0.3864421123","0.1654407056","0.3267284332","","","","","","","","","","","76","L","3","","","222","main_expt"
"294","","bandit","301","713054","0.0-262.0-0.0","36674978","wem/bandit_either","A3PYEW6693PCHT","either","5","","","","","","","0","0","1","","0.3175152631","0.8","0.6","0.2","0.4","0.2595367495","0.4205211408","0.1788325852","0.3175152631","","","","","","","","","","","76","L","3","","","223","main_expt"
"133","","bandit","302","714717","0.0-263.0-0.0","36674978","wem/bandit_either","A3PYEW6693PCHT","either","5","","","","","","","0","1","0","","0.3192400935","0.8","0.6","0.2","0.4","0.328819141","0.4131889957","0.1736623033","0.3192400935","","","","","","","","","","","76","L","3","","","224","main_expt"
"158","","bandit","303","716402","0.0-264.0-0.0","36674978","wem/bandit_either","A3PYEW6693PCHT","either","5","","","","","","","0","0","1","0.3096750449","","0.8","0.6","0.2","0.4","","","","","0.356121412","0.4001513574","0.1721911447","0.3096750449","","","","","","","76","L","3","","","225","main_expt"
"194","","bandit","304","718116","0.0-265.0-0.0","36674978","wem/bandit_either","A3PYEW6693PCHT","either","5","","","","","","","0","0","1","0.3394019192","","0.8","0.6","0.2","0.4","","","","","0.3394019192","0.3963688582","0.2133818582","0.3142833063","","","","","","","72","H","0","img/none_selected.jpg","","226","main_expt"
"67","","bandit","305","719714","0.0-266.0-0.0","36674978","wem/bandit_either","A3PYEW6693PCHT","either","5","","","","","","","0","0","1","0.2860553004","","0.8","0.6","0.2","0.4","","","","","0.2860553004","0.3979714495","0.2620007467","0.3096885674","","","","","","","72","H","0","img/none_selected.jpg","","227","main_expt"
"113","","bandit","306","721348","0.0-267.0-0.0","36674978","wem/bandit_either","A3PYEW6693PCHT","either","5","","","","","","","0","1","0","","0.3811043637","0.8","0.6","0.2","0.4","0.2967856672","0.3811043637","0.2961930455","0.3048295172","","","","","","","","","","","74","J","1","","","228","main_expt"
"162","","bandit","307","723031","0.0-268.0-0.0","36674978","wem/bandit_either","A3PYEW6693PCHT","either","5","","","","","","","0","0","1","","0.3488149186","0.8","0.6","0.2","0.4","0.2857745529","0.3488149186","0.3081123415","0.2553920021","","","","","","","","","","","74","J","1","","","229","main_expt"
"139","","bandit","308","724691","0.0-269.0-0.0","36674978","wem/bandit_either","A3PYEW6693PCHT","either","5","","","","","","","0","0","1","0.3027177586","","0.8","0.6","0.2","0.4","","","","","0.2589404948","0.2883621188","0.3027177586","0.2783794412","","","","","","","75","K","2","","","230","main_expt"
"6","","bandit","309","726249","0.0-270.0-0.0","36674978","wem/bandit_either","A3PYEW6693PCHT","either","5","","","","","","","0","0","1","","0.2735536708","0.8","0.6","0.2","0.4","0.2628441024","0.2444465504","0.2495346478","0.2735536708","","","","","","","","","","","76","L","3","","","231","main_expt"
"0","","bandit","310","727767","0.0-271.0-0.0","36674978","wem/bandit_either","A3PYEW6693PCHT","either","5","","","","","","","0","0","1","0.276537748","","0.8","0.6","0.2","0.4","","","","","0.276537748","0.2996930955","0.2185872191","0.2262440502","","","","","","","72","H","0","img/none_selected.jpg","","232","main_expt"
"174","","bandit","311","729458","0.0-272.0-0.0","36674978","wem/bandit_either","A3PYEW6693PCHT","either","5","","","","","","","0","0","1","","0.2171974885","0.8","0.6","0.2","0.4","0.2485723575","0.3103031796","0.1874863907","0.2171974885","","","","","","","","","","","76","L","3","","","233","main_expt"
"141","","bandit","312","731127","0.0-273.0-0.0","36674978","wem/bandit_either","A3PYEW6693PCHT","either","5","","","","","","","0","0","1","","0.2951485073","0.8","0.6","0.2","0.4","0.2172766866","0.2971988612","0.2165838284","0.2951485073","","","","","","","","","","","76","L","3","","","234","main_expt"
"418","","bandit","313","733072","0.0-274.0-0.0","36674978","wem/bandit_either","A3PYEW6693PCHT","either","5","","","","","","","0","0","1","0.3135740045","","0.8","0.6","0.2","0.4","","","","","0.221542824","0.3266576642","0.1791302586","0.3135740045","","","","","","","76","L","3","","","235","main_expt"
"200","","bandit","314","734796","0.0-275.0-0.0","36674978","wem/bandit_either","A3PYEW6693PCHT","either","5","","","","","","","0","0","1","0.2200573756","","0.8","0.6","0.2","0.4","","","","","0.2200573756","0.3596878827","0.2463713802","0.2945285262","","","","","","","72","H","0","img/none_selected.jpg","","236","main_expt"
"249","","bandit","315","736578","0.0-276.0-0.0","36674978","wem/bandit_either","A3PYEW6693PCHT","either","5","","","","","","","0","0","1","0.2146478317","","0.8","0.6","0.2","0.4","","","","","0.2146478317","0.3951370387","0.2204623923","0.2797454337","","","","","","","72","H","0","img/none_selected.jpg","","237","main_expt"
"360","","bandit","316","738465","0.0-277.0-0.0","36674978","wem/bandit_either","A3PYEW6693PCHT","either","5","","","","","","","1","0","0","0.2237656472","","0.8","0.6","0.2","0.4","","","","","0.2237656472","0.3863552979","0.2316256556","0.266453507","","","","","","","72","H","0","img/none_selected.jpg","","238","main_expt"
"313","","bandit","317","740294","0.0-278.0-0.0","36674978","wem/bandit_either","A3PYEW6693PCHT","either","5","","","","","","","1","0","0","0.2302611888","","0.8","0.6","0.2","0.4","","","","","0.2302611888","0.3962704677","0.2406304147","0.310831157","","","","","","","72","H","0","img/none_selected.jpg","","239","main_expt"
"349","","bandit","318","742166","0.0-279.0-0.0","36674978","wem/bandit_either","A3PYEW6693PCHT","either","5","","","","","","","0","0","1","0.2253069634","","0.8","0.6","0.2","0.4","","","","","0.2253069634","0.3926977495","0.2624476398","0.331950591","","","","","","","72","H","0","img/none_selected.jpg","","240","main_expt"
"350","","bandit","319","744045","0.0-280.0-0.0","36674978","wem/bandit_either","A3PYEW6693PCHT","either","5","","","","","","","0","0","1","0.2523404353","","0.8","0.6","0.2","0.4","","","","","0.2523404353","0.3381110468","0.2627099727","0.3223776605","","","","","","","72","H","0","img/none_selected.jpg","","241","main_expt"
"309","","bandit","320","745883","0.0-281.0-0.0","36674978","wem/bandit_either","A3PYEW6693PCHT","either","5","","","","","","","0","0","1","","0.3389272588","0.8","0.6","0.2","0.4","0.238450381","0.3213381148","0.2262339403","0.3389272588","","","","","","","","","","","76","L","3","","","242","main_expt"
"227","","bandit","321","747636","0.0-282.0-0.0","36674978","wem/bandit_either","A3PYEW6693PCHT","either","5","","","","","","","1","0","0","0.4023830898","","0.8","0.6","0.2","0.4","","","","","0.2476478509","0.3395415742","0.2511573395","0.4023830898","","","","","","","76","L","3","","","243","main_expt"
"473","","bandit","322","749638","0.0-283.0-0.0","36674978","wem/bandit_either","A3PYEW6693PCHT","either","5","","","","","","","0","0","1","","0.4072225753","0.8","0.6","0.2","0.4","0.2603762171","0.3077285799","0.3112309098","0.4072225753","","","","","","","","","","","76","L","3","","","244","main_expt"
"528","","bandit","323","751683","0.0-284.0-0.0","36674978","wem/bandit_either","A3PYEW6693PCHT","either","5","","","","","","","0","0","1","0.2778117757","","0.8","0.6","0.2","0.4","","","","","0.2778117757","0.269997398","0.3169667097","0.4047901721","","","","","","","72","H","0","img/none_selected.jpg","","245","main_expt"
"402","","bandit","324","753606","0.0-285.0-0.0","36674978","wem/bandit_either","A3PYEW6693PCHT","either","5","","","","","","","1","0","0","0.2571702875","","0.8","0.6","0.2","0.4","","","","","0.2571702875","0.2896792764","0.3774934029","0.4245844383","","","","","","","72","H","0","img/none_selected.jpg","","246","main_expt"
"466","","bandit","325","755604","0.0-286.0-0.0","36674978","wem/bandit_either","A3PYEW6693PCHT","either","5","","","","","","","1","0","0","0.2790325972","","0.8","0.6","0.2","0.4","","","","","0.2790325972","0.3079745892","0.3592590195","0.4425022826","","","","","","","72","H","0","img/none_selected.jpg","","247","main_expt"
"494","","bandit","326","757628","0.0-287.0-0.0","36674978","wem/bandit_either","A3PYEW6693PCHT","either","5","","","","","","","0","0","1","0.2665328125","","0.8","0.6","0.2","0.4","","","","","0.2665328125","0.2306801962","0.3659800935","0.4454461089","","","","","","","72","H","0","img/none_selected.jpg","","248","main_expt"
"473","","bandit","327","759627","0.0-288.0-0.0","36674978","wem/bandit_either","A3PYEW6693PCHT","either","5","","","","","","","1","0","0","0.4565985803","","0.8","0.6","0.2","0.4","","","","","0.2666328085","0.2363838343","0.3940863056","0.4565985803","","","","","","","76","L","3","","","249","main_expt"
"199","","bandit","328","761350","0.0-289.0-0.0","36674978","wem/bandit_either","A3PYEW6693PCHT","either","5","","","","","","","1","0","0","0.4666950096","","0.8","0.6","0.2","0.4","","","","","0.2637425143","0.2865845142","0.3652193683","0.4666950096","","","","","","","76","L","3","","","250","main_expt"
"266","","bandit","329","763147","0.0-290.0-0.0","36674978","wem/bandit_either","A3PYEW6693PCHT","either","5","","","","","","","0","0","1","","0.4491167865","0.8","0.6","0.2","0.4","0.3041279159","0.3527425442","0.3118516898","0.4491167865","","","","","","","","","","","76","L","3","","","251","main_expt"
