"rt","responses","trial_type","trial_index","time_elapsed","internal_node_id","subjID","study","MID","cond","drift","key_press","expt_phase","target","like","value","connected","gems","bombs","no_reward","GemPrChosen","BombPrChosen","GainOverPainPr_0","GainOverPainPr_1","GainOverPainPr_2","GainOverPainPr_3","LosePr_0","LosePr_1","LosePr_2","LosePr_3","WinPr_0","WinPr_1","WinPr_2","WinPr_3","Q0","Q1","Q2","gender","age","ethnicity","respCharCode","respKey","respChoiceNum","respChoice","practice","trial_counter","trial_label"
"13264","{""Q0"":""A3IF13XHP5UPO2""}","survey-text","0","13264","0.0-0.0","38044783","wem/bandit_either","A3IF13XHP5UPO2","either","2","","","","","","","","","","","","","","","","","","","","","","","","","","","","","","","","","","","",""
"26773","","text","1","41065","0.0-1.0","38044783","wem/bandit_either","A3IF13XHP5UPO2","either","2","32","","","","","","","","","","","","","","","","","","","","","","","","","","","","","","","","","","",""
"29747","","text","2","70814","0.0-2.0","38044783","wem/bandit_either","A3IF13XHP5UPO2","either","2","32","","","","","","","","","","","","","","","","","","","","","","","","","","","","","","","","","","",""
"68097","","text","3","138915","0.0-3.0","38044783","wem/bandit_either","A3IF13XHP5UPO2","either","2","32","","","","","","","","","","","","","","","","","","","","","","","","","","","","","","","","","","",""
"44031","","text","4","182950","0.0-4.0","38044783","wem/bandit_either","A3IF13XHP5UPO2","either","2","32","","","","","","","","","","","","","","","","","","","","","","","","","","","","","","","","","","",""
"52781","","text","5","235734","0.0-5.0","38044783","wem/bandit_either","A3IF13XHP5UPO2","either","2","32","","","","","","","","","","","","","","","","","","","","","","","","","","","","","","","","","","",""
"23221","","text","6","258959","0.0-6.0","38044783","wem/bandit_either","A3IF13XHP5UPO2","either","2","32","","","","","","","","","","","","","","","","","","","","","","","","","","","","","","","","","","",""
"10005","","text","7","268966","0.0-7.0","38044783","wem/bandit_either","A3IF13XHP5UPO2","either","2","32","","","","","","","","","","","","","","","","","","","","","","","","","","","","","","","","","","",""
"11688","","identification","8","280700","0.0-8.0-0.0","38044783","wem/bandit_either","A3IF13XHP5UPO2","either","2","","identification_pre","the village of Zur","","","","","","","","","","","","","","","","","","","","","","","","","","","","","","","","",""
"11863","","identification","9","293635","0.0-8.0-1.0","38044783","wem/bandit_either","A3IF13XHP5UPO2","either","2","","identification_pre","the village of Nyx","","","","","","","","","","","","","","","","","","","","","","","","","","","","","","","","",""
"13995","","text","10","308636","0.0-9.0","38044783","wem/bandit_either","A3IF13XHP5UPO2","either","2","32","","","","","","","","","","","","","","","","","","","","","","","","","","","","","","","","","","",""
"6158","","text","11","314797","0.0-10.0","38044783","wem/bandit_either","A3IF13XHP5UPO2","either","2","32","","","","","","","","","","","","","","","","","","","","","","","","","","","","","","","","","","",""
"5413","","text","12","320213","0.0-11.0","38044783","wem/bandit_either","A3IF13XHP5UPO2","either","2","32","","","","","","","","","","","","","","","","","","","","","","","","","","","","","","","","","","",""
"5645","","text","13","325865","0.0-12.0","38044783","wem/bandit_either","A3IF13XHP5UPO2","either","2","32","","","","","","","","","","","","","","","","","","","","","","","","","","","","","","","","","","",""
"3373","","bandit","14","330758","0.0-13.0-0.0","38044783","wem/bandit_either","A3IF13XHP5UPO2","either","2","","","","","","","0","0","1","0","0","","","","","0","","","","0","","","","","","","","","","74","J","0","img/none_selected_demo.jpg","true","0",""
"1501","","bandit","15","333770","0.0-14.0-0.0","38044783","wem/bandit_either","A3IF13XHP5UPO2","either","2","","","","","","","0","0","1","0","0","","","","","0","","","","0","","","","","","","","","","75","K","0","img/none_selected_demo.jpg","true","0",""
"16193","","text","16","349970","0.0-15.0","38044783","wem/bandit_either","A3IF13XHP5UPO2","either","2","32","","","","","","","","","","","","","","","","","","","","","","","","","","","","","","","","","","",""
"18877","","text","17","368851","0.0-16.0","38044783","wem/bandit_either","A3IF13XHP5UPO2","either","2","32","","","","","","","","","","","","","","","","","","","","","","","","","","","","","","","","","","",""
"13770","","text","18","382622","0.0-17.0","38044783","wem/bandit_either","A3IF13XHP5UPO2","either","2","32","","","","","","","","","","","","","","","","","","","","","","","","","","","","","","","","","","",""
"5100","","text","19","387723","0.0-18.0","38044783","wem/bandit_either","A3IF13XHP5UPO2","either","2","32","","","","","","","","","","","","","","","","","","","","","","","","","","","","","","","","","","",""
"3310","","bandit","20","392544","0.0-19.0-0.0","38044783","wem/bandit_either","A3IF13XHP5UPO2","either","2","","","","","","","0","1","0","","0.8","0.5","0.5","","","0.8","0.2","","","","","","","","","","","","","74","J","0","img/none_selected_demo.jpg","true","0","80_20_practice"
"1246","","bandit","21","395300","0.0-19.0-1.0","38044783","wem/bandit_either","A3IF13XHP5UPO2","either","2","","","","","","","0","0","1","0.2","","0.5","0.5","","","","","","","0.8","0.2","","","","","","","","","75","K","1","","true","0","80_20_practice"
"521","","bandit","22","397329","0.0-19.0-2.0","38044783","wem/bandit_either","A3IF13XHP5UPO2","either","2","","","","","","","0","1","0","","0.8","0.5","0.5","","","0.8","0.2","","","","","","","","","","","","","74","J","0","img/none_selected_demo.jpg","true","0","80_20_practice"
"1029","","bandit","23","399867","0.0-19.0-3.0","38044783","wem/bandit_either","A3IF13XHP5UPO2","either","2","","","","","","","1","0","0","0.8","","0.5","0.5","","","","","","","0.8","0.2","","","","","","","","","74","J","0","img/none_selected_demo.jpg","true","0","80_20_practice"
"313","","bandit","24","401693","0.0-19.0-4.0","38044783","wem/bandit_either","A3IF13XHP5UPO2","either","2","","","","","","","0","0","1","","0.8","0.5","0.5","","","0.8","0.2","","","","","","","","","","","","","74","J","0","img/none_selected_demo.jpg","true","0","80_20_practice"
"272","","bandit","25","403479","0.0-19.0-5.0","38044783","wem/bandit_either","A3IF13XHP5UPO2","either","2","","","","","","","0","0","1","0.8","","0.5","0.5","","","","","","","0.8","0.2","","","","","","","","","74","J","0","img/none_selected_demo.jpg","true","0","80_20_practice"
"69","","bandit","26","405061","0.0-19.0-6.0","38044783","wem/bandit_either","A3IF13XHP5UPO2","either","2","","","","","","","0","0","1","","0.2","0.5","0.5","","","0.8","0.2","","","","","","","","","","","","","75","K","1","","true","0","80_20_practice"
"164","","bandit","27","406738","0.0-19.0-7.0","38044783","wem/bandit_either","A3IF13XHP5UPO2","either","2","","","","","","","0","0","1","","0.2","0.5","0.5","","","0.8","0.2","","","","","","","","","","","","","75","K","1","","true","0","80_20_practice"
"104","","bandit","28","408363","0.0-19.0-8.0","38044783","wem/bandit_either","A3IF13XHP5UPO2","either","2","","","","","","","0","0","1","","0.2","0.5","0.5","","","0.8","0.2","","","","","","","","","","","","","75","K","1","","true","0","80_20_practice"
"497","","bandit","29","410375","0.0-19.0-9.0","38044783","wem/bandit_either","A3IF13XHP5UPO2","either","2","","","","","","","0","0","1","0.2","","0.5","0.5","","","","","","","0.8","0.2","","","","","","","","","75","K","1","","true","0","80_20_practice"
"212","","bandit","30","412102","0.0-19.0-10.0","38044783","wem/bandit_either","A3IF13XHP5UPO2","either","2","","","","","","","0","0","1","0.2","","0.5","0.5","","","","","","","0.8","0.2","","","","","","","","","75","K","1","","true","0","80_20_practice"
"93","","bandit","31","413710","0.0-19.0-11.0","38044783","wem/bandit_either","A3IF13XHP5UPO2","either","2","","","","","","","1","0","0","0.8","","0.5","0.5","","","","","","","0.8","0.2","","","","","","","","","74","J","0","img/none_selected_demo.jpg","true","0","80_20_practice"
"249","","bandit","32","415471","0.0-19.0-12.0","38044783","wem/bandit_either","A3IF13XHP5UPO2","either","2","","","","","","","0","1","0","","0.8","0.5","0.5","","","0.8","0.2","","","","","","","","","","","","","74","J","0","img/none_selected_demo.jpg","true","0","80_20_practice"
"274","","bandit","33","417263","0.0-19.0-13.0","38044783","wem/bandit_either","A3IF13XHP5UPO2","either","2","","","","","","","0","0","1","0.8","","0.5","0.5","","","","","","","0.8","0.2","","","","","","","","","74","J","0","img/none_selected_demo.jpg","true","0","80_20_practice"
"953","","bandit","34","419733","0.0-19.0-14.0","38044783","wem/bandit_either","A3IF13XHP5UPO2","either","2","","","","","","","0","1","0","","0.8","0.5","0.5","","","0.8","0.2","","","","","","","","","","","","","74","J","0","img/none_selected_demo.jpg","true","0","80_20_practice"
"260","","bandit","35","421506","0.0-19.0-15.0","38044783","wem/bandit_either","A3IF13XHP5UPO2","either","2","","","","","","","0","0","1","0.8","","0.5","0.5","","","","","","","0.8","0.2","","","","","","","","","74","J","0","img/none_selected_demo.jpg","true","0","80_20_practice"
"1014","","bandit","36","424033","0.0-19.0-16.0","38044783","wem/bandit_either","A3IF13XHP5UPO2","either","2","","","","","","","1","0","0","0.8","","0.5","0.5","","","","","","","0.8","0.2","","","","","","","","","74","J","0","img/none_selected_demo.jpg","true","0","80_20_practice"
"1251","","bandit","37","426799","0.0-19.0-17.0","38044783","wem/bandit_either","A3IF13XHP5UPO2","either","2","","","","","","","1","0","0","0.8","","0.5","0.5","","","","","","","0.8","0.2","","","","","","","","","74","J","0","img/none_selected_demo.jpg","true","0","80_20_practice"
"48","","bandit","38","428360","0.0-19.0-18.0","38044783","wem/bandit_either","A3IF13XHP5UPO2","either","2","","","","","","","1","0","0","0.8","","0.5","0.5","","","","","","","0.8","0.2","","","","","","","","","74","J","0","img/none_selected_demo.jpg","true","0","80_20_practice"
"296","","bandit","39","430170","0.0-19.0-19.0","38044783","wem/bandit_either","A3IF13XHP5UPO2","either","2","","","","","","","1","0","0","0.8","","0.5","0.5","","","","","","","0.8","0.2","","","","","","","","","74","J","0","img/none_selected_demo.jpg","true","0","80_20_practice"
"9931","","text","40","440109","0.0-20.0","38044783","wem/bandit_either","A3IF13XHP5UPO2","either","2","32","","","","","","","","","","","","","","","","","","","","","","","","","","","","","","","","","","",""
"2278","","bandit","41","443903","0.0-21.0-0.0","38044783","wem/bandit_either","A3IF13XHP5UPO2","either","2","","","","","","","1","0","0","1","0","","","","","0","1","","","1","0","","","","","","","","","74","J","0","img/none_selected_demo.jpg","true","0",""
"1432","","text","42","445340","0.0-22.0","38044783","wem/bandit_either","A3IF13XHP5UPO2","either","2","16","","","","","","","","","","","","","","","","","","","","","","","","","","","","","","","","","","",""
"5691","","text","43","451035","0.0-23.0","38044783","wem/bandit_either","A3IF13XHP5UPO2","either","2","32","","","","","","","","","","","","","","","","","","","","","","","","","","","","","","","","","","",""
"6228","","text","44","457267","0.0-24.0","38044783","wem/bandit_either","A3IF13XHP5UPO2","either","2","32","","","","","","","","","","","","","","","","","","","","","","","","","","","","","","","","","","",""
"5719","","text","45","462992","0.0-25.0","38044783","wem/bandit_either","A3IF13XHP5UPO2","either","2","32","","","","","","","","","","","","","","","","","","","","","","","","","","","","","","","","","","",""
"11664","","text","46","474662","0.0-26.0","38044783","wem/bandit_either","A3IF13XHP5UPO2","either","2","32","","","","","","","","","","","","","","","","","","","","","","","","","","","","","","","","","","",""
"9515","","text","47","484182","0.0-27.0","38044783","wem/bandit_either","A3IF13XHP5UPO2","either","2","32","","","","","","","","","","","","","","","","","","","","","","","","","","","","","","","","","","",""
"5611","","text","48","489798","0.0-28.0","38044783","wem/bandit_either","A3IF13XHP5UPO2","either","2","32","","","","","","","","","","","","","","","","","","","","","","","","","","","","","","","","","","",""
"5795","","text","49","495598","0.0-29.0","38044783","wem/bandit_either","A3IF13XHP5UPO2","either","2","32","","","","","","","","","","","","","","","","","","","","","","","","","","","","","","","","","","",""
"5056","","text","50","500658","0.0-30.0","38044783","wem/bandit_either","A3IF13XHP5UPO2","either","2","32","","","","","","","","","","","","","","","","","","","","","","","","","","","","","","","","","","",""
"4010","","text","51","504672","0.0-31.0","38044783","wem/bandit_either","A3IF13XHP5UPO2","either","2","32","","","","","","","","","","","","","","","","","","","","","","","","","","","","","","","","","","",""
"4029","","text","52","508707","0.0-32.0","38044783","wem/bandit_either","A3IF13XHP5UPO2","either","2","32","","","","","","","","","","","","","","","","","","","","","","","","","","","","","","","","","","",""
"2842","","bandit","53","513066","0.0-33.0-0.0","38044783","wem/bandit_either","A3IF13XHP5UPO2","either","2","","","","","","","1","0","0","0.8","","0.5","0.5","0.5","0.5","","","","","0.8","0.2","0.6","0.2","","","","","","","72","H","0","img/none_selected.jpg","true","0","full_practice"
"316","","bandit","54","514901","0.0-33.0-1.0","38044783","wem/bandit_either","A3IF13XHP5UPO2","either","2","","","","","","","0","1","0","","0.8","0.5","0.5","0.5","0.5","0.8","0.2","0.6","0.2","","","","","","","","","","","72","H","0","img/none_selected.jpg","true","0","full_practice"
"325","","bandit","55","516743","0.0-33.0-2.0","38044783","wem/bandit_either","A3IF13XHP5UPO2","either","2","","","","","","","0","1","0","","0.8","0.5","0.5","0.5","0.5","0.8","0.2","0.6","0.2","","","","","","","","","","","72","H","0","img/none_selected.jpg","true","0","full_practice"
"429","","bandit","56","518694","0.0-33.0-3.0","38044783","wem/bandit_either","A3IF13XHP5UPO2","either","2","","","","","","","0","1","0","","0.8","0.5","0.5","0.5","0.5","0.8","0.2","0.6","0.2","","","","","","","","","","","72","H","0","img/none_selected.jpg","true","0","full_practice"
"453","","bandit","57","520663","0.0-33.0-4.0","38044783","wem/bandit_either","A3IF13XHP5UPO2","either","2","","","","","","","0","0","1","","0.2","0.5","0.5","0.5","0.5","0.8","0.2","0.6","0.2","","","","","","","","","","","74","J","1","","true","0","full_practice"
"231","","bandit","58","522409","0.0-33.0-5.0","38044783","wem/bandit_either","A3IF13XHP5UPO2","either","2","","","","","","","0","1","0","","0.6","0.5","0.5","0.5","0.5","0.8","0.2","0.6","0.2","","","","","","","","","","","75","K","2","","true","0","full_practice"
"301","","bandit","59","524225","0.0-33.0-6.0","38044783","wem/bandit_either","A3IF13XHP5UPO2","either","2","","","","","","","0","0","1","0.2","","0.5","0.5","0.5","0.5","","","","","0.8","0.2","0.6","0.2","","","","","","","76","L","3","","true","0","full_practice"
"358","","bandit","60","526098","0.0-33.0-7.0","38044783","wem/bandit_either","A3IF13XHP5UPO2","either","2","","","","","","","0","1","0","","0.8","0.5","0.5","0.5","0.5","0.8","0.2","0.6","0.2","","","","","","","","","","","72","H","0","img/none_selected.jpg","true","0","full_practice"
"314","","bandit","61","527930","0.0-33.0-8.0","38044783","wem/bandit_either","A3IF13XHP5UPO2","either","2","","","","","","","1","0","0","0.8","","0.5","0.5","0.5","0.5","","","","","0.8","0.2","0.6","0.2","","","","","","","72","H","0","img/none_selected.jpg","true","0","full_practice"
"249","","bandit","62","529697","0.0-33.0-9.0","38044783","wem/bandit_either","A3IF13XHP5UPO2","either","2","","","","","","","0","1","0","","0.8","0.5","0.5","0.5","0.5","0.8","0.2","0.6","0.2","","","","","","","","","","","72","H","0","img/none_selected.jpg","true","0","full_practice"
"526","","bandit","63","531738","0.0-33.0-10.0","38044783","wem/bandit_either","A3IF13XHP5UPO2","either","2","","","","","","","0","0","1","0.8","","0.5","0.5","0.5","0.5","","","","","0.8","0.2","0.6","0.2","","","","","","","72","H","0","img/none_selected.jpg","true","0","full_practice"
"286","","bandit","64","533540","0.0-33.0-11.0","38044783","wem/bandit_either","A3IF13XHP5UPO2","either","2","","","","","","","0","0","1","","0.8","0.5","0.5","0.5","0.5","0.8","0.2","0.6","0.2","","","","","","","","","","","72","H","0","img/none_selected.jpg","true","0","full_practice"
"193","","bandit","65","535250","0.0-33.0-12.0","38044783","wem/bandit_either","A3IF13XHP5UPO2","either","2","","","","","","","1","0","0","0.8","","0.5","0.5","0.5","0.5","","","","","0.8","0.2","0.6","0.2","","","","","","","72","H","0","img/none_selected.jpg","true","0","full_practice"
"346","","bandit","66","537114","0.0-33.0-13.0","38044783","wem/bandit_either","A3IF13XHP5UPO2","either","2","","","","","","","0","1","0","","0.8","0.5","0.5","0.5","0.5","0.8","0.2","0.6","0.2","","","","","","","","","","","72","H","0","img/none_selected.jpg","true","0","full_practice"
"446","","bandit","67","539074","0.0-33.0-14.0","38044783","wem/bandit_either","A3IF13XHP5UPO2","either","2","","","","","","","0","0","1","","0.8","0.5","0.5","0.5","0.5","0.8","0.2","0.6","0.2","","","","","","","","","","","72","H","0","img/none_selected.jpg","true","0","full_practice"
"470","","bandit","68","541063","0.0-33.0-15.0","38044783","wem/bandit_either","A3IF13XHP5UPO2","either","2","","","","","","","1","0","0","0.8","","0.5","0.5","0.5","0.5","","","","","0.8","0.2","0.6","0.2","","","","","","","72","H","0","img/none_selected.jpg","true","0","full_practice"
"317","","bandit","69","542898","0.0-33.0-16.0","38044783","wem/bandit_either","A3IF13XHP5UPO2","either","2","","","","","","","1","0","0","0.8","","0.5","0.5","0.5","0.5","","","","","0.8","0.2","0.6","0.2","","","","","","","72","H","0","img/none_selected.jpg","true","0","full_practice"
"284","","bandit","70","544698","0.0-33.0-17.0","38044783","wem/bandit_either","A3IF13XHP5UPO2","either","2","","","","","","","1","0","0","0.8","","0.5","0.5","0.5","0.5","","","","","0.8","0.2","0.6","0.2","","","","","","","72","H","0","img/none_selected.jpg","true","0","full_practice"
"189","","bandit","71","546405","0.0-33.0-18.0","38044783","wem/bandit_either","A3IF13XHP5UPO2","either","2","","","","","","","1","0","0","0.8","","0.5","0.5","0.5","0.5","","","","","0.8","0.2","0.6","0.2","","","","","","","72","H","0","img/none_selected.jpg","true","0","full_practice"
"258","","bandit","72","548180","0.0-33.0-19.0","38044783","wem/bandit_either","A3IF13XHP5UPO2","either","2","","","","","","","0","0","1","","0.8","0.5","0.5","0.5","0.5","0.8","0.2","0.6","0.2","","","","","","","","","","","72","H","0","img/none_selected.jpg","true","0","full_practice"
"3957","","text","73","552148","0.0-34.0","38044783","wem/bandit_either","A3IF13XHP5UPO2","either","2","32","","","","","","","","","","","","","","","","","","","","","","","","","","","","","","","","","","",""
"41154","","text","74","594314","0.0-35.0","38044783","wem/bandit_either","A3IF13XHP5UPO2","either","2","32","","","","","","","","","","","","","","","","","","","","","","","","","","","","","","","","","","",""
"1815","","text","75","596140","0.0-36.0","38044783","wem/bandit_either","A3IF13XHP5UPO2","either","2","32","","","","","","","","","","","","","","","","","","","","","","","","","","","","","","","","","","",""
"594","","text","76","596740","0.0-37.0","38044783","wem/bandit_either","A3IF13XHP5UPO2","either","2","32","","","","","","","","","","","","","","","","","","","","","","","","","","","","","","","","","","",""
"397","","text","77","597143","0.0-38.0","38044783","wem/bandit_either","A3IF13XHP5UPO2","either","2","32","","","","","","","","","","","","","","","","","","","","","","","","","","","","","","","","","","",""
"800","","text","78","597951","0.0-39.0","38044783","wem/bandit_either","A3IF13XHP5UPO2","either","2","32","","","","","","","","","","","","","","","","","","","","","","","","","","","","","","","","","","",""
"1901","","bandit","79","601367","0.0-40.0-0.0","38044783","wem/bandit_either","A3IF13XHP5UPO2","either","2","","","","","","","1","0","0","0.326135308","","0.8","0.6","0.2","0.4","","","","","0.326135308","0.3653736811","0.4781977867","0.362799796","","","","","","","72","H","0","img/none_selected.jpg","","1","main_expt"
"352","","bandit","80","603235","0.0-41.0-0.0","38044783","wem/bandit_either","A3IF13XHP5UPO2","either","2","","","","","","","0","0","1","0.3564958201","","0.8","0.6","0.2","0.4","","","","","0.3564958201","0.3999069229","0.4765481994","0.3891507205","","","","","","","72","H","0","img/none_selected.jpg","","2","main_expt"
"153","","bandit","81","604905","0.0-42.0-0.0","38044783","wem/bandit_either","A3IF13XHP5UPO2","either","2","","","","","","","0","0","1","0.3309056029","","0.8","0.6","0.2","0.4","","","","","0.3309056029","0.4363582421","0.4722158263","0.3151339382","","","","","","","72","H","0","img/none_selected.jpg","","3","main_expt"
"130","","bandit","82","606552","0.0-43.0-0.0","38044783","wem/bandit_either","A3IF13XHP5UPO2","either","2","","","","","","","1","0","0","0.308467875","","0.8","0.6","0.2","0.4","","","","","0.308467875","0.4300921111","0.4609570051","0.250648122","","","","","","","72","H","0","img/none_selected.jpg","","4","main_expt"
"262","","bandit","83","608328","0.0-44.0-0.0","38044783","wem/bandit_either","A3IF13XHP5UPO2","either","2","","","","","","","1","0","0","0.3349995635","","0.8","0.6","0.2","0.4","","","","","0.3349995635","0.3863220662","0.4707799186","0.2382585344","","","","","","","72","H","0","img/none_selected.jpg","","5","main_expt"
"242","","bandit","84","610086","0.0-45.0-0.0","38044783","wem/bandit_either","A3IF13XHP5UPO2","either","2","","","","","","","0","0","1","0.3743101545","","0.8","0.6","0.2","0.4","","","","","0.3743101545","0.4192648028","0.4676743975","0.2088101903","","","","","","","72","H","0","img/none_selected.jpg","","6","main_expt"
"273","","bandit","85","611873","0.0-46.0-0.0","38044783","wem/bandit_either","A3IF13XHP5UPO2","either","2","","","","","","","0","0","1","0.377506125","","0.8","0.6","0.2","0.4","","","","","0.377506125","0.4218548145","0.4767364015","0.1884279889","","","","","","","72","H","0","img/none_selected.jpg","","7","main_expt"
"91","","bandit","86","613477","0.0-47.0-0.0","38044783","wem/bandit_either","A3IF13XHP5UPO2","either","2","","","","","","","0","0","1","0.3452849142","","0.8","0.6","0.2","0.4","","","","","0.3452849142","0.4298914749","0.4837409877","0.2297930851","","","","","","","72","H","0","img/none_selected.jpg","","8","main_expt"
"927","","bandit","87","615923","0.0-48.0-0.0","38044783","wem/bandit_either","A3IF13XHP5UPO2","either","2","","","","","","","0","0","1","0.4215440671","","0.8","0.6","0.2","0.4","","","","","0.2713567333","0.4215440671","0.4825212187","0.2219539873","","","","","","","74","J","1","","","9","main_expt"
"139","","bandit","88","617580","0.0-49.0-0.0","38044783","wem/bandit_either","A3IF13XHP5UPO2","either","2","","","","","","","0","0","1","0.4791264729","","0.8","0.6","0.2","0.4","","","","","0.2712708503","0.3991616263","0.4791264729","0.2398128751","","","","","","","75","K","2","","","10","main_expt"
"1782","","bandit","89","620878","0.0-50.0-0.0","38044783","wem/bandit_either","A3IF13XHP5UPO2","either","2","","","","","","","0","0","1","","0.2551733424","0.8","0.6","0.2","0.4","0.2635531688","0.4002673883","0.4762013833","0.2551733424","","","","","","","","","","","76","L","3","","","11","main_expt"
"256","","bandit","90","622648","0.0-51.0-0.0","38044783","wem/bandit_either","A3IF13XHP5UPO2","either","2","","","","","","","0","0","1","0.2669056975","","0.8","0.6","0.2","0.4","","","","","0.2669056975","0.368629831","0.4729837645","0.2593424883","","","","","","","72","H","0","img/none_selected.jpg","","12","main_expt"
"244","","bandit","91","624410","0.0-52.0-0.0","38044783","wem/bandit_either","A3IF13XHP5UPO2","either","2","","","","","","","0","0","1","0.3204456557","","0.8","0.6","0.2","0.4","","","","","0.3204456557","0.4189726289","0.4749786695","0.2493591627","","","","","","","72","H","0","img/none_selected.jpg","","13","main_expt"
"163","","bandit","92","626091","0.0-53.0-0.0","38044783","wem/bandit_either","A3IF13XHP5UPO2","either","2","","","","","","","0","0","1","","0.3466526728","0.8","0.6","0.2","0.4","0.3466526728","0.4352425359","0.4810115094","0.2686446846","","","","","","","","","","","72","H","0","img/none_selected.jpg","","14","main_expt"
"283","","bandit","93","627894","0.0-54.0-0.0","38044783","wem/bandit_either","A3IF13XHP5UPO2","either","2","","","","","","","0","1","0","","0.3736671224","0.8","0.6","0.2","0.4","0.3736671224","0.3819090161","0.4705329286","0.2690169042","","","","","","","","","","","72","H","0","img/none_selected.jpg","","15","main_expt"
"254","","bandit","94","629665","0.0-55.0-0.0","38044783","wem/bandit_either","A3IF13XHP5UPO2","either","2","","","","","","","0","1","0","","0.3778143907","0.8","0.6","0.2","0.4","0.3778143907","0.3737760256","0.4687419894","0.2518303543","","","","","","","","","","","72","H","0","img/none_selected.jpg","","16","main_expt"
"176","","bandit","95","631358","0.0-56.0-0.0","38044783","wem/bandit_either","A3IF13XHP5UPO2","either","2","","","","","","","1","0","0","0.3845750066","","0.8","0.6","0.2","0.4","","","","","0.3845750066","0.4151791473","0.4594180265","0.2406549936","","","","","","","72","H","0","img/none_selected.jpg","","17","main_expt"
"297","","bandit","96","633173","0.0-57.0-0.0","38044783","wem/bandit_either","A3IF13XHP5UPO2","either","2","","","","","","","0","1","0","","0.4041286345","0.8","0.6","0.2","0.4","0.4041286345","0.4137363134","0.425397146","0.2670149403","","","","","","","","","","","72","H","0","img/none_selected.jpg","","18","main_expt"
"255","","bandit","97","634948","0.0-58.0-0.0","38044783","wem/bandit_either","A3IF13XHP5UPO2","either","2","","","","","","","0","0","1","","0.4127350431","0.8","0.6","0.2","0.4","0.4127350431","0.4084056464","0.4201246927","0.2658482338","","","","","","","","","","","72","H","0","img/none_selected.jpg","","19","main_expt"
"105","","bandit","98","636573","0.0-59.0-0.0","38044783","wem/bandit_either","A3IF13XHP5UPO2","either","2","","","","","","","0","0","1","0.4107359536","","0.8","0.6","0.2","0.4","","","","","0.4107359536","0.4129175496","0.3954271328","0.2452433766","","","","","","","72","H","0","img/none_selected.jpg","","20","main_expt"
"1271","","bandit","99","639362","0.0-60.0-0.0","38044783","wem/bandit_either","A3IF13XHP5UPO2","either","2","","","","","","","0","0","1","","0.3954861765","0.8","0.6","0.2","0.4","0.3954861765","0.3888488162","0.4196431029","0.2298761452","","","","","","","","","","","72","H","0","img/none_selected.jpg","","21","main_expt"
"1174","","bandit","100","642056","0.0-61.0-0.0","38044783","wem/bandit_either","A3IF13XHP5UPO2","either","2","","","","","","","1","0","0","0.3805979297","","0.8","0.6","0.2","0.4","","","","","0.3805979297","0.3873149631","0.3843335182","0.266827693","","","","","","","72","H","0","img/none_selected.jpg","","22","main_expt"
"260","","bandit","101","643834","0.0-62.0-0.0","38044783","wem/bandit_either","A3IF13XHP5UPO2","either","2","","","","","","","0","0","1","0.425451992","","0.8","0.6","0.2","0.4","","","","","0.425451992","0.3659772031","0.3839977458","0.2519769849","","","","","","","72","H","0","img/none_selected.jpg","","23","main_expt"
"254","","bandit","102","645607","0.0-63.0-0.0","38044783","wem/bandit_either","A3IF13XHP5UPO2","either","2","","","","","","","1","0","0","0.4699447661","","0.8","0.6","0.2","0.4","","","","","0.4699447661","0.3594327093","0.3338939571","0.2447613107","","","","","","","72","H","0","img/none_selected.jpg","","24","main_expt"
"31","","bandit","103","647154","0.0-64.0-0.0","38044783","wem/bandit_either","A3IF13XHP5UPO2","either","2","","","","","","","1","0","0","0.2350413847","","0.8","0.6","0.2","0.4","","","","","0.4484050393","0.3719143394","0.324486952","0.2350413847","","","","","","","76","L","3","","","25","main_expt"
"261","","bandit","104","648936","0.0-65.0-0.0","38044783","wem/bandit_either","A3IF13XHP5UPO2","either","2","","","","","","","0","1","0","","0.207774486","0.8","0.6","0.2","0.4","0.4190234423","0.3690014044","0.3095710384","0.207774486","","","","","","","","","","","76","L","3","","","26","main_expt"
"141","","bandit","105","650592","0.0-66.0-0.0","38044783","wem/bandit_either","A3IF13XHP5UPO2","either","2","","","","","","","0","0","1","0.2164182795","","0.8","0.6","0.2","0.4","","","","","0.4251478254","0.3940030818","0.3355629191","0.2164182795","","","","","","","76","L","3","","","27","main_expt"
"1465","","bandit","106","653579","0.0-67.0-0.0","38044783","wem/bandit_either","A3IF13XHP5UPO2","either","2","","","","","","","1","0","0","0.4287328697","","0.8","0.6","0.2","0.4","","","","","0.4287328697","0.4111080327","0.3668681485","0.2164031865","","","","","","","72","H","0","img/none_selected.jpg","","28","main_expt"
"198","","bandit","107","655293","0.0-68.0-0.0","38044783","wem/bandit_either","A3IF13XHP5UPO2","either","2","","","","","","","0","0","1","0.4106025245","","0.8","0.6","0.2","0.4","","","","","0.4106025245","0.41290056","0.343198694","0.2770000278","","","","","","","72","H","0","img/none_selected.jpg","","29","main_expt"
"275","","bandit","108","657091","0.0-69.0-0.0","38044783","wem/bandit_either","A3IF13XHP5UPO2","either","2","","","","","","","0","0","1","0.3942494676","","0.8","0.6","0.2","0.4","","","","","0.3942494676","0.3937480262","0.326069126","0.2354797847","","","","","","","72","H","0","img/none_selected.jpg","","30","main_expt"
"279","","bandit","109","658888","0.0-70.0-0.0","38044783","wem/bandit_either","A3IF13XHP5UPO2","either","2","","","","","","","1","0","0","0.4285056211","","0.8","0.6","0.2","0.4","","","","","0.4285056211","0.3997016236","0.3390127419","0.2692030882","","","","","","","72","H","0","img/none_selected.jpg","","31","main_expt"
"299","","bandit","110","660708","0.0-71.0-0.0","38044783","wem/bandit_either","A3IF13XHP5UPO2","either","2","","","","","","","0","1","0","","0.4249454459","0.8","0.6","0.2","0.4","0.4249454459","0.3574295763","0.3360649894","0.2471118655","","","","","","","","","","","72","H","0","img/none_selected.jpg","","32","main_expt"
"405","","bandit","111","662634","0.0-72.0-0.0","38044783","wem/bandit_either","A3IF13XHP5UPO2","either","2","","","","","","","0","0","1","0.416417765","","0.8","0.6","0.2","0.4","","","","","0.416417765","0.3877818659","0.3052602024","0.2879199001","","","","","","","72","H","0","img/none_selected.jpg","","33","main_expt"
"271","","bandit","112","664425","0.0-73.0-0.0","38044783","wem/bandit_either","A3IF13XHP5UPO2","either","2","","","","","","","0","1","0","","0.4623714429","0.8","0.6","0.2","0.4","0.4623714429","0.3799496232","0.3594788954","0.3180115212","","","","","","","","","","","72","H","0","img/none_selected.jpg","","34","main_expt"
"106","","bandit","113","666050","0.0-74.0-0.0","38044783","wem/bandit_either","A3IF13XHP5UPO2","either","2","","","","","","","0","0","1","0.4591977302","","0.8","0.6","0.2","0.4","","","","","0.4591977302","0.3577573403","0.380235832","0.2524306687","","","","","","","72","H","0","img/none_selected.jpg","","35","main_expt"
"370","","bandit","114","667940","0.0-75.0-0.0","38044783","wem/bandit_either","A3IF13XHP5UPO2","either","2","","","","","","","0","0","1","","0.3459989602","0.8","0.6","0.2","0.4","0.4686235256","0.3895375856","0.3459989602","0.2351869563","","","","","","","","","","","75","K","2","","","36","main_expt"
"8","","bandit","115","669463","0.0-76.0-0.0","38044783","wem/bandit_either","A3IF13XHP5UPO2","either","2","","","","","","","0","0","1","0.3783527007","","0.8","0.6","0.2","0.4","","","","","0.4571547709","0.3783527007","0.3320905149","0.2629170466","","","","","","","74","J","1","","","37","main_expt"
"27","","bandit","116","671001","0.0-77.0-0.0","38044783","wem/bandit_either","A3IF13XHP5UPO2","either","2","","","","","","","0","0","1","","0.3471020919","0.8","0.6","0.2","0.4","0.4688430709","0.284076782","0.3471020919","0.3090194305","","","","","","","","","","","75","K","2","","","38","main_expt"
"8","","bandit","117","672530","0.0-78.0-0.0","38044783","wem/bandit_either","A3IF13XHP5UPO2","either","2","","","","","","","0","0","1","0.4612923778","","0.8","0.6","0.2","0.4","","","","","0.4612923778","0.3388972186","0.3401763967","0.2845371228","","","","","","","72","H","0","img/none_selected.jpg","","39","main_expt"
"293","","bandit","118","674350","0.0-79.0-0.0","38044783","wem/bandit_either","A3IF13XHP5UPO2","either","2","","","","","","","0","0","1","0.4576194683","","0.8","0.6","0.2","0.4","","","","","0.4576194683","0.2663655232","0.3260487483","0.3076259244","","","","","","","72","H","0","img/none_selected.jpg","","40","main_expt"
"286","","bandit","119","676159","0.0-80.0-0.0","38044783","wem/bandit_either","A3IF13XHP5UPO2","either","2","","","","","","","0","0","1","0.4473921051","","0.8","0.6","0.2","0.4","","","","","0.4473921051","0.2608266697","0.3390218734","0.2888769276","","","","","","","72","H","0","img/none_selected.jpg","","41","main_expt"
"289","","bandit","120","677965","0.0-81.0-0.0","38044783","wem/bandit_either","A3IF13XHP5UPO2","either","2","","","","","","","0","0","1","0.425470286","","0.8","0.6","0.2","0.4","","","","","0.425470286","0.2287676803","0.2889680017","0.2639198141","","","","","","","72","H","0","img/none_selected.jpg","","42","main_expt"
"2705","","bandit","121","682182","0.0-82.0-0.0","38044783","wem/bandit_either","A3IF13XHP5UPO2","either","2","","","","","","","0","1","0","","0.4030522017","0.8","0.6","0.2","0.4","0.4030522017","0.2043112358","0.2784828801","0.2255441472","","","","","","","","","","","72","H","0","img/none_selected.jpg","","43","main_expt"
"1428","","bandit","122","685128","0.0-83.0-0.0","38044783","wem/bandit_either","A3IF13XHP5UPO2","either","2","","","","","","","0","1","0","","0.4106315797","0.8","0.6","0.2","0.4","0.4106315797","0.1957049551","0.2805729819","0.2050272072","","","","","","","","","","","72","H","0","img/none_selected.jpg","","44","main_expt"
"535","","bandit","123","687182","0.0-84.0-0.0","38044783","wem/bandit_either","A3IF13XHP5UPO2","either","2","","","","","","","0","0","1","0.4258527362","","0.8","0.6","0.2","0.4","","","","","0.4258527362","0.2207366272","0.2195119073","0.239455925","","","","","","","72","H","0","img/none_selected.jpg","","45","main_expt"
"375","","bandit","124","689076","0.0-85.0-0.0","38044783","wem/bandit_either","A3IF13XHP5UPO2","either","2","","","","","","","0","0","1","0.4425966235","","0.8","0.6","0.2","0.4","","","","","0.4425966235","0.1727988076","0.2657932304","0.2414778298","","","","","","","72","H","0","img/none_selected.jpg","","46","main_expt"
"314","","bandit","125","690909","0.0-86.0-0.0","38044783","wem/bandit_either","A3IF13XHP5UPO2","either","2","","","","","","","0","0","1","0.4428977597","","0.8","0.6","0.2","0.4","","","","","0.4428977597","0.1446735631","0.2678398397","0.1884211613","","","","","","","72","H","0","img/none_selected.jpg","","47","main_expt"
"46","","bandit","126","692474","0.0-87.0-0.0","38044783","wem/bandit_either","A3IF13XHP5UPO2","either","2","","","","","","","0","0","1","","0.4479964269","0.8","0.6","0.2","0.4","0.4479964269","0.1681765936","0.2866904938","0.1755274282","","","","","","","","","","","72","H","0","img/none_selected.jpg","","48","main_expt"
"358","","bandit","127","694354","0.0-88.0-0.0","38044783","wem/bandit_either","A3IF13XHP5UPO2","either","2","","","","","","","0","0","1","","0.4660387519","0.8","0.6","0.2","0.4","0.4660387519","0.1473883531","0.2803848884","0.1646396384","","","","","","","","","","","72","H","0","img/none_selected.jpg","","49","main_expt"
"416","","bandit","128","696296","0.0-89.0-0.0","38044783","wem/bandit_either","A3IF13XHP5UPO2","either","2","","","","","","","0","1","0","","0.4345757832","0.8","0.6","0.2","0.4","0.4345757832","0.1378170987","0.2587411269","0.2024226619","","","","","","","","","","","72","H","0","img/none_selected.jpg","","50","main_expt"
"276","","bandit","129","698093","0.0-90.0-0.0","38044783","wem/bandit_either","A3IF13XHP5UPO2","either","2","","","","","","","0","0","1","0.4450950844","","0.8","0.6","0.2","0.4","","","","","0.4450950844","0.1430360168","0.2212901065","0.1976760068","","","","","","","72","H","0","img/none_selected.jpg","","51","main_expt"
"290","","bandit","130","699904","0.0-91.0-0.0","38044783","wem/bandit_either","A3IF13XHP5UPO2","either","2","","","","","","","0","0","1","","0.4475354499","0.8","0.6","0.2","0.4","0.4475354499","0.1731798725","0.236006857","0.1796352224","","","","","","","","","","","72","H","0","img/none_selected.jpg","","52","main_expt"
"444","","bandit","131","701870","0.0-92.0-0.0","38044783","wem/bandit_either","A3IF13XHP5UPO2","either","2","","","","","","","1","0","0","0.4627294295","","0.8","0.6","0.2","0.4","","","","","0.4627294295","0.1312409056","0.2660825342","0.2451732725","","","","","","","72","H","0","img/none_selected.jpg","","53","main_expt"
"332","","bandit","132","703724","0.0-93.0-0.0","38044783","wem/bandit_either","A3IF13XHP5UPO2","either","2","","","","","","","0","0","1","0.44829207","","0.8","0.6","0.2","0.4","","","","","0.44829207","0.1862053218","0.2458345041","0.2621482643","","","","","","","72","H","0","img/none_selected.jpg","","54","main_expt"
"678","","bandit","133","705922","0.0-94.0-0.0","38044783","wem/bandit_either","A3IF13XHP5UPO2","either","2","","","","","","","0","0","1","","0.4505537928","0.8","0.6","0.2","0.4","0.4505537928","0.1733563037","0.2265690781","0.2441780383","","","","","","","","","","","72","H","0","img/none_selected.jpg","","55","main_expt"
"410","","bandit","134","707852","0.0-95.0-0.0","38044783","wem/bandit_either","A3IF13XHP5UPO2","either","2","","","","","","","0","0","1","0.4686400132","","0.8","0.6","0.2","0.4","","","","","0.4686400132","0.1728369204","0.2741820357","0.199729785","","","","","","","72","H","0","img/none_selected.jpg","","56","main_expt"
"309","","bandit","135","709680","0.0-96.0-0.0","38044783","wem/bandit_either","A3IF13XHP5UPO2","either","2","","","","","","","0","0","1","0.4572679106","","0.8","0.6","0.2","0.4","","","","","0.4572679106","0.09176359954","0.2937641054","0.1945085845","","","","","","","72","H","0","img/none_selected.jpg","","57","main_expt"
"467","","bandit","136","711669","0.0-97.0-0.0","38044783","wem/bandit_either","A3IF13XHP5UPO2","either","2","","","","","","","1","0","0","0.4300169527","","0.8","0.6","0.2","0.4","","","","","0.4300169527","0.04991422033","0.2949827607","0.2614759052","","","","","","","72","H","0","img/none_selected.jpg","","58","main_expt"
"520","","bandit","137","713709","0.0-98.0-0.0","38044783","wem/bandit_either","A3IF13XHP5UPO2","either","2","","","","","","","0","1","0","","0.4050829606","0.8","0.6","0.2","0.4","0.4050829606","0.053239915","0.2710075273","0.2426118991","","","","","","","","","","","72","H","0","img/none_selected.jpg","","59","main_expt"
"425","","bandit","138","715654","0.0-99.0-0.0","38044783","wem/bandit_either","A3IF13XHP5UPO2","either","2","","","","","","","0","0","1","0.4070720156","","0.8","0.6","0.2","0.4","","","","","0.4070720156","0.06994226662","0.2766623035","0.2623750897","","","","","","","72","H","0","img/none_selected.jpg","","60","main_expt"
"743","","bandit","139","717918","0.0-100.0-0.0","38044783","wem/bandit_either","A3IF13XHP5UPO2","either","2","","","","","","","0","1","0","","0.3895400789","0.8","0.6","0.2","0.4","0.3895400789","0.07064832373","0.2574592035","0.2139103784","","","","","","","","","","","72","H","0","img/none_selected.jpg","","61","main_expt"
"21","","bandit","140","719461","0.0-101.0-0.0","38044783","wem/bandit_either","A3IF13XHP5UPO2","either","2","","","","","","","0","0","1","0.2566580444","","0.8","0.6","0.2","0.4","","","","","0.4050708951","0.08925217872","0.2425209234","0.2566580444","","","","","","","76","L","3","","","62","main_expt"
"325","","bandit","141","721305","0.0-102.0-0.0","38044783","wem/bandit_either","A3IF13XHP5UPO2","either","2","","","","","","","0","0","1","","0.2294211584","0.8","0.6","0.2","0.4","0.3765761212","0.08505035955","0.2294211584","0.2393402704","","","","","","","","","","","75","K","2","","","63","main_expt"
"20","","bandit","142","722844","0.0-103.0-0.0","38044783","wem/bandit_either","A3IF13XHP5UPO2","either","2","","","","","","","0","0","1","","0.2350173232","0.8","0.6","0.2","0.4","0.3859881554","0.09892528285","0.2350173232","0.300105392","","","","","","","","","","","75","K","2","","","64","main_expt"
"272","","bandit","143","724639","0.0-104.0-0.0","38044783","wem/bandit_either","A3IF13XHP5UPO2","either","2","","","","","","","1","0","0","0.3817039273","","0.8","0.6","0.2","0.4","","","","","0.3817039273","0.1428545766","0.2775473173","0.2584268813","","","","","","","72","H","0","img/none_selected.jpg","","65","main_expt"
"294","","bandit","144","726455","0.0-105.0-0.0","38044783","wem/bandit_either","A3IF13XHP5UPO2","either","2","","","","","","","0","0","1","0.3622232449","","0.8","0.6","0.2","0.4","","","","","0.3622232449","0.120440259","0.298861572","0.2536378703","","","","","","","72","H","0","img/none_selected.jpg","","66","main_expt"
"51","","bandit","145","728028","0.0-106.0-0.0","38044783","wem/bandit_either","A3IF13XHP5UPO2","either","2","","","","","","","0","0","1","0.2548884231","","0.8","0.6","0.2","0.4","","","","","0.3768721334","0.2019700983","0.3043747659","0.2548884231","","","","","","","76","L","3","","","67","main_expt"
"9","","bandit","146","729559","0.0-107.0-0.0","38044783","wem/bandit_either","A3IF13XHP5UPO2","either","2","","","","","","","0","0","1","0.2533072519","","0.8","0.6","0.2","0.4","","","","","0.3826604183","0.1467862533","0.2533072519","0.2105458193","","","","","","","75","K","2","","","68","main_expt"
"293","","bandit","147","731365","0.0-108.0-0.0","38044783","wem/bandit_either","A3IF13XHP5UPO2","either","2","","","","","","","0","1","0","","0.09022805221","0.8","0.6","0.2","0.4","0.3981811202","0.09022805221","0.2451677402","0.2901666962","","","","","","","","","","","74","J","1","","","69","main_expt"
"230","","bandit","148","733116","0.0-109.0-0.0","38044783","wem/bandit_either","A3IF13XHP5UPO2","either","2","","","","","","","1","0","0","0.3936557204","","0.8","0.6","0.2","0.4","","","","","0.3936557204","0.1128827508","0.2403061491","0.2973761433","","","","","","","72","H","0","img/none_selected.jpg","","70","main_expt"
"610","","bandit","149","735245","0.0-110.0-0.0","38044783","wem/bandit_either","A3IF13XHP5UPO2","either","2","","","","","","","1","0","0","0.3949471057","","0.8","0.6","0.2","0.4","","","","","0.3949471057","0.1184182172","0.1917576795","0.2737706179","","","","","","","72","H","0","img/none_selected.jpg","","71","main_expt"
"623","","bandit","150","737389","0.0-111.0-0.0","38044783","wem/bandit_either","A3IF13XHP5UPO2","either","2","","","","","","","0","0","1","","0.3888869603","0.8","0.6","0.2","0.4","0.3888869603","0.1038133506","0.1894079546","0.3005227265","","","","","","","","","","","72","H","0","img/none_selected.jpg","","72","main_expt"
"299","","bandit","151","739202","0.0-112.0-0.0","38044783","wem/bandit_either","A3IF13XHP5UPO2","either","2","","","","","","","0","0","1","0.4015056825","","0.8","0.6","0.2","0.4","","","","","0.4015056825","0.07830871569","0.235909594","0.3205676235","","","","","","","72","H","0","img/none_selected.jpg","","73","main_expt"
"156","","bandit","152","740879","0.0-113.0-0.0","38044783","wem/bandit_either","A3IF13XHP5UPO2","either","2","","","","","","","0","0","1","0.4200542591","","0.8","0.6","0.2","0.4","","","","","0.4200542591","0.09226686474","0.2772030277","0.3040473008","","","","","","","72","H","0","img/none_selected.jpg","","74","main_expt"
"427","","bandit","153","742826","0.0-114.0-0.0","38044783","wem/bandit_either","A3IF13XHP5UPO2","either","2","","","","","","","0","0","1","0.4353174817","","0.8","0.6","0.2","0.4","","","","","0.4353174817","0.07948082514","0.2237268092","0.2686744794","","","","","","","72","H","0","img/none_selected.jpg","","75","main_expt"
"401","","bandit","154","744750","0.0-115.0-0.0","38044783","wem/bandit_either","A3IF13XHP5UPO2","either","2","","","","","","","0","0","1","0.4196821318","","0.8","0.6","0.2","0.4","","","","","0.4196821318","0.1279570505","0.1739375455","0.258707356","","","","","","","72","H","0","img/none_selected.jpg","","76","main_expt"
"418","","bandit","155","746689","0.0-116.0-0.0","38044783","wem/bandit_either","A3IF13XHP5UPO2","either","2","","","","","","","0","0","1","0.3787369199","","0.8","0.6","0.2","0.4","","","","","0.3787369199","0.1202820049","0.1648796623","0.3010070056","","","","","","","72","H","0","img/none_selected.jpg","","77","main_expt"
"416","","bandit","156","748624","0.0-117.0-0.0","38044783","wem/bandit_either","A3IF13XHP5UPO2","either","2","","","","","","","1","0","0","0.4314930014","","0.8","0.6","0.2","0.4","","","","","0.4314930014","0.1054071572","0.1637798684","0.2648586626","","","","","","","72","H","0","img/none_selected.jpg","","78","main_expt"
"431","","bandit","157","750575","0.0-118.0-0.0","38044783","wem/bandit_either","A3IF13XHP5UPO2","either","2","","","","","","","0","0","1","0.4155078174","","0.8","0.6","0.2","0.4","","","","","0.4155078174","0.1403095361","0.1490076182","0.1984114041","","","","","","","72","H","0","img/none_selected.jpg","","79","main_expt"
"397","","bandit","158","752494","0.0-119.0-0.0","38044783","wem/bandit_either","A3IF13XHP5UPO2","either","2","","","","","","","1","0","0","0.4226243671","","0.8","0.6","0.2","0.4","","","","","0.4226243671","0.1891235553","0.1093198388","0.180325551","","","","","","","72","H","0","img/none_selected.jpg","","80","main_expt"
"580","","bandit","159","754595","0.0-120.0-0.0","38044783","wem/bandit_either","A3IF13XHP5UPO2","either","2","","","","","","","1","0","0","0.4474166549","","0.8","0.6","0.2","0.4","","","","","0.4474166549","0.1858030354","0.08868186825","0.224531153","","","","","","","72","H","0","img/none_selected.jpg","","81","main_expt"
"92","","bandit","160","756210","0.0-121.0-0.0","38044783","wem/bandit_either","A3IF13XHP5UPO2","either","2","","","","","","","0","0","1","0.4636297045","","0.8","0.6","0.2","0.4","","","","","0.4636297045","0.2476542501","0.1073880826","0.221125015","","","","","","","72","H","0","img/none_selected.jpg","","82","main_expt"
"124","","bandit","161","757855","0.0-122.0-0.0","38044783","wem/bandit_either","A3IF13XHP5UPO2","either","2","","","","","","","1","0","0","0.467509749","","0.8","0.6","0.2","0.4","","","","","0.467509749","0.2188241074","0.1022587498","0.2143237207","","","","","","","72","H","0","img/none_selected.jpg","","83","main_expt"
"184","","bandit","162","759560","0.0-123.0-0.0","38044783","wem/bandit_either","A3IF13XHP5UPO2","either","2","","","","","","","1","0","0","0.4551111531","","0.8","0.6","0.2","0.4","","","","","0.4551111531","0.2754771977","0.1085807699","0.2097367537","","","","","","","72","H","0","img/none_selected.jpg","","84","main_expt"
"233","","bandit","163","761315","0.0-124.0-0.0","38044783","wem/bandit_either","A3IF13XHP5UPO2","either","2","","","","","","","0","0","1","0.4621419017","","0.8","0.6","0.2","0.4","","","","","0.4621419017","0.2965575968","0.1263918358","0.1661536269","","","","","","","72","H","0","img/none_selected.jpg","","85","main_expt"
"116","","bandit","164","762955","0.0-125.0-0.0","38044783","wem/bandit_either","A3IF13XHP5UPO2","either","2","","","","","","","1","0","0","0.4612050897","","0.8","0.6","0.2","0.4","","","","","0.4612050897","0.257129161","0.1481941301","0.1364458955","","","","","","","72","H","0","img/none_selected.jpg","","86","main_expt"
"270","","bandit","165","764746","0.0-126.0-0.0","38044783","wem/bandit_either","A3IF13XHP5UPO2","either","2","","","","","","","0","0","1","0.4334675206","","0.8","0.6","0.2","0.4","","","","","0.4334675206","0.2338967043","0.1447872846","0.08235553135","","","","","","","72","H","0","img/none_selected.jpg","","87","main_expt"
"267","","bandit","166","766536","0.0-127.0-0.0","38044783","wem/bandit_either","A3IF13XHP5UPO2","either","2","","","","","","","0","0","1","0.4397617206","","0.8","0.6","0.2","0.4","","","","","0.4397617206","0.2161535794","0.1391637727","0.0754832669","","","","","","","72","H","0","img/none_selected.jpg","","88","main_expt"
"689","","bandit","167","768757","0.0-128.0-0.0","38044783","wem/bandit_either","A3IF13XHP5UPO2","either","2","","","","","","","0","0","1","0.4635478967","","0.8","0.6","0.2","0.4","","","","","0.4635478967","0.2043146745","0.1476089376","0.109361408","","","","","","","72","H","0","img/none_selected.jpg","","89","main_expt"
"299","","bandit","168","770578","0.0-129.0-0.0","38044783","wem/bandit_either","A3IF13XHP5UPO2","either","2","","","","","","","0","1","0","","0.4234969579","0.8","0.6","0.2","0.4","0.4234969579","0.2346009907","0.2081489191","0.07391079866","","","","","","","","","","","72","H","0","img/none_selected.jpg","","90","main_expt"
"315","","bandit","169","772414","0.0-130.0-0.0","38044783","wem/bandit_either","A3IF13XHP5UPO2","either","2","","","","","","","0","0","1","0.4267507071","","0.8","0.6","0.2","0.4","","","","","0.4267507071","0.2333967219","0.1834039029","0.1164594673","","","","","","","72","H","0","img/none_selected.jpg","","91","main_expt"
"271","","bandit","170","774209","0.0-131.0-0.0","38044783","wem/bandit_either","A3IF13XHP5UPO2","either","2","","","","","","","1","0","0","0.4089505196","","0.8","0.6","0.2","0.4","","","","","0.4089505196","0.2150480475","0.2027314649","0.113043345","","","","","","","72","H","0","img/none_selected.jpg","","92","main_expt"
"1321","","bandit","171","777052","0.0-132.0-0.0","38044783","wem/bandit_either","A3IF13XHP5UPO2","either","2","","","","","","","0","0","1","0.4112501448","","0.8","0.6","0.2","0.4","","","","","0.4112501448","0.2588080464","0.1738894496","0.1714352716","","","","","","","72","H","0","img/none_selected.jpg","","93","main_expt"
"609","","bandit","172","779184","0.0-133.0-0.0","38044783","wem/bandit_either","A3IF13XHP5UPO2","either","2","","","","","","","1","0","0","0.452415855","","0.8","0.6","0.2","0.4","","","","","0.452415855","0.2748849181","0.2484708832","0.1253024032","","","","","","","72","H","0","img/none_selected.jpg","","94","main_expt"
"483","","bandit","173","781190","0.0-134.0-0.0","38044783","wem/bandit_either","A3IF13XHP5UPO2","either","2","","","","","","","0","0","1","0.1401284447","","0.8","0.6","0.2","0.4","","","","","0.4589197587","0.2791739054","0.2914685715","0.1401284447","","","","","","","76","L","3","","","95","main_expt"
"170","","bandit","174","782882","0.0-135.0-0.0","38044783","wem/bandit_either","A3IF13XHP5UPO2","either","2","","","","","","","0","0","1","","0.3149564315","0.8","0.6","0.2","0.4","0.4481870348","0.3149564315","0.2417524935","0.1320491369","","","","","","","","","","","74","J","1","","","96","main_expt"
"292","","bandit","175","784700","0.0-136.0-0.0","38044783","wem/bandit_either","A3IF13XHP5UPO2","either","2","","","","","","","0","0","1","0.372564007","","0.8","0.6","0.2","0.4","","","","","0.4597072186","0.372564007","0.2492821404","0.1518453759","","","","","","","74","J","1","","","97","main_expt"
"344","","bandit","176","786569","0.0-137.0-0.0","38044783","wem/bandit_either","A3IF13XHP5UPO2","either","2","","","","","","","0","1","0","","0.393328365","0.8","0.6","0.2","0.4","0.4705619112","0.393328365","0.3002958449","0.2173959583","","","","","","","","","","","74","J","1","","","98","main_expt"
"290","","bandit","177","788382","0.0-138.0-0.0","38044783","wem/bandit_either","A3IF13XHP5UPO2","either","2","","","","","","","1","0","0","0.421239771","","0.8","0.6","0.2","0.4","","","","","0.4800968761","0.421239771","0.3544832656","0.2618725657","","","","","","","74","J","1","","","99","main_expt"
"323","","bandit","178","790228","0.0-139.0-0.0","38044783","wem/bandit_either","A3IF13XHP5UPO2","either","2","","","","","","","1","0","0","0.4130759476","","0.8","0.6","0.2","0.4","","","","","0.4780143146","0.4130759476","0.3810954338","0.2487788848","","","","","","","74","J","1","","","100","main_expt"
"349","","bandit","179","792098","0.0-140.0-0.0","38044783","wem/bandit_either","A3IF13XHP5UPO2","either","2","","","","","","","0","0","1","0.4089462913","","0.8","0.6","0.2","0.4","","","","","0.4849002763","0.4089462913","0.4042362267","0.2890792313","","","","","","","74","J","1","","","101","main_expt"
"296","","bandit","180","793910","0.0-141.0-0.0","38044783","wem/bandit_either","A3IF13XHP5UPO2","either","2","","","","","","","0","0","1","0.370330464","","0.8","0.6","0.2","0.4","","","","","0.4886078379","0.370330464","0.4594696392","0.3136369757","","","","","","","74","J","1","","","102","main_expt"
"358","","bandit","181","795791","0.0-142.0-0.0","38044783","wem/bandit_either","A3IF13XHP5UPO2","either","2","","","","","","","1","0","0","0.3306315663","","0.8","0.6","0.2","0.4","","","","","0.47121906","0.3306315663","0.4588766667","0.2364671533","","","","","","","74","J","1","","","103","main_expt"
"366","","bandit","182","797680","0.0-143.0-0.0","38044783","wem/bandit_either","A3IF13XHP5UPO2","either","2","","","","","","","0","0","1","0.354634178","","0.8","0.6","0.2","0.4","","","","","0.4760763377","0.354634178","0.4372785745","0.2202486688","","","","","","","74","J","1","","","104","main_expt"
"327","","bandit","183","799530","0.0-144.0-0.0","38044783","wem/bandit_either","A3IF13XHP5UPO2","either","2","","","","","","","0","0","1","0.3896605338","","0.8","0.6","0.2","0.4","","","","","0.4701389446","0.3896605338","0.4063887309","0.1854418088","","","","","","","74","J","1","","","105","main_expt"
"279","","bandit","184","801326","0.0-145.0-0.0","38044783","wem/bandit_either","A3IF13XHP5UPO2","either","2","","","","","","","0","1","0","","0.414339711","0.8","0.6","0.2","0.4","0.471324938","0.414339711","0.3778019321","0.1596754559","","","","","","","","","","","74","J","1","","","106","main_expt"
"225","","bandit","185","803075","0.0-146.0-0.0","38044783","wem/bandit_either","A3IF13XHP5UPO2","either","2","","","","","","","0","0","1","","0.4164239898","0.8","0.6","0.2","0.4","0.4786694594","0.4164239898","0.3614143111","0.137099288","","","","","","","","","","","74","J","1","","","107","main_expt"
"390","","bandit","186","804991","0.0-147.0-0.0","38044783","wem/bandit_either","A3IF13XHP5UPO2","either","2","","","","","","","0","0","1","","0.3836571442","0.8","0.6","0.2","0.4","0.4810065258","0.3836571442","0.3681250399","0.1443984823","","","","","","","","","","","74","J","1","","","108","main_expt"
"364","","bandit","187","806880","0.0-148.0-0.0","38044783","wem/bandit_either","A3IF13XHP5UPO2","either","2","","","","","","","0","0","1","","0.3881214568","0.8","0.6","0.2","0.4","0.4816764674","0.3881214568","0.3446081275","0.1409511773","","","","","","","","","","","74","J","1","","","109","main_expt"
"302","","bandit","188","808704","0.0-149.0-0.0","38044783","wem/bandit_either","A3IF13XHP5UPO2","either","2","","","","","","","0","1","0","","0.4266873791","0.8","0.6","0.2","0.4","0.4882082215","0.4266873791","0.3681270965","0.1787750665","","","","","","","","","","","74","J","1","","","110","main_expt"
"118","","bandit","189","810350","0.0-150.0-0.0","38044783","wem/bandit_either","A3IF13XHP5UPO2","either","2","","","","","","","1","0","0","0.4475699482","","0.8","0.6","0.2","0.4","","","","","0.478642168","0.4475699482","0.391379093","0.1862786225","","","","","","","74","J","1","","","111","main_expt"
"342","","bandit","190","812214","0.0-151.0-0.0","38044783","wem/bandit_either","A3IF13XHP5UPO2","either","2","","","","","","","0","0","1","","0.4190314983","0.8","0.6","0.2","0.4","0.4841415165","0.4190314983","0.4131544452","0.1654620982","","","","","","","","","","","74","J","1","","","112","main_expt"
"394","","bandit","191","814133","0.0-152.0-0.0","38044783","wem/bandit_either","A3IF13XHP5UPO2","either","2","","","","","","","0","0","1","0.3666128881","","0.8","0.6","0.2","0.4","","","","","0.4883212127","0.3666128881","0.3963985948","0.1582981878","","","","","","","74","J","1","","","113","main_expt"
"183","","bandit","192","815840","0.0-153.0-0.0","38044783","wem/bandit_either","A3IF13XHP5UPO2","either","2","","","","","","","1","0","0","0.3866259854","","0.8","0.6","0.2","0.4","","","","","0.4883790739","0.3866259854","0.4117985871","0.1922757069","","","","","","","74","J","1","","","114","main_expt"
"221","","bandit","193","817587","0.0-154.0-0.0","38044783","wem/bandit_either","A3IF13XHP5UPO2","either","2","","","","","","","0","0","1","0.354161152","","0.8","0.6","0.2","0.4","","","","","0.4902011966","0.354161152","0.394381103","0.185618385","","","","","","","74","J","1","","","115","main_expt"
"579","","bandit","194","819689","0.0-155.0-0.0","38044783","wem/bandit_either","A3IF13XHP5UPO2","either","2","","","","","","","0","0","1","","0.3170745426","0.8","0.6","0.2","0.4","0.4844723045","0.3170745426","0.3762408663","0.2057277395","","","","","","","","","","","74","J","1","","","116","main_expt"
"201","","bandit","195","821413","0.0-156.0-0.0","38044783","wem/bandit_either","A3IF13XHP5UPO2","either","2","","","","","","","0","0","1","0.304536318","","0.8","0.6","0.2","0.4","","","","","0.4895589844","0.304536318","0.3823674378","0.2288411079","","","","","","","74","J","1","","","117","main_expt"
"147","","bandit","196","823076","0.0-157.0-0.0","38044783","wem/bandit_either","A3IF13XHP5UPO2","either","2","","","","","","","1","0","0","0.3411026949","","0.8","0.6","0.2","0.4","","","","","0.4899729034","0.3411026949","0.4050195855","0.2207517482","","","","","","","74","J","1","","","118","main_expt"
"1739","","bandit","197","826340","0.0-158.0-0.0","38044783","wem/bandit_either","A3IF13XHP5UPO2","either","2","","","","","","","0","0","1","","0.3447942488","0.8","0.6","0.2","0.4","0.4947041593","0.3447942488","0.4227562767","0.1955286499","","","","","","","","","","","74","J","1","","","119","main_expt"
"674","","bandit","198","828537","0.0-159.0-0.0","38044783","wem/bandit_either","A3IF13XHP5UPO2","either","2","","","","","","","0","0","1","","0.3686185352","0.8","0.6","0.2","0.4","0.4916865355","0.3686185352","0.4163810796","0.2427950695","","","","","","","","","","","74","J","1","","","120","main_expt"
"94","","bandit","199","830156","0.0-160.0-0.0","38044783","wem/bandit_either","A3IF13XHP5UPO2","either","2","","","","","","","0","0","1","0.3547669752","","0.8","0.6","0.2","0.4","","","","","0.4860386064","0.3547669752","0.406821829","0.2479682904","","","","","","","74","J","1","","","121","main_expt"
"2120","","bandit","200","833801","0.0-161.0-0.0","38044783","wem/bandit_either","A3IF13XHP5UPO2","either","2","","","","","","","0","0","1","0.365994073","","0.8","0.6","0.2","0.4","","","","","0.483083859","0.365994073","0.3999449125","0.3081985406","","","","","","","74","J","1","","","122","main_expt"
"1083","","bandit","201","836407","0.0-162.0-0.0","38044783","wem/bandit_either","A3IF13XHP5UPO2","either","2","","","","","","","0","0","1","","0.3120596142","0.8","0.6","0.2","0.4","0.4791491275","0.3120596142","0.366626489","0.3089359708","","","","","","","","","","","74","J","1","","","123","main_expt"
"6","","bandit","202","837936","0.0-163.0-0.0","38044783","wem/bandit_either","A3IF13XHP5UPO2","either","2","","","","","","","1","0","0","0.302161917","","0.8","0.6","0.2","0.4","","","","","0.4776777384","0.302161917","0.3706278578","0.3298338218","","","","","","","74","J","1","","","124","main_expt"
"1678","","bandit","203","841140","0.0-164.0-0.0","38044783","wem/bandit_either","A3IF13XHP5UPO2","either","2","","","","","","","0","0","1","0.2794370347","","0.8","0.6","0.2","0.4","","","","","0.478983255","0.2794370347","0.3545504723","0.2795250441","","","","","","","74","J","1","","","125","main_expt"
"555","","bandit","204","843218","0.0-165.0-0.0","38044783","wem/bandit_either","A3IF13XHP5UPO2","either","2","","","","","","","0","0","1","","0.2466154908","0.8","0.6","0.2","0.4","0.4724726719","0.2466154908","0.3106298006","0.2184127205","","","","","","","","","","","74","J","1","","","126","main_expt"
"135","","bandit","205","844876","0.0-166.0-0.0","38044783","wem/bandit_either","A3IF13XHP5UPO2","either","2","","","","","","","0","0","1","","0.2712823261","0.8","0.6","0.2","0.4","0.4796244369","0.2712823261","0.3351405197","0.2488858907","","","","","","","","","","","74","J","1","","","127","main_expt"
"116","","bandit","206","846515","0.0-167.0-0.0","38044783","wem/bandit_either","A3IF13XHP5UPO2","either","2","","","","","","","0","0","1","0.2095517986","","0.8","0.6","0.2","0.4","","","","","0.4825212971","0.2095517986","0.2984422464","0.2850827173","","","","","","","74","J","1","","","128","main_expt"
"304","","bandit","207","848344","0.0-168.0-0.0","38044783","wem/bandit_either","A3IF13XHP5UPO2","either","2","","","","","","","0","0","1","","0.1986866195","0.8","0.6","0.2","0.4","0.4877535013","0.1986866195","0.2027892291","0.2867242009","","","","","","","","","","","74","J","1","","","129","main_expt"
"365","","bandit","208","850232","0.0-169.0-0.0","38044783","wem/bandit_either","A3IF13XHP5UPO2","either","2","","","","","","","0","0","1","","0.172959111","0.8","0.6","0.2","0.4","0.4833646461","0.172959111","0.13768179","0.2509552002","","","","","","","","","","","74","J","1","","","130","main_expt"
"137","","bandit","209","851897","0.0-170.0-0.0","38044783","wem/bandit_either","A3IF13XHP5UPO2","either","2","","","","","","","0","0","1","","0.163172462","0.8","0.6","0.2","0.4","0.4790990265","0.163172462","0.1352832961","0.2172434631","","","","","","","","","","","74","J","1","","","131","main_expt"
"1851","","bandit","210","855274","0.0-171.0-0.0","38044783","wem/bandit_either","A3IF13XHP5UPO2","either","2","","","","","","","1","0","0","0.4882311922","","0.8","0.6","0.2","0.4","","","","","0.4882311922","0.161148659","0.08660982753","0.158295755","","","","","","","72","H","0","img/none_selected.jpg","","132","main_expt"
"8","","bandit","211","856809","0.0-172.0-0.0","38044783","wem/bandit_either","A3IF13XHP5UPO2","either","2","","","","","","","0","0","1","0.4889625365","","0.8","0.6","0.2","0.4","","","","","0.4889625365","0.1735641072","0.1020907376","0.185310911","","","","","","","72","H","0","img/none_selected.jpg","","133","main_expt"
"265","","bandit","212","858596","0.0-173.0-0.0","38044783","wem/bandit_either","A3IF13XHP5UPO2","either","2","","","","","","","0","0","1","0.4916783795","","0.8","0.6","0.2","0.4","","","","","0.4916783795","0.1597390633","0.1231499397","0.1966535246","","","","","","","72","H","0","img/none_selected.jpg","","134","main_expt"
"136","","bandit","213","860258","0.0-174.0-0.0","38044783","wem/bandit_either","A3IF13XHP5UPO2","either","2","","","","","","","0","0","1","","0.4904315354","0.8","0.6","0.2","0.4","0.4904315354","0.1460070414","0.1524236556","0.2290191974","","","","","","","","","","","72","H","0","img/none_selected.jpg","","135","main_expt"
"30","","bandit","214","861813","0.0-175.0-0.0","38044783","wem/bandit_either","A3IF13XHP5UPO2","either","2","","","","","","","0","0","1","0.491666595","","0.8","0.6","0.2","0.4","","","","","0.491666595","0.105474526","0.1954247664","0.2929229053","","","","","","","72","H","0","img/none_selected.jpg","","136","main_expt"
"122","","bandit","215","863461","0.0-176.0-0.0","38044783","wem/bandit_either","A3IF13XHP5UPO2","either","2","","","","","","","0","0","1","","0.08835118593","0.8","0.6","0.2","0.4","0.4917142499","0.08835118593","0.1833989084","0.2780805385","","","","","","","","","","","74","J","1","","","137","main_expt"
"715","","bandit","216","865701","0.0-177.0-0.0","38044783","wem/bandit_either","A3IF13XHP5UPO2","either","2","","","","","","","0","0","1","0.06418360449","","0.8","0.6","0.2","0.4","","","","","0.4870170403","0.06418360449","0.1490533902","0.217224157","","","","","","","74","J","1","","","138","main_expt"
"358","","bandit","217","867577","0.0-178.0-0.0","38044783","wem/bandit_either","A3IF13XHP5UPO2","either","2","","","","","","","0","0","1","","0.03554325754","0.8","0.6","0.2","0.4","0.4834992155","0.03554325754","0.1318817547","0.2323391466","","","","","","","","","","","74","J","1","","","139","main_expt"
"1787","","bandit","218","870889","0.0-179.0-0.0","38044783","wem/bandit_either","A3IF13XHP5UPO2","either","2","","","","","","","0","0","1","0.04477370895","","0.8","0.6","0.2","0.4","","","","","0.4927392517","0.04477370895","0.1877412345","0.244475209","","","","","","","74","J","1","","","140","main_expt"
"275","","bandit","219","872687","0.0-180.0-0.0","38044783","wem/bandit_either","A3IF13XHP5UPO2","either","2","","","","","","","0","0","1","","0.03780119019","0.8","0.6","0.2","0.4","0.4872377518","0.03780119019","0.2363671377","0.232604034","","","","","","","","","","","74","J","1","","","141","main_expt"
"1073","","bandit","220","875287","0.0-181.0-0.0","38044783","wem/bandit_either","A3IF13XHP5UPO2","either","2","","","","","","","0","1","0","","0.2546402356","0.8","0.6","0.2","0.4","0.4846254936","0.03149913875","0.2546402356","0.2447345556","","","","","","","","","","","75","K","2","","","142","main_expt"
"481","","bandit","221","877292","0.0-182.0-0.0","38044783","wem/bandit_either","A3IF13XHP5UPO2","either","2","","","","","","","0","0","1","","0.2825544685","0.8","0.6","0.2","0.4","0.4815328815","0.04191513266","0.2825544685","0.26413271","","","","","","","","","","","75","K","2","","","143","main_expt"
"1400","","bandit","222","880218","0.0-183.0-0.0","38044783","wem/bandit_either","A3IF13XHP5UPO2","either","2","","","","","","","0","0","1","","0.4854048375","0.8","0.6","0.2","0.4","0.4854048375","0.05613120157","0.2731230023","0.1988203511","","","","","","","","","","","72","H","0","img/none_selected.jpg","","144","main_expt"
"877","","bandit","223","882621","0.0-184.0-0.0","38044783","wem/bandit_either","A3IF13XHP5UPO2","either","2","","","","","","","0","0","1","0.03827589539","","0.8","0.6","0.2","0.4","","","","","0.4813029389","0.03827589539","0.2943814715","0.217822638","","","","","","","74","J","1","","","145","main_expt"
"316","","bandit","224","884462","0.0-185.0-0.0","38044783","wem/bandit_either","A3IF13XHP5UPO2","either","2","","","","","","","0","0","1","0.02861175853","","0.8","0.6","0.2","0.4","","","","","0.4884824202","0.02861175853","0.328634005","0.2009042904","","","","","","","74","J","1","","","146","main_expt"
"189","","bandit","225","886179","0.0-186.0-0.0","38044783","wem/bandit_either","A3IF13XHP5UPO2","either","2","","","","","","","1","0","0","0.4835291327","","0.8","0.6","0.2","0.4","","","","","0.4835291327","0.02140640811","0.3511209141","0.2080446297","","","","","","","72","H","0","img/none_selected.jpg","","147","main_expt"
"400","","bandit","226","888103","0.0-187.0-0.0","38044783","wem/bandit_either","A3IF13XHP5UPO2","either","2","","","","","","","0","0","1","0.4716003481","","0.8","0.6","0.2","0.4","","","","","0.4716003481","0.0202041473","0.3874996206","0.1536700415","","","","","","","72","H","0","img/none_selected.jpg","","148","main_expt"
"298","","bandit","227","889916","0.0-188.0-0.0","38044783","wem/bandit_either","A3IF13XHP5UPO2","either","2","","","","","","","0","0","1","0.4341886607","","0.8","0.6","0.2","0.4","","","","","0.4341886607","0.01154190459","0.3476646045","0.1593661633","","","","","","","72","H","0","img/none_selected.jpg","","149","main_expt"
"257","","bandit","228","891698","0.0-189.0-0.0","38044783","wem/bandit_either","A3IF13XHP5UPO2","either","2","","","","","","","0","0","1","0.4014438172","","0.8","0.6","0.2","0.4","","","","","0.4014438172","0.01291237021","0.3323010919","0.144955896","","","","","","","72","H","0","img/none_selected.jpg","","150","main_expt"
"348","","bandit","229","893571","0.0-190.0-0.0","38044783","wem/bandit_either","A3IF13XHP5UPO2","either","2","","","","","","","0","0","1","0.3980713407","","0.8","0.6","0.2","0.4","","","","","0.3980713407","0.0137789916","0.3954477196","0.2123564028","","","","","","","72","H","0","img/none_selected.jpg","","151","main_expt"
"1706","","bandit","230","896802","0.0-191.0-0.0","38044783","wem/bandit_either","A3IF13XHP5UPO2","either","2","","","","","","","0","0","1","","0.4186327087","0.8","0.6","0.2","0.4","0.4002357887","0.01985271471","0.4186327087","0.2301890466","","","","","","","","","","","75","K","2","","","152","main_expt"
"1321","","bandit","231","899650","0.0-192.0-0.0","38044783","wem/bandit_either","A3IF13XHP5UPO2","either","2","","","","","","","0","0","1","","0.4029566754","0.8","0.6","0.2","0.4","0.388677987","0.02951100453","0.4029566754","0.2295153641","","","","","","","","","","","75","K","2","","","153","main_expt"
"581","","bandit","232","901759","0.0-193.0-0.0","38044783","wem/bandit_either","A3IF13XHP5UPO2","either","2","","","","","","","0","0","1","0.4037751878","","0.8","0.6","0.2","0.4","","","","","0.3817747688","0.02325572033","0.4037751878","0.2163321136","","","","","","","75","K","2","","","154","main_expt"
"350","","bandit","233","903636","0.0-194.0-0.0","38044783","wem/bandit_either","A3IF13XHP5UPO2","either","2","","","","","","","0","0","1","0.4078727314","","0.8","0.6","0.2","0.4","","","","","0.327727533","0.03925092562","0.4078727314","0.2257858177","","","","","","","75","K","2","","","155","main_expt"
"378","","bandit","234","905542","0.0-195.0-0.0","38044783","wem/bandit_either","A3IF13XHP5UPO2","either","2","","","","","","","0","1","0","","0.3941681487","0.8","0.6","0.2","0.4","0.2821504166","0.05532081832","0.3941681487","0.2077891775","","","","","","","","","","","75","K","2","","","156","main_expt"
"252","","bandit","235","907311","0.0-196.0-0.0","38044783","wem/bandit_either","A3IF13XHP5UPO2","either","2","","","","","","","1","0","0","0.3417147062","","0.8","0.6","0.2","0.4","","","","","0.2784527126","0.05983660039","0.3417147062","0.1742908387","","","","","","","75","K","2","","","157","main_expt"
"266","","bandit","236","909106","0.0-197.0-0.0","38044783","wem/bandit_either","A3IF13XHP5UPO2","either","2","","","","","","","0","0","1","","0.2963220618","0.8","0.6","0.2","0.4","0.2857058734","0.09347744845","0.2963220618","0.162057643","","","","","","","","","","","75","K","2","","","158","main_expt"
"22","","bandit","237","910654","0.0-198.0-0.0","38044783","wem/bandit_either","A3IF13XHP5UPO2","either","2","","","","","","","0","0","1","","0.2961528309","0.8","0.6","0.2","0.4","0.2349295223","0.09649648717","0.2961528309","0.1805514511","","","","","","","","","","","75","K","2","","","159","main_expt"
"1065","","bandit","238","913242","0.0-199.0-0.0","38044783","wem/bandit_either","A3IF13XHP5UPO2","either","2","","","","","","","0","1","0","","0.2842772575","0.8","0.6","0.2","0.4","0.2275717407","0.08382429791","0.2842772575","0.1724629995","","","","","","","","","","","75","K","2","","","160","main_expt"
"6","","bandit","239","914777","0.0-200.0-0.0","38044783","wem/bandit_either","A3IF13XHP5UPO2","either","2","","","","","","","0","1","0","","0.2747674873","0.8","0.6","0.2","0.4","0.2559884592","0.1466352983","0.2747674873","0.1660992999","","","","","","","","","","","75","K","2","","","161","main_expt"
"126","","bandit","240","916429","0.0-201.0-0.0","38044783","wem/bandit_either","A3IF13XHP5UPO2","either","2","","","","","","","0","1","0","","0.2993190406","0.8","0.6","0.2","0.4","0.2670526618","0.1569467617","0.2993190406","0.2281832109","","","","","","","","","","","75","K","2","","","162","main_expt"
"403","","bandit","241","918361","0.0-202.0-0.0","38044783","wem/bandit_either","A3IF13XHP5UPO2","either","2","","","","","","","0","0","1","","0.3102408377","0.8","0.6","0.2","0.4","0.2618894379","0.1437935099","0.3102408377","0.2144285545","","","","","","","","","","","75","K","2","","","163","main_expt"
"391","","bandit","242","920279","0.0-203.0-0.0","38044783","wem/bandit_either","A3IF13XHP5UPO2","either","2","","","","","","","0","0","1","","0.2607878409","0.8","0.6","0.2","0.4","0.2977476978","0.1503677763","0.2607878409","0.2131293933","","","","","","","","","","","75","K","2","","","164","main_expt"
"578","","bandit","243","922385","0.0-204.0-0.0","38044783","wem/bandit_either","A3IF13XHP5UPO2","either","2","","","","","","","0","0","1","0.2470054868","","0.8","0.6","0.2","0.4","","","","","0.3138636066","0.1574825995","0.2470054868","0.251698227","","","","","","","75","K","2","","","165","main_expt"
"585","","bandit","244","924494","0.0-205.0-0.0","38044783","wem/bandit_either","A3IF13XHP5UPO2","either","2","","","","","","","0","0","1","","0.2629624785","0.8","0.6","0.2","0.4","0.3204338644","0.1500633275","0.2629624785","0.2831539445","","","","","","","","","","","75","K","2","","","166","main_expt"
"309","","bandit","245","926332","0.0-206.0-0.0","38044783","wem/bandit_either","A3IF13XHP5UPO2","either","2","","","","","","","0","0","1","","0.2745713682","0.8","0.6","0.2","0.4","0.3600517585","0.1137242654","0.2745713682","0.2496169508","","","","","","","","","","","75","K","2","","","167","main_expt"
"242","","bandit","246","928101","0.0-207.0-0.0","38044783","wem/bandit_either","A3IF13XHP5UPO2","either","2","","","","","","","0","0","1","","0.2557249153","0.8","0.6","0.2","0.4","0.3678373827","0.145192941","0.2557249153","0.2315540067","","","","","","","","","","","75","K","2","","","168","main_expt"
"379","","bandit","247","930009","0.0-208.0-0.0","38044783","wem/bandit_either","A3IF13XHP5UPO2","either","2","","","","","","","1","0","0","0.1825517174","","0.8","0.6","0.2","0.4","","","","","0.3421512568","0.1863479632","0.2016321063","0.1825517174","","","","","","","76","L","3","","","169","main_expt"
"279","","bandit","248","931813","0.0-209.0-0.0","38044783","wem/bandit_either","A3IF13XHP5UPO2","either","2","","","","","","","1","0","0","0.2535959064","","0.8","0.6","0.2","0.4","","","","","0.3917895485","0.142304713","0.2210696627","0.2535959064","","","","","","","76","L","3","","","170","main_expt"
"6","","bandit","249","933350","0.0-210.0-0.0","38044783","wem/bandit_either","A3IF13XHP5UPO2","either","2","","","","","","","0","0","1","0.3004284576","","0.8","0.6","0.2","0.4","","","","","0.3206692194","0.1739768979","0.1627904758","0.3004284576","","","","","","","76","L","3","","","171","main_expt"
"1824","","bandit","250","936702","0.0-211.0-0.0","38044783","wem/bandit_either","A3IF13XHP5UPO2","either","2","","","","","","","0","1","0","","0.2716191145","0.8","0.6","0.2","0.4","0.3198600846","0.2172659048","0.1421076649","0.2716191145","","","","","","","","","","","76","L","3","","","172","main_expt"
"7","","bandit","251","938235","0.0-212.0-0.0","38044783","wem/bandit_either","A3IF13XHP5UPO2","either","2","","","","","","","0","0","1","0.3253138029","","0.8","0.6","0.2","0.4","","","","","0.2641483633","0.2419731025","0.165050165","0.3253138029","","","","","","","76","L","3","","","173","main_expt"
"23","","bandit","252","939782","0.0-213.0-0.0","38044783","wem/bandit_either","A3IF13XHP5UPO2","either","2","","","","","","","0","0","1","","0.3419591401","0.8","0.6","0.2","0.4","0.2248062597","0.2239571331","0.1406738207","0.3419591401","","","","","","","","","","","76","L","3","","","174","main_expt"
"244","","bandit","253","941552","0.0-214.0-0.0","38044783","wem/bandit_either","A3IF13XHP5UPO2","either","2","","","","","","","1","0","0","0.3442692367","","0.8","0.6","0.2","0.4","","","","","0.2370379408","0.2311410243","0.138310495","0.3442692367","","","","","","","76","L","3","","","175","main_expt"
"284","","bandit","254","943365","0.0-215.0-0.0","38044783","wem/bandit_either","A3IF13XHP5UPO2","either","2","","","","","","","0","0","1","","0.3397266539","0.8","0.6","0.2","0.4","0.2157433706","0.2610077479","0.1675243642","0.3397266539","","","","","","","","","","","76","L","3","","","176","main_expt"
"285","","bandit","255","945163","0.0-216.0-0.0","38044783","wem/bandit_either","A3IF13XHP5UPO2","either","2","","","","","","","0","0","1","","0.2997078274","0.8","0.6","0.2","0.4","0.2014791824","0.2780938204","0.1919885971","0.2997078274","","","","","","","","","","","76","L","3","","","177","main_expt"
"42","","bandit","256","946730","0.0-217.0-0.0","38044783","wem/bandit_either","A3IF13XHP5UPO2","either","2","","","","","","","0","0","1","","0.3064007527","0.8","0.6","0.2","0.4","0.1913564418","0.3151752793","0.2365392944","0.3064007527","","","","","","","","","","","76","L","3","","","178","main_expt"
"111","","bandit","257","948370","0.0-218.0-0.0","38044783","wem/bandit_either","A3IF13XHP5UPO2","either","2","","","","","","","0","0","1","","0.3533432679","0.8","0.6","0.2","0.4","0.1980728016","0.2799621139","0.2509455726","0.3533432679","","","","","","","","","","","76","L","3","","","179","main_expt"
"566","","bandit","258","950463","0.0-219.0-0.0","38044783","wem/bandit_either","A3IF13XHP5UPO2","either","2","","","","","","","0","1","0","","0.3652522579","0.8","0.6","0.2","0.4","0.1833491223","0.3170936092","0.2767223981","0.3652522579","","","","","","","","","","","76","L","3","","","180","main_expt"
"276","","bandit","259","952267","0.0-220.0-0.0","38044783","wem/bandit_either","A3IF13XHP5UPO2","either","2","","","","","","","0","1","0","","0.3383156657","0.8","0.6","0.2","0.4","0.1342686697","0.28101752","0.314600373","0.3383156657","","","","","","","","","","","76","L","3","","","181","main_expt"
"68","","bandit","260","953865","0.0-221.0-0.0","38044783","wem/bandit_either","A3IF13XHP5UPO2","either","2","","","","","","","1","0","0","0.2902116232","","0.8","0.6","0.2","0.4","","","","","0.1636660304","0.3043342224","0.3943610609","0.2902116232","","","","","","","76","L","3","","","182","main_expt"
"296","","bandit","261","955688","0.0-222.0-0.0","38044783","wem/bandit_either","A3IF13XHP5UPO2","either","2","","","","","","","0","0","1","","0.3026157476","0.8","0.6","0.2","0.4","0.136761637","0.3192524042","0.3586422101","0.3026157476","","","","","","","","","","","76","L","3","","","183","main_expt"
"52","","bandit","262","957260","0.0-223.0-0.0","38044783","wem/bandit_either","A3IF13XHP5UPO2","either","2","","","","","","","0","0","1","","0.3360229169","0.8","0.6","0.2","0.4","0.1685989701","0.3332516821","0.3879999062","0.3360229169","","","","","","","","","","","76","L","3","","","184","main_expt"
"151","","bandit","263","958944","0.0-224.0-0.0","38044783","wem/bandit_either","A3IF13XHP5UPO2","either","2","","","","","","","1","0","0","0.3336456265","","0.8","0.6","0.2","0.4","","","","","0.1663529744","0.3228184693","0.3831340227","0.3336456265","","","","","","","76","L","3","","","185","main_expt"
"261","","bandit","264","960732","0.0-225.0-0.0","38044783","wem/bandit_either","A3IF13XHP5UPO2","either","2","","","","","","","0","0","1","0.3308881938","","0.8","0.6","0.2","0.4","","","","","0.1916836285","0.3111703144","0.3999004662","0.3308881938","","","","","","","76","L","3","","","186","main_expt"
"578","","bandit","265","962838","0.0-226.0-0.0","38044783","wem/bandit_either","A3IF13XHP5UPO2","either","2","","","","","","","0","1","0","","0.325530054","0.8","0.6","0.2","0.4","0.1686829448","0.3353611299","0.3875363153","0.325530054","","","","","","","","","","","76","L","3","","","187","main_expt"
"7","","bandit","266","964373","0.0-227.0-0.0","38044783","wem/bandit_either","A3IF13XHP5UPO2","either","2","","","","","","","0","1","0","","0.3055482451","0.8","0.6","0.2","0.4","0.1461675531","0.3646937268","0.3875691392","0.3055482451","","","","","","","","","","","76","L","3","","","188","main_expt"
"307","","bandit","267","966196","0.0-228.0-0.0","38044783","wem/bandit_either","A3IF13XHP5UPO2","either","2","","","","","","","0","0","1","0.3002345065","","0.8","0.6","0.2","0.4","","","","","0.1382971047","0.3891323825","0.4166866882","0.3002345065","","","","","","","76","L","3","","","189","main_expt"
"720","","bandit","268","968443","0.0-229.0-0.0","38044783","wem/bandit_either","A3IF13XHP5UPO2","either","2","","","","","","","0","0","1","","0.2693931213","0.8","0.6","0.2","0.4","0.1898135375","0.3860741766","0.4124474499","0.2693931213","","","","","","","","","","","76","L","3","","","190","main_expt"
"138","","bandit","269","970104","0.0-230.0-0.0","38044783","wem/bandit_either","A3IF13XHP5UPO2","either","2","","","","","","","0","0","1","","0.3009284261","0.8","0.6","0.2","0.4","0.1264917812","0.3864243721","0.3638199534","0.3009284261","","","","","","","","","","","76","L","3","","","191","main_expt"
"15","","bandit","270","971650","0.0-231.0-0.0","38044783","wem/bandit_either","A3IF13XHP5UPO2","either","2","","","","","","","0","0","1","","0.3157917784","0.8","0.6","0.2","0.4","0.1185409567","0.400448014","0.3711146034","0.3157917784","","","","","","","","","","","76","L","3","","","192","main_expt"
"146","","bandit","271","973324","0.0-232.0-0.0","38044783","wem/bandit_either","A3IF13XHP5UPO2","either","2","","","","","","","0","0","1","","0.2999212614","0.8","0.6","0.2","0.4","0.09837948322","0.3895367297","0.3654165885","0.2999212614","","","","","","","","","","","76","L","3","","","193","main_expt"
"109","","bandit","272","974968","0.0-233.0-0.0","38044783","wem/bandit_either","A3IF13XHP5UPO2","either","2","","","","","","","1","0","0","0.3287494418","","0.8","0.6","0.2","0.4","","","","","0.137690802","0.4032313792","0.3537818584","0.3287494418","","","","","","","76","L","3","","","194","main_expt"
"1829","","bandit","273","978327","0.0-234.0-0.0","38044783","wem/bandit_either","A3IF13XHP5UPO2","either","2","","","","","","","0","1","0","","0.3031978913","0.8","0.6","0.2","0.4","0.1683354775","0.337234763","0.3597494918","0.3031978913","","","","","","","","","","","76","L","3","","","195","main_expt"
"287","","bandit","274","980141","0.0-235.0-0.0","38044783","wem/bandit_either","A3IF13XHP5UPO2","either","2","","","","","","","0","0","1","0.1561951964","","0.8","0.6","0.2","0.4","","","","","0.1561951964","0.3950764453","0.3479121901","0.2901303692","","","","","","","72","H","0","img/none_selected.jpg","","196","main_expt"
"456","","bandit","275","982130","0.0-236.0-0.0","38044783","wem/bandit_either","A3IF13XHP5UPO2","either","2","","","","","","","0","0","1","0.1329868482","","0.8","0.6","0.2","0.4","","","","","0.1329868482","0.4193743727","0.3596292454","0.2444781728","","","","","","","72","H","0","img/none_selected.jpg","","197","main_expt"
"22","","bandit","276","983681","0.0-237.0-0.0","38044783","wem/bandit_either","A3IF13XHP5UPO2","either","2","","","","","","","0","0","1","0.1730826789","","0.8","0.6","0.2","0.4","","","","","0.1730826789","0.4375347816","0.3555371828","0.2140047665","","","","","","","72","H","0","img/none_selected.jpg","","198","main_expt"
"678","","bandit","277","985887","0.0-238.0-0.0","38044783","wem/bandit_either","A3IF13XHP5UPO2","either","2","","","","","","","0","0","1","0.1385649096","","0.8","0.6","0.2","0.4","","","","","0.1385649096","0.4315030007","0.4016486285","0.2077842613","","","","","","","72","H","0","img/none_selected.jpg","","199","main_expt"
"254","","bandit","278","987668","0.0-239.0-0.0","38044783","wem/bandit_either","A3IF13XHP5UPO2","either","2","","","","","","","0","0","1","0.1941139053","","0.8","0.6","0.2","0.4","","","","","0.1941139053","0.4340108373","0.3871107612","0.180488049","","","","","","","72","H","0","img/none_selected.jpg","","200","main_expt"
"29","","bandit","279","989218","0.0-240.0-0.0","38044783","wem/bandit_either","A3IF13XHP5UPO2","either","2","","","","","","","0","0","1","0.1825013029","","0.8","0.6","0.2","0.4","","","","","0.1825013029","0.441078118","0.3856539452","0.2084987087","","","","","","","72","H","0","img/none_selected.jpg","","201","main_expt"
"50","","bandit","280","990799","0.0-241.0-0.0","38044783","wem/bandit_either","A3IF13XHP5UPO2","either","2","","","","","","","0","0","1","0.162440572","","0.8","0.6","0.2","0.4","","","","","0.162440572","0.4143682719","0.358588673","0.1869669721","","","","","","","72","H","0","img/none_selected.jpg","","202","main_expt"
"5","","bandit","281","992334","0.0-242.0-0.0","38044783","wem/bandit_either","A3IF13XHP5UPO2","either","2","","","","","","","0","0","1","0.1914238456","","0.8","0.6","0.2","0.4","","","","","0.1914238456","0.4280720422","0.3460881607","0.1383076553","","","","","","","72","H","0","img/none_selected.jpg","","203","main_expt"
"1435","","bandit","282","995298","0.0-243.0-0.0","38044783","wem/bandit_either","A3IF13XHP5UPO2","either","2","","","","","","","0","0","1","0.4113524858","","0.8","0.6","0.2","0.4","","","","","0.1849793247","0.4113524858","0.3091432968","0.1656187697","","","","","","","74","J","1","","","204","main_expt"
"286","","bandit","283","997113","0.0-244.0-0.0","38044783","wem/bandit_either","A3IF13XHP5UPO2","either","2","","","","","","","0","0","1","0.4151465815","","0.8","0.6","0.2","0.4","","","","","0.1722293799","0.4151465815","0.3016396897","0.1699285253","","","","","","","74","J","1","","","205","main_expt"
"309","","bandit","284","998956","0.0-245.0-0.0","38044783","wem/bandit_either","A3IF13XHP5UPO2","either","2","","","","","","","1","0","0","0.4002359997","","0.8","0.6","0.2","0.4","","","","","0.1625694713","0.4002359997","0.3300702997","0.161732949","","","","","","","74","J","1","","","206","main_expt"
"586","","bandit","285","1001073","0.0-246.0-0.0","38044783","wem/bandit_either","A3IF13XHP5UPO2","either","2","","","","","","","0","0","1","","0.3692387261","0.8","0.6","0.2","0.4","0.1079769143","0.3692387261","0.2648848683","0.1699017951","","","","","","","","","","","74","J","1","","","207","main_expt"
"25","","bandit","286","1002625","0.0-247.0-0.0","38044783","wem/bandit_either","A3IF13XHP5UPO2","either","2","","","","","","","0","1","0","","0.3283471685","0.8","0.6","0.2","0.4","0.1380178959","0.3283471685","0.2502792914","0.1592107695","","","","","","","","","","","74","J","1","","","208","main_expt"
"2067","","bandit","287","1006222","0.0-248.0-0.0","38044783","wem/bandit_either","A3IF13XHP5UPO2","either","2","","","","","","","0","0","1","0.2924758898","","0.8","0.6","0.2","0.4","","","","","0.1538506734","0.2924758898","0.2770073026","0.1659907122","","","","","","","74","J","1","","","209","main_expt"
"201","","bandit","288","1007959","0.0-249.0-0.0","38044783","wem/bandit_either","A3IF13XHP5UPO2","either","2","","","","","","","0","0","1","","0.2279470939","0.8","0.6","0.2","0.4","0.1406222791","0.2279470939","0.3451435735","0.229525517","","","","","","","","","","","74","J","1","","","210","main_expt"
"594","","bandit","289","1010089","0.0-250.0-0.0","38044783","wem/bandit_either","A3IF13XHP5UPO2","either","2","","","","","","","0","0","1","0.2131844406","","0.8","0.6","0.2","0.4","","","","","0.08987887408","0.2131844406","0.3514478275","0.2434605193","","","","","","","74","J","1","","","211","main_expt"
"2052","","bandit","290","1013672","0.0-251.0-0.0","38044783","wem/bandit_either","A3IF13XHP5UPO2","either","2","","","","","","","0","0","1","0.1601793481","","0.8","0.6","0.2","0.4","","","","","0.1277875359","0.1601793481","0.3579324364","0.1633214123","","","","","","","74","J","1","","","212","main_expt"
"72","","bandit","291","1015273","0.0-252.0-0.0","38044783","wem/bandit_either","A3IF13XHP5UPO2","either","2","","","","","","","0","0","1","0.1354109392","","0.8","0.6","0.2","0.4","","","","","0.134271297","0.1354109392","0.3231243524","0.1014835246","","","","","","","74","J","1","","","213","main_expt"
"962","","bandit","292","1017765","0.0-253.0-0.0","38044783","wem/bandit_either","A3IF13XHP5UPO2","either","2","","","","","","","0","0","1","","0.1142105534","0.8","0.6","0.2","0.4","0.1385204111","0.1142105534","0.2798540136","0.09587264096","","","","","","","","","","","74","J","1","","","214","main_expt"
"181","","bandit","293","1019478","0.0-254.0-0.0","38044783","wem/bandit_either","A3IF13XHP5UPO2","either","2","","","","","","","0","0","1","0.1031311673","","0.8","0.6","0.2","0.4","","","","","0.1089132689","0.1031311673","0.2469391402","0.08342689115","","","","","","","74","J","1","","","215","main_expt"
"77","","bandit","294","1021087","0.0-255.0-0.0","38044783","wem/bandit_either","A3IF13XHP5UPO2","either","2","","","","","","","0","0","1","","0.1031732366","0.8","0.6","0.2","0.4","0.1299508563","0.1031732366","0.3211823944","0.05361264496","","","","","","","","","","","74","J","1","","","216","main_expt"
"759","","bandit","295","1023378","0.0-256.0-0.0","38044783","wem/bandit_either","A3IF13XHP5UPO2","either","2","","","","","","","0","1","0","","0.1188097379","0.8","0.6","0.2","0.4","0.131109262","0.1188097379","0.3545519007","0.09912420903","","","","","","","","","","","74","J","1","","","217","main_expt"
"185","","bandit","296","1025095","0.0-257.0-0.0","38044783","wem/bandit_either","A3IF13XHP5UPO2","either","2","","","","","","","0","0","1","0.1096623481","","0.8","0.6","0.2","0.4","","","","","0.1039495344","0.1096623481","0.3781539282","0.1021137889","","","","","","","74","J","1","","","218","main_expt"
"199","","bandit","297","1026827","0.0-258.0-0.0","38044783","wem/bandit_either","A3IF13XHP5UPO2","either","2","","","","","","","0","0","1","","0.08679630722","0.8","0.6","0.2","0.4","0.09488552944","0.08679630722","0.3674409598","0.1025207236","","","","","","","","","","","74","J","1","","","219","main_expt"
"1505","","bandit","298","1029871","0.0-259.0-0.0","38044783","wem/bandit_either","A3IF13XHP5UPO2","either","2","","","","","","","1","0","0","0.1482089448","","0.8","0.6","0.2","0.4","","","","","0.1311925698","0.1482089448","0.315237632","0.1049734862","","","","","","","74","J","1","","","220","main_expt"
"2340","","bandit","299","1033737","0.0-260.0-0.0","38044783","wem/bandit_either","A3IF13XHP5UPO2","either","2","","","","","","","1","0","0","0.217172314","","0.8","0.6","0.2","0.4","","","","","0.08224132258","0.217172314","0.3572442142","0.08244295151","","","","","","","74","J","1","","","221","main_expt"
"88","","bandit","300","1035357","0.0-261.0-0.0","38044783","wem/bandit_either","A3IF13XHP5UPO2","either","2","","","","","","","0","1","0","","0.2227738938","0.8","0.6","0.2","0.4","0.06870998364","0.2227738938","0.2796125419","0.09815111748","","","","","","","","","","","74","J","1","","","222","main_expt"
"1676","","bandit","301","1038561","0.0-262.0-0.0","38044783","wem/bandit_either","A3IF13XHP5UPO2","either","2","","","","","","","0","0","1","0.2768694491","","0.8","0.6","0.2","0.4","","","","","0.111762886","0.2768694491","0.2265565182","0.09925351505","","","","","","","74","J","1","","","223","main_expt"
"2061","","bandit","302","1042152","0.0-263.0-0.0","38044783","wem/bandit_either","A3IF13XHP5UPO2","either","2","","","","","","","0","0","1","","0.2895694018","0.8","0.6","0.2","0.4","0.09652303785","0.2895694018","0.1727872262","0.07842644678","","","","","","","","","","","74","J","1","","","224","main_expt"
"12","","bandit","303","1043696","0.0-264.0-0.0","38044783","wem/bandit_either","A3IF13XHP5UPO2","either","2","","","","","","","0","1","0","","0.3515154126","0.8","0.6","0.2","0.4","0.09424892582","0.3515154126","0.1580797834","0.05284632075","","","","","","","","","","","74","J","1","","","225","main_expt"
"327","","bandit","304","1045542","0.0-265.0-0.0","38044783","wem/bandit_either","A3IF13XHP5UPO2","either","2","","","","","","","0","0","1","0.1094697254","","0.8","0.6","0.2","0.4","","","","","0.1094697254","0.3960872924","0.1206031336","0.06788221328","","","","","","","72","H","0","img/none_selected.jpg","","226","main_expt"
"286","","bandit","305","1047361","0.0-266.0-0.0","38044783","wem/bandit_either","A3IF13XHP5UPO2","either","2","","","","","","","0","0","1","0.1055794081","","0.8","0.6","0.2","0.4","","","","","0.1055794081","0.3301105445","0.1218099769","0.04226868229","","","","","","","72","H","0","img/none_selected.jpg","","227","main_expt"
"280","","bandit","306","1049175","0.0-267.0-0.0","38044783","wem/bandit_either","A3IF13XHP5UPO2","either","2","","","","","","","0","0","1","0.1210232629","","0.8","0.6","0.2","0.4","","","","","0.1210232629","0.3679650562","0.08458740206","0.06174471126","","","","","","","72","H","0","img/none_selected.jpg","","228","main_expt"
"611","","bandit","307","1051318","0.0-268.0-0.0","38044783","wem/bandit_either","A3IF13XHP5UPO2","either","2","","","","","","","0","0","1","","0.3413725311","0.8","0.6","0.2","0.4","0.1249199002","0.3413725311","0.06311990622","0.06122033102","","","","","","","","","","","74","J","1","","","229","main_expt"
"394","","bandit","308","1053246","0.0-269.0-0.0","38044783","wem/bandit_either","A3IF13XHP5UPO2","either","2","","","","","","","0","0","1","0.3652503211","","0.8","0.6","0.2","0.4","","","","","0.1423167866","0.3652503211","0.04674316758","0.09369367087","","","","","","","74","J","1","","","230","main_expt"
"356","","bandit","309","1055136","0.0-270.0-0.0","38044783","wem/bandit_either","A3IF13XHP5UPO2","either","2","","","","","","","0","0","1","","0.1378364932","0.8","0.6","0.2","0.4","0.1441411413","0.3774172636","0.06697327866","0.1378364932","","","","","","","","","","","76","L","3","","","231","main_expt"
"1044","","bandit","310","1057707","0.0-271.0-0.0","38044783","wem/bandit_either","A3IF13XHP5UPO2","either","2","","","","","","","0","0","1","","0.08617656909","0.8","0.6","0.2","0.4","0.1132866493","0.3507397895","0.08617656909","0.1138343256","","","","","","","","","","","75","K","2","","","232","main_expt"
"454","","bandit","311","1059693","0.0-272.0-0.0","38044783","wem/bandit_either","A3IF13XHP5UPO2","either","2","","","","","","","0","0","1","","0.08388286328","0.8","0.6","0.2","0.4","0.07587191469","0.3228668676","0.08388286328","0.1602674987","","","","","","","","","","","75","K","2","","","233","main_expt"
"391","","bandit","312","1061602","0.0-273.0-0.0","38044783","wem/bandit_either","A3IF13XHP5UPO2","either","2","","","","","","","0","0","1","","0.08303297831","0.8","0.6","0.2","0.4","0.08330376307","0.3219168209","0.08303297831","0.1399599793","","","","","","","","","","","75","K","2","","","234","main_expt"
"1227","","bandit","313","1064361","0.0-274.0-0.0","38044783","wem/bandit_either","A3IF13XHP5UPO2","either","2","","","","","","","0","0","1","","0.08228619446","0.8","0.6","0.2","0.4","0.07960395758","0.2907257894","0.08228619446","0.1577883936","","","","","","","","","","","75","K","2","","","235","main_expt"
"312","","bandit","314","1066204","0.0-275.0-0.0","38044783","wem/bandit_either","A3IF13XHP5UPO2","either","2","","","","","","","0","0","1","","0.07856112713","0.8","0.6","0.2","0.4","0.06703487678","0.2879125653","0.07856112713","0.1206463377","","","","","","","","","","","75","K","2","","","236","main_expt"
"319","","bandit","315","1068054","0.0-276.0-0.0","38044783","wem/bandit_either","A3IF13XHP5UPO2","either","2","","","","","","","0","0","1","","0.09394336493","0.8","0.6","0.2","0.4","0.07970276757","0.3055933028","0.09394336493","0.1224948263","","","","","","","","","","","75","K","2","","","237","main_expt"
"237","","bandit","316","1069823","0.0-277.0-0.0","38044783","wem/bandit_either","A3IF13XHP5UPO2","either","2","","","","","","","0","0","1","","0.1163601633","0.8","0.6","0.2","0.4","0.05589422377","0.3197806133","0.1044036833","0.1163601633","","","","","","","","","","","76","L","3","","","238","main_expt"
"262","","bandit","317","1071615","0.0-278.0-0.0","38044783","wem/bandit_either","A3IF13XHP5UPO2","either","2","","","","","","","0","1","0","","0.09302868556","0.8","0.6","0.2","0.4","0.07304711058","0.2699970134","0.1010835707","0.09302868556","","","","","","","","","","","76","L","3","","","239","main_expt"
"371","","bandit","318","1073520","0.0-279.0-0.0","38044783","wem/bandit_either","A3IF13XHP5UPO2","either","2","","","","","","","0","0","1","0.1142909623","","0.8","0.6","0.2","0.4","","","","","0.05193691484","0.2594796501","0.1196592177","0.1142909623","","","","","","","76","L","3","","","240","main_expt"
"332","","bandit","319","1075385","0.0-280.0-0.0","38044783","wem/bandit_either","A3IF13XHP5UPO2","either","2","","","","","","","0","1","0","","0.1694552561","0.8","0.6","0.2","0.4","0.06844812817","0.252227353","0.127320561","0.1694552561","","","","","","","","","","","76","L","3","","","241","main_expt"
"244","","bandit","320","1077160","0.0-281.0-0.0","38044783","wem/bandit_either","A3IF13XHP5UPO2","either","2","","","","","","","0","0","1","0.1828807391","","0.8","0.6","0.2","0.4","","","","","0.07869989264","0.301231011","0.10641745","0.1828807391","","","","","","","76","L","3","","","242","main_expt"
"314","","bandit","321","1079009","0.0-282.0-0.0","38044783","wem/bandit_either","A3IF13XHP5UPO2","either","2","","","","","","","0","0","1","","0.1236361748","0.8","0.6","0.2","0.4","0.06084245892","0.2903867436","0.131785075","0.1236361748","","","","","","","","","","","76","L","3","","","243","main_expt"
"96","","bandit","322","1080638","0.0-283.0-0.0","38044783","wem/bandit_either","A3IF13XHP5UPO2","either","2","","","","","","","0","0","1","","0.1131162958","0.8","0.6","0.2","0.4","0.04982625113","0.2659167858","0.1150513838","0.1131162958","","","","","","","","","","","76","L","3","","","244","main_expt"
"410","","bandit","323","1082579","0.0-284.0-0.0","38044783","wem/bandit_either","A3IF13XHP5UPO2","either","2","","","","","","","0","0","1","","0.08611006768","0.8","0.6","0.2","0.4","0.04708965441","0.254087564","0.1651966394","0.08611006768","","","","","","","","","","","76","L","3","","","245","main_expt"
"53","","bandit","324","1084147","0.0-285.0-0.0","38044783","wem/bandit_either","A3IF13XHP5UPO2","either","2","","","","","","","0","0","1","0.1123216353","","0.8","0.6","0.2","0.4","","","","","0.0280961865","0.2551799517","0.1555796254","0.1123216353","","","","","","","76","L","3","","","246","main_expt"
"478","","bandit","325","1086148","0.0-286.0-0.0","38044783","wem/bandit_either","A3IF13XHP5UPO2","either","2","","","","","","","0","0","1","","0.09475638668","0.8","0.6","0.2","0.4","0.04499456282","0.2629335529","0.1703980626","0.09475638668","","","","","","","","","","","76","L","3","","","247","main_expt"
"758","","bandit","326","1088440","0.0-287.0-0.0","38044783","wem/bandit_either","A3IF13XHP5UPO2","either","2","","","","","","","0","0","1","","0.08309477664","0.8","0.6","0.2","0.4","0.03910304398","0.2393496224","0.1502680902","0.08309477664","","","","","","","","","","","76","L","3","","","248","main_expt"
"318","","bandit","327","1090291","0.0-288.0-0.0","38044783","wem/bandit_either","A3IF13XHP5UPO2","either","2","","","","","","","0","0","1","","0.09118761135","0.8","0.6","0.2","0.4","0.02658952892","0.2612635012","0.1515252412","0.09118761135","","","","","","","","","","","76","L","3","","","249","main_expt"
"1150","","bandit","328","1092969","0.0-289.0-0.0","38044783","wem/bandit_either","A3IF13XHP5UPO2","either","2","","","","","","","0","0","1","","0.1173751119","0.8","0.6","0.2","0.4","0.02715120894","0.2729339083","0.164479444","0.1173751119","","","","","","","","","","","76","L","3","","","250","main_expt"
