"rt","responses","trial_type","trial_index","time_elapsed","internal_node_id","subjID","study","MID","cond","drift","key_press","expt_phase","target","like","value","connected","respCharCode","respKey","respChoiceNum","respChoice","gems","bombs","no_reward","GemPrChosen","BombPrChosen","practice","trial_counter","WinPr_0","LosePr_0","trial_label","GainOverPainPr_0","LosePr_1","GainOverPainPr_1","WinPr_1","WinPr_2","GainOverPainPr_2","WinPr_3","GainOverPainPr_3","LosePr_2","LosePr_3","Q0","Q1","Q2","gender","age","ethnicity"
"8621","{""Q0"":""A3EWTW55UCNAHG""}","survey-text","0","8631","0.0-0.0","38278053","wem/bandit_either","A3EWTW55UCNAHG","either","3","","","","","","","","","","","","","","","","","","","","","","","","","","","","","","","","","","","",""
"24073","","text","1","33709","0.0-1.0","38278053","wem/bandit_either","A3EWTW55UCNAHG","either","3","32","","","","","","","","","","","","","","","","","","","","","","","","","","","","","","","","","","",""
"9818","","text","2","43529","0.0-2.0","38278053","wem/bandit_either","A3EWTW55UCNAHG","either","3","32","","","","","","","","","","","","","","","","","","","","","","","","","","","","","","","","","","",""
"16024","","text","3","59555","0.0-3.0","38278053","wem/bandit_either","A3EWTW55UCNAHG","either","3","32","","","","","","","","","","","","","","","","","","","","","","","","","","","","","","","","","","",""
"14303","","text","4","73859","0.0-4.0","38278053","wem/bandit_either","A3EWTW55UCNAHG","either","3","32","","","","","","","","","","","","","","","","","","","","","","","","","","","","","","","","","","",""
"15679","","text","5","89540","0.0-5.0","38278053","wem/bandit_either","A3EWTW55UCNAHG","either","3","32","","","","","","","","","","","","","","","","","","","","","","","","","","","","","","","","","","",""
"7189","","text","6","96730","0.0-6.0","38278053","wem/bandit_either","A3EWTW55UCNAHG","either","3","32","","","","","","","","","","","","","","","","","","","","","","","","","","","","","","","","","","",""
"4465","","text","7","101195","0.0-7.0","38278053","wem/bandit_either","A3EWTW55UCNAHG","either","3","32","","","","","","","","","","","","","","","","","","","","","","","","","","","","","","","","","","",""
"8732","","identification","8","109954","0.0-8.0-0.0","38278053","wem/bandit_either","A3EWTW55UCNAHG","either","3","","identification_pre","the village of Zur","6","6","6","","","","","","","","","","","","","","","","","","","","","","","","","","","","","",""
"4478","","identification","9","115449","0.0-8.0-1.0","38278053","wem/bandit_either","A3EWTW55UCNAHG","either","3","","identification_pre","the village of Nyx","0","0","0","","","","","","","","","","","","","","","","","","","","","","","","","","","","","",""
"4920","","text","10","121371","0.0-9.0","38278053","wem/bandit_either","A3EWTW55UCNAHG","either","3","32","","","","","","","","","","","","","","","","","","","","","","","","","","","","","","","","","","",""
"4478","","text","11","125851","0.0-10.0","38278053","wem/bandit_either","A3EWTW55UCNAHG","either","3","32","","","","","","","","","","","","","","","","","","","","","","","","","","","","","","","","","","",""
"2013","","text","12","127866","0.0-11.0","38278053","wem/bandit_either","A3EWTW55UCNAHG","either","3","32","","","","","","","","","","","","","","","","","","","","","","","","","","","","","","","","","","",""
"5070","","text","13","132938","0.0-12.0","38278053","wem/bandit_either","A3EWTW55UCNAHG","either","3","32","","","","","","","","","","","","","","","","","","","","","","","","","","","","","","","","","","",""
"1499","","bandit","14","135947","0.0-13.0-0.0","38278053","wem/bandit_either","A3EWTW55UCNAHG","either","3","","","","","","","74","J","0","img/none_selected_demo.jpg","0","0","1","0","0","true","0","0","0","","","","","","","","","","","","","","","","",""
"1075","","bandit","15","138530","0.0-14.0-0.0","38278053","wem/bandit_either","A3EWTW55UCNAHG","either","3","","","","","","","75","K","0","img/none_selected_demo.jpg","0","0","1","0","0","true","0","0","0","","","","","","","","","","","","","","","","",""
"7510","","text","16","146042","0.0-15.0","38278053","wem/bandit_either","A3EWTW55UCNAHG","either","3","32","","","","","","","","","","","","","","","","","","","","","","","","","","","","","","","","","","",""
"9392","","text","17","155435","0.0-16.0","38278053","wem/bandit_either","A3EWTW55UCNAHG","either","3","32","","","","","","","","","","","","","","","","","","","","","","","","","","","","","","","","","","",""
"5501","","text","18","160938","0.0-17.0","38278053","wem/bandit_either","A3EWTW55UCNAHG","either","3","32","","","","","","","","","","","","","","","","","","","","","","","","","","","","","","","","","","",""
"2806","","text","19","163745","0.0-18.0","38278053","wem/bandit_either","A3EWTW55UCNAHG","either","3","32","","","","","","","","","","","","","","","","","","","","","","","","","","","","","","","","","","",""
"509","","bandit","20","165761","0.0-19.0-0.0","38278053","wem/bandit_either","A3EWTW55UCNAHG","either","3","","","","","","","74","J","0","img/none_selected_demo.jpg","0","1","0","","0.8","true","0","","0.8","80_20_practice","0.5","0.2","0.5","","","","","","","","","","","","",""
"342","","bandit","21","167609","0.0-19.0-1.0","38278053","wem/bandit_either","A3EWTW55UCNAHG","either","3","","","","","","","74","J","0","img/none_selected_demo.jpg","0","0","1","0.8","","true","0","0.8","","80_20_practice","0.5","","0.5","0.2","","","","","","","","","","","",""
"284","","bandit","22","169400","0.0-19.0-2.0","38278053","wem/bandit_either","A3EWTW55UCNAHG","either","3","","","","","","","74","J","0","img/none_selected_demo.jpg","0","1","0","","0.8","true","0","","0.8","80_20_practice","0.5","0.2","0.5","","","","","","","","","","","","",""
"374","","bandit","23","171280","0.0-19.0-3.0","38278053","wem/bandit_either","A3EWTW55UCNAHG","either","3","","","","","","","75","K","1","","0","0","1","","0.2","true","0","","0.8","80_20_practice","0.5","0.2","0.5","","","","","","","","","","","","",""
"278","","bandit","24","173064","0.0-19.0-4.0","38278053","wem/bandit_either","A3EWTW55UCNAHG","either","3","","","","","","","75","K","1","","0","0","1","","0.2","true","0","","0.8","80_20_practice","0.5","0.2","0.5","","","","","","","","","","","","",""
"134","","bandit","25","174704","0.0-19.0-5.0","38278053","wem/bandit_either","A3EWTW55UCNAHG","either","3","","","","","","","74","J","0","img/none_selected_demo.jpg","0","0","1","0.8","","true","0","0.8","","80_20_practice","0.5","","0.5","0.2","","","","","","","","","","","",""
"222","","bandit","26","176433","0.0-19.0-6.0","38278053","wem/bandit_either","A3EWTW55UCNAHG","either","3","","","","","","","74","J","0","img/none_selected_demo.jpg","0","0","1","0.8","","true","0","0.8","","80_20_practice","0.5","","0.5","0.2","","","","","","","","","","","",""
"87","","bandit","27","178025","0.0-19.0-7.0","38278053","wem/bandit_either","A3EWTW55UCNAHG","either","3","","","","","","","75","K","1","","1","0","0","0.2","","true","0","0.8","","80_20_practice","0.5","","0.5","0.2","","","","","","","","","","","",""
"244","","bandit","28","179776","0.0-19.0-8.0","38278053","wem/bandit_either","A3EWTW55UCNAHG","either","3","","","","","","","75","K","1","","1","0","0","0.2","","true","0","0.8","","80_20_practice","0.5","","0.5","0.2","","","","","","","","","","","",""
"285","","bandit","29","181568","0.0-19.0-9.0","38278053","wem/bandit_either","A3EWTW55UCNAHG","either","3","","","","","","","75","K","1","","0","0","1","0.2","","true","0","0.8","","80_20_practice","0.5","","0.5","0.2","","","","","","","","","","","",""
"310","","bandit","30","183384","0.0-19.0-10.0","38278053","wem/bandit_either","A3EWTW55UCNAHG","either","3","","","","","","","75","K","1","","0","0","1","","0.2","true","0","","0.8","80_20_practice","0.5","0.2","0.5","","","","","","","","","","","","",""
"293","","bandit","31","185183","0.0-19.0-11.0","38278053","wem/bandit_either","A3EWTW55UCNAHG","either","3","","","","","","","75","K","1","","1","0","0","0.2","","true","0","0.8","","80_20_practice","0.5","","0.5","0.2","","","","","","","","","","","",""
"243","","bandit","32","186935","0.0-19.0-12.0","38278053","wem/bandit_either","A3EWTW55UCNAHG","either","3","","","","","","","75","K","1","","1","0","0","0.2","","true","0","0.8","","80_20_practice","0.5","","0.5","0.2","","","","","","","","","","","",""
"264","","bandit","33","188706","0.0-19.0-13.0","38278053","wem/bandit_either","A3EWTW55UCNAHG","either","3","","","","","","","75","K","1","","0","0","1","","0.2","true","0","","0.8","80_20_practice","0.5","0.2","0.5","","","","","","","","","","","","",""
"99","","bandit","34","190316","0.0-19.0-14.0","38278053","wem/bandit_either","A3EWTW55UCNAHG","either","3","","","","","","","75","K","1","","0","0","1","","0.2","true","0","","0.8","80_20_practice","0.5","0.2","0.5","","","","","","","","","","","","",""
"81","","bandit","35","191905","0.0-19.0-15.0","38278053","wem/bandit_either","A3EWTW55UCNAHG","either","3","","","","","","","75","K","1","","0","0","1","","0.2","true","0","","0.8","80_20_practice","0.5","0.2","0.5","","","","","","","","","","","","",""
"109","","bandit","36","193520","0.0-19.0-16.0","38278053","wem/bandit_either","A3EWTW55UCNAHG","either","3","","","","","","","74","J","0","img/none_selected_demo.jpg","0","1","0","","0.8","true","0","","0.8","80_20_practice","0.5","0.2","0.5","","","","","","","","","","","","",""
"278","","bandit","37","195303","0.0-19.0-17.0","38278053","wem/bandit_either","A3EWTW55UCNAHG","either","3","","","","","","","74","J","0","img/none_selected_demo.jpg","1","0","0","0.8","","true","0","0.8","","80_20_practice","0.5","","0.5","0.2","","","","","","","","","","","",""
"254","","bandit","38","197065","0.0-19.0-18.0","38278053","wem/bandit_either","A3EWTW55UCNAHG","either","3","","","","","","","74","J","0","img/none_selected_demo.jpg","0","1","0","","0.8","true","0","","0.8","80_20_practice","0.5","0.2","0.5","","","","","","","","","","","","",""
"245","","bandit","39","198816","0.0-19.0-19.0","38278053","wem/bandit_either","A3EWTW55UCNAHG","either","3","","","","","","","74","J","0","img/none_selected_demo.jpg","0","1","0","","0.8","true","0","","0.8","80_20_practice","0.5","0.2","0.5","","","","","","","","","","","","",""
"2158","","text","40","200977","0.0-20.0","38278053","wem/bandit_either","A3EWTW55UCNAHG","either","3","32","","","","","","","","","","","","","","","","","","","","","","","","","","","","","","","","","","",""
"1140","","bandit","41","203624","0.0-21.0-0.0","38278053","wem/bandit_either","A3EWTW55UCNAHG","either","3","","","","","","","74","J","0","img/none_selected_demo.jpg","1","0","0","1","0","true","0","1","0","","","1","","0","","","","","","","","","","","",""
"5792","","text","42","209418","0.0-22.0","38278053","wem/bandit_either","A3EWTW55UCNAHG","either","3","32","","","","","","","","","","","","","","","","","","","","","","","","","","","","","","","","","","",""
"2974","","text","43","212393","0.0-23.0","38278053","wem/bandit_either","A3EWTW55UCNAHG","either","3","32","","","","","","","","","","","","","","","","","","","","","","","","","","","","","","","","","","",""
"2860","","text","44","215257","0.0-24.0","38278053","wem/bandit_either","A3EWTW55UCNAHG","either","3","32","","","","","","","","","","","","","","","","","","","","","","","","","","","","","","","","","","",""
"2302","","text","45","217561","0.0-25.0","38278053","wem/bandit_either","A3EWTW55UCNAHG","either","3","32","","","","","","","","","","","","","","","","","","","","","","","","","","","","","","","","","","",""
"5952","","text","46","223515","0.0-26.0","38278053","wem/bandit_either","A3EWTW55UCNAHG","either","3","32","","","","","","","","","","","","","","","","","","","","","","","","","","","","","","","","","","",""
"4748","","text","47","228265","0.0-27.0","38278053","wem/bandit_either","A3EWTW55UCNAHG","either","3","32","","","","","","","","","","","","","","","","","","","","","","","","","","","","","","","","","","",""
"4228","","text","48","232497","0.0-28.0","38278053","wem/bandit_either","A3EWTW55UCNAHG","either","3","32","","","","","","","","","","","","","","","","","","","","","","","","","","","","","","","","","","",""
"3615","","text","49","236114","0.0-29.0","38278053","wem/bandit_either","A3EWTW55UCNAHG","either","3","32","","","","","","","","","","","","","","","","","","","","","","","","","","","","","","","","","","",""
"4525","","text","50","240641","0.0-30.0","38278053","wem/bandit_either","A3EWTW55UCNAHG","either","3","32","","","","","","","","","","","","","","","","","","","","","","","","","","","","","","","","","","",""
"2100","","text","51","242744","0.0-31.0","38278053","wem/bandit_either","A3EWTW55UCNAHG","either","3","32","","","","","","","","","","","","","","","","","","","","","","","","","","","","","","","","","","",""
"6621","","text","52","249368","0.0-32.0","38278053","wem/bandit_either","A3EWTW55UCNAHG","either","3","32","","","","","","","","","","","","","","","","","","","","","","","","","","","","","","","","","","",""
"1723","","bandit","53","252600","0.0-33.0-0.0","38278053","wem/bandit_either","A3EWTW55UCNAHG","either","3","","","","","","","72","H","0","img/none_selected.jpg","1","0","0","0.8","","true","0","0.8","","full_practice","0.5","","0.5","0.2","0.6","0.5","0.2","0.5","","","","","","","",""
"331","","bandit","54","254438","0.0-33.0-1.0","38278053","wem/bandit_either","A3EWTW55UCNAHG","either","3","","","","","","","72","H","0","img/none_selected.jpg","0","1","0","","0.8","true","0","","0.8","full_practice","0.5","0.2","0.5","","","0.5","","0.5","0.6","0.2","","","","","",""
"261","","bandit","55","256207","0.0-33.0-2.0","38278053","wem/bandit_either","A3EWTW55UCNAHG","either","3","","","","","","","72","H","0","img/none_selected.jpg","0","0","1","0.8","","true","0","0.8","","full_practice","0.5","","0.5","0.2","0.6","0.5","0.2","0.5","","","","","","","",""
"387","","bandit","56","258103","0.0-33.0-3.0","38278053","wem/bandit_either","A3EWTW55UCNAHG","either","3","","","","","","","74","J","1","","0","0","1","0.2","","true","0","0.8","","full_practice","0.5","","0.5","0.2","0.6","0.5","0.2","0.5","","","","","","","",""
"238","","bandit","57","259848","0.0-33.0-4.0","38278053","wem/bandit_either","A3EWTW55UCNAHG","either","3","","","","","","","75","K","2","","0","1","0","","0.6","true","0","","0.8","full_practice","0.5","0.2","0.5","","","0.5","","0.5","0.6","0.2","","","","","",""
"278","","bandit","58","261632","0.0-33.0-5.0","38278053","wem/bandit_either","A3EWTW55UCNAHG","either","3","","","","","","","75","K","2","","0","0","1","0.6","","true","0","0.8","","full_practice","0.5","","0.5","0.2","0.6","0.5","0.2","0.5","","","","","","","",""
"228","","bandit","59","263367","0.0-33.0-6.0","38278053","wem/bandit_either","A3EWTW55UCNAHG","either","3","","","","","","","76","L","3","","0","0","1","0.2","","true","0","0.8","","full_practice","0.5","","0.5","0.2","0.6","0.5","0.2","0.5","","","","","","","",""
"173","","bandit","60","265047","0.0-33.0-7.0","38278053","wem/bandit_either","A3EWTW55UCNAHG","either","3","","","","","","","72","H","0","img/none_selected.jpg","0","1","0","","0.8","true","0","","0.8","full_practice","0.5","0.2","0.5","","","0.5","","0.5","0.6","0.2","","","","","",""
"261","","bandit","61","266816","0.0-33.0-8.0","38278053","wem/bandit_either","A3EWTW55UCNAHG","either","3","","","","","","","72","H","0","img/none_selected.jpg","0","1","0","","0.8","true","0","","0.8","full_practice","0.5","0.2","0.5","","","0.5","","0.5","0.6","0.2","","","","","",""
"228","","bandit","62","268549","0.0-33.0-9.0","38278053","wem/bandit_either","A3EWTW55UCNAHG","either","3","","","","","","","72","H","0","img/none_selected.jpg","1","0","0","0.8","","true","0","0.8","","full_practice","0.5","","0.5","0.2","0.6","0.5","0.2","0.5","","","","","","","",""
"255","","bandit","63","270311","0.0-33.0-10.0","38278053","wem/bandit_either","A3EWTW55UCNAHG","either","3","","","","","","","72","H","0","img/none_selected.jpg","0","1","0","","0.8","true","0","","0.8","full_practice","0.5","0.2","0.5","","","0.5","","0.5","0.6","0.2","","","","","",""
"195","","bandit","64","272015","0.0-33.0-11.0","38278053","wem/bandit_either","A3EWTW55UCNAHG","either","3","","","","","","","72","H","0","img/none_selected.jpg","0","1","0","","0.8","true","0","","0.8","full_practice","0.5","0.2","0.5","","","0.5","","0.5","0.6","0.2","","","","","",""
"173","","bandit","65","273693","0.0-33.0-12.0","38278053","wem/bandit_either","A3EWTW55UCNAHG","either","3","","","","","","","72","H","0","img/none_selected.jpg","0","1","0","","0.8","true","0","","0.8","full_practice","0.5","0.2","0.5","","","0.5","","0.5","0.6","0.2","","","","","",""
"246","","bandit","66","275446","0.0-33.0-13.0","38278053","wem/bandit_either","A3EWTW55UCNAHG","either","3","","","","","","","72","H","0","img/none_selected.jpg","1","0","0","0.8","","true","0","0.8","","full_practice","0.5","","0.5","0.2","0.6","0.5","0.2","0.5","","","","","","","",""
"86","","bandit","67","277038","0.0-33.0-14.0","38278053","wem/bandit_either","A3EWTW55UCNAHG","either","3","","","","","","","72","H","0","img/none_selected.jpg","1","0","0","0.8","","true","0","0.8","","full_practice","0.5","","0.5","0.2","0.6","0.5","0.2","0.5","","","","","","","",""
"207","","bandit","68","278750","0.0-33.0-15.0","38278053","wem/bandit_either","A3EWTW55UCNAHG","either","3","","","","","","","72","H","0","img/none_selected.jpg","1","0","0","0.8","","true","0","0.8","","full_practice","0.5","","0.5","0.2","0.6","0.5","0.2","0.5","","","","","","","",""
"94","","bandit","69","280351","0.0-33.0-16.0","38278053","wem/bandit_either","A3EWTW55UCNAHG","either","3","","","","","","","72","H","0","img/none_selected.jpg","1","0","0","0.8","","true","0","0.8","","full_practice","0.5","","0.5","0.2","0.6","0.5","0.2","0.5","","","","","","","",""
"132","","bandit","70","281991","0.0-33.0-17.0","38278053","wem/bandit_either","A3EWTW55UCNAHG","either","3","","","","","","","72","H","0","img/none_selected.jpg","1","0","0","0.8","","true","0","0.8","","full_practice","0.5","","0.5","0.2","0.6","0.5","0.2","0.5","","","","","","","",""
"260","","bandit","71","283758","0.0-33.0-18.0","38278053","wem/bandit_either","A3EWTW55UCNAHG","either","3","","","","","","","72","H","0","img/none_selected.jpg","0","0","1","","0.8","true","0","","0.8","full_practice","0.5","0.2","0.5","","","0.5","","0.5","0.6","0.2","","","","","",""
"99","","bandit","72","285366","0.0-33.0-19.0","38278053","wem/bandit_either","A3EWTW55UCNAHG","either","3","","","","","","","72","H","0","img/none_selected.jpg","1","0","0","0.8","","true","0","0.8","","full_practice","0.5","","0.5","0.2","0.6","0.5","0.2","0.5","","","","","","","",""
"2985","","text","73","288359","0.0-34.0","38278053","wem/bandit_either","A3EWTW55UCNAHG","either","3","32","","","","","","","","","","","","","","","","","","","","","","","","","","","","","","","","","","",""
"10693","","text","74","300056","0.0-35.0","38278053","wem/bandit_either","A3EWTW55UCNAHG","either","3","32","","","","","","","","","","","","","","","","","","","","","","","","","","","","","","","","","","",""
"10326","","text","75","310385","0.0-36.0","38278053","wem/bandit_either","A3EWTW55UCNAHG","either","3","32","","","","","","","","","","","","","","","","","","","","","","","","","","","","","","","","","","",""
"5332","","text","76","315720","0.0-37.0","38278053","wem/bandit_either","A3EWTW55UCNAHG","either","3","32","","","","","","","","","","","","","","","","","","","","","","","","","","","","","","","","","","",""
"5229","","text","77","320952","0.0-38.0","38278053","wem/bandit_either","A3EWTW55UCNAHG","either","3","32","","","","","","","","","","","","","","","","","","","","","","","","","","","","","","","","","","",""
"5932","","text","78","326887","0.0-39.0","38278053","wem/bandit_either","A3EWTW55UCNAHG","either","3","32","","","","","","","","","","","","","","","","","","","","","","","","","","","","","","","","","","",""
"1315","","bandit","79","329711","0.0-40.0-0.0","38278053","wem/bandit_either","A3EWTW55UCNAHG","either","3","","","","","","","74","J","1","","0","0","1","0.1426046982","","","1","0.07685641067","","main_expt","0.4","","0.8","0.1426046982","0.1646489015","0.2","0.4870892339","0.6","","","","","","","",""
"219","","bandit","80","331438","0.0-41.0-0.0","38278053","wem/bandit_either","A3EWTW55UCNAHG","either","3","","","","","","","75","K","2","","1","0","0","0.2180431119","","","2","0.08388143876","","main_expt","0.4","","0.8","0.1597004976","0.2180431119","0.2","0.4875162112","0.6","","","","","","","",""
"190","","bandit","81","333136","0.0-42.0-0.0","38278053","wem/bandit_either","A3EWTW55UCNAHG","either","3","","","","","","","75","K","2","","0","1","0","","0.2294217256","","3","","0.06528774038","main_expt","0.4","0.1381850853","0.8","","","0.2","","0.6","0.2294217256","0.4909945117","","","","","",""
"275","","bandit","82","334917","0.0-43.0-0.0","38278053","wem/bandit_either","A3EWTW55UCNAHG","either","3","","","","","","","75","K","2","","0","0","1","","0.2162119515","","4","","0.07987899881","main_expt","0.4","0.1787932262","0.8","","","0.2","","0.6","0.2162119515","0.482579304","","","","","",""
"134","","bandit","83","336557","0.0-44.0-0.0","38278053","wem/bandit_either","A3EWTW55UCNAHG","either","3","","","","","","","75","K","2","","0","0","1","","0.2246316054","","5","","0.0432391811","main_expt","0.4","0.1795032464","0.8","","","0.2","","0.6","0.2246316054","0.4887913002","","","","","",""
"820","","bandit","84","338885","0.0-45.0-0.0","38278053","wem/bandit_either","A3EWTW55UCNAHG","either","3","","","","","","","75","K","2","","0","0","1","","0.2061018479","","6","","0.03467601655","main_expt","0.4","0.164375756","0.8","","","0.2","","0.6","0.2061018479","0.4887860333","","","","","",""
"220","","bandit","85","340613","0.0-46.0-0.0","38278053","wem/bandit_either","A3EWTW55UCNAHG","either","3","","","","","","","76","L","3","","1","0","0","0.4901971563","","","7","0.05033951668","","main_expt","0.4","","0.8","0.204957223","0.1795347326","0.2","0.4901971563","0.6","","","","","","","",""
"268","","bandit","86","342390","0.0-47.0-0.0","38278053","wem/bandit_either","A3EWTW55UCNAHG","either","3","","","","","","","76","L","3","","0","0","1","0.4862230721","","","8","0.07676355645","","main_expt","0.4","","0.8","0.2162036531","0.1290452752","0.2","0.4862230721","0.6","","","","","","","",""
"171","","bandit","87","344071","0.0-48.0-0.0","38278053","wem/bandit_either","A3EWTW55UCNAHG","either","3","","","","","","","76","L","3","","0","0","1","0.4759730645","","","9","0.08620859221","","main_expt","0.4","","0.8","0.2167418122","0.1559184374","0.2","0.4759730645","0.6","","","","","","","",""
"476","","bandit","88","346055","0.0-49.0-0.0","38278053","wem/bandit_either","A3EWTW55UCNAHG","either","3","","","","","","","72","H","0","img/none_selected.jpg","0","0","1","0.1103839657","","","10","0.1103839657","","main_expt","0.4","","0.8","0.1607923637","0.1381514788","0.2","0.4560980466","0.6","","","","","","","",""
"140","","bandit","89","347702","0.0-50.0-0.0","38278053","wem/bandit_either","A3EWTW55UCNAHG","either","3","","","","","","","74","J","1","","0","0","1","0.1386410957","","","11","0.1334948588","","main_expt","0.4","","0.8","0.1386410957","0.1271140015","0.2","0.4775116046","0.6","","","","","","","",""
"164","","bandit","90","349374","0.0-51.0-0.0","38278053","wem/bandit_either","A3EWTW55UCNAHG","either","3","","","","","","","75","K","2","","0","1","0","","0.1854664659","","12","","0.1535602519","main_expt","0.4","0.1718380738","0.8","","","0.2","","0.6","0.1854664659","0.4705073552","","","","","",""
"243","","bandit","91","351126","0.0-52.0-0.0","38278053","wem/bandit_either","A3EWTW55UCNAHG","either","3","","","","","","","75","K","2","","0","0","1","0.1869952656","","","13","0.127854239","","main_expt","0.4","","0.8","0.1686303413","0.1869952656","0.2","0.4851887342","0.6","","","","","","","",""
"236","","bandit","92","352869","0.0-53.0-0.0","38278053","wem/bandit_either","A3EWTW55UCNAHG","either","3","","","","","","","76","L","3","","1","0","0","0.4731273917","","","14","0.1507911491","","main_expt","0.4","","0.8","0.1460019496","0.2035171393","0.2","0.4731273917","0.6","","","","","","","",""
"246","","bandit","93","354623","0.0-54.0-0.0","38278053","wem/bandit_either","A3EWTW55UCNAHG","either","3","","","","","","","76","L","3","","1","0","0","0.4585867004","","","15","0.1741212098","","main_expt","0.4","","0.8","0.1667614464","0.2800299461","0.2","0.4585867004","0.6","","","","","","","",""
"267","","bandit","94","356397","0.0-55.0-0.0","38278053","wem/bandit_either","A3EWTW55UCNAHG","either","3","","","","","","","76","L","3","","1","0","0","0.4366533258","","","16","0.1918308831","","main_expt","0.4","","0.8","0.1973644546","0.2725454461","0.2","0.4366533258","0.6","","","","","","","",""
"236","","bandit","95","358141","0.0-56.0-0.0","38278053","wem/bandit_either","A3EWTW55UCNAHG","either","3","","","","","","","76","L","3","","0","1","0","","0.4405228744","","17","","0.1950212473","main_expt","0.4","0.1873415792","0.8","","","0.2","","0.6","0.1570621471","0.4405228744","","","","","",""
"252","","bandit","96","359901","0.0-57.0-0.0","38278053","wem/bandit_either","A3EWTW55UCNAHG","either","3","","","","","","","76","L","3","","0","0","1","","0.4678551263","","18","","0.2094813194","main_expt","0.4","0.1875860444","0.8","","","0.2","","0.6","0.1968188506","0.4678551263","","","","","",""
"221","","bandit","97","361628","0.0-58.0-0.0","38278053","wem/bandit_either","A3EWTW55UCNAHG","either","3","","","","","","","76","L","3","","1","0","0","0.466140525","","","19","0.2628959394","","main_expt","0.4","","0.8","0.1988439388","0.2439518204","0.2","0.466140525","0.6","","","","","","","",""
"188","","bandit","98","363326","0.0-59.0-0.0","38278053","wem/bandit_either","A3EWTW55UCNAHG","either","3","","","","","","","76","L","3","","0","1","0","","0.4094087999","","20","","0.2116504525","main_expt","0.4","0.1813993393","0.8","","","0.2","","0.6","0.2806117898","0.4094087999","","","","","",""
"253","","bandit","99","365087","0.0-60.0-0.0","38278053","wem/bandit_either","A3EWTW55UCNAHG","either","3","","","","","","","76","L","3","","0","0","1","0.4386974508","","","21","0.1904426465","","main_expt","0.4","","0.8","0.2012004452","0.2658005831","0.2","0.4386974508","0.6","","","","","","","",""
"131","","bandit","100","366726","0.0-61.0-0.0","38278053","wem/bandit_either","A3EWTW55UCNAHG","either","3","","","","","","","76","L","3","","1","0","0","0.4505723784","","","22","0.1581796968","","main_expt","0.4","","0.8","0.1958646163","0.2774390086","0.2","0.4505723784","0.6","","","","","","","",""
"196","","bandit","101","368431","0.0-62.0-0.0","38278053","wem/bandit_either","A3EWTW55UCNAHG","either","3","","","","","","","76","L","3","","0","0","1","","0.4568000239","","23","","0.2039009352","main_expt","0.4","0.2626819079","0.8","","","0.2","","0.6","0.2795917474","0.4568000239","","","","","",""
"244","","bandit","102","370182","0.0-63.0-0.0","38278053","wem/bandit_either","A3EWTW55UCNAHG","either","3","","","","","","","76","L","3","","0","0","1","0.4518339256","","","24","0.228339491","","main_expt","0.4","","0.8","0.2906682881","0.2981059477","0.2","0.4518339256","0.6","","","","","","","",""
"332","","bandit","103","372023","0.0-64.0-0.0","38278053","wem/bandit_either","A3EWTW55UCNAHG","either","3","","","","","","","75","K","2","","0","1","0","","0.3272059922","","25","","0.2602465224","main_expt","0.4","0.3270173502","0.8","","","0.2","","0.6","0.3272059922","0.4120159309","","","","","",""
"235","","bandit","104","373767","0.0-65.0-0.0","38278053","wem/bandit_either","A3EWTW55UCNAHG","either","3","","","","","","","75","K","2","","0","0","1","","0.3369826645","","26","","0.1939420306","main_expt","0.4","0.2951289915","0.8","","","0.2","","0.6","0.3369826645","0.4134154185","","","","","",""
"301","","bandit","105","375576","0.0-66.0-0.0","38278053","wem/bandit_either","A3EWTW55UCNAHG","either","3","","","","","","","74","J","1","","0","0","1","0.3520126272","","","27","0.2387331149","","main_expt","0.4","","0.8","0.3520126272","0.2531212506","0.2","0.4031068294","0.6","","","","","","","",""
"171","","bandit","106","377255","0.0-67.0-0.0","38278053","wem/bandit_either","A3EWTW55UCNAHG","either","3","","","","","","","72","H","0","img/none_selected.jpg","0","0","1","0.2183458617","","","28","0.2183458617","","main_expt","0.4","","0.8","0.3369287003","0.2170461037","0.2","0.4305883772","0.6","","","","","","","",""
"211","","bandit","107","378974","0.0-68.0-0.0","38278053","wem/bandit_either","A3EWTW55UCNAHG","either","3","","","","","","","75","K","2","","0","0","1","0.2346211465","","","29","0.2151501268","","main_expt","0.4","","0.8","0.3591799128","0.2346211465","0.2","0.4383329838","0.6","","","","","","","",""
"291","","bandit","108","380775","0.0-69.0-0.0","38278053","wem/bandit_either","A3EWTW55UCNAHG","either","3","","","","","","","75","K","2","","0","0","1","","0.2450860663","","30","","0.2267233056","main_expt","0.4","0.3324285477","0.8","","","0.2","","0.6","0.2450860663","0.4233276099","","","","","",""
"187","","bandit","109","382472","0.0-70.0-0.0","38278053","wem/bandit_either","A3EWTW55UCNAHG","either","3","","","","","","","74","J","1","","0","0","1","","0.327032362","","31","","0.2663701676","main_expt","0.4","0.327032362","0.8","","","0.2","","0.6","0.2141169407","0.4016185005","","","","","",""
"131","","bandit","110","384110","0.0-71.0-0.0","38278053","wem/bandit_either","A3EWTW55UCNAHG","either","3","","","","","","","76","L","3","","0","0","1","","0.4134940178","","32","","0.275969473","main_expt","0.4","0.3230905041","0.8","","","0.2","","0.6","0.2347854155","0.4134940178","","","","","",""
"166","","bandit","111","385784","0.0-72.0-0.0","38278053","wem/bandit_either","A3EWTW55UCNAHG","either","3","","","","","","","72","H","0","img/none_selected.jpg","1","0","0","0.3365270118","","","33","0.3365270118","","main_expt","0.4","","0.8","0.2969008969","0.246596708","0.2","0.4331174495","0.6","","","","","","","",""
"274","","bandit","112","387567","0.0-73.0-0.0","38278053","wem/bandit_either","A3EWTW55UCNAHG","either","3","","","","","","","72","H","0","img/none_selected.jpg","0","0","1","","0.2916301021","","34","","0.2916301021","main_expt","0.4","0.2536392951","0.8","","","0.2","","0.6","0.1914370393","0.4454497031","","","","","",""
"298","","bandit","113","389375","0.0-74.0-0.0","38278053","wem/bandit_either","A3EWTW55UCNAHG","either","3","","","","","","","72","H","0","img/none_selected.jpg","0","0","1","0.3236538836","","","35","0.3236538836","","main_expt","0.4","","0.8","0.2336030597","0.1408207185","0.2","0.4419706984","0.6","","","","","","","",""
"139","","bandit","114","391023","0.0-75.0-0.0","38278053","wem/bandit_either","A3EWTW55UCNAHG","either","3","","","","","","","74","J","1","","0","0","1","0.3110392291","","","36","0.3317439785","","main_expt","0.4","","0.8","0.3110392291","0.09539735145","0.2","0.4205940312","0.6","","","","","","","",""
"244","","bandit","115","392774","0.0-76.0-0.0","38278053","wem/bandit_either","A3EWTW55UCNAHG","either","3","","","","","","","74","J","1","","1","0","0","0.3354302382","","","37","0.3620900841","","main_expt","0.4","","0.8","0.3354302382","0.08867332122","0.2","0.4227305347","0.6","","","","","","","",""
"244","","bandit","116","394526","0.0-77.0-0.0","38278053","wem/bandit_either","A3EWTW55UCNAHG","either","3","","","","","","","74","J","1","","1","0","0","0.3359947902","","","38","0.3649119955","","main_expt","0.4","","0.8","0.3359947902","0.0804097964","0.2","0.3904174821","0.6","","","","","","","",""
"246","","bandit","117","396279","0.0-78.0-0.0","38278053","wem/bandit_either","A3EWTW55UCNAHG","either","3","","","","","","","74","J","1","","0","0","1","0.3719467902","","","39","0.3993258453","","main_expt","0.4","","0.8","0.3719467902","0.1092906338","0.2","0.3704092514","0.6","","","","","","","",""
"242","","bandit","118","398031","0.0-79.0-0.0","38278053","wem/bandit_either","A3EWTW55UCNAHG","either","3","","","","","","","74","J","1","","1","0","0","0.37180955","","","40","0.43145226","","main_expt","0.4","","0.8","0.37180955","0.08771014895","0.2","0.3250394812","0.6","","","","","","","",""
"267","","bandit","119","399809","0.0-80.0-0.0","38278053","wem/bandit_either","A3EWTW55UCNAHG","either","3","","","","","","","74","J","1","","0","0","1","0.3972707938","","","41","0.3925837484","","main_expt","0.4","","0.8","0.3972707938","0.1065106481","0.2","0.3633775572","0.6","","","","","","","",""
"258","","bandit","120","401575","0.0-81.0-0.0","38278053","wem/bandit_either","A3EWTW55UCNAHG","either","3","","","","","","","74","J","1","","0","0","1","0.3981555674","","","42","0.4020613291","","main_expt","0.4","","0.8","0.3981555674","0.0926848955","0.2","0.3708570881","0.6","","","","","","","",""
"266","","bandit","121","403350","0.0-82.0-0.0","38278053","wem/bandit_either","A3EWTW55UCNAHG","either","3","","","","","","","75","K","2","","0","0","1","","0.09213729174","","43","","0.4199094288","main_expt","0.4","0.3698022864","0.8","","","0.2","","0.6","0.09213729174","0.3852030547","","","","","",""
"251","","bandit","122","405110","0.0-83.0-0.0","38278053","wem/bandit_either","A3EWTW55UCNAHG","either","3","","","","","","","75","K","2","","0","0","1","","0.0950319608","","44","","0.4362917367","main_expt","0.4","0.3278340923","0.8","","","0.2","","0.6","0.0950319608","0.3653477133","","","","","",""
"220","","bandit","123","406840","0.0-84.0-0.0","38278053","wem/bandit_either","A3EWTW55UCNAHG","either","3","","","","","","","76","L","3","","0","0","1","0.3423722135","","","45","0.4310393502","","main_expt","0.4","","0.8","0.4004869948","0.07917944011","0.2","0.3423722135","0.6","","","","","","","",""
"210","","bandit","124","408559","0.0-85.0-0.0","38278053","wem/bandit_either","A3EWTW55UCNAHG","either","3","","","","","","","72","H","0","img/none_selected.jpg","1","0","0","0.4301719659","","","46","0.4301719659","","main_expt","0.4","","0.8","0.4389658195","0.08528552535","0.2","0.2713785315","0.6","","","","","","","",""
"218","","bandit","125","410288","0.0-86.0-0.0","38278053","wem/bandit_either","A3EWTW55UCNAHG","either","3","","","","","","","72","H","0","img/none_selected.jpg","0","0","1","","0.4274268526","","47","","0.4274268526","main_expt","0.4","0.4294918489","0.8","","","0.2","","0.6","0.08303267599","0.2675382036","","","","","",""
"298","","bandit","126","412093","0.0-87.0-0.0","38278053","wem/bandit_either","A3EWTW55UCNAHG","either","3","","","","","","","72","H","0","img/none_selected.jpg","0","0","1","0.4559220927","","","48","0.4559220927","","main_expt","0.4","","0.8","0.3948346084","0.1183490009","0.2","0.3006553151","0.6","","","","","","","",""
"155","","bandit","127","413757","0.0-88.0-0.0","38278053","wem/bandit_either","A3EWTW55UCNAHG","either","3","","","","","","","74","J","1","","0","0","1","0.4226663974","","","49","0.4362936898","","main_expt","0.4","","0.8","0.4226663974","0.09831357925","0.2","0.2865645246","0.6","","","","","","","",""
"236","","bandit","128","415504","0.0-89.0-0.0","38278053","wem/bandit_either","A3EWTW55UCNAHG","either","3","","","","","","","75","K","2","","0","0","1","","0.0896163698","","50","","0.4001593617","main_expt","0.4","0.3943232949","0.8","","","0.2","","0.6","0.0896163698","0.2842330123","","","","","",""
"243","","bandit","129","417256","0.0-90.0-0.0","38278053","wem/bandit_either","A3EWTW55UCNAHG","either","3","","","","","","","74","J","1","","0","0","1","0.3911898034","","","51","0.3737598101","","main_expt","0.4","","0.8","0.3911898034","0.08239790895","0.2","0.2933637591","0.6","","","","","","","",""
"145","","bandit","130","418911","0.0-91.0-0.0","38278053","wem/bandit_either","A3EWTW55UCNAHG","either","3","","","","","","","76","L","3","","0","0","1","","0.2802127762","","52","","0.3490564905","main_expt","0.4","0.3897106723","0.8","","","0.2","","0.6","0.06509061927","0.2802127762","","","","","",""
"130","","bandit","131","420552","0.0-92.0-0.0","38278053","wem/bandit_either","A3EWTW55UCNAHG","either","3","","","","","","","72","H","0","img/none_selected.jpg","0","1","0","","0.3606416198","","53","","0.3606416198","main_expt","0.4","0.3977919118","0.8","","","0.2","","0.6","0.05503049918","0.2567133084","","","","","",""
"217","","bandit","132","422278","0.0-93.0-0.0","38278053","wem/bandit_either","A3EWTW55UCNAHG","either","3","","","","","","","72","H","0","img/none_selected.jpg","0","0","1","","0.3920172378","","54","","0.3920172378","main_expt","0.4","0.3803623479","0.8","","","0.2","","0.6","0.06606451817","0.304436262","","","","","",""
"251","","bandit","133","424038","0.0-94.0-0.0","38278053","wem/bandit_either","A3EWTW55UCNAHG","either","3","","","","","","","72","H","0","img/none_selected.jpg","0","0","1","0.3841867886","","","55","0.3841867886","","main_expt","0.4","","0.8","0.3898030924","0.0812436444","0.2","0.3050376594","0.6","","","","","","","",""
"221","","bandit","134","425767","0.0-95.0-0.0","38278053","wem/bandit_either","A3EWTW55UCNAHG","either","3","","","","","","","74","J","1","","1","0","0","0.4332266089","","","56","0.3752679739","","main_expt","0.4","","0.8","0.4332266089","0.05752214818","0.2","0.2874076515","0.6","","","","","","","",""
"274","","bandit","135","427553","0.0-96.0-0.0","38278053","wem/bandit_either","A3EWTW55UCNAHG","either","3","","","","","","","74","J","1","","0","0","1","","0.4598680415","","57","","0.3595388075","main_expt","0.4","0.4598680415","0.8","","","0.2","","0.6","0.05957573693","0.2633226407","","","","","",""
"161","","bandit","136","429223","0.0-97.0-0.0","38278053","wem/bandit_either","A3EWTW55UCNAHG","either","3","","","","","","","74","J","1","","1","0","0","0.4510058242","","","58","0.2926617498","","main_expt","0.4","","0.8","0.4510058242","0.08347810371","0.2","0.282557186","0.6","","","","","","","",""
"307","","bandit","137","431037","0.0-98.0-0.0","38278053","wem/bandit_either","A3EWTW55UCNAHG","either","3","","","","","","","74","J","1","","1","0","0","0.4587464736","","","59","0.2854140482","","main_expt","0.4","","0.8","0.4587464736","0.1166757522","0.2","0.2675679041","0.6","","","","","","","",""
"275","","bandit","138","432824","0.0-99.0-0.0","38278053","wem/bandit_either","A3EWTW55UCNAHG","either","3","","","","","","","74","J","1","","0","0","1","0.4534111386","","","60","0.2767785787","","main_expt","0.4","","0.8","0.4534111386","0.1223048521","0.2","0.2654645802","0.6","","","","","","","",""
"217","","bandit","139","434550","0.0-100.0-0.0","38278053","wem/bandit_either","A3EWTW55UCNAHG","either","3","","","","","","","74","J","1","","0","0","1","","0.4581751116","","61","","0.3110110239","main_expt","0.4","0.4581751116","0.8","","","0.2","","0.6","0.1341525672","0.2326588137","","","","","",""
"291","","bandit","140","436351","0.0-101.0-0.0","38278053","wem/bandit_either","A3EWTW55UCNAHG","either","3","","","","","","","75","K","2","","0","0","1","","0.1748443247","","62","","0.2739379344","main_expt","0.4","0.4447189615","0.8","","","0.2","","0.6","0.1748443247","0.2430345153","","","","","",""
"84","","bandit","141","437944","0.0-102.0-0.0","38278053","wem/bandit_either","A3EWTW55UCNAHG","either","3","","","","","","","72","H","0","img/none_selected.jpg","0","0","1","","0.2518438402","","63","","0.2518438402","main_expt","0.4","0.4351057758","0.8","","","0.2","","0.6","0.1872250423","0.2682261916","","","","","",""
"202","","bandit","142","439653","0.0-103.0-0.0","38278053","wem/bandit_either","A3EWTW55UCNAHG","either","3","","","","","","","74","J","1","","1","0","0","0.4559228662","","","64","0.216118181","","main_expt","0.4","","0.8","0.4559228662","0.1592276408","0.2","0.3136585585","0.6","","","","","","","",""
"227","","bandit","143","441391","0.0-104.0-0.0","38278053","wem/bandit_either","A3EWTW55UCNAHG","either","3","","","","","","","74","J","1","","1","0","0","0.4526438492","","","65","0.1961712117","","main_expt","0.4","","0.8","0.4526438492","0.1881419285","0.2","0.3208042698","0.6","","","","","","","",""
"195","","bandit","144","443093","0.0-105.0-0.0","38278053","wem/bandit_either","A3EWTW55UCNAHG","either","3","","","","","","","74","J","1","","0","0","1","0.4604690516","","","66","0.1821057022","","main_expt","0.4","","0.8","0.4604690516","0.2075830042","0.2","0.3550213758","0.6","","","","","","","",""
"324","","bandit","145","444927","0.0-106.0-0.0","38278053","wem/bandit_either","A3EWTW55UCNAHG","either","3","","","","","","","74","J","1","","1","0","0","0.4479534522","","","67","0.2221692745","","main_expt","0.4","","0.8","0.4479534522","0.210321401","0.2","0.2883445083","0.6","","","","","","","",""
"322","","bandit","146","446757","0.0-107.0-0.0","38278053","wem/bandit_either","A3EWTW55UCNAHG","either","3","","","","","","","74","J","1","","1","0","0","0.4420076102","","","68","0.2385328342","","main_expt","0.4","","0.8","0.4420076102","0.1740681144","0.2","0.2492112051","0.6","","","","","","","",""
"274","","bandit","147","448543","0.0-108.0-0.0","38278053","wem/bandit_either","A3EWTW55UCNAHG","either","3","","","","","","","74","J","1","","0","1","0","","0.3840886122","","69","","0.2693988132","main_expt","0.4","0.3840886122","0.8","","","0.2","","0.6","0.1495678232","0.1725364023","","","","","",""
"265","","bandit","148","450319","0.0-109.0-0.0","38278053","wem/bandit_either","A3EWTW55UCNAHG","either","3","","","","","","","74","J","1","","0","0","1","0.3764426572","","","70","0.2633889128","","main_expt","0.4","","0.8","0.3764426572","0.1594524764","0.2","0.2081322216","0.6","","","","","","","",""
"266","","bandit","149","452094","0.0-110.0-0.0","38278053","wem/bandit_either","A3EWTW55UCNAHG","either","3","","","","","","","74","J","1","","1","0","0","0.3925575972","","","71","0.2881785301","","main_expt","0.4","","0.8","0.3925575972","0.1308665948","0.2","0.2222096595","0.6","","","","","","","",""
"259","","bandit","150","453862","0.0-111.0-0.0","38278053","wem/bandit_either","A3EWTW55UCNAHG","either","3","","","","","","","74","J","1","","0","0","1","","0.4055717031","","72","","0.3496752211","main_expt","0.4","0.4055717031","0.8","","","0.2","","0.6","0.1413665491","0.2276413934","","","","","",""
"178","","bandit","151","455549","0.0-112.0-0.0","38278053","wem/bandit_either","A3EWTW55UCNAHG","either","3","","","","","","","74","J","1","","1","0","0","0.4313753627","","","73","0.3662649551","","main_expt","0.4","","0.8","0.4313753627","0.1562096843","0.2","0.202726327","0.6","","","","","","","",""
"283","","bandit","152","457342","0.0-113.0-0.0","38278053","wem/bandit_either","A3EWTW55UCNAHG","either","3","","","","","","","74","J","1","","0","0","1","0.4294283137","","","74","0.3318597218","","main_expt","0.4","","0.8","0.4294283137","0.1601549975","0.2","0.2465356434","0.6","","","","","","","",""
"195","","bandit","153","459046","0.0-114.0-0.0","38278053","wem/bandit_either","A3EWTW55UCNAHG","either","3","","","","","","","74","J","1","","1","0","0","0.4114775526","","","75","0.3129946244","","main_expt","0.4","","0.8","0.4114775526","0.1962365409","0.2","0.2780880013","0.6","","","","","","","",""
"282","","bandit","154","460837","0.0-115.0-0.0","38278053","wem/bandit_either","A3EWTW55UCNAHG","either","3","","","","","","","74","J","1","","0","0","1","0.4038916894","","","76","0.3299880354","","main_expt","0.4","","0.8","0.4038916894","0.2315068675","0.2","0.230570622","0.6","","","","","","","",""
"226","","bandit","155","462573","0.0-116.0-0.0","38278053","wem/bandit_either","A3EWTW55UCNAHG","either","3","","","","","","","74","J","1","","1","0","0","0.4028298088","","","77","0.2704336052","","main_expt","0.4","","0.8","0.4028298088","0.1749603823","0.2","0.1747897532","0.6","","","","","","","",""
"322","","bandit","156","464406","0.0-117.0-0.0","38278053","wem/bandit_either","A3EWTW55UCNAHG","either","3","","","","","","","74","J","1","","1","0","0","0.4004321452","","","78","0.2489008917","","main_expt","0.4","","0.8","0.4004321452","0.2091975686","0.2","0.2009150394","0.6","","","","","","","",""
"266","","bandit","157","466181","0.0-118.0-0.0","38278053","wem/bandit_either","A3EWTW55UCNAHG","either","3","","","","","","","74","J","1","","0","1","0","","0.3909827091","","79","","0.2182462247","main_expt","0.4","0.3909827091","0.8","","","0.2","","0.6","0.2699334682","0.2090883318","","","","","",""
"297","","bandit","158","467992","0.0-119.0-0.0","38278053","wem/bandit_either","A3EWTW55UCNAHG","either","3","","","","","","","74","J","1","","1","0","0","0.4289339141","","","80","0.1591694045","","main_expt","0.4","","0.8","0.4289339141","0.2712134299","0.2","0.215522018","0.6","","","","","","","",""
"195","","bandit","159","469696","0.0-120.0-0.0","38278053","wem/bandit_either","A3EWTW55UCNAHG","either","3","","","","","","","74","J","1","","0","0","1","","0.4256341571","","81","","0.1661146317","main_expt","0.4","0.4256341571","0.8","","","0.2","","0.6","0.2563236188","0.2655955182","","","","","",""
"105","","bandit","160","471311","0.0-121.0-0.0","38278053","wem/bandit_either","A3EWTW55UCNAHG","either","3","","","","","","","74","J","1","","1","0","0","0.4153375647","","","82","0.2249160828","","main_expt","0.4","","0.8","0.4153375647","0.2474856626","0.2","0.2642342948","0.6","","","","","","","",""
"209","","bandit","161","473031","0.0-122.0-0.0","38278053","wem/bandit_either","A3EWTW55UCNAHG","either","3","","","","","","","74","J","1","","0","0","1","0.4239102097","","","83","0.2194800234","","main_expt","0.4","","0.8","0.4239102097","0.2338037125","0.2","0.2615040017","0.6","","","","","","","",""
"234","","bandit","162","474774","0.0-123.0-0.0","38278053","wem/bandit_either","A3EWTW55UCNAHG","either","3","","","","","","","74","J","1","","1","0","0","0.4021041833","","","84","0.2020024956","","main_expt","0.4","","0.8","0.4021041833","0.2929655049","0.2","0.3136368113","0.6","","","","","","","",""
"250","","bandit","163","476533","0.0-124.0-0.0","38278053","wem/bandit_either","A3EWTW55UCNAHG","either","3","","","","","","","74","J","1","","0","1","0","","0.4322374594","","85","","0.1639230135","main_expt","0.4","0.4322374594","0.8","","","0.2","","0.6","0.2755572306","0.2433538552","","","","","",""
"297","","bandit","164","478343","0.0-125.0-0.0","38278053","wem/bandit_either","A3EWTW55UCNAHG","either","3","","","","","","","74","J","1","","1","0","0","0.4247618508","","","86","0.1423092638","","main_expt","0.4","","0.8","0.4247618508","0.2706615249","0.2","0.2583740773","0.6","","","","","","","",""
"609","","bandit","165","480462","0.0-126.0-0.0","38278053","wem/bandit_either","A3EWTW55UCNAHG","either","3","","","","","","","74","J","1","","0","0","1","0.4130492334","","","87","0.1623313408","","main_expt","0.4","","0.8","0.4130492334","0.3259805539","0.2","0.2656778135","0.6","","","","","","","",""
"241","","bandit","166","482213","0.0-127.0-0.0","38278053","wem/bandit_either","A3EWTW55UCNAHG","either","3","","","","","","","74","J","1","","0","0","1","","0.3883747858","","88","","0.1459946163","main_expt","0.4","0.3883747858","0.8","","","0.2","","0.6","0.3471137027","0.2565525481","","","","","",""
"121","","bandit","167","483850","0.0-128.0-0.0","38278053","wem/bandit_either","A3EWTW55UCNAHG","either","3","","","","","","","74","J","1","","0","0","1","","0.3950807547","","89","","0.1684807643","main_expt","0.4","0.3950807547","0.8","","","0.2","","0.6","0.3715311126","0.2471999074","","","","","",""
"197","","bandit","168","485558","0.0-129.0-0.0","38278053","wem/bandit_either","A3EWTW55UCNAHG","either","3","","","","","","","75","K","2","","1","0","0","0.3571728809","","","90","0.1937692241","","main_expt","0.4","","0.8","0.420982679","0.3571728809","0.2","0.2204199549","0.6","","","","","","","",""
"306","","bandit","169","487374","0.0-130.0-0.0","38278053","wem/bandit_either","A3EWTW55UCNAHG","either","3","","","","","","","75","K","2","","0","0","1","0.3348642023","","","91","0.1670397906","","main_expt","0.4","","0.8","0.4012606491","0.3348642023","0.2","0.2013548925","0.6","","","","","","","",""
"130","","bandit","170","489013","0.0-131.0-0.0","38278053","wem/bandit_either","A3EWTW55UCNAHG","either","3","","","","","","","75","K","2","","0","0","1","","0.3551195155","","92","","0.1936095216","main_expt","0.4","0.3950870333","0.8","","","0.2","","0.6","0.3551195155","0.174921714","","","","","",""
"50","","bandit","171","490573","0.0-132.0-0.0","38278053","wem/bandit_either","A3EWTW55UCNAHG","either","3","","","","","","","75","K","2","","0","0","1","","0.3494458231","","93","","0.2399824117","main_expt","0.4","0.3797372222","0.8","","","0.2","","0.6","0.3494458231","0.1972058505","","","","","",""
"275","","bandit","172","492358","0.0-133.0-0.0","38278053","wem/bandit_either","A3EWTW55UCNAHG","either","3","","","","","","","72","H","0","img/none_selected.jpg","0","1","0","","0.242536602","","94","","0.242536602","main_expt","0.4","0.3346339076","0.8","","","0.2","","0.6","0.3759818745","0.2144007407","","","","","",""
"259","","bandit","173","494126","0.0-134.0-0.0","38278053","wem/bandit_either","A3EWTW55UCNAHG","either","3","","","","","","","72","H","0","img/none_selected.jpg","0","0","1","","0.3081296623","","95","","0.3081296623","main_expt","0.4","0.3433005441","0.8","","","0.2","","0.6","0.3467088588","0.2025691914","","","","","",""
"185","","bandit","174","495823","0.0-135.0-0.0","38278053","wem/bandit_either","A3EWTW55UCNAHG","either","3","","","","","","","72","H","0","img/none_selected.jpg","0","0","1","0.371766452","","","96","0.371766452","","main_expt","0.4","","0.8","0.2900415689","0.3520186383","0.2","0.1750118246","0.6","","","","","","","",""
"33","","bandit","175","497366","0.0-136.0-0.0","38278053","wem/bandit_either","A3EWTW55UCNAHG","either","3","","","","","","","76","L","3","","1","0","0","0.2433812568","","","97","0.3737721809","","main_expt","0.4","","0.8","0.3136050561","0.342216001","0.2","0.2433812568","0.6","","","","","","","",""
"114","","bandit","176","498989","0.0-137.0-0.0","38278053","wem/bandit_either","A3EWTW55UCNAHG","either","3","","","","","","","76","L","3","","0","0","1","0.1834100281","","","98","0.3662625892","","main_expt","0.4","","0.8","0.3236610102","0.3775958225","0.2","0.1834100281","0.6","","","","","","","",""
"242","","bandit","177","500743","0.0-138.0-0.0","38278053","wem/bandit_either","A3EWTW55UCNAHG","either","3","","","","","","","76","L","3","","0","0","1","0.146161558","","","99","0.3912879072","","main_expt","0.4","","0.8","0.3116662608","0.3490624926","0.2","0.146161558","0.6","","","","","","","",""
"25","","bandit","178","502278","0.0-139.0-0.0","38278053","wem/bandit_either","A3EWTW55UCNAHG","either","3","","","","","","","76","L","3","","0","0","1","0.1186266926","","","100","0.3916888764","","main_expt","0.4","","0.8","0.3806420769","0.3418910903","0.2","0.1186266926","0.6","","","","","","","",""
"139","","bandit","179","503926","0.0-140.0-0.0","38278053","wem/bandit_either","A3EWTW55UCNAHG","either","3","","","","","","","72","H","0","img/none_selected.jpg","0","0","1","","0.3803758031","","101","","0.3803758031","main_expt","0.4","0.3825052475","0.8","","","0.2","","0.6","0.3544055354","0.1467879228","","","","","",""
"673","","bandit","180","506109","0.0-141.0-0.0","38278053","wem/bandit_either","A3EWTW55UCNAHG","either","3","","","","","","","74","J","1","","0","0","1","0.3799327693","","","102","0.3685266224","","main_expt","0.4","","0.8","0.3799327693","0.3580864163","0.2","0.1336514036","0.6","","","","","","","",""
"371","","bandit","181","507990","0.0-142.0-0.0","38278053","wem/bandit_either","A3EWTW55UCNAHG","either","3","","","","","","","75","K","2","","0","0","1","0.336528594","","","103","0.3754978655","","main_expt","0.4","","0.8","0.3502018886","0.336528594","0.2","0.1325092095","0.6","","","","","","","",""
"265","","bandit","182","509766","0.0-143.0-0.0","38278053","wem/bandit_either","A3EWTW55UCNAHG","either","3","","","","","","","75","K","2","","0","0","1","","0.3190078166","","104","","0.4033056484","main_expt","0.4","0.3443431466","0.8","","","0.2","","0.6","0.3190078166","0.1162839287","","","","","",""
"17","","bandit","183","511294","0.0-144.0-0.0","38278053","wem/bandit_either","A3EWTW55UCNAHG","either","3","","","","","","","72","H","0","img/none_selected.jpg","0","0","1","0.3617388181","","","105","0.3617388181","","main_expt","0.4","","0.8","0.3551378046","0.3100940773","0.2","0.115620258","0.6","","","","","","","",""
"209","","bandit","184","513013","0.0-145.0-0.0","38278053","wem/bandit_either","A3EWTW55UCNAHG","either","3","","","","","","","72","H","0","img/none_selected.jpg","1","0","0","0.3656875331","","","106","0.3656875331","","main_expt","0.4","","0.8","0.3177956882","0.2964842485","0.2","0.1102569517","0.6","","","","","","","",""
"138","","bandit","185","514661","0.0-146.0-0.0","38278053","wem/bandit_either","A3EWTW55UCNAHG","either","3","","","","","","","72","H","0","img/none_selected.jpg","0","1","0","","0.3478183852","","107","","0.3478183852","main_expt","0.4","0.3463124521","0.8","","","0.2","","0.6","0.3224579283","0.110599846","","","","","",""
"281","","bandit","186","516455","0.0-147.0-0.0","38278053","wem/bandit_either","A3EWTW55UCNAHG","either","3","","","","","","","72","H","0","img/none_selected.jpg","0","0","1","","0.3715517583","","108","","0.3715517583","main_expt","0.4","0.330790185","0.8","","","0.2","","0.6","0.3365568187","0.1647947233","","","","","",""
"280","","bandit","187","518245","0.0-148.0-0.0","38278053","wem/bandit_either","A3EWTW55UCNAHG","either","3","","","","","","","72","H","0","img/none_selected.jpg","1","0","0","0.3713851569","","","109","0.3713851569","","main_expt","0.4","","0.8","0.3259779601","0.3200824859","0.2","0.146095753","0.6","","","","","","","",""
"258","","bandit","188","520013","0.0-149.0-0.0","38278053","wem/bandit_either","A3EWTW55UCNAHG","either","3","","","","","","","72","H","0","img/none_selected.jpg","0","0","1","","0.3401672382","","110","","0.3401672382","main_expt","0.4","0.3169053314","0.8","","","0.2","","0.6","0.3179471713","0.1691954855","","","","","",""
"275","","bandit","189","521798","0.0-150.0-0.0","38278053","wem/bandit_either","A3EWTW55UCNAHG","either","3","","","","","","","72","H","0","img/none_selected.jpg","0","0","1","","0.3242328008","","111","","0.3242328008","main_expt","0.4","0.342138516","0.8","","","0.2","","0.6","0.3168158386","0.1690298198","","","","","",""
"241","","bandit","190","523548","0.0-151.0-0.0","38278053","wem/bandit_either","A3EWTW55UCNAHG","either","3","","","","","","","72","H","0","img/none_selected.jpg","0","0","1","","0.2991119965","","112","","0.2991119965","main_expt","0.4","0.3597886873","0.8","","","0.2","","0.6","0.3551606626","0.2196992501","","","","","",""
"82","","bandit","191","525142","0.0-152.0-0.0","38278053","wem/bandit_either","A3EWTW55UCNAHG","either","3","","","","","","","74","J","1","","0","0","1","0.3580549124","","","113","0.3364281798","","main_expt","0.4","","0.8","0.3580549124","0.3615444015","0.2","0.2723467559","0.6","","","","","","","",""
"136","","bandit","192","526789","0.0-153.0-0.0","38278053","wem/bandit_either","A3EWTW55UCNAHG","either","3","","","","","","","74","J","1","","0","0","1","0.3556181037","","","114","0.3495122724","","main_expt","0.4","","0.8","0.3556181037","0.4043222556","0.2","0.2470985199","0.6","","","","","","","",""
"137","","bandit","193","528438","0.0-154.0-0.0","38278053","wem/bandit_either","A3EWTW55UCNAHG","either","3","","","","","","","76","L","3","","0","0","1","0.2482590513","","","115","0.324938203","","main_expt","0.4","","0.8","0.3489042174","0.4179696435","0.2","0.2482590513","0.6","","","","","","","",""
"200","","bandit","194","530149","0.0-155.0-0.0","38278053","wem/bandit_either","A3EWTW55UCNAHG","either","3","","","","","","","76","L","3","","0","0","1","0.1992012358","","","116","0.3227512736","","main_expt","0.4","","0.8","0.3466245191","0.4324393975","0.2","0.1992012358","0.6","","","","","","","",""
"1","","bandit","195","531663","0.0-156.0-0.0","38278053","wem/bandit_either","A3EWTW55UCNAHG","either","3","","","","","","","75","K","2","","0","1","0","","0.4290779421","","117","","0.2585209305","main_expt","0.4","0.3581754781","0.8","","","0.2","","0.6","0.4290779421","0.216355905","","","","","",""
"273","","bandit","196","533447","0.0-157.0-0.0","38278053","wem/bandit_either","A3EWTW55UCNAHG","either","3","","","","","","","75","K","2","","0","0","1","","0.4459264202","","118","","0.2817260076","main_expt","0.4","0.283939031","0.8","","","0.2","","0.6","0.4459264202","0.1715453935","","","","","",""
"231","","bandit","197","535190","0.0-158.0-0.0","38278053","wem/bandit_either","A3EWTW55UCNAHG","either","3","","","","","","","75","K","2","","0","1","0","","0.436995295","","119","","0.328214026","main_expt","0.4","0.2992634423","0.8","","","0.2","","0.6","0.436995295","0.1843456939","","","","","",""
"240","","bandit","198","536941","0.0-159.0-0.0","38278053","wem/bandit_either","A3EWTW55UCNAHG","either","3","","","","","","","75","K","2","","0","0","1","","0.4151314625","","120","","0.3355603121","main_expt","0.4","0.1878150733","0.8","","","0.2","","0.6","0.4151314625","0.1848061615","","","","","",""
"153","","bandit","199","538604","0.0-160.0-0.0","38278053","wem/bandit_either","A3EWTW55UCNAHG","either","3","","","","","","","75","K","2","","0","1","0","","0.4384064527","","121","","0.3829587724","main_expt","0.4","0.1447458933","0.8","","","0.2","","0.6","0.4384064527","0.1679578636","","","","","",""
"138","","bandit","200","540254","0.0-161.0-0.0","38278053","wem/bandit_either","A3EWTW55UCNAHG","either","3","","","","","","","75","K","2","","0","1","0","","0.4417589501","","122","","0.3995678287","main_expt","0.4","0.1176060398","0.8","","","0.2","","0.6","0.4417589501","0.197295971","","","","","",""
"217","","bandit","201","541983","0.0-162.0-0.0","38278053","wem/bandit_either","A3EWTW55UCNAHG","either","3","","","","","","","75","K","2","","0","0","1","","0.4017154396","","123","","0.3656739583","main_expt","0.4","0.1097677055","0.8","","","0.2","","0.6","0.4017154396","0.2184653352","","","","","",""
"177","","bandit","202","543670","0.0-163.0-0.0","38278053","wem/bandit_either","A3EWTW55UCNAHG","either","3","","","","","","","75","K","2","","0","0","1","","0.3619070526","","124","","0.3862549257","main_expt","0.4","0.08048168986","0.8","","","0.2","","0.6","0.3619070526","0.2147868977","","","","","",""
"63","","bandit","203","545246","0.0-164.0-0.0","38278053","wem/bandit_either","A3EWTW55UCNAHG","either","3","","","","","","","75","K","2","","0","0","1","","0.3567490645","","125","","0.3593796239","main_expt","0.4","0.07842900555","0.8","","","0.2","","0.6","0.3567490645","0.1667936559","","","","","",""
"49","","bandit","204","546805","0.0-165.0-0.0","38278053","wem/bandit_either","A3EWTW55UCNAHG","either","3","","","","","","","74","J","1","","0","0","1","0.08318363027","","","126","0.3413194209","","main_expt","0.4","","0.8","0.08318363027","0.3558473019","0.2","0.1453295256","0.6","","","","","","","",""
"185","","bandit","205","548500","0.0-166.0-0.0","38278053","wem/bandit_either","A3EWTW55UCNAHG","either","3","","","","","","","76","L","3","","0","1","0","","0.1635755653","","127","","0.3369929262","main_expt","0.4","0.06812438963","0.8","","","0.2","","0.6","0.3543069734","0.1635755653","","","","","",""
"226","","bandit","206","550237","0.0-167.0-0.0","38278053","wem/bandit_either","A3EWTW55UCNAHG","either","3","","","","","","","76","L","3","","0","0","1","0.1872639566","","","128","0.2922989636","","main_expt","0.4","","0.8","0.08303766286","0.3328374851","0.2","0.1872639566","0.6","","","","","","","",""
"97","","bandit","207","551845","0.0-168.0-0.0","38278053","wem/bandit_either","A3EWTW55UCNAHG","either","3","","","","","","","76","L","3","","0","1","0","","0.2032718864","","129","","0.3095146075","main_expt","0.4","0.09047360051","0.8","","","0.2","","0.6","0.3238683282","0.2032718864","","","","","",""
"265","","bandit","208","553620","0.0-169.0-0.0","38278053","wem/bandit_either","A3EWTW55UCNAHG","either","3","","","","","","","76","L","3","","0","0","1","0.2025864764","","","130","0.3068425872","","main_expt","0.4","","0.8","0.131542256","0.2750329062","0.2","0.2025864764","0.6","","","","","","","",""
"242","","bandit","209","555376","0.0-170.0-0.0","38278053","wem/bandit_either","A3EWTW55UCNAHG","either","3","","","","","","","76","L","3","","0","0","1","0.2158584071","","","131","0.3112504131","","main_expt","0.4","","0.8","0.1492019489","0.2751886228","0.2","0.2158584071","0.6","","","","","","","",""
"223","","bandit","210","557110","0.0-171.0-0.0","38278053","wem/bandit_either","A3EWTW55UCNAHG","either","3","","","","","","","76","L","3","","0","0","1","","0.2105840197","","132","","0.3595653039","main_expt","0.4","0.1571188116","0.8","","","0.2","","0.6","0.2729729886","0.2105840197","","","","","",""
"41","","bandit","211","558661","0.0-172.0-0.0","38278053","wem/bandit_either","A3EWTW55UCNAHG","either","3","","","","","","","75","K","2","","0","0","1","","0.3248088544","","133","","0.3873527377","main_expt","0.4","0.2021073832","0.8","","","0.2","","0.6","0.3248088544","0.2328486735","","","","","",""
"186","","bandit","212","560358","0.0-173.0-0.0","38278053","wem/bandit_either","A3EWTW55UCNAHG","either","3","","","","","","","72","H","0","img/none_selected.jpg","0","0","1","","0.3973884711","","134","","0.3973884711","main_expt","0.4","0.2693148074","0.8","","","0.2","","0.6","0.3596446835","0.2589092944","","","","","",""
"153","","bandit","213","562023","0.0-174.0-0.0","38278053","wem/bandit_either","A3EWTW55UCNAHG","either","3","","","","","","","72","H","0","img/none_selected.jpg","0","0","1","0.4080523157","","","135","0.4080523157","","main_expt","0.4","","0.8","0.2625780805","0.318377279","0.2","0.2637326353","0.6","","","","","","","",""
"64","","bandit","214","563597","0.0-175.0-0.0","38278053","wem/bandit_either","A3EWTW55UCNAHG","either","3","","","","","","","74","J","1","","1","0","0","0.2981707722","","","136","0.4176503084","","main_expt","0.4","","0.8","0.2981707722","0.3160887017","0.2","0.2718680576","0.6","","","","","","","",""
"256","","bandit","215","565365","0.0-176.0-0.0","38278053","wem/bandit_either","A3EWTW55UCNAHG","either","3","","","","","","","74","J","1","","0","0","1","0.3148158286","","","137","0.3859803947","","main_expt","0.4","","0.8","0.3148158286","0.2883225013","0.2","0.2919957672","0.6","","","","","","","",""
"290","","bandit","216","567166","0.0-177.0-0.0","38278053","wem/bandit_either","A3EWTW55UCNAHG","either","3","","","","","","","74","J","1","","0","0","1","0.3111523267","","","138","0.358492916","","main_expt","0.4","","0.8","0.3111523267","0.3009152141","0.2","0.3193993407","0.6","","","","","","","",""
"102","","bandit","217","568780","0.0-178.0-0.0","38278053","wem/bandit_either","A3EWTW55UCNAHG","either","3","","","","","","","74","J","1","","0","0","1","0.3034593298","","","139","0.3608756281","","main_expt","0.4","","0.8","0.3034593298","0.293720077","0.2","0.3404434035","0.6","","","","","","","",""
"433","","bandit","218","570725","0.0-179.0-0.0","38278053","wem/bandit_either","A3EWTW55UCNAHG","either","3","","","","","","","75","K","2","","0","0","1","","0.286059761","","140","","0.3421836092","main_expt","0.4","0.2507495005","0.8","","","0.2","","0.6","0.286059761","0.3278052243","","","","","",""
"314","","bandit","219","572549","0.0-180.0-0.0","38278053","wem/bandit_either","A3EWTW55UCNAHG","either","3","","","","","","","75","K","2","","0","0","1","","0.2931724706","","141","","0.3737340371","main_expt","0.4","0.2220694513","0.8","","","0.2","","0.6","0.2931724706","0.3038906839","","","","","",""
"89","","bandit","220","574149","0.0-181.0-0.0","38278053","wem/bandit_either","A3EWTW55UCNAHG","either","3","","","","","","","76","L","3","","0","0","1","","0.2924195757","","142","","0.3461121542","main_expt","0.4","0.2119249064","0.8","","","0.2","","0.6","0.2182180164","0.2924195757","","","","","",""
"232","","bandit","221","575894","0.0-182.0-0.0","38278053","wem/bandit_either","A3EWTW55UCNAHG","either","3","","","","","","","76","L","3","","0","0","1","0.2816149275","","","143","0.3305931074","","main_expt","0.4","","0.8","0.2665135591","0.2015475508","0.2","0.2816149275","0.6","","","","","","","",""
"0","","bandit","222","577407","0.0-183.0-0.0","38278053","wem/bandit_either","A3EWTW55UCNAHG","either","3","","","","","","","72","H","0","img/none_selected.jpg","0","0","1","","0.3561039987","","144","","0.3561039987","main_expt","0.4","0.2854155153","0.8","","","0.2","","0.6","0.2074070562","0.2355525614","","","","","",""
"310","","bandit","223","579230","0.0-184.0-0.0","38278053","wem/bandit_either","A3EWTW55UCNAHG","either","3","","","","","","","72","H","0","img/none_selected.jpg","0","0","1","","0.3648023512","","145","","0.3648023512","main_expt","0.4","0.2521048148","0.8","","","0.2","","0.6","0.1415368311","0.2185662272","","","","","",""
"169","","bandit","224","580908","0.0-185.0-0.0","38278053","wem/bandit_either","A3EWTW55UCNAHG","either","3","","","","","","","74","J","1","","0","0","1","0.2321266643","","","146","0.3450315","","main_expt","0.4","","0.8","0.2321266643","0.1549520657","0.2","0.2209315791","0.6","","","","","","","",""
"185","","bandit","225","582605","0.0-186.0-0.0","38278053","wem/bandit_either","A3EWTW55UCNAHG","either","3","","","","","","","75","K","2","","0","0","1","","0.1469310363","","147","","0.2720321141","main_expt","0.4","0.3159383216","0.8","","","0.2","","0.6","0.1469310363","0.2889766311","","","","","",""
"169","","bandit","226","584286","0.0-187.0-0.0","38278053","wem/bandit_either","A3EWTW55UCNAHG","either","3","","","","","","","76","L","3","","1","0","0","0.2859466156","","","148","0.2598972664","","main_expt","0.4","","0.8","0.2673485129","0.1332828417","0.2","0.2859466156","0.6","","","","","","","",""
"174","","bandit","227","585973","0.0-188.0-0.0","38278053","wem/bandit_either","A3EWTW55UCNAHG","either","3","","","","","","","76","L","3","","1","0","0","0.2588478233","","","149","0.2343157719","","main_expt","0.4","","0.8","0.3348600541","0.1102010463","0.2","0.2588478233","0.6","","","","","","","",""
"266","","bandit","228","587750","0.0-189.0-0.0","38278053","wem/bandit_either","A3EWTW55UCNAHG","either","3","","","","","","","76","L","3","","0","0","1","0.2224653457","","","150","0.2451363599","","main_expt","0.4","","0.8","0.3659656834","0.1356103494","0.2","0.2224653457","0.6","","","","","","","",""
"334","","bandit","229","589597","0.0-190.0-0.0","38278053","wem/bandit_either","A3EWTW55UCNAHG","either","3","","","","","","","76","L","3","","0","0","1","0.2387237716","","","151","0.2053737132","","main_expt","0.4","","0.8","0.36397653","0.1621229287","0.2","0.2387237716","0.6","","","","","","","",""
"105","","bandit","230","591213","0.0-191.0-0.0","38278053","wem/bandit_either","A3EWTW55UCNAHG","either","3","","","","","","","76","L","3","","0","0","1","0.2519133504","","","152","0.2396242378","","main_expt","0.4","","0.8","0.3710672623","0.1412745606","0.2","0.2519133504","0.6","","","","","","","",""
"102","","bandit","231","592829","0.0-192.0-0.0","38278053","wem/bandit_either","A3EWTW55UCNAHG","either","3","","","","","","","76","L","3","","1","0","0","0.3078499427","","","153","0.2923277395","","main_expt","0.4","","0.8","0.3828607765","0.1707580034","0.2","0.3078499427","0.6","","","","","","","",""
"112","","bandit","232","594455","0.0-193.0-0.0","38278053","wem/bandit_either","A3EWTW55UCNAHG","either","3","","","","","","","76","L","3","","0","0","1","","0.3283820497","","154","","0.3166515581","main_expt","0.4","0.3526468527","0.8","","","0.2","","0.6","0.1717455462","0.3283820497","","","","","",""
"110","","bandit","233","596076","0.0-194.0-0.0","38278053","wem/bandit_either","A3EWTW55UCNAHG","either","3","","","","","","","76","L","3","","0","1","0","","0.3303057687","","155","","0.3194616596","main_expt","0.4","0.3865981945","0.8","","","0.2","","0.6","0.1785539081","0.3303057687","","","","","",""
"314","","bandit","234","597901","0.0-195.0-0.0","38278053","wem/bandit_either","A3EWTW55UCNAHG","either","3","","","","","","","76","L","3","","0","0","1","","0.3178912443","","156","","0.3767011333","main_expt","0.4","0.4328422877","0.8","","","0.2","","0.6","0.2175815231","0.3178912443","","","","","",""
"166","","bandit","235","599582","0.0-196.0-0.0","38278053","wem/bandit_either","A3EWTW55UCNAHG","either","3","","","","","","","76","L","3","","0","0","1","","0.3236874272","","157","","0.3853144204","main_expt","0.4","0.4224906378","0.8","","","0.2","","0.6","0.216674397","0.3236874272","","","","","",""
"1","","bandit","236","601095","0.0-197.0-0.0","38278053","wem/bandit_either","A3EWTW55UCNAHG","either","3","","","","","","","75","K","2","","0","0","1","","0.2184316938","","158","","0.3519128793","main_expt","0.4","0.4428847078","0.8","","","0.2","","0.6","0.2184316938","0.3731337511","","","","","",""
"317","","bandit","237","602924","0.0-198.0-0.0","38278053","wem/bandit_either","A3EWTW55UCNAHG","either","3","","","","","","","75","K","2","","0","0","1","","0.2603966468","","159","","0.3255157266","main_expt","0.4","0.4498083842","0.8","","","0.2","","0.6","0.2603966468","0.3758107074","","","","","",""
"48","","bandit","238","604485","0.0-199.0-0.0","38278053","wem/bandit_either","A3EWTW55UCNAHG","either","3","","","","","","","75","K","2","","0","0","1","","0.2242017374","","160","","0.379238532","main_expt","0.4","0.4319550234","0.8","","","0.2","","0.6","0.2242017374","0.3494215766","","","","","",""
"31","","bandit","239","606028","0.0-200.0-0.0","38278053","wem/bandit_either","A3EWTW55UCNAHG","either","3","","","","","","","74","J","1","","1","0","0","0.4417514389","","","161","0.3776335756","","main_expt","0.4","","0.8","0.4417514389","0.2014027125","0.2","0.3327111917","0.6","","","","","","","",""
"112","","bandit","240","607653","0.0-201.0-0.0","38278053","wem/bandit_either","A3EWTW55UCNAHG","either","3","","","","","","","74","J","1","","1","0","0","0.4081293495","","","162","0.2955751891","","main_expt","0.4","","0.8","0.4081293495","0.2038621466","0.2","0.3171011618","0.6","","","","","","","",""
"192","","bandit","241","609359","0.0-202.0-0.0","38278053","wem/bandit_either","A3EWTW55UCNAHG","either","3","","","","","","","74","J","1","","1","0","0","0.4265776113","","","163","0.30851492","","main_expt","0.4","","0.8","0.4265776113","0.1238136799","0.2","0.364183239","0.6","","","","","","","",""
"159","","bandit","242","611030","0.0-203.0-0.0","38278053","wem/bandit_either","A3EWTW55UCNAHG","either","3","","","","","","","74","J","1","","0","0","1","0.427472809","","","164","0.3074756362","","main_expt","0.4","","0.8","0.427472809","0.1104941302","0.2","0.3917374524","0.6","","","","","","","",""
"167","","bandit","243","612710","0.0-204.0-0.0","38278053","wem/bandit_either","A3EWTW55UCNAHG","either","3","","","","","","","74","J","1","","0","0","1","0.4016343469","","","165","0.2743039079","","main_expt","0.4","","0.8","0.4016343469","0.1099358877","0.2","0.3629360172","0.6","","","","","","","",""
"192","","bandit","244","614412","0.0-205.0-0.0","38278053","wem/bandit_either","A3EWTW55UCNAHG","either","3","","","","","","","74","J","1","","1","0","0","0.3578169927","","","166","0.2900226329","","main_expt","0.4","","0.8","0.3578169927","0.08082918558","0.2","0.3697042915","0.6","","","","","","","",""
"344","","bandit","245","616268","0.0-206.0-0.0","38278053","wem/bandit_either","A3EWTW55UCNAHG","either","3","","","","","","","74","J","1","","1","0","0","0.3346076013","","","167","0.3444017494","","main_expt","0.4","","0.8","0.3346076013","0.08539074978","0.2","0.3626443337","0.6","","","","","","","",""
"209","","bandit","246","617989","0.0-207.0-0.0","38278053","wem/bandit_either","A3EWTW55UCNAHG","either","3","","","","","","","74","J","1","","1","0","0","0.36326211","","","168","0.3934904689","","main_expt","0.4","","0.8","0.36326211","0.1307687804","0.2","0.3488380128","0.6","","","","","","","",""
"248","","bandit","247","619750","0.0-208.0-0.0","38278053","wem/bandit_either","A3EWTW55UCNAHG","either","3","","","","","","","74","J","1","","0","0","1","0.3389060657","","","169","0.3712778229","","main_expt","0.4","","0.8","0.3389060657","0.09435724838","0.2","0.3338465455","0.6","","","","","","","",""
"239","","bandit","248","621501","0.0-209.0-0.0","38278053","wem/bandit_either","A3EWTW55UCNAHG","either","3","","","","","","","74","J","1","","0","0","1","0.3820287301","","","170","0.3348119161","","main_expt","0.4","","0.8","0.3820287301","0.09371103674","0.2","0.3675902536","0.6","","","","","","","",""
"95","","bandit","249","623108","0.0-210.0-0.0","38278053","wem/bandit_either","A3EWTW55UCNAHG","either","3","","","","","","","74","J","1","","0","0","1","","0.3738350687","","171","","0.3697689907","main_expt","0.4","0.3738350687","0.8","","","0.2","","0.6","0.0912992704","0.3663425941","","","","","",""
"64","","bandit","250","624686","0.0-211.0-0.0","38278053","wem/bandit_either","A3EWTW55UCNAHG","either","3","","","","","","","74","J","1","","0","1","0","","0.3449486646","","172","","0.3438364448","main_expt","0.4","0.3449486646","0.8","","","0.2","","0.6","0.1053216192","0.3571019768","","","","","",""
"270","","bandit","251","626470","0.0-212.0-0.0","38278053","wem/bandit_either","A3EWTW55UCNAHG","either","3","","","","","","","74","J","1","","0","0","1","0.3754463001","","","173","0.4064517123","","main_expt","0.4","","0.8","0.3754463001","0.1119971747","0.2","0.383943734","0.6","","","","","","","",""
"120","","bandit","252","628100","0.0-213.0-0.0","38278053","wem/bandit_either","A3EWTW55UCNAHG","either","3","","","","","","","72","H","0","img/none_selected.jpg","0","0","1","0.4266345201","","","174","0.4266345201","","main_expt","0.4","","0.8","0.3983783957","0.1049574405","0.2","0.378453819","0.6","","","","","","","",""
"1293","","bandit","253","630901","0.0-214.0-0.0","38278053","wem/bandit_either","A3EWTW55UCNAHG","either","3","","","","","","","72","H","0","img/none_selected.jpg","0","1","0","","0.4413212306","","175","","0.4413212306","main_expt","0.4","0.4176958341","0.8","","","0.2","","0.6","0.07351671593","0.3577460836","","","","","",""
"262","","bandit","254","632677","0.0-215.0-0.0","38278053","wem/bandit_either","A3EWTW55UCNAHG","either","3","","","","","","","72","H","0","img/none_selected.jpg","1","0","0","0.438548454","","","176","0.438548454","","main_expt","0.4","","0.8","0.4336280271","0.06097876817","0.2","0.3346789668","0.6","","","","","","","",""
"264","","bandit","255","634452","0.0-216.0-0.0","38278053","wem/bandit_either","A3EWTW55UCNAHG","either","3","","","","","","","72","H","0","img/none_selected.jpg","1","0","0","0.4350726265","","","177","0.4350726265","","main_expt","0.4","","0.8","0.3863917124","0.05873143133","0.2","0.3720341948","0.6","","","","","","","",""
"275","","bandit","256","636236","0.0-217.0-0.0","38278053","wem/bandit_either","A3EWTW55UCNAHG","either","3","","","","","","","72","H","0","img/none_selected.jpg","1","0","0","0.4029859975","","","178","0.4029859975","","main_expt","0.4","","0.8","0.3826512014","0.07829718294","0.2","0.4243236705","0.6","","","","","","","",""
"295","","bandit","257","638045","0.0-218.0-0.0","38278053","wem/bandit_either","A3EWTW55UCNAHG","either","3","","","","","","","72","H","0","img/none_selected.jpg","0","0","1","","0.3738585124","","179","","0.3738585124","main_expt","0.4","0.3681046487","0.8","","","0.2","","0.6","0.05868413977","0.4396564102","","","","","",""
"271","","bandit","258","639829","0.0-219.0-0.0","38278053","wem/bandit_either","A3EWTW55UCNAHG","either","3","","","","","","","72","H","0","img/none_selected.jpg","0","1","0","","0.3884150149","","180","","0.3884150149","main_expt","0.4","0.374340785","0.8","","","0.2","","0.6","0.04540529238","0.4501825932","","","","","",""
"176","","bandit","259","641518","0.0-220.0-0.0","38278053","wem/bandit_either","A3EWTW55UCNAHG","either","3","","","","","","","72","H","0","img/none_selected.jpg","0","1","0","","0.3977335033","","181","","0.3977335033","main_expt","0.4","0.3844034803","0.8","","","0.2","","0.6","0.04810206047","0.4527537228","","","","","",""
"214","","bandit","260","643245","0.0-221.0-0.0","38278053","wem/bandit_either","A3EWTW55UCNAHG","either","3","","","","","","","72","H","0","img/none_selected.jpg","0","1","0","","0.4194204302","","182","","0.4194204302","main_expt","0.4","0.3569363444","0.8","","","0.2","","0.6","0.0564969073","0.4733821952","","","","","",""
"270","","bandit","261","645028","0.0-222.0-0.0","38278053","wem/bandit_either","A3EWTW55UCNAHG","either","3","","","","","","","72","H","0","img/none_selected.jpg","0","0","1","0.4050300101","","","183","0.4050300101","","main_expt","0.4","","0.8","0.3930074682","0.06674959941","0.2","0.4741352064","0.6","","","","","","","",""
"137","","bandit","262","646676","0.0-223.0-0.0","38278053","wem/bandit_either","A3EWTW55UCNAHG","either","3","","","","","","","72","H","0","img/none_selected.jpg","0","1","0","","0.4272992256","","184","","0.4272992256","main_expt","0.4","0.4105724965","0.8","","","0.2","","0.6","0.05730522946","0.4835015011","","","","","",""
"39","","bandit","263","648229","0.0-224.0-0.0","38278053","wem/bandit_either","A3EWTW55UCNAHG","either","3","","","","","","","72","H","0","img/none_selected.jpg","1","0","0","0.4213026748","","","185","0.4213026748","","main_expt","0.4","","0.8","0.4230276401","0.0759668512","0.2","0.4907566516","0.6","","","","","","","",""
"247","","bandit","264","649989","0.0-225.0-0.0","38278053","wem/bandit_either","A3EWTW55UCNAHG","either","3","","","","","","","72","H","0","img/none_selected.jpg","0","1","0","","0.3729626057","","186","","0.3729626057","main_expt","0.4","0.4243078066","0.8","","","0.2","","0.6","0.0736669194","0.4777100538","","","","","",""
"215","","bandit","265","651717","0.0-226.0-0.0","38278053","wem/bandit_either","A3EWTW55UCNAHG","either","3","","","","","","","72","H","0","img/none_selected.jpg","0","0","1","","0.4022080601","","187","","0.4022080601","main_expt","0.4","0.419104652","0.8","","","0.2","","0.6","0.1020870739","0.4751658893","","","","","",""
"238","","bandit","266","653468","0.0-227.0-0.0","38278053","wem/bandit_either","A3EWTW55UCNAHG","either","3","","","","","","","72","H","0","img/none_selected.jpg","0","0","1","","0.4218987807","","188","","0.4218987807","main_expt","0.4","0.3917910895","0.8","","","0.2","","0.6","0.110066606","0.4711403756","","","","","",""
"102","","bandit","267","655084","0.0-228.0-0.0","38278053","wem/bandit_either","A3EWTW55UCNAHG","either","3","","","","","","","72","H","0","img/none_selected.jpg","0","0","1","","0.4284519853","","189","","0.4284519853","main_expt","0.4","0.3696037293","0.8","","","0.2","","0.6","0.1616324423","0.4848283219","","","","","",""
"1","","bandit","268","656599","0.0-229.0-0.0","38278053","wem/bandit_either","A3EWTW55UCNAHG","either","3","","","","","","","74","J","1","","1","0","0","0.3722688899","","","190","0.4104863902","","main_expt","0.4","","0.8","0.3722688899","0.1401199573","0.2","0.4906713727","0.6","","","","","","","",""
"156","","bandit","269","658269","0.0-230.0-0.0","38278053","wem/bandit_either","A3EWTW55UCNAHG","either","3","","","","","","","74","J","1","","0","0","1","0.3956575009","","","191","0.4071825693","","main_expt","0.4","","0.8","0.3956575009","0.1782786715","0.2","0.4944082075","0.6","","","","","","","",""
"230","","bandit","270","660015","0.0-231.0-0.0","38278053","wem/bandit_either","A3EWTW55UCNAHG","either","3","","","","","","","74","J","1","","0","1","0","","0.3843500594","","192","","0.4172763132","main_expt","0.4","0.3843500594","0.8","","","0.2","","0.6","0.203517815","0.4922337742","","","","","",""
"237","","bandit","271","661767","0.0-232.0-0.0","38278053","wem/bandit_either","A3EWTW55UCNAHG","either","3","","","","","","","74","J","1","","1","0","0","0.3801723293","","","193","0.3965334946","","main_expt","0.4","","0.8","0.3801723293","0.172030281","0.2","0.4887356563","0.6","","","","","","","",""
"181","","bandit","272","663460","0.0-233.0-0.0","38278053","wem/bandit_either","A3EWTW55UCNAHG","either","3","","","","","","","74","J","1","","1","0","0","0.3871645121","","","194","0.383316574","","main_expt","0.4","","0.8","0.3871645121","0.1813301739","0.2","0.4850955297","0.6","","","","","","","",""
"63","","bandit","273","665036","0.0-234.0-0.0","38278053","wem/bandit_either","A3EWTW55UCNAHG","either","3","","","","","","","74","J","1","","0","0","1","0.3633903175","","","195","0.3965345796","","main_expt","0.4","","0.8","0.3633903175","0.2284295163","0.2","0.4848341758","0.6","","","","","","","",""
"256","","bandit","274","666804","0.0-235.0-0.0","38278053","wem/bandit_either","A3EWTW55UCNAHG","either","3","","","","","","","74","J","1","","0","0","1","0.3811675741","","","196","0.3978469093","","main_expt","0.4","","0.8","0.3811675741","0.2501246714","0.2","0.490049139","0.6","","","","","","","",""
"87","","bandit","275","668405","0.0-236.0-0.0","38278053","wem/bandit_either","A3EWTW55UCNAHG","either","3","","","","","","","74","J","1","","1","0","0","0.3487868089","","","197","0.3172926233","","main_expt","0.4","","0.8","0.3487868089","0.3150809007","0.2","0.4912643012","0.6","","","","","","","",""
"294","","bandit","276","670212","0.0-237.0-0.0","38278053","wem/bandit_either","A3EWTW55UCNAHG","either","3","","","","","","","74","J","1","","0","0","1","0.2986771554","","","198","0.3113170709","","main_expt","0.4","","0.8","0.2986771554","0.3442077965","0.2","0.4793615714","0.6","","","","","","","",""
"279","","bandit","277","672007","0.0-238.0-0.0","38278053","wem/bandit_either","A3EWTW55UCNAHG","either","3","","","","","","","75","K","2","","1","0","0","0.3675051223","","","199","0.3066116159","","main_expt","0.4","","0.8","0.3481418533","0.3675051223","0.2","0.4661622676","0.6","","","","","","","",""
"221","","bandit","278","673741","0.0-239.0-0.0","38278053","wem/bandit_either","A3EWTW55UCNAHG","either","3","","","","","","","75","K","2","","0","0","1","","0.3044821291","","200","","0.2521122026","main_expt","0.4","0.353319573","0.8","","","0.2","","0.6","0.3044821291","0.4479238565","","","","","",""
"230","","bandit","279","675484","0.0-240.0-0.0","38278053","wem/bandit_either","A3EWTW55UCNAHG","either","3","","","","","","","75","K","2","","0","0","1","0.3013824411","","","201","0.2679963248","","main_expt","0.4","","0.8","0.3676338631","0.3013824411","0.2","0.4429166455","0.6","","","","","","","",""
"79","","bandit","280","677076","0.0-241.0-0.0","38278053","wem/bandit_either","A3EWTW55UCNAHG","either","3","","","","","","","76","L","3","","1","0","0","0.442820363","","","202","0.2076546236","","main_expt","0.4","","0.8","0.311657493","0.3001954661","0.2","0.442820363","0.6","","","","","","","",""
"228","","bandit","281","678812","0.0-242.0-0.0","38278053","wem/bandit_either","A3EWTW55UCNAHG","either","3","","","","","","","76","L","3","","0","0","1","","0.4539008368","","203","","0.1881707852","main_expt","0.4","0.3364041998","0.8","","","0.2","","0.6","0.3189156814","0.4539008368","","","","","",""
"159","","bandit","282","680485","0.0-243.0-0.0","38278053","wem/bandit_either","A3EWTW55UCNAHG","either","3","","","","","","","76","L","3","","0","1","0","","0.4163307037","","204","","0.2057853427","main_expt","0.4","0.3148670147","0.8","","","0.2","","0.6","0.3162062407","0.4163307037","","","","","",""
"257","","bandit","283","682253","0.0-244.0-0.0","38278053","wem/bandit_either","A3EWTW55UCNAHG","either","3","","","","","","","76","L","3","","0","0","1","","0.4045388199","","205","","0.2564451259","main_expt","0.4","0.3293187519","0.8","","","0.2","","0.6","0.347278619","0.4045388199","","","","","",""
"173","","bandit","284","683940","0.0-245.0-0.0","38278053","wem/bandit_either","A3EWTW55UCNAHG","either","3","","","","","","","76","L","3","","1","0","0","0.4083422121","","","206","0.3082896296","","main_expt","0.4","","0.8","0.2705077244","0.2970129147","0.2","0.4083422121","0.6","","","","","","","",""
"271","","bandit","285","685725","0.0-246.0-0.0","38278053","wem/bandit_either","A3EWTW55UCNAHG","either","3","","","","","","","76","L","3","","0","0","1","0.4033585138","","","207","0.3235103938","","main_expt","0.4","","0.8","0.3083591011","0.3331481178","0.2","0.4033585138","0.6","","","","","","","",""
"141","","bandit","286","687380","0.0-247.0-0.0","38278053","wem/bandit_either","A3EWTW55UCNAHG","either","3","","","","","","","76","L","3","","1","0","0","0.3753320851","","","208","0.3563539536","","main_expt","0.4","","0.8","0.2489273718","0.3195917859","0.2","0.3753320851","0.6","","","","","","","",""
"119","","bandit","287","689012","0.0-248.0-0.0","38278053","wem/bandit_either","A3EWTW55UCNAHG","either","3","","","","","","","76","L","3","","0","0","1","0.3864970555","","","209","0.3821305916","","main_expt","0.4","","0.8","0.2224321457","0.3642345195","0.2","0.3864970555","0.6","","","","","","","",""
"126","","bandit","288","690651","0.0-249.0-0.0","38278053","wem/bandit_either","A3EWTW55UCNAHG","either","3","","","","","","","76","L","3","","0","0","1","0.3894881908","","","210","0.4067483812","","main_expt","0.4","","0.8","0.2184729634","0.3518797164","0.2","0.3894881908","0.6","","","","","","","",""
"39","","bandit","289","692204","0.0-250.0-0.0","38278053","wem/bandit_either","A3EWTW55UCNAHG","either","3","","","","","","","75","K","2","","0","0","1","","0.3781537602","","211","","0.376825818","main_expt","0.4","0.2178464352","0.8","","","0.2","","0.6","0.3781537602","0.4052823736","","","","","",""
"160","","bandit","290","693876","0.0-251.0-0.0","38278053","wem/bandit_either","A3EWTW55UCNAHG","either","3","","","","","","","75","K","2","","0","0","1","0.3773353051","","","212","0.3481764155","","main_expt","0.4","","0.8","0.1644702768","0.3773353051","0.2","0.3783189977","0.6","","","","","","","",""
"54","","bandit","291","695445","0.0-252.0-0.0","38278053","wem/bandit_either","A3EWTW55UCNAHG","either","3","","","","","","","74","J","1","","0","0","1","0.1271660564","","","213","0.3239198888","","main_expt","0.4","","0.8","0.1271660564","0.3448860985","0.2","0.3804187243","0.6","","","","","","","",""
"110","","bandit","292","697068","0.0-253.0-0.0","38278053","wem/bandit_either","A3EWTW55UCNAHG","either","3","","","","","","","74","J","1","","0","0","1","0.1368129038","","","214","0.3592643085","","main_expt","0.4","","0.8","0.1368129038","0.3622000499","0.2","0.3964056757","0.6","","","","","","","",""
"166","","bandit","293","698750","0.0-254.0-0.0","38278053","wem/bandit_either","A3EWTW55UCNAHG","either","3","","","","","","","72","H","0","img/none_selected.jpg","0","0","1","0.3482739819","","","215","0.3482739819","","main_expt","0.4","","0.8","0.07615368859","0.3408682726","0.2","0.3939862607","0.6","","","","","","","",""
"229","","bandit","294","700493","0.0-255.0-0.0","38278053","wem/bandit_either","A3EWTW55UCNAHG","either","3","","","","","","","72","H","0","img/none_selected.jpg","0","1","0","","0.2972527025","","216","","0.2972527025","main_expt","0.4","0.07711559412","0.8","","","0.2","","0.6","0.328819006","0.4062496234","","","","","",""
"268","","bandit","295","702277","0.0-256.0-0.0","38278053","wem/bandit_either","A3EWTW55UCNAHG","either","3","","","","","","","72","H","0","img/none_selected.jpg","0","0","1","0.2850944341","","","217","0.2850944341","","main_expt","0.4","","0.8","0.07728173513","0.3229374792","0.2","0.3440498305","0.6","","","","","","","",""
"360","","bandit","296","704149","0.0-257.0-0.0","38278053","wem/bandit_either","A3EWTW55UCNAHG","either","3","","","","","","","72","H","0","img/none_selected.jpg","0","1","0","","0.2483413171","","218","","0.2483413171","main_expt","0.4","0.07919919155","0.8","","","0.2","","0.6","0.3616220652","0.3198020565","","","","","",""
"292","","bandit","297","705956","0.0-258.0-0.0","38278053","wem/bandit_either","A3EWTW55UCNAHG","either","3","","","","","","","72","H","0","img/none_selected.jpg","0","1","0","","0.2680513607","","219","","0.2680513607","main_expt","0.4","0.1270410367","0.8","","","0.2","","0.6","0.3591176528","0.3078290176","","","","","",""
"229","","bandit","298","707699","0.0-259.0-0.0","38278053","wem/bandit_either","A3EWTW55UCNAHG","either","3","","","","","","","72","H","0","img/none_selected.jpg","0","0","1","","0.304668496","","220","","0.304668496","main_expt","0.4","0.1117499599","0.8","","","0.2","","0.6","0.2758994579","0.2961895162","","","","","",""
"94","","bandit","299","709308","0.0-260.0-0.0","38278053","wem/bandit_either","A3EWTW55UCNAHG","either","3","","","","","","","72","H","0","img/none_selected.jpg","0","1","0","","0.2773284289","","221","","0.2773284289","main_expt","0.4","0.1186324211","0.8","","","0.2","","0.6","0.3119987931","0.2658603678","","","","","",""
"270","","bandit","300","711091","0.0-261.0-0.0","38278053","wem/bandit_either","A3EWTW55UCNAHG","either","3","","","","","","","72","H","0","img/none_selected.jpg","1","0","0","0.2152506718","","","222","0.2152506718","","main_expt","0.4","","0.8","0.1141050397","0.3106374463","0.2","0.274695037","0.6","","","","","","","",""
"239","","bandit","301","712845","0.0-262.0-0.0","38278053","wem/bandit_either","A3EWTW55UCNAHG","either","3","","","","","","","72","H","0","img/none_selected.jpg","0","0","1","","0.2445797097","","223","","0.2445797097","main_expt","0.4","0.1007228699","0.8","","","0.2","","0.6","0.3131570504","0.2210940289","","","","","",""
"222","","bandit","302","714581","0.0-263.0-0.0","38278053","wem/bandit_either","A3EWTW55UCNAHG","either","3","","","","","","","72","H","0","img/none_selected.jpg","0","0","1","0.2559263424","","","224","0.2559263424","","main_expt","0.4","","0.8","0.1380584308","0.3025994915","0.2","0.1843933297","0.6","","","","","","","",""
"277","","bandit","303","716373","0.0-264.0-0.0","38278053","wem/bandit_either","A3EWTW55UCNAHG","either","3","","","","","","","72","H","0","img/none_selected.jpg","0","0","1","0.2702522324","","","225","0.2702522324","","main_expt","0.4","","0.8","0.1393521225","0.2994132709","0.2","0.212211923","0.6","","","","","","","",""
"1","","bandit","304","717887","0.0-265.0-0.0","38278053","wem/bandit_either","A3EWTW55UCNAHG","either","3","","","","","","","74","J","1","","1","0","0","0.2094269877","","","226","0.2646860425","","main_expt","0.4","","0.8","0.2094269877","0.2866794375","0.2","0.2315036379","0.6","","","","","","","",""
"338","","bandit","305","719740","0.0-266.0-0.0","38278053","wem/bandit_either","A3EWTW55UCNAHG","either","3","","","","","","","74","J","1","","0","1","0","","0.2959232149","","227","","0.269556559","main_expt","0.4","0.2959232149","0.8","","","0.2","","0.6","0.2299222882","0.2646353212","","","","","",""
"276","","bandit","306","721524","0.0-267.0-0.0","38278053","wem/bandit_either","A3EWTW55UCNAHG","either","3","","","","","","","74","J","1","","1","0","0","0.374355758","","","228","0.2498152532","","main_expt","0.4","","0.8","0.374355758","0.2991813551","0.2","0.2443517867","0.6","","","","","","","",""
"126","","bandit","307","723164","0.0-268.0-0.0","38278053","wem/bandit_either","A3EWTW55UCNAHG","either","3","","","","","","","74","J","1","","0","0","1","","0.3876740502","","229","","0.2495566458","main_expt","0.4","0.3876740502","0.8","","","0.2","","0.6","0.3295538921","0.2569692975","","","","","",""
"145","","bandit","308","724822","0.0-269.0-0.0","38278053","wem/bandit_either","A3EWTW55UCNAHG","either","3","","","","","","","74","J","1","","1","0","0","0.3341674595","","","230","0.2134382902","","main_expt","0.4","","0.8","0.3341674595","0.2713593359","0.2","0.2490290172","0.6","","","","","","","",""
"220","","bandit","309","726557","0.0-270.0-0.0","38278053","wem/bandit_either","A3EWTW55UCNAHG","either","3","","","","","","","74","J","1","","0","0","1","0.3558281537","","","231","0.2099205747","","main_expt","0.4","","0.8","0.3558281537","0.2746975787","0.2","0.2368643707","0.6","","","","","","","",""
"228","","bandit","310","728300","0.0-271.0-0.0","38278053","wem/bandit_either","A3EWTW55UCNAHG","either","3","","","","","","","74","J","1","","0","0","1","0.3293076861","","","232","0.1598609145","","main_expt","0.4","","0.8","0.3293076861","0.2817934899","0.2","0.2857324616","0.6","","","","","","","",""
"300","","bandit","311","730116","0.0-272.0-0.0","38278053","wem/bandit_either","A3EWTW55UCNAHG","either","3","","","","","","","75","K","2","","0","0","1","","0.3139736629","","233","","0.1472569172","main_expt","0.4","0.3271309306","0.8","","","0.2","","0.6","0.3139736629","0.226619475","","","","","",""
"285","","bandit","312","731916","0.0-273.0-0.0","38278053","wem/bandit_either","A3EWTW55UCNAHG","either","3","","","","","","","72","H","0","img/none_selected.jpg","0","0","1","0.1123375355","","","234","0.1123375355","","main_expt","0.4","","0.8","0.3510228885","0.3332560948","0.2","0.2448251662","0.6","","","","","","","",""
"221","","bandit","313","733653","0.0-274.0-0.0","38278053","wem/bandit_either","A3EWTW55UCNAHG","either","3","","","","","","","76","L","3","","0","0","1","0.2996798263","","","235","0.1562424728","","main_expt","0.4","","0.8","0.3346663699","0.3475281657","0.2","0.2996798263","0.6","","","","","","","",""
"71","","bandit","314","735238","0.0-275.0-0.0","38278053","wem/bandit_either","A3EWTW55UCNAHG","either","3","","","","","","","74","J","1","","0","0","1","0.332043614","","","236","0.1623269298","","main_expt","0.4","","0.8","0.332043614","0.3170984437","0.2","0.3220329496","0.6","","","","","","","",""
"171","","bandit","315","736924","0.0-276.0-0.0","38278053","wem/bandit_either","A3EWTW55UCNAHG","either","3","","","","","","","75","K","2","","0","0","1","","0.3611259067","","237","","0.1362759337","main_expt","0.4","0.2780661838","0.8","","","0.2","","0.6","0.3611259067","0.3672390457","","","","","",""
"172","","bandit","316","738613","0.0-277.0-0.0","38278053","wem/bandit_either","A3EWTW55UCNAHG","either","3","","","","","","","72","H","0","img/none_selected.jpg","1","0","0","0.1282223372","","","238","0.1282223372","","main_expt","0.4","","0.8","0.3071002506","0.3449339383","0.2","0.3702030288","0.6","","","","","","","",""
"133","","bandit","317","740261","0.0-278.0-0.0","38278053","wem/bandit_either","A3EWTW55UCNAHG","either","3","","","","","","","72","H","0","img/none_selected.jpg","0","0","1","0.08262393641","","","239","0.08262393641","","main_expt","0.4","","0.8","0.3101279526","0.3006984684","0.2","0.3486367063","0.6","","","","","","","",""
"83","","bandit","318","741859","0.0-279.0-0.0","38278053","wem/bandit_either","A3EWTW55UCNAHG","either","3","","","","","","","72","H","0","img/none_selected.jpg","0","0","1","","0.09366491666","","240","","0.09366491666","main_expt","0.4","0.3071576631","0.8","","","0.2","","0.6","0.3355390738","0.3422639114","","","","","",""
"60","","bandit","319","743435","0.0-280.0-0.0","38278053","wem/bandit_either","A3EWTW55UCNAHG","either","3","","","","","","","72","H","0","img/none_selected.jpg","0","0","1","","0.09778426954","","241","","0.09778426954","main_expt","0.4","0.3213727252","0.8","","","0.2","","0.6","0.3513118525","0.3703795114","","","","","",""
"167","","bandit","320","745115","0.0-281.0-0.0","38278053","wem/bandit_either","A3EWTW55UCNAHG","either","3","","","","","","","74","J","1","","1","0","0","0.3303042821","","","242","0.0684580113","","main_expt","0.4","","0.8","0.3303042821","0.2871404103","0.2","0.3362310887","0.6","","","","","","","",""
"174","","bandit","321","746804","0.0-282.0-0.0","38278053","wem/bandit_either","A3EWTW55UCNAHG","either","3","","","","","","","74","J","1","","0","1","0","","0.386578507","","243","","0.05756719403","main_expt","0.4","0.386578507","0.8","","","0.2","","0.6","0.2582353252","0.3855302341","","","","","",""
"154","","bandit","322","748469","0.0-283.0-0.0","38278053","wem/bandit_either","A3EWTW55UCNAHG","either","3","","","","","","","74","J","1","","0","0","1","0.3582196724","","","244","0.07954378931","","main_expt","0.4","","0.8","0.3582196724","0.2108553612","0.2","0.3504604058","0.6","","","","","","","",""
"69","","bandit","323","750052","0.0-284.0-0.0","38278053","wem/bandit_either","A3EWTW55UCNAHG","either","3","","","","","","","74","J","1","","0","0","1","0.3626170977","","","245","0.07668718344","","main_expt","0.4","","0.8","0.3626170977","0.190308294","0.2","0.3586275713","0.6","","","","","","","",""
"229","","bandit","324","751795","0.0-285.0-0.0","38278053","wem/bandit_either","A3EWTW55UCNAHG","either","3","","","","","","","74","J","1","","1","0","0","0.2778980274","","","246","0.08627194322","","main_expt","0.4","","0.8","0.2778980274","0.2079876503","0.2","0.3202710015","0.6","","","","","","","",""
"253","","bandit","325","753564","0.0-286.0-0.0","38278053","wem/bandit_either","A3EWTW55UCNAHG","either","3","","","","","","","74","J","1","","0","0","1","","0.2864864277","","247","","0.1009858539","main_expt","0.4","0.2864864277","0.8","","","0.2","","0.6","0.2053262284","0.2874587678","","","","","",""
"22","","bandit","326","755101","0.0-287.0-0.0","38278053","wem/bandit_either","A3EWTW55UCNAHG","either","3","","","","","","","74","J","1","","1","0","0","0.2883304048","","","248","0.1044033157","","main_expt","0.4","","0.8","0.2883304048","0.2699327364","0.2","0.2703076155","0.6","","","","","","","",""
"206","","bandit","327","756820","0.0-288.0-0.0","38278053","wem/bandit_either","A3EWTW55UCNAHG","either","3","","","","","","","74","J","1","","0","0","1","0.3034325887","","","249","0.07254640656","","main_expt","0.4","","0.8","0.3034325887","0.2917851334","0.2","0.2212833967","0.6","","","","","","","",""
"156","","bandit","328","758491","0.0-289.0-0.0","38278053","wem/bandit_either","A3EWTW55UCNAHG","either","3","","","","","","","74","J","1","","0","0","1","0.2582013927","","","250","0.09512939239","","main_expt","0.4","","0.8","0.2582013927","0.2530543584","0.2","0.2174917034","0.6","","","","","","","",""
"70","","bandit","329","760075","0.0-290.0-0.0","38278053","wem/bandit_either","A3EWTW55UCNAHG","either","3","","","","","","","74","J","1","","1","0","0","0.2337836179","","","251","0.06759478125","","main_expt","0.4","","0.8","0.2337836179","0.2345859063","0.2","0.2008338107","0.6","","","","","","","",""
"187","","bandit","330","761780","0.0-291.0-0.0","38278053","wem/bandit_either","A3EWTW55UCNAHG","either","3","","","","","","","74","J","1","","0","0","1","","0.2477033955","","252","","0.05682902113","main_expt","0.4","0.2477033955","0.8","","","0.2","","0.6","0.2407419433","0.2294508047","","","","","",""
"268","","bandit","331","763564","0.0-292.0-0.0","38278053","wem/bandit_either","A3EWTW55UCNAHG","either","3","","","","","","","74","J","1","","1","0","0","0.2187012899","","","253","0.04662337877","","main_expt","0.4","","0.8","0.2187012899","0.2016139721","0.2","0.2678406235","0.6","","","","","","","",""
"308","","bandit","332","765389","0.0-293.0-0.0","38278053","wem/bandit_either","A3EWTW55UCNAHG","either","3","","","","","","","74","J","1","","0","0","1","0.2247734494","","","254","0.05613237953","","main_expt","0.4","","0.8","0.2247734494","0.2204455337","0.2","0.3248943382","0.6","","","","","","","",""
