"rt","responses","trial_type","trial_index","time_elapsed","internal_node_id","subjID","study","MID","cond","drift","key_press","expt_phase","target","like","value","connected","gems","bombs","no_reward","GemPrChosen","BombPrChosen","GainOverPainPr_0","GainOverPainPr_1","GainOverPainPr_2","GainOverPainPr_3","LosePr_0","LosePr_1","LosePr_2","LosePr_3","WinPr_0","WinPr_1","WinPr_2","WinPr_3","Q0","Q1","Q2","gender","age","ethnicity","respCharCode","respKey","respChoiceNum","respChoice","practice","trial_counter","trial_label"
"1617","{""Q0"":""APGX2WZ59OWDN""}","survey-text","0","1624","0.0-0.0","38292526","wem/bandit_either","APGX2WZ59OWDN","either","6","","","","","","","","","","","","","","","","","","","","","","","","","","","","","","","","","","","",""
"504939","","text","1","507570","0.0-1.0","38292526","wem/bandit_either","APGX2WZ59OWDN","either","6","32","","","","","","","","","","","","","","","","","","","","","","","","","","","","","","","","","","",""
"243706","","text","2","751278","0.0-2.0","38292526","wem/bandit_either","APGX2WZ59OWDN","either","6","32","","","","","","","","","","","","","","","","","","","","","","","","","","","","","","","","","","",""
"11058","","text","3","762340","0.0-3.0","38292526","wem/bandit_either","APGX2WZ59OWDN","either","6","32","","","","","","","","","","","","","","","","","","","","","","","","","","","","","","","","","","",""
"8749","","text","4","771091","0.0-4.0","38292526","wem/bandit_either","APGX2WZ59OWDN","either","6","32","","","","","","","","","","","","","","","","","","","","","","","","","","","","","","","","","","",""
"10159","","text","5","781251","0.0-5.0","38292526","wem/bandit_either","APGX2WZ59OWDN","either","6","32","","","","","","","","","","","","","","","","","","","","","","","","","","","","","","","","","","",""
"5934","","text","6","787186","0.0-6.0","38292526","wem/bandit_either","APGX2WZ59OWDN","either","6","32","","","","","","","","","","","","","","","","","","","","","","","","","","","","","","","","","","",""
"1558","","text","7","788745","0.0-7.0","38292526","wem/bandit_either","APGX2WZ59OWDN","either","6","32","","","","","","","","","","","","","","","","","","","","","","","","","","","","","","","","","","",""
"4621","","identification","8","793383","0.0-8.0-0.0","38292526","wem/bandit_either","APGX2WZ59OWDN","either","6","","identification_pre","the village of Zur","","","","","","","","","","","","","","","","","","","","","","","","","","","","","","","","",""
"11932","","identification","9","806333","0.0-8.0-1.0","38292526","wem/bandit_either","APGX2WZ59OWDN","either","6","","identification_pre","the village of Nyx","","","","","","","","","","","","","","","","","","","","","","","","","","","","","","","","",""
"2722","","text","10","810057","0.0-9.0","38292526","wem/bandit_either","APGX2WZ59OWDN","either","6","32","","","","","","","","","","","","","","","","","","","","","","","","","","","","","","","","","","",""
"1182","","text","11","811241","0.0-10.0","38292526","wem/bandit_either","APGX2WZ59OWDN","either","6","32","","","","","","","","","","","","","","","","","","","","","","","","","","","","","","","","","","",""
"1343","","text","12","812585","0.0-11.0","38292526","wem/bandit_either","APGX2WZ59OWDN","either","6","32","","","","","","","","","","","","","","","","","","","","","","","","","","","","","","","","","","",""
"58164","","text","13","870750","0.0-12.0","38292526","wem/bandit_either","APGX2WZ59OWDN","either","6","32","","","","","","","","","","","","","","","","","","","","","","","","","","","","","","","","","","",""
"915","","bandit","14","873173","0.0-13.0-0.0","38292526","wem/bandit_either","APGX2WZ59OWDN","either","6","","","","","","","0","0","1","0","0","","","","","0","","","","0","","","","","","","","","","74","J","0","img/none_selected_demo.jpg","true","0",""
"1253","","bandit","15","875933","0.0-14.0-0.0","38292526","wem/bandit_either","APGX2WZ59OWDN","either","6","","","","","","","0","0","1","0","0","","","","","0","","","","0","","","","","","","","","","75","K","0","img/none_selected_demo.jpg","true","0",""
"2383","","text","16","878317","0.0-15.0","38292526","wem/bandit_either","APGX2WZ59OWDN","either","6","32","","","","","","","","","","","","","","","","","","","","","","","","","","","","","","","","","","",""
"5838","","text","17","884157","0.0-16.0","38292526","wem/bandit_either","APGX2WZ59OWDN","either","6","32","","","","","","","","","","","","","","","","","","","","","","","","","","","","","","","","","","",""
"4982","","text","18","889140","0.0-17.0","38292526","wem/bandit_either","APGX2WZ59OWDN","either","6","32","","","","","","","","","","","","","","","","","","","","","","","","","","","","","","","","","","",""
"1910","","text","19","891052","0.0-18.0","38292526","wem/bandit_either","APGX2WZ59OWDN","either","6","32","","","","","","","","","","","","","","","","","","","","","","","","","","","","","","","","","","",""
"557","","bandit","20","893122","0.0-19.0-0.0","38292526","wem/bandit_either","APGX2WZ59OWDN","either","6","","","","","","","1","0","0","0.8","","0.5","0.5","","","","","","","0.8","0.2","","","","","","","","","74","J","0","img/none_selected_demo.jpg","true","0","80_20_practice"
"960","","bandit","21","895593","0.0-19.0-1.0","38292526","wem/bandit_either","APGX2WZ59OWDN","either","6","","","","","","","0","0","1","","0.8","0.5","0.5","","","0.8","0.2","","","","","","","","","","","","","74","J","0","img/none_selected_demo.jpg","true","0","80_20_practice"
"336","","bandit","22","897438","0.0-19.0-2.0","38292526","wem/bandit_either","APGX2WZ59OWDN","either","6","","","","","","","0","1","0","","0.8","0.5","0.5","","","0.8","0.2","","","","","","","","","","","","","74","J","0","img/none_selected_demo.jpg","true","0","80_20_practice"
"315","","bandit","23","899262","0.0-19.0-3.0","38292526","wem/bandit_either","APGX2WZ59OWDN","either","6","","","","","","","0","0","1","0.2","","0.5","0.5","","","","","","","0.8","0.2","","","","","","","","","75","K","1","","true","0","80_20_practice"
"284","","bandit","24","901053","0.0-19.0-4.0","38292526","wem/bandit_either","APGX2WZ59OWDN","either","6","","","","","","","0","1","0","","0.2","0.5","0.5","","","0.8","0.2","","","","","","","","","","","","","75","K","1","","true","0","80_20_practice"
"293","","bandit","25","902853","0.0-19.0-5.0","38292526","wem/bandit_either","APGX2WZ59OWDN","either","6","","","","","","","0","0","1","","0.2","0.5","0.5","","","0.8","0.2","","","","","","","","","","","","","75","K","1","","true","0","80_20_practice"
"284","","bandit","26","904649","0.0-19.0-6.0","38292526","wem/bandit_either","APGX2WZ59OWDN","either","6","","","","","","","1","0","0","0.8","","0.5","0.5","","","","","","","0.8","0.2","","","","","","","","","74","J","0","img/none_selected_demo.jpg","true","0","80_20_practice"
"751","","bandit","27","906911","0.0-19.0-7.0","38292526","wem/bandit_either","APGX2WZ59OWDN","either","6","","","","","","","0","1","0","","0.8","0.5","0.5","","","0.8","0.2","","","","","","","","","","","","","74","J","0","img/none_selected_demo.jpg","true","0","80_20_practice"
"151","","bandit","28","908571","0.0-19.0-8.0","38292526","wem/bandit_either","APGX2WZ59OWDN","either","6","","","","","","","1","0","0","0.8","","0.5","0.5","","","","","","","0.8","0.2","","","","","","","","","74","J","0","img/none_selected_demo.jpg","true","0","80_20_practice"
"367","","bandit","29","910445","0.0-19.0-9.0","38292526","wem/bandit_either","APGX2WZ59OWDN","either","6","","","","","","","1","0","0","0.8","","0.5","0.5","","","","","","","0.8","0.2","","","","","","","","","74","J","0","img/none_selected_demo.jpg","true","0","80_20_practice"
"252","","bandit","30","912204","0.0-19.0-10.0","38292526","wem/bandit_either","APGX2WZ59OWDN","either","6","","","","","","","0","1","0","","0.8","0.5","0.5","","","0.8","0.2","","","","","","","","","","","","","74","J","0","img/none_selected_demo.jpg","true","0","80_20_practice"
"291","","bandit","31","914004","0.0-19.0-11.0","38292526","wem/bandit_either","APGX2WZ59OWDN","either","6","","","","","","","1","0","0","0.8","","0.5","0.5","","","","","","","0.8","0.2","","","","","","","","","74","J","0","img/none_selected_demo.jpg","true","0","80_20_practice"
"365","","bandit","32","915880","0.0-19.0-12.0","38292526","wem/bandit_either","APGX2WZ59OWDN","either","6","","","","","","","1","0","0","0.8","","0.5","0.5","","","","","","","0.8","0.2","","","","","","","","","74","J","0","img/none_selected_demo.jpg","true","0","80_20_practice"
"272","","bandit","33","917661","0.0-19.0-13.0","38292526","wem/bandit_either","APGX2WZ59OWDN","either","6","","","","","","","1","0","0","0.8","","0.5","0.5","","","","","","","0.8","0.2","","","","","","","","","74","J","0","img/none_selected_demo.jpg","true","0","80_20_practice"
"675","","bandit","34","919848","0.0-19.0-14.0","38292526","wem/bandit_either","APGX2WZ59OWDN","either","6","","","","","","","1","0","0","0.8","","0.5","0.5","","","","","","","0.8","0.2","","","","","","","","","74","J","0","img/none_selected_demo.jpg","true","0","80_20_practice"
"1976","","bandit","35","923334","0.0-19.0-15.0","38292526","wem/bandit_either","APGX2WZ59OWDN","either","6","","","","","","","1","0","0","0.8","","0.5","0.5","","","","","","","0.8","0.2","","","","","","","","","74","J","0","img/none_selected_demo.jpg","true","0","80_20_practice"
"3067","","bandit","36","927910","0.0-19.0-16.0","38292526","wem/bandit_either","APGX2WZ59OWDN","either","6","","","","","","","1","0","0","0.8","","0.5","0.5","","","","","","","0.8","0.2","","","","","","","","","74","J","0","img/none_selected_demo.jpg","true","0","80_20_practice"
"241","","bandit","37","929660","0.0-19.0-17.0","38292526","wem/bandit_either","APGX2WZ59OWDN","either","6","","","","","","","0","1","0","","0.8","0.5","0.5","","","0.8","0.2","","","","","","","","","","","","","74","J","0","img/none_selected_demo.jpg","true","0","80_20_practice"
"297","","bandit","38","931471","0.0-19.0-18.0","38292526","wem/bandit_either","APGX2WZ59OWDN","either","6","","","","","","","1","0","0","0.8","","0.5","0.5","","","","","","","0.8","0.2","","","","","","","","","74","J","0","img/none_selected_demo.jpg","true","0","80_20_practice"
"257","","bandit","39","933235","0.0-19.0-19.0","38292526","wem/bandit_either","APGX2WZ59OWDN","either","6","","","","","","","0","1","0","","0.8","0.5","0.5","","","0.8","0.2","","","","","","","","","","","","","74","J","0","img/none_selected_demo.jpg","true","0","80_20_practice"
"1646","","text","40","934883","0.0-20.0","38292526","wem/bandit_either","APGX2WZ59OWDN","either","6","32","","","","","","","","","","","","","","","","","","","","","","","","","","","","","","","","","","",""
"673","","bandit","41","937069","0.0-21.0-0.0","38292526","wem/bandit_either","APGX2WZ59OWDN","either","6","","","","","","","1","0","0","1","0","","","","","0","1","","","1","0","","","","","","","","","74","J","0","img/none_selected_demo.jpg","true","0",""
"55640","","text","42","992711","0.0-22.0","38292526","wem/bandit_either","APGX2WZ59OWDN","either","6","74","","","","","","","","","","","","","","","","","","","","","","","","","","","","","","","","","","",""
"1983","","text","43","994696","0.0-23.0","38292526","wem/bandit_either","APGX2WZ59OWDN","either","6","32","","","","","","","","","","","","","","","","","","","","","","","","","","","","","","","","","","",""
"1765","","text","44","996462","0.0-24.0","38292526","wem/bandit_either","APGX2WZ59OWDN","either","6","32","","","","","","","","","","","","","","","","","","","","","","","","","","","","","","","","","","",""
"1230","","text","45","997694","0.0-25.0","38292526","wem/bandit_either","APGX2WZ59OWDN","either","6","32","","","","","","","","","","","","","","","","","","","","","","","","","","","","","","","","","","",""
"7095","","text","46","1004791","0.0-26.0","38292526","wem/bandit_either","APGX2WZ59OWDN","either","6","32","","","","","","","","","","","","","","","","","","","","","","","","","","","","","","","","","","",""
"1757","","text","47","1006550","0.0-27.0","38292526","wem/bandit_either","APGX2WZ59OWDN","either","6","32","","","","","","","","","","","","","","","","","","","","","","","","","","","","","","","","","","",""
"2126","","text","48","1008678","0.0-28.0","38292526","wem/bandit_either","APGX2WZ59OWDN","either","6","32","","","","","","","","","","","","","","","","","","","","","","","","","","","","","","","","","","",""
"1774","","text","49","1010454","0.0-29.0","38292526","wem/bandit_either","APGX2WZ59OWDN","either","6","32","","","","","","","","","","","","","","","","","","","","","","","","","","","","","","","","","","",""
"3542","","text","50","1013998","0.0-30.0","38292526","wem/bandit_either","APGX2WZ59OWDN","either","6","32","","","","","","","","","","","","","","","","","","","","","","","","","","","","","","","","","","",""
"998","","text","51","1014998","0.0-31.0","38292526","wem/bandit_either","APGX2WZ59OWDN","either","6","32","","","","","","","","","","","","","","","","","","","","","","","","","","","","","","","","","","",""
"1157","","text","52","1016159","0.0-32.0","38292526","wem/bandit_either","APGX2WZ59OWDN","either","6","32","","","","","","","","","","","","","","","","","","","","","","","","","","","","","","","","","","",""
"506","","bandit","53","1018176","0.0-33.0-0.0","38292526","wem/bandit_either","APGX2WZ59OWDN","either","6","","","","","","","1","0","0","0.8","","0.5","0.5","0.5","0.5","","","","","0.8","0.2","0.6","0.2","","","","","","","72","H","0","img/none_selected.jpg","true","0","full_practice"
"298","","bandit","54","1019986","0.0-33.0-1.0","38292526","wem/bandit_either","APGX2WZ59OWDN","either","6","","","","","","","0","1","0","","0.2","0.5","0.5","0.5","0.5","0.8","0.2","0.6","0.2","","","","","","","","","","","74","J","1","","true","0","full_practice"
"1352","","bandit","55","1022848","0.0-33.0-2.0","38292526","wem/bandit_either","APGX2WZ59OWDN","either","6","","","","","","","0","0","1","0.6","","0.5","0.5","0.5","0.5","","","","","0.8","0.2","0.6","0.2","","","","","","","75","K","2","","true","0","full_practice"
"226","","bandit","56","1024585","0.0-33.0-3.0","38292526","wem/bandit_either","APGX2WZ59OWDN","either","6","","","","","","","0","0","1","0.2","","0.5","0.5","0.5","0.5","","","","","0.8","0.2","0.6","0.2","","","","","","","76","L","3","","true","0","full_practice"
"353","","bandit","57","1026447","0.0-33.0-4.0","38292526","wem/bandit_either","APGX2WZ59OWDN","either","6","","","","","","","0","0","1","0.2","","0.5","0.5","0.5","0.5","","","","","0.8","0.2","0.6","0.2","","","","","","","74","J","1","","true","0","full_practice"
"283","","bandit","58","1028241","0.0-33.0-5.0","38292526","wem/bandit_either","APGX2WZ59OWDN","either","6","","","","","","","0","1","0","","0.8","0.5","0.5","0.5","0.5","0.8","0.2","0.6","0.2","","","","","","","","","","","72","H","0","img/none_selected.jpg","true","0","full_practice"
"262","","bandit","59","1030019","0.0-33.0-6.0","38292526","wem/bandit_either","APGX2WZ59OWDN","either","6","","","","","","","0","1","0","","0.8","0.5","0.5","0.5","0.5","0.8","0.2","0.6","0.2","","","","","","","","","","","72","H","0","img/none_selected.jpg","true","0","full_practice"
"270","","bandit","60","1031804","0.0-33.0-7.0","38292526","wem/bandit_either","APGX2WZ59OWDN","either","6","","","","","","","0","0","1","","0.8","0.5","0.5","0.5","0.5","0.8","0.2","0.6","0.2","","","","","","","","","","","72","H","0","img/none_selected.jpg","true","0","full_practice"
"520","","bandit","61","1033836","0.0-33.0-8.0","38292526","wem/bandit_either","APGX2WZ59OWDN","either","6","","","","","","","0","0","1","0.8","","0.5","0.5","0.5","0.5","","","","","0.8","0.2","0.6","0.2","","","","","","","72","H","0","img/none_selected.jpg","true","0","full_practice"
"206","","bandit","62","1035554","0.0-33.0-9.0","38292526","wem/bandit_either","APGX2WZ59OWDN","either","6","","","","","","","0","0","1","","0.2","0.5","0.5","0.5","0.5","0.8","0.2","0.6","0.2","","","","","","","","","","","74","J","1","","true","0","full_practice"
"255","","bandit","63","1037319","0.0-33.0-10.0","38292526","wem/bandit_either","APGX2WZ59OWDN","either","6","","","","","","","0","0","1","0.6","","0.5","0.5","0.5","0.5","","","","","0.8","0.2","0.6","0.2","","","","","","","75","K","2","","true","0","full_practice"
"281","","bandit","64","1039112","0.0-33.0-11.0","38292526","wem/bandit_either","APGX2WZ59OWDN","either","6","","","","","","","0","0","1","0.2","","0.5","0.5","0.5","0.5","","","","","0.8","0.2","0.6","0.2","","","","","","","76","L","3","","true","0","full_practice"
"249","","bandit","65","1040871","0.0-33.0-12.0","38292526","wem/bandit_either","APGX2WZ59OWDN","either","6","","","","","","","0","1","0","","0.8","0.5","0.5","0.5","0.5","0.8","0.2","0.6","0.2","","","","","","","","","","","72","H","0","img/none_selected.jpg","true","0","full_practice"
"234","","bandit","66","1042617","0.0-33.0-13.0","38292526","wem/bandit_either","APGX2WZ59OWDN","either","6","","","","","","","0","1","0","","0.8","0.5","0.5","0.5","0.5","0.8","0.2","0.6","0.2","","","","","","","","","","","72","H","0","img/none_selected.jpg","true","0","full_practice"
"223","","bandit","67","1044354","0.0-33.0-14.0","38292526","wem/bandit_either","APGX2WZ59OWDN","either","6","","","","","","","0","0","1","0.8","","0.5","0.5","0.5","0.5","","","","","0.8","0.2","0.6","0.2","","","","","","","72","H","0","img/none_selected.jpg","true","0","full_practice"
"133","","bandit","68","1045997","0.0-33.0-15.0","38292526","wem/bandit_either","APGX2WZ59OWDN","either","6","","","","","","","1","0","0","0.8","","0.5","0.5","0.5","0.5","","","","","0.8","0.2","0.6","0.2","","","","","","","72","H","0","img/none_selected.jpg","true","0","full_practice"
"286","","bandit","69","1047801","0.0-33.0-16.0","38292526","wem/bandit_either","APGX2WZ59OWDN","either","6","","","","","","","0","0","1","0.8","","0.5","0.5","0.5","0.5","","","","","0.8","0.2","0.6","0.2","","","","","","","72","H","0","img/none_selected.jpg","true","0","full_practice"
"337","","bandit","70","1049648","0.0-33.0-17.0","38292526","wem/bandit_either","APGX2WZ59OWDN","either","6","","","","","","","1","0","0","0.8","","0.5","0.5","0.5","0.5","","","","","0.8","0.2","0.6","0.2","","","","","","","72","H","0","img/none_selected.jpg","true","0","full_practice"
"1727","","bandit","71","1052887","0.0-33.0-18.0","38292526","wem/bandit_either","APGX2WZ59OWDN","either","6","","","","","","","0","1","0","","0.8","0.5","0.5","0.5","0.5","0.8","0.2","0.6","0.2","","","","","","","","","","","72","H","0","img/none_selected.jpg","true","0","full_practice"
"650","","bandit","72","1055046","0.0-33.0-19.0","38292526","wem/bandit_either","APGX2WZ59OWDN","either","6","","","","","","","0","0","1","","0.8","0.5","0.5","0.5","0.5","0.8","0.2","0.6","0.2","","","","","","","","","","","72","H","0","img/none_selected.jpg","true","0","full_practice"
"1830","","text","73","1056883","0.0-34.0","38292526","wem/bandit_either","APGX2WZ59OWDN","either","6","32","","","","","","","","","","","","","","","","","","","","","","","","","","","","","","","","","","",""
"59643","","text","74","1117529","0.0-35.0","38292526","wem/bandit_either","APGX2WZ59OWDN","either","6","32","","","","","","","","","","","","","","","","","","","","","","","","","","","","","","","","","","",""
"5213","","text","75","1122744","0.0-36.0","38292526","wem/bandit_either","APGX2WZ59OWDN","either","6","32","","","","","","","","","","","","","","","","","","","","","","","","","","","","","","","","","","",""
"2222","","text","76","1124968","0.0-37.0","38292526","wem/bandit_either","APGX2WZ59OWDN","either","6","32","","","","","","","","","","","","","","","","","","","","","","","","","","","","","","","","","","",""
"2054","","text","77","1127024","0.0-38.0","38292526","wem/bandit_either","APGX2WZ59OWDN","either","6","32","","","","","","","","","","","","","","","","","","","","","","","","","","","","","","","","","","",""
"1734","","text","78","1128760","0.0-39.0","38292526","wem/bandit_either","APGX2WZ59OWDN","either","6","32","","","","","","","","","","","","","","","","","","","","","","","","","","","","","","","","","","",""
"1093","","bandit","79","1131366","0.0-40.0-0.0","38292526","wem/bandit_either","APGX2WZ59OWDN","either","6","","","","","","","0","0","1","0.1720655487","","0.6","0.4","0.2","0.8","","","","","0.1720655487","0.1734470434","0.06094066238","0.4656478179","","","","","","","72","H","0","img/none_selected.jpg","","1","main_expt"
"422","","bandit","80","1133299","0.0-41.0-0.0","38292526","wem/bandit_either","APGX2WZ59OWDN","either","6","","","","","","","0","0","1","0.1607886358","","0.6","0.4","0.2","0.8","","","","","0.1607886358","0.1582158198","0.04941180107","0.4661883906","","","","","","","72","H","0","img/none_selected.jpg","","2","main_expt"
"266","","bandit","81","1135075","0.0-42.0-0.0","38292526","wem/bandit_either","APGX2WZ59OWDN","either","6","","","","","","","0","0","1","0.1825924006","","0.6","0.4","0.2","0.8","","","","","0.1825924006","0.1264016625","0.09066711981","0.4608397999","","","","","","","72","H","0","img/none_selected.jpg","","3","main_expt"
"209","","bandit","82","1136796","0.0-43.0-0.0","38292526","wem/bandit_either","APGX2WZ59OWDN","either","6","","","","","","","0","0","1","0.1212924903","","0.6","0.4","0.2","0.8","","","","","0.1572982515","0.1212924903","0.07815644495","0.4568511376","","","","","","","74","J","1","","","4","main_expt"
"16","","bandit","83","1138321","0.0-44.0-0.0","38292526","wem/bandit_either","APGX2WZ59OWDN","either","6","","","","","","","0","0","1","","0.1603104869","0.6","0.4","0.2","0.8","0.1873501432","0.1603104869","0.06547040057","0.4576747282","","","","","","","","","","","74","J","1","","","5","main_expt"
"98","","bandit","84","1139928","0.0-45.0-0.0","38292526","wem/bandit_either","APGX2WZ59OWDN","either","6","","","","","","","0","0","1","","0.09500806419","0.6","0.4","0.2","0.8","0.1484719509","0.1916070739","0.09500806419","0.4673201091","","","","","","","","","","","75","K","2","","","6","main_expt"
"149","","bandit","85","1141589","0.0-46.0-0.0","38292526","wem/bandit_either","APGX2WZ59OWDN","either","6","","","","","","","0","1","0","","0.1156714339","0.6","0.4","0.2","0.8","0.1368680622","0.1624213819","0.1156714339","0.4671816856","","","","","","","","","","","75","K","2","","","7","main_expt"
"303","","bandit","86","1143403","0.0-47.0-0.0","38292526","wem/bandit_either","APGX2WZ59OWDN","either","6","","","","","","","0","0","1","0.4577650209","","0.6","0.4","0.2","0.8","","","","","0.1412197478","0.1529627983","0.08939878806","0.4577650209","","","","","","","76","L","3","","","8","main_expt"
"105","","bandit","87","1145018","0.0-48.0-0.0","38292526","wem/bandit_either","APGX2WZ59OWDN","either","6","","","","","","","1","0","0","0.4538037209","","0.6","0.4","0.2","0.8","","","","","0.1285241668","0.1638779","0.1379609943","0.4538037209","","","","","","","76","L","3","","","9","main_expt"
"241","","bandit","88","1146773","0.0-49.0-0.0","38292526","wem/bandit_either","APGX2WZ59OWDN","either","6","","","","","","","0","1","0","","0.4567906288","0.6","0.4","0.2","0.8","0.1137500729","0.1682184418","0.08892925829","0.4567906288","","","","","","","","","","","76","L","3","","","10","main_expt"
"230","","bandit","89","1148513","0.0-50.0-0.0","38292526","wem/bandit_either","APGX2WZ59OWDN","either","6","","","","","","","1","0","0","0.4707556997","","0.6","0.4","0.2","0.8","","","","","0.1134058804","0.1511948373","0.1053961985","0.4707556997","","","","","","","76","L","3","","","11","main_expt"
"114","","bandit","90","1150139","0.0-51.0-0.0","38292526","wem/bandit_either","APGX2WZ59OWDN","either","6","","","","","","","1","0","0","0.4534589675","","0.6","0.4","0.2","0.8","","","","","0.1358134986","0.2144966391","0.1267534428","0.4534589675","","","","","","","76","L","3","","","12","main_expt"
"105","","bandit","91","1151755","0.0-52.0-0.0","38292526","wem/bandit_either","APGX2WZ59OWDN","either","6","","","","","","","0","1","0","","0.4474824422","0.6","0.4","0.2","0.8","0.1105925571","0.1443049275","0.1179877152","0.4474824422","","","","","","","","","","","76","L","3","","","13","main_expt"
"135","","bandit","92","1153400","0.0-53.0-0.0","38292526","wem/bandit_either","APGX2WZ59OWDN","either","6","","","","","","","0","0","1","0.4125602811","","0.6","0.4","0.2","0.8","","","","","0.09057326494","0.149160688","0.1300626215","0.4125602811","","","","","","","76","L","3","","","14","main_expt"
"91","","bandit","93","1155003","0.0-54.0-0.0","38292526","wem/bandit_either","APGX2WZ59OWDN","either","6","","","","","","","0","0","1","0.3715785473","","0.6","0.4","0.2","0.8","","","","","0.05963436345","0.1525333278","0.1129073675","0.3715785473","","","","","","","76","L","3","","","15","main_expt"
"280","","bandit","94","1156796","0.0-55.0-0.0","38292526","wem/bandit_either","APGX2WZ59OWDN","either","6","","","","","","","1","0","0","0.3670357029","","0.6","0.4","0.2","0.8","","","","","0.03970917029","0.1437253933","0.1132840383","0.3670357029","","","","","","","76","L","3","","","16","main_expt"
"239","","bandit","95","1158544","0.0-56.0-0.0","38292526","wem/bandit_either","APGX2WZ59OWDN","either","6","","","","","","","0","0","1","0.333794799","","0.6","0.4","0.2","0.8","","","","","0.03301664506","0.1191274054","0.1530786807","0.333794799","","","","","","","76","L","3","","","17","main_expt"
"75","","bandit","96","1160129","0.0-57.0-0.0","38292526","wem/bandit_either","APGX2WZ59OWDN","either","6","","","","","","","0","0","1","","0.1367655081","0.6","0.4","0.2","0.8","0.0325619","0.1231388663","0.1367655081","0.3720862831","","","","","","","","","","","75","K","2","","","18","main_expt"
"307","","bandit","97","1161945","0.0-58.0-0.0","38292526","wem/bandit_either","APGX2WZ59OWDN","either","6","","","","","","","0","0","1","","0.1014962652","0.6","0.4","0.2","0.8","0.05136562407","0.1014962652","0.1519969922","0.3940248177","","","","","","","","","","","74","J","1","","","19","main_expt"
"340","","bandit","98","1163797","0.0-59.0-0.0","38292526","wem/bandit_either","APGX2WZ59OWDN","either","6","","","","","","","0","0","1","","0.05620034239","0.6","0.4","0.2","0.8","0.05620034239","0.1184271466","0.2344823222","0.3980303587","","","","","","","","","","","72","H","0","img/none_selected.jpg","","20","main_expt"
"302","","bandit","99","1165608","0.0-60.0-0.0","38292526","wem/bandit_either","APGX2WZ59OWDN","either","6","","","","","","","0","0","1","","0.2227593861","0.6","0.4","0.2","0.8","0.04865895453","0.1434190777","0.2227593861","0.405953395","","","","","","","","","","","75","K","2","","","21","main_expt"
"28","","bandit","100","1167146","0.0-61.0-0.0","38292526","wem/bandit_either","APGX2WZ59OWDN","either","6","","","","","","","1","0","0","0.37898799","","0.6","0.4","0.2","0.8","","","","","0.05276066643","0.1323354157","0.1831098024","0.37898799","","","","","","","76","L","3","","","22","main_expt"
"457","","bandit","101","1169114","0.0-62.0-0.0","38292526","wem/bandit_either","APGX2WZ59OWDN","either","6","","","","","","","0","0","1","0.3661255489","","0.6","0.4","0.2","0.8","","","","","0.05284133488","0.1384191998","0.1660310818","0.3661255489","","","","","","","76","L","3","","","23","main_expt"
"52","","bandit","102","1170683","0.0-63.0-0.0","38292526","wem/bandit_either","APGX2WZ59OWDN","either","6","","","","","","","1","0","0","0.3576379461","","0.6","0.4","0.2","0.8","","","","","0.0333904923","0.1395593146","0.1400827643","0.3576379461","","","","","","","76","L","3","","","24","main_expt"
"272","","bandit","103","1172470","0.0-64.0-0.0","38292526","wem/bandit_either","APGX2WZ59OWDN","either","6","","","","","","","0","0","1","0.3346121782","","0.6","0.4","0.2","0.8","","","","","0.04666446392","0.1696236693","0.2022937807","0.3346121782","","","","","","","76","L","3","","","25","main_expt"
"204","","bandit","104","1174187","0.0-65.0-0.0","38292526","wem/bandit_either","APGX2WZ59OWDN","either","6","","","","","","","1","0","0","0.3790434843","","0.6","0.4","0.2","0.8","","","","","0.04067930801","0.1754084838","0.1725383963","0.3790434843","","","","","","","76","L","3","","","26","main_expt"
"238","","bandit","105","1175932","0.0-66.0-0.0","38292526","wem/bandit_either","APGX2WZ59OWDN","either","6","","","","","","","0","0","1","0.3744762435","","0.6","0.4","0.2","0.8","","","","","0.03070036018","0.118483546","0.1735642386","0.3744762435","","","","","","","76","L","3","","","27","main_expt"
"89121","","bandit","106","1266564","0.0-67.0-0.0","38292526","wem/bandit_either","APGX2WZ59OWDN","either","6","","","","","","","0","0","1","","0.3650769418","0.6","0.4","0.2","0.8","0.02292460278","0.1259847853","0.149532802","0.3650769418","","","","","","","","","","","76","L","3","","","28","main_expt"
"591","","bandit","107","1268670","0.0-68.0-0.0","38292526","wem/bandit_either","APGX2WZ59OWDN","either","6","","","","","","","0","0","1","","0.1597785082","0.6","0.4","0.2","0.8","0.03476379039","0.1072727049","0.1597785082","0.3299345172","","","","","","","","","","","75","K","2","","","29","main_expt"
"232","","bandit","108","1270412","0.0-69.0-0.0","38292526","wem/bandit_either","APGX2WZ59OWDN","either","6","","","","","","","0","0","1","0.07952930744","","0.6","0.4","0.2","0.8","","","","","0.04211589453","0.07952930744","0.1978771271","0.3010095271","","","","","","","74","J","1","","","30","main_expt"
"200","","bandit","109","1272125","0.0-70.0-0.0","38292526","wem/bandit_either","APGX2WZ59OWDN","either","6","","","","","","","0","0","1","0.04495483672","","0.6","0.4","0.2","0.8","","","","","0.04495483672","0.09691030242","0.1928768267","0.331530841","","","","","","","72","H","0","img/none_selected.jpg","","31","main_expt"
"143","","bandit","110","1273778","0.0-71.0-0.0","38292526","wem/bandit_either","APGX2WZ59OWDN","either","6","","","","","","","0","0","1","0.3469043085","","0.6","0.4","0.2","0.8","","","","","0.04126869591","0.1338720944","0.1511047494","0.3469043085","","","","","","","76","L","3","","","32","main_expt"
"120","","bandit","111","1275410","0.0-72.0-0.0","38292526","wem/bandit_either","APGX2WZ59OWDN","either","6","","","","","","","0","0","1","0.2778139242","","0.6","0.4","0.2","0.8","","","","","0.02396570111","0.1428203538","0.09247049486","0.2778139242","","","","","","","76","L","3","","","33","main_expt"
"322","","bandit","112","1277244","0.0-73.0-0.0","38292526","wem/bandit_either","APGX2WZ59OWDN","either","6","","","","","","","0","0","1","","0.1127946788","0.6","0.4","0.2","0.8","0.03561151332","0.1258169527","0.1127946788","0.236883459","","","","","","","","","","","75","K","2","","","34","main_expt"
"222","","bandit","113","1278980","0.0-74.0-0.0","38292526","wem/bandit_either","APGX2WZ59OWDN","either","6","","","","","","","0","0","1","","0.1279928094","0.6","0.4","0.2","0.8","0.04565222073","0.1652362889","0.1279928094","0.2656196476","","","","","","","","","","","75","K","2","","","35","main_expt"
"336","","bandit","114","1280828","0.0-75.0-0.0","38292526","wem/bandit_either","APGX2WZ59OWDN","either","6","","","","","","","0","0","1","","0.09285608896","0.6","0.4","0.2","0.8","0.05036449293","0.1472348388","0.09285608896","0.2309028503","","","","","","","","","","","75","K","2","","","36","main_expt"
"167","","bandit","115","1282508","0.0-76.0-0.0","38292526","wem/bandit_either","APGX2WZ59OWDN","either","6","","","","","","","0","0","1","","0.20581188","0.6","0.4","0.2","0.8","0.04764774511","0.20581188","0.1251507517","0.1961267878","","","","","","","","","","","74","J","1","","","37","main_expt"
"58","","bandit","116","1284076","0.0-77.0-0.0","38292526","wem/bandit_either","APGX2WZ59OWDN","either","6","","","","","","","0","0","1","0.2096070571","","0.6","0.4","0.2","0.8","","","","","0.04692466818","0.2096070571","0.1248439258","0.2197692452","","","","","","","74","J","1","","","38","main_expt"
"289","","bandit","117","1285875","0.0-78.0-0.0","38292526","wem/bandit_either","APGX2WZ59OWDN","either","6","","","","","","","0","0","1","","0.1888903691","0.6","0.4","0.2","0.8","0.06150360576","0.1888903691","0.1192858938","0.1783178102","","","","","","","","","","","74","J","1","","","39","main_expt"
"237","","bandit","118","1287626","0.0-79.0-0.0","38292526","wem/bandit_either","APGX2WZ59OWDN","either","6","","","","","","","0","0","1","","0.1025324214","0.6","0.4","0.2","0.8","0.1025324214","0.1769314034","0.1457630933","0.1354267005","","","","","","","","","","","72","H","0","img/none_selected.jpg","","40","main_expt"
"122","","bandit","119","1289254","0.0-80.0-0.0","38292526","wem/bandit_either","APGX2WZ59OWDN","either","6","","","","","","","0","1","0","","0.1278282258","0.6","0.4","0.2","0.8","0.1278282258","0.1764673912","0.1788887836","0.1307301687","","","","","","","","","","","72","H","0","img/none_selected.jpg","","41","main_expt"
"230","","bandit","120","1290995","0.0-81.0-0.0","38292526","wem/bandit_either","APGX2WZ59OWDN","either","6","","","","","","","0","0","1","0.1144783829","","0.6","0.4","0.2","0.8","","","","","0.1144783829","0.1164002711","0.1550439797","0.1002459791","","","","","","","72","H","0","img/none_selected.jpg","","42","main_expt"
"58","","bandit","121","1292566","0.0-82.0-0.0","38292526","wem/bandit_either","APGX2WZ59OWDN","either","6","","","","","","","0","0","1","0.06131682752","","0.6","0.4","0.2","0.8","","","","","0.148274456","0.1248357276","0.1624336935","0.06131682752","","","","","","","76","L","3","","","43","main_expt"
"77","","bandit","122","1294153","0.0-83.0-0.0","38292526","wem/bandit_either","APGX2WZ59OWDN","either","6","","","","","","","0","0","1","","0.05757194937","0.6","0.4","0.2","0.8","0.1733993608","0.1801883524","0.2610419313","0.05757194937","","","","","","","","","","","76","L","3","","","44","main_expt"
"160","","bandit","123","1295827","0.0-84.0-0.0","38292526","wem/bandit_either","APGX2WZ59OWDN","either","6","","","","","","","0","0","1","0.06317169253","","0.6","0.4","0.2","0.8","","","","","0.1731137141","0.1536252234","0.2547096211","0.06317169253","","","","","","","76","L","3","","","45","main_expt"
"87","","bandit","124","1297424","0.0-85.0-0.0","38292526","wem/bandit_either","APGX2WZ59OWDN","either","6","","","","","","","1","0","0","0.2577534017","","0.6","0.4","0.2","0.8","","","","","0.2577534017","0.1453657368","0.2690630982","0.08604650327","","","","","","","72","H","0","img/none_selected.jpg","","46","main_expt"
"91","","bandit","125","1299029","0.0-86.0-0.0","38292526","wem/bandit_either","APGX2WZ59OWDN","either","6","","","","","","","0","0","1","","0.2436059896","0.6","0.4","0.2","0.8","0.2436059896","0.1163474927","0.2613787364","0.07503215105","","","","","","","","","","","72","H","0","img/none_selected.jpg","","47","main_expt"
"148","","bandit","126","1300689","0.0-87.0-0.0","38292526","wem/bandit_either","APGX2WZ59OWDN","either","6","","","","","","","0","0","1","","0.261356988","0.6","0.4","0.2","0.8","0.261356988","0.1187671899","0.2764851171","0.09661626413","","","","","","","","","","","72","H","0","img/none_selected.jpg","","48","main_expt"
"74","","bandit","127","1302274","0.0-88.0-0.0","38292526","wem/bandit_either","APGX2WZ59OWDN","either","6","","","","","","","1","0","0","0.2707362224","","0.6","0.4","0.2","0.8","","","","","0.2707362224","0.1321787199","0.2628846066","0.141419135","","","","","","","72","H","0","img/none_selected.jpg","","49","main_expt"
"250","","bandit","128","1304034","0.0-89.0-0.0","38292526","wem/bandit_either","APGX2WZ59OWDN","either","6","","","","","","","0","0","1","","0.2733601765","0.6","0.4","0.2","0.8","0.2733601765","0.1310663867","0.3634831931","0.1341637883","","","","","","","","","","","72","H","0","img/none_selected.jpg","","50","main_expt"
"271","","bandit","129","1305821","0.0-90.0-0.0","38292526","wem/bandit_either","APGX2WZ59OWDN","either","6","","","","","","","0","0","1","","0.2590969561","0.6","0.4","0.2","0.8","0.2590969561","0.1450472339","0.3771608335","0.1225974466","","","","","","","","","","","72","H","0","img/none_selected.jpg","","51","main_expt"
"398","","bandit","130","1307730","0.0-91.0-0.0","38292526","wem/bandit_either","APGX2WZ59OWDN","either","6","","","","","","","0","1","0","","0.1731775471","0.6","0.4","0.2","0.8","0.2515646212","0.1731775471","0.3093307572","0.1145468474","","","","","","","","","","","74","J","1","","","52","main_expt"
"542","","bandit","131","1309784","0.0-92.0-0.0","38292526","wem/bandit_either","APGX2WZ59OWDN","either","6","","","","","","","0","0","1","0.2257746054","","0.6","0.4","0.2","0.8","","","","","0.2257746054","0.2258016315","0.2990929044","0.1059564611","","","","","","","72","H","0","img/none_selected.jpg","","53","main_expt"
"42","","bandit","132","1311337","0.0-93.0-0.0","38292526","wem/bandit_either","APGX2WZ59OWDN","either","6","","","","","","","0","0","1","0.2172527187","","0.6","0.4","0.2","0.8","","","","","0.2750925763","0.2172527187","0.2221679908","0.1090017536","","","","","","","74","J","1","","","54","main_expt"
"2","","bandit","133","1312850","0.0-94.0-0.0","38292526","wem/bandit_either","APGX2WZ59OWDN","either","6","","","","","","","0","0","1","","0.1886471815","0.6","0.4","0.2","0.8","0.3608357377","0.1652356872","0.1886471815","0.1249444004","","","","","","","","","","","75","K","2","","","55","main_expt"
"325","","bandit","134","1314690","0.0-95.0-0.0","38292526","wem/bandit_either","APGX2WZ59OWDN","either","6","","","","","","","0","0","1","0.1576418272","","0.6","0.4","0.2","0.8","","","","","0.4022545085","0.1576418272","0.1973213641","0.09043885587","","","","","","","74","J","1","","","56","main_expt"
"183","","bandit","135","1316391","0.0-96.0-0.0","38292526","wem/bandit_either","APGX2WZ59OWDN","either","6","","","","","","","0","0","1","","0.180776926","0.6","0.4","0.2","0.8","0.3867568464","0.180776926","0.2207101474","0.07448640425","","","","","","","","","","","74","J","1","","","57","main_expt"
"324","","bandit","136","1318225","0.0-97.0-0.0","38292526","wem/bandit_either","APGX2WZ59OWDN","either","6","","","","","","","0","0","1","0.3840355114","","0.6","0.4","0.2","0.8","","","","","0.3840355114","0.1489081552","0.2480089655","0.09808879237","","","","","","","72","H","0","img/none_selected.jpg","","58","main_expt"
"271","","bandit","137","1320007","0.0-98.0-0.0","38292526","wem/bandit_either","APGX2WZ59OWDN","either","6","","","","","","","0","0","1","0.3617876187","","0.6","0.4","0.2","0.8","","","","","0.3617876187","0.125555473","0.2667579505","0.0721355853","","","","","","","72","H","0","img/none_selected.jpg","","59","main_expt"
"253","","bandit","138","1321771","0.0-99.0-0.0","38292526","wem/bandit_either","APGX2WZ59OWDN","either","6","","","","","","","0","0","1","","0.1228814318","0.6","0.4","0.2","0.8","0.3018070945","0.1228814318","0.2637313595","0.08871326978","","","","","","","","","","","74","J","1","","","60","main_expt"
"271","","bandit","139","1323552","0.0-100.0-0.0","38292526","wem/bandit_either","APGX2WZ59OWDN","either","6","","","","","","","0","0","1","0.195834737","","0.6","0.4","0.2","0.8","","","","","0.2687465691","0.195834737","0.2400462537","0.1472383223","","","","","","","74","J","1","","","61","main_expt"
"167","","bandit","140","1325233","0.0-101.0-0.0","38292526","wem/bandit_either","APGX2WZ59OWDN","either","6","","","","","","","0","0","1","","0.287622952","0.6","0.4","0.2","0.8","0.287622952","0.1952904108","0.2396546157","0.1625866577","","","","","","","","","","","72","H","0","img/none_selected.jpg","","62","main_expt"
"318","","bandit","141","1327066","0.0-102.0-0.0","38292526","wem/bandit_either","APGX2WZ59OWDN","either","6","","","","","","","0","1","0","","0.2558687718","0.6","0.4","0.2","0.8","0.2060093557","0.187392073","0.2558687718","0.1196153378","","","","","","","","","","","75","K","2","","","63","main_expt"
"183","","bandit","142","1328760","0.0-103.0-0.0","38292526","wem/bandit_either","APGX2WZ59OWDN","either","6","","","","","","","0","0","1","0.1789331692","","0.6","0.4","0.2","0.8","","","","","0.1865830226","0.1774517964","0.1789331692","0.1025290435","","","","","","","75","K","2","","","64","main_expt"
"319","","bandit","143","1330594","0.0-104.0-0.0","38292526","wem/bandit_either","APGX2WZ59OWDN","either","6","","","","","","","0","1","0","","0.2041721298","0.6","0.4","0.2","0.8","0.2242960511","0.1956590225","0.2041721298","0.06637487434","","","","","","","","","","","75","K","2","","","65","main_expt"
"268","","bandit","144","1332376","0.0-105.0-0.0","38292526","wem/bandit_either","APGX2WZ59OWDN","either","6","","","","","","","0","0","1","0.1083731131","","0.6","0.4","0.2","0.8","","","","","0.213739571","0.1559932489","0.1083731131","0.09888809835","","","","","","","75","K","2","","","66","main_expt"
"321","","bandit","145","1334211","0.0-106.0-0.0","38292526","wem/bandit_either","APGX2WZ59OWDN","either","6","","","","","","","0","0","1","0.08148965902","","0.6","0.4","0.2","0.8","","","","","0.2463093088","0.1327283285","0.08148965902","0.08542348091","","","","","","","75","K","2","","","67","main_expt"
"86","","bandit","146","1335808","0.0-107.0-0.0","38292526","wem/bandit_either","APGX2WZ59OWDN","either","6","","","","","","","0","1","0","","0.115871946","0.6","0.4","0.2","0.8","0.1863602012","0.1646421129","0.115871946","0.05648132023","","","","","","","","","","","75","K","2","","","68","main_expt"
"430","","bandit","147","1337752","0.0-108.0-0.0","38292526","wem/bandit_either","APGX2WZ59OWDN","either","6","","","","","","","0","1","0","","0.1049465522","0.6","0.4","0.2","0.8","0.1481768435","0.1879918005","0.1049465522","0.07427448495","","","","","","","","","","","75","K","2","","","69","main_expt"
"263","","bandit","148","1339527","0.0-109.0-0.0","38292526","wem/bandit_either","APGX2WZ59OWDN","either","6","","","","","","","0","0","1","","0.1224614501","0.6","0.4","0.2","0.8","0.2062415021","0.1708527721","0.1224614501","0.1052870039","","","","","","","","","","","75","K","2","","","70","main_expt"
"39","","bandit","149","1341078","0.0-110.0-0.0","38292526","wem/bandit_either","APGX2WZ59OWDN","either","6","","","","","","","0","0","1","0.1930923514","","0.6","0.4","0.2","0.8","","","","","0.2175562698","0.1930923514","0.1687358413","0.1114501371","","","","","","","74","J","1","","","71","main_expt"
"241","","bandit","150","1342832","0.0-111.0-0.0","38292526","wem/bandit_either","APGX2WZ59OWDN","either","6","","","","","","","0","0","1","","0.2289396243","0.6","0.4","0.2","0.8","0.2182173038","0.2289396243","0.1902964731","0.1282799478","","","","","","","","","","","74","J","1","","","72","main_expt"
"230","","bandit","151","1344575","0.0-112.0-0.0","38292526","wem/bandit_either","APGX2WZ59OWDN","either","6","","","","","","","0","0","1","","0.1629952044","0.6","0.4","0.2","0.8","0.1629952044","0.2223781067","0.1764690901","0.1113050996","","","","","","","","","","","72","H","0","img/none_selected.jpg","","73","main_expt"
"145","","bandit","152","1346232","0.0-113.0-0.0","38292526","wem/bandit_either","APGX2WZ59OWDN","either","6","","","","","","","1","0","0","0.2291178652","","0.6","0.4","0.2","0.8","","","","","0.2291178652","0.1664819569","0.1720288853","0.1573287606","","","","","","","72","H","0","img/none_selected.jpg","","74","main_expt"
"319","","bandit","153","1348059","0.0-114.0-0.0","38292526","wem/bandit_either","APGX2WZ59OWDN","either","6","","","","","","","1","0","0","0.2087405931","","0.6","0.4","0.2","0.8","","","","","0.2087405931","0.1157276324","0.098780463","0.168318459","","","","","","","72","H","0","img/none_selected.jpg","","75","main_expt"
"242","","bandit","154","1349814","0.0-115.0-0.0","38292526","wem/bandit_either","APGX2WZ59OWDN","either","6","","","","","","","1","0","0","0.1981976751","","0.6","0.4","0.2","0.8","","","","","0.1981976751","0.06912044911","0.08192786134","0.131742089","","","","","","","72","H","0","img/none_selected.jpg","","76","main_expt"
"303","","bandit","155","1351631","0.0-116.0-0.0","38292526","wem/bandit_either","APGX2WZ59OWDN","either","6","","","","","","","0","0","1","","0.2302368041","0.6","0.4","0.2","0.8","0.2302368041","0.06151132513","0.03620126105","0.1382621175","","","","","","","","","","","72","H","0","img/none_selected.jpg","","77","main_expt"
"201","","bandit","156","1353344","0.0-117.0-0.0","38292526","wem/bandit_either","APGX2WZ59OWDN","either","6","","","","","","","1","0","0","0.2538269909","","0.6","0.4","0.2","0.8","","","","","0.2538269909","0.08824794056","0.03362754592","0.1351161864","","","","","","","72","H","0","img/none_selected.jpg","","78","main_expt"
"200","","bandit","157","1355056","0.0-118.0-0.0","38292526","wem/bandit_either","APGX2WZ59OWDN","either","6","","","","","","","0","0","1","0.221492582","","0.6","0.4","0.2","0.8","","","","","0.221492582","0.08425003046","0.03917851348","0.1125986002","","","","","","","72","H","0","img/none_selected.jpg","","79","main_expt"
"21","","bandit","158","1356594","0.0-119.0-0.0","38292526","wem/bandit_either","APGX2WZ59OWDN","either","6","","","","","","","1","0","0","0.2126184008","","0.6","0.4","0.2","0.8","","","","","0.2126184008","0.1059393704","0.06916691586","0.1071358869","","","","","","","72","H","0","img/none_selected.jpg","","80","main_expt"
"698","","bandit","159","1358807","0.0-120.0-0.0","38292526","wem/bandit_either","APGX2WZ59OWDN","either","6","","","","","","","0","0","1","0.1803612399","","0.6","0.4","0.2","0.8","","","","","0.1803612399","0.114990546","0.1110223174","0.1410751298","","","","","","","72","H","0","img/none_selected.jpg","","81","main_expt"
"107","","bandit","160","1360425","0.0-121.0-0.0","38292526","wem/bandit_either","APGX2WZ59OWDN","either","6","","","","","","","0","0","1","","0.1883980103","0.6","0.4","0.2","0.8","0.1883980103","0.1246300745","0.08899533144","0.1518454263","","","","","","","","","","","72","H","0","img/none_selected.jpg","","82","main_expt"
"84","","bandit","161","1362021","0.0-122.0-0.0","38292526","wem/bandit_either","APGX2WZ59OWDN","either","6","","","","","","","0","0","1","0.2099895667","","0.6","0.4","0.2","0.8","","","","","0.2099895667","0.1523433176","0.1383499545","0.1285150734","","","","","","","72","H","0","img/none_selected.jpg","","83","main_expt"
"71","","bandit","162","1363605","0.0-123.0-0.0","38292526","wem/bandit_either","APGX2WZ59OWDN","either","6","","","","","","","0","0","1","","0.1815119679","0.6","0.4","0.2","0.8","0.1760666055","0.1230513595","0.1815119679","0.1083679187","","","","","","","","","","","75","K","2","","","84","main_expt"
"5379","","bandit","163","1370495","0.0-124.0-0.0","38292526","wem/bandit_either","APGX2WZ59OWDN","either","6","","","","","","","0","0","1","","0.2077415988","0.6","0.4","0.2","0.8","0.2077415988","0.1460595132","0.2121304898","0.08985983991","","","","","","","","","","","72","H","0","img/none_selected.jpg","","85","main_expt"
"47","","bandit","164","1372053","0.0-125.0-0.0","38292526","wem/bandit_either","APGX2WZ59OWDN","either","6","","","","","","","0","0","1","","0.1578730034","0.6","0.4","0.2","0.8","0.1940704576","0.1578730034","0.1931166697","0.08377758623","","","","","","","","","","","74","J","1","","","86","main_expt"
"223","","bandit","165","1373792","0.0-126.0-0.0","38292526","wem/bandit_either","APGX2WZ59OWDN","either","6","","","","","","","0","0","1","","0.1908876969","0.6","0.4","0.2","0.8","0.1920524506","0.1329566931","0.1908876969","0.08340742779","","","","","","","","","","","75","K","2","","","87","main_expt"
"46","","bandit","166","1375349","0.0-127.0-0.0","38292526","wem/bandit_either","APGX2WZ59OWDN","either","6","","","","","","","0","0","1","0.06937011617","","0.6","0.4","0.2","0.8","","","","","0.2525081946","0.1156353122","0.1727332377","0.06937011617","","","","","","","76","L","3","","","88","main_expt"
"128","","bandit","167","1376993","0.0-128.0-0.0","38292526","wem/bandit_either","APGX2WZ59OWDN","either","6","","","","","","","0","0","1","0.2476280913","","0.6","0.4","0.2","0.8","","","","","0.2476280913","0.1169245856","0.1747664758","0.08556693901","","","","","","","72","H","0","img/none_selected.jpg","","89","main_expt"
"181","","bandit","168","1378686","0.0-129.0-0.0","38292526","wem/bandit_either","APGX2WZ59OWDN","either","6","","","","","","","1","0","0","0.2476417222","","0.6","0.4","0.2","0.8","","","","","0.2476417222","0.1276927611","0.1302891894","0.1013294801","","","","","","","72","H","0","img/none_selected.jpg","","90","main_expt"
"32","","bandit","169","1380230","0.0-130.0-0.0","38292526","wem/bandit_either","APGX2WZ59OWDN","either","6","","","","","","","0","0","1","0.1875867431","","0.6","0.4","0.2","0.8","","","","","0.1875867431","0.1633868825","0.1143331172","0.1567130635","","","","","","","72","H","0","img/none_selected.jpg","","91","main_expt"
"319","","bandit","170","1382064","0.0-131.0-0.0","38292526","wem/bandit_either","APGX2WZ59OWDN","either","6","","","","","","","1","0","0","0.1804963823","","0.6","0.4","0.2","0.8","","","","","0.1804963823","0.2172033847","0.1674068059","0.1214255195","","","","","","","72","H","0","img/none_selected.jpg","","92","main_expt"
"293","","bandit","171","1383870","0.0-132.0-0.0","38292526","wem/bandit_either","APGX2WZ59OWDN","either","6","","","","","","","0","0","1","","0.1468121695","0.6","0.4","0.2","0.8","0.1468121695","0.2178255547","0.1405005834","0.1317465968","","","","","","","","","","","72","H","0","img/none_selected.jpg","","93","main_expt"
"376","","bandit","172","1385757","0.0-133.0-0.0","38292526","wem/bandit_either","APGX2WZ59OWDN","either","6","","","","","","","0","0","1","0.1270151289","","0.6","0.4","0.2","0.8","","","","","0.1270151289","0.2058786334","0.1338278818","0.1810196293","","","","","","","72","H","0","img/none_selected.jpg","","94","main_expt"
"256","","bandit","173","1387527","0.0-134.0-0.0","38292526","wem/bandit_either","APGX2WZ59OWDN","either","6","","","","","","","0","0","1","0.1049494322","","0.6","0.4","0.2","0.8","","","","","0.1049494322","0.2009860572","0.16416917","0.1537803575","","","","","","","72","H","0","img/none_selected.jpg","","95","main_expt"
"326","","bandit","174","1389366","0.0-135.0-0.0","38292526","wem/bandit_either","APGX2WZ59OWDN","either","6","","","","","","","0","0","1","","0.1242023773","0.6","0.4","0.2","0.8","0.1242023773","0.2792576191","0.1075549125","0.2255368078","","","","","","","","","","","72","H","0","img/none_selected.jpg","","96","main_expt"
"127","","bandit","175","1391004","0.0-136.0-0.0","38292526","wem/bandit_either","APGX2WZ59OWDN","either","6","","","","","","","0","0","1","","0.291042229","0.6","0.4","0.2","0.8","0.101802889","0.291042229","0.07285617598","0.1881791955","","","","","","","","","","","74","J","1","","","97","main_expt"
"120","","bandit","176","1392632","0.0-137.0-0.0","38292526","wem/bandit_either","APGX2WZ59OWDN","either","6","","","","","","","0","0","1","","0.2919937097","0.6","0.4","0.2","0.8","0.08559904752","0.2919937097","0.1128802937","0.1722186849","","","","","","","","","","","74","J","1","","","98","main_expt"
"13","","bandit","177","1394156","0.0-138.0-0.0","38292526","wem/bandit_either","APGX2WZ59OWDN","either","6","","","","","","","0","0","1","","0.338066437","0.6","0.4","0.2","0.8","0.04480153982","0.338066437","0.07338875894","0.2581810796","","","","","","","","","","","74","J","1","","","99","main_expt"
"10","","bandit","178","1395676","0.0-139.0-0.0","38292526","wem/bandit_either","APGX2WZ59OWDN","either","6","","","","","","","0","0","1","","0.06256672301","0.6","0.4","0.2","0.8","0.03694367041","0.3466775547","0.06256672301","0.3094702251","","","","","","","","","","","75","K","2","","","100","main_expt"
"193","","bandit","179","1397379","0.0-140.0-0.0","38292526","wem/bandit_either","APGX2WZ59OWDN","either","6","","","","","","","0","0","1","0.3217449289","","0.6","0.4","0.2","0.8","","","","","0.02534596886","0.3776837944","0.06765033746","0.3217449289","","","","","","","76","L","3","","","101","main_expt"
"122","","bandit","180","1399014","0.0-141.0-0.0","38292526","wem/bandit_either","APGX2WZ59OWDN","either","6","","","","","","","0","0","1","0.03456503798","","0.6","0.4","0.2","0.8","","","","","0.03456503798","0.3988278911","0.08460413752","0.3656493725","","","","","","","72","H","0","img/none_selected.jpg","","102","main_expt"
"303","","bandit","181","1400831","0.0-142.0-0.0","38292526","wem/bandit_either","APGX2WZ59OWDN","either","6","","","","","","","0","0","1","","0.3642388176","0.6","0.4","0.2","0.8","0.03116272615","0.3642388176","0.1149622558","0.4097417878","","","","","","","","","","","74","J","1","","","103","main_expt"
"45","","bandit","182","1402387","0.0-143.0-0.0","38292526","wem/bandit_either","APGX2WZ59OWDN","either","6","","","","","","","0","0","1","","0.1223821921","0.6","0.4","0.2","0.8","0.04034009898","0.3059376685","0.1223821921","0.4005896235","","","","","","","","","","","75","K","2","","","104","main_expt"
"290","","bandit","183","1404189","0.0-144.0-0.0","38292526","wem/bandit_either","APGX2WZ59OWDN","either","6","","","","","","","1","0","0","0.3967946647","","0.6","0.4","0.2","0.8","","","","","0.06132200156","0.2658022239","0.1302837569","0.3967946647","","","","","","","76","L","3","","","105","main_expt"
"176","","bandit","184","1405876","0.0-145.0-0.0","38292526","wem/bandit_either","APGX2WZ59OWDN","either","6","","","","","","","1","0","0","0.3920329447","","0.6","0.4","0.2","0.8","","","","","0.03171667797","0.2583534607","0.1405927316","0.3920329447","","","","","","","76","L","3","","","106","main_expt"
"216","","bandit","185","1407607","0.0-146.0-0.0","38292526","wem/bandit_either","APGX2WZ59OWDN","either","6","","","","","","","0","0","1","0.3973329777","","0.6","0.4","0.2","0.8","","","","","0.06603394544","0.2402432731","0.1835021143","0.3973329777","","","","","","","76","L","3","","","107","main_expt"
"278","","bandit","186","1409394","0.0-147.0-0.0","38292526","wem/bandit_either","APGX2WZ59OWDN","either","6","","","","","","","0","0","1","0.3839010997","","0.6","0.4","0.2","0.8","","","","","0.08137973005","0.2364509509","0.2124513917","0.3839010997","","","","","","","76","L","3","","","108","main_expt"
"34","","bandit","187","1410944","0.0-148.0-0.0","38292526","wem/bandit_either","APGX2WZ59OWDN","either","6","","","","","","","0","1","0","","0.3879107289","0.6","0.4","0.2","0.8","0.04765661509","0.2164051194","0.218007314","0.3879107289","","","","","","","","","","","76","L","3","","","109","main_expt"
"235","","bandit","188","1412690","0.0-149.0-0.0","38292526","wem/bandit_either","APGX2WZ59OWDN","either","6","","","","","","","1","0","0","0.3989855113","","0.6","0.4","0.2","0.8","","","","","0.06789381979","0.1611838666","0.229469423","0.3989855113","","","","","","","76","L","3","","","110","main_expt"
"242","","bandit","189","1414444","0.0-150.0-0.0","38292526","wem/bandit_either","APGX2WZ59OWDN","either","6","","","","","","","0","0","1","0.3959495959","","0.6","0.4","0.2","0.8","","","","","0.08972795074","0.2042622235","0.2923436213","0.3959495959","","","","","","","76","L","3","","","111","main_expt"
"241","","bandit","190","1416194","0.0-151.0-0.0","38292526","wem/bandit_either","APGX2WZ59OWDN","either","6","","","","","","","0","0","1","0.335596647","","0.6","0.4","0.2","0.8","","","","","0.1176683061","0.2113733305","0.2778802509","0.335596647","","","","","","","76","L","3","","","112","main_expt"
"266","","bandit","191","1417972","0.0-152.0-0.0","38292526","wem/bandit_either","APGX2WZ59OWDN","either","6","","","","","","","0","0","1","0.2876347753","","0.6","0.4","0.2","0.8","","","","","0.1973953549","0.220236308","0.2852166322","0.2876347753","","","","","","","76","L","3","","","113","main_expt"
"280","","bandit","192","1419766","0.0-153.0-0.0","38292526","wem/bandit_either","APGX2WZ59OWDN","either","6","","","","","","","1","0","0","0.200840576","","0.6","0.4","0.2","0.8","","","","","0.200840576","0.2453392608","0.3222351196","0.2811359795","","","","","","","72","H","0","img/none_selected.jpg","","114","main_expt"
"236","","bandit","193","1421515","0.0-154.0-0.0","38292526","wem/bandit_either","APGX2WZ59OWDN","either","6","","","","","","","0","0","1","0.2544006126","","0.6","0.4","0.2","0.8","","","","","0.2544006126","0.2311931225","0.2865303103","0.2056035349","","","","","","","72","H","0","img/none_selected.jpg","","115","main_expt"
"471","","bandit","194","1423499","0.0-155.0-0.0","38292526","wem/bandit_either","APGX2WZ59OWDN","either","6","","","","","","","0","0","1","0.2264812366","","0.6","0.4","0.2","0.8","","","","","0.2264812366","0.2290532582","0.1901772154","0.2435386161","","","","","","","72","H","0","img/none_selected.jpg","","116","main_expt"
"400","","bandit","195","1425409","0.0-156.0-0.0","38292526","wem/bandit_either","APGX2WZ59OWDN","either","6","","","","","","","0","0","1","0.2535822563","","0.6","0.4","0.2","0.8","","","","","0.2535822563","0.2610634121","0.1854727963","0.2523066444","","","","","","","72","H","0","img/none_selected.jpg","","117","main_expt"
"298","","bandit","196","1427219","0.0-157.0-0.0","38292526","wem/bandit_either","APGX2WZ59OWDN","either","6","","","","","","","0","0","1","","0.258758296","0.6","0.4","0.2","0.8","0.288462609","0.2915584027","0.223078523","0.258758296","","","","","","","","","","","76","L","3","","","118","main_expt"
"209","","bandit","197","1428938","0.0-158.0-0.0","38292526","wem/bandit_either","APGX2WZ59OWDN","either","6","","","","","","","0","0","1","0.3240034744","","0.6","0.4","0.2","0.8","","","","","0.3077733757","0.3240034744","0.2157898803","0.2513882557","","","","","","","74","J","1","","","119","main_expt"
"281","","bandit","198","1430731","0.0-159.0-0.0","38292526","wem/bandit_either","APGX2WZ59OWDN","either","6","","","","","","","0","0","1","0.2055853597","","0.6","0.4","0.2","0.8","","","","","0.3470363664","0.3584552205","0.2055853597","0.2178230887","","","","","","","75","K","2","","","120","main_expt"
"200","","bandit","199","1432444","0.0-160.0-0.0","38292526","wem/bandit_either","APGX2WZ59OWDN","either","6","","","","","","","0","1","0","","0.2249913612","0.6","0.4","0.2","0.8","0.36369082","0.3392259721","0.2308362602","0.2249913612","","","","","","","","","","","76","L","3","","","121","main_expt"
"240","","bandit","200","1434195","0.0-161.0-0.0","38292526","wem/bandit_either","APGX2WZ59OWDN","either","6","","","","","","","1","0","0","0.2135386538","","0.6","0.4","0.2","0.8","","","","","0.3740977319","0.3211990091","0.1858821776","0.2135386538","","","","","","","76","L","3","","","122","main_expt"
"288","","bandit","201","1435997","0.0-162.0-0.0","38292526","wem/bandit_either","APGX2WZ59OWDN","either","6","","","","","","","1","0","0","0.2742148462","","0.6","0.4","0.2","0.8","","","","","0.3617230251","0.3082515077","0.1948645322","0.2742148462","","","","","","","76","L","3","","","123","main_expt"
"270","","bandit","202","1437778","0.0-163.0-0.0","38292526","wem/bandit_either","APGX2WZ59OWDN","either","6","","","","","","","0","1","0","","0.3092488957","0.6","0.4","0.2","0.8","0.3189133642","0.3337980485","0.1875433284","0.3092488957","","","","","","","","","","","76","L","3","","","124","main_expt"
"257","","bandit","203","1439549","0.0-164.0-0.0","38292526","wem/bandit_either","APGX2WZ59OWDN","either","6","","","","","","","0","0","1","0.2832498899","","0.6","0.4","0.2","0.8","","","","","0.3134342975","0.2815584253","0.1805360773","0.2832498899","","","","","","","76","L","3","","","125","main_expt"
"263","","bandit","204","1441325","0.0-165.0-0.0","38292526","wem/bandit_either","APGX2WZ59OWDN","either","6","","","","","","","0","0","1","0.321902755","","0.6","0.4","0.2","0.8","","","","","0.2889117865","0.2544389989","0.2199741614","0.321902755","","","","","","","76","L","3","","","126","main_expt"
"286","","bandit","205","1443124","0.0-166.0-0.0","38292526","wem/bandit_either","APGX2WZ59OWDN","either","6","","","","","","","0","0","1","","0.3101500906","0.6","0.4","0.2","0.8","0.3101500906","0.217883989","0.212963778","0.3163630435","","","","","","","","","","","72","H","0","img/none_selected.jpg","","127","main_expt"
"174","","bandit","206","1444808","0.0-167.0-0.0","38292526","wem/bandit_either","APGX2WZ59OWDN","either","6","","","","","","","0","0","1","","0.1941215274","0.6","0.4","0.2","0.8","0.3257933697","0.1941215274","0.1853882534","0.3242789072","","","","","","","","","","","74","J","1","","","128","main_expt"
"273","","bandit","207","1446593","0.0-168.0-0.0","38292526","wem/bandit_either","APGX2WZ59OWDN","either","6","","","","","","","0","0","1","","0.1486900389","0.6","0.4","0.2","0.8","0.2767822115","0.2093197904","0.1486900389","0.3430844202","","","","","","","","","","","75","K","2","","","129","main_expt"
"345","","bandit","208","1448453","0.0-169.0-0.0","38292526","wem/bandit_either","APGX2WZ59OWDN","either","6","","","","","","","0","0","1","","0.3487272729","0.6","0.4","0.2","0.8","0.3389859305","0.2325895014","0.1581202816","0.3487272729","","","","","","","","","","","76","L","3","","","130","main_expt"
"149","","bandit","209","1450113","0.0-170.0-0.0","38292526","wem/bandit_either","APGX2WZ59OWDN","either","6","","","","","","","0","1","0","","0.2807576759","0.6","0.4","0.2","0.8","0.2807576759","0.2680880231","0.1189605486","0.3850752379","","","","","","","","","","","72","H","0","img/none_selected.jpg","","131","main_expt"
"112","","bandit","210","1451740","0.0-171.0-0.0","38292526","wem/bandit_either","APGX2WZ59OWDN","either","6","","","","","","","0","1","0","","0.2044414959","0.6","0.4","0.2","0.8","0.2044414959","0.2053564998","0.08638656351","0.3547422913","","","","","","","","","","","72","H","0","img/none_selected.jpg","","132","main_expt"
"214","","bandit","211","1453468","0.0-172.0-0.0","38292526","wem/bandit_either","APGX2WZ59OWDN","either","6","","","","","","","0","0","1","0.2352631215","","0.6","0.4","0.2","0.8","","","","","0.2352631215","0.2102644512","0.104542274","0.3256782816","","","","","","","72","H","0","img/none_selected.jpg","","133","main_expt"
"261","","bandit","212","1455246","0.0-173.0-0.0","38292526","wem/bandit_either","APGX2WZ59OWDN","either","6","","","","","","","1","0","0","0.2808822736","","0.6","0.4","0.2","0.8","","","","","0.2808822736","0.2028105977","0.1401790922","0.2479378245","","","","","","","72","H","0","img/none_selected.jpg","","134","main_expt"
"308","","bandit","213","1457065","0.0-174.0-0.0","38292526","wem/bandit_either","APGX2WZ59OWDN","either","6","","","","","","","1","0","0","0.3053704558","","0.6","0.4","0.2","0.8","","","","","0.3053704558","0.1556880781","0.1818128853","0.24301602","","","","","","","72","H","0","img/none_selected.jpg","","135","main_expt"
"274","","bandit","214","1458849","0.0-175.0-0.0","38292526","wem/bandit_either","APGX2WZ59OWDN","either","6","","","","","","","0","0","1","","0.3140058771","0.6","0.4","0.2","0.8","0.3140058771","0.1428421262","0.1583738081","0.2630427063","","","","","","","","","","","72","H","0","img/none_selected.jpg","","136","main_expt"
"539","","bandit","215","1460899","0.0-176.0-0.0","38292526","wem/bandit_either","APGX2WZ59OWDN","either","6","","","","","","","0","0","1","0.323699752","","0.6","0.4","0.2","0.8","","","","","0.323699752","0.1039390038","0.1497920091","0.3053425806","","","","","","","72","H","0","img/none_selected.jpg","","137","main_expt"
"245","","bandit","216","1462657","0.0-177.0-0.0","38292526","wem/bandit_either","APGX2WZ59OWDN","either","6","","","","","","","0","0","1","0.3435108126","","0.6","0.4","0.2","0.8","","","","","0.3435108126","0.07132433681","0.1128601551","0.3588623722","","","","","","","72","H","0","img/none_selected.jpg","","138","main_expt"
"128","","bandit","217","1464294","0.0-178.0-0.0","38292526","wem/bandit_either","APGX2WZ59OWDN","either","6","","","","","","","1","0","0","0.3505637202","","0.6","0.4","0.2","0.8","","","","","0.3505637202","0.1047165976","0.1073604677","0.2762704672","","","","","","","72","H","0","img/none_selected.jpg","","139","main_expt"
"285","","bandit","218","1466094","0.0-179.0-0.0","38292526","wem/bandit_either","APGX2WZ59OWDN","either","6","","","","","","","0","0","1","0.4185251601","","0.6","0.4","0.2","0.8","","","","","0.4185251601","0.09043849554","0.1376710563","0.2475753012","","","","","","","72","H","0","img/none_selected.jpg","","140","main_expt"
"280","","bandit","219","1467887","0.0-180.0-0.0","38292526","wem/bandit_either","APGX2WZ59OWDN","either","6","","","","","","","0","1","0","","0.4225289085","0.6","0.4","0.2","0.8","0.4225289085","0.05096505815","0.1412662962","0.2436306075","","","","","","","","","","","72","H","0","img/none_selected.jpg","","141","main_expt"
"314","","bandit","220","1469714","0.0-181.0-0.0","38292526","wem/bandit_either","APGX2WZ59OWDN","either","6","","","","","","","1","0","0","0.455259632","","0.6","0.4","0.2","0.8","","","","","0.455259632","0.02973759478","0.1543424817","0.1998899021","","","","","","","72","H","0","img/none_selected.jpg","","142","main_expt"
"208","","bandit","221","1471433","0.0-182.0-0.0","38292526","wem/bandit_either","APGX2WZ59OWDN","either","6","","","","","","","0","0","1","0.4287003803","","0.6","0.4","0.2","0.8","","","","","0.4287003803","0.04457260366","0.1552636118","0.2568100034","","","","","","","72","H","0","img/none_selected.jpg","","143","main_expt"
"311","","bandit","222","1473256","0.0-183.0-0.0","38292526","wem/bandit_either","APGX2WZ59OWDN","either","6","","","","","","","0","1","0","","0.4260506414","0.6","0.4","0.2","0.8","0.4260506414","0.04060115041","0.2241753426","0.2859833531","","","","","","","","","","","72","H","0","img/none_selected.jpg","","144","main_expt"
"280","","bandit","223","1475050","0.0-184.0-0.0","38292526","wem/bandit_either","APGX2WZ59OWDN","either","6","","","","","","","0","0","1","0.4202170594","","0.6","0.4","0.2","0.8","","","","","0.4202170594","0.06712401514","0.2484131349","0.2080640158","","","","","","","72","H","0","img/none_selected.jpg","","145","main_expt"
"311","","bandit","224","1476873","0.0-185.0-0.0","38292526","wem/bandit_either","APGX2WZ59OWDN","either","6","","","","","","","0","0","1","","0.4333226383","0.6","0.4","0.2","0.8","0.4333226383","0.08780921534","0.2905032103","0.2469639643","","","","","","","","","","","72","H","0","img/none_selected.jpg","","146","main_expt"
"312","","bandit","225","1478699","0.0-186.0-0.0","38292526","wem/bandit_either","APGX2WZ59OWDN","either","6","","","","","","","0","0","1","0.1333368233","","0.6","0.4","0.2","0.8","","","","","0.4340954059","0.1333368233","0.2846703457","0.2169279296","","","","","","","74","J","1","","","147","main_expt"
"205","","bandit","226","1480415","0.0-187.0-0.0","38292526","wem/bandit_either","APGX2WZ59OWDN","either","6","","","","","","","0","0","1","","0.3010433131","0.6","0.4","0.2","0.8","0.3903754431","0.09264147873","0.3010433131","0.1248284812","","","","","","","","","","","75","K","2","","","148","main_expt"
"217","","bandit","227","1482145","0.0-188.0-0.0","38292526","wem/bandit_either","APGX2WZ59OWDN","either","6","","","","","","","0","0","1","0.1498862571","","0.6","0.4","0.2","0.8","","","","","0.4161192262","0.123708687","0.3421268102","0.1498862571","","","","","","","76","L","3","","","149","main_expt"
"263","","bandit","228","1483920","0.0-189.0-0.0","38292526","wem/bandit_either","APGX2WZ59OWDN","either","6","","","","","","","0","1","0","","0.4545257836","0.6","0.4","0.2","0.8","0.4545257836","0.1087811601","0.3382865341","0.2044632824","","","","","","","","","","","72","H","0","img/none_selected.jpg","","150","main_expt"
"192","","bandit","229","1485624","0.0-190.0-0.0","38292526","wem/bandit_either","APGX2WZ59OWDN","either","6","","","","","","","0","0","1","0.4553704948","","0.6","0.4","0.2","0.8","","","","","0.4553704948","0.1640336927","0.3031951358","0.1630699797","","","","","","","72","H","0","img/none_selected.jpg","","151","main_expt"
"184","","bandit","230","1487321","0.0-191.0-0.0","38292526","wem/bandit_either","APGX2WZ59OWDN","either","6","","","","","","","1","0","0","0.4692720684","","0.6","0.4","0.2","0.8","","","","","0.4692720684","0.1474195158","0.3163498213","0.1534962237","","","","","","","72","H","0","img/none_selected.jpg","","152","main_expt"
"254","","bandit","231","1489086","0.0-192.0-0.0","38292526","wem/bandit_either","APGX2WZ59OWDN","either","6","","","","","","","0","0","1","","0.4794448159","0.6","0.4","0.2","0.8","0.4794448159","0.1200421148","0.3205280093","0.1506701345","","","","","","","","","","","72","H","0","img/none_selected.jpg","","153","main_expt"
"145","","bandit","232","1490747","0.0-193.0-0.0","38292526","wem/bandit_either","APGX2WZ59OWDN","either","6","","","","","","","0","0","1","","0.4762011242","0.6","0.4","0.2","0.8","0.4762011242","0.1295208369","0.2780981807","0.1810992197","","","","","","","","","","","72","H","0","img/none_selected.jpg","","154","main_expt"
"61","","bandit","233","1492322","0.0-194.0-0.0","38292526","wem/bandit_either","APGX2WZ59OWDN","either","6","","","","","","","1","0","0","0.4797315341","","0.6","0.4","0.2","0.8","","","","","0.4797315341","0.1189574303","0.2543788853","0.2574031695","","","","","","","72","H","0","img/none_selected.jpg","","155","main_expt"
"133","","bandit","234","1493968","0.0-195.0-0.0","38292526","wem/bandit_either","APGX2WZ59OWDN","either","6","","","","","","","0","0","1","0.4815153028","","0.6","0.4","0.2","0.8","","","","","0.4815153028","0.1511338071","0.2601772157","0.1838662476","","","","","","","72","H","0","img/none_selected.jpg","","156","main_expt"
"224","","bandit","235","1495704","0.0-196.0-0.0","38292526","wem/bandit_either","APGX2WZ59OWDN","either","6","","","","","","","0","0","1","0.4769669351","","0.6","0.4","0.2","0.8","","","","","0.4769669351","0.1494559257","0.27050514","0.1951262555","","","","","","","72","H","0","img/none_selected.jpg","","157","main_expt"
"375","","bandit","236","1497590","0.0-197.0-0.0","38292526","wem/bandit_either","APGX2WZ59OWDN","either","6","","","","","","","1","0","0","0.4819637572","","0.6","0.4","0.2","0.8","","","","","0.4819637572","0.1398300683","0.2912044809","0.1711173681","","","","","","","72","H","0","img/none_selected.jpg","","158","main_expt"
"554","","bandit","237","1499656","0.0-198.0-0.0","38292526","wem/bandit_either","APGX2WZ59OWDN","either","6","","","","","","","1","0","0","0.4802617926","","0.6","0.4","0.2","0.8","","","","","0.4802617926","0.1482700517","0.2863852675","0.1262927185","","","","","","","72","H","0","img/none_selected.jpg","","159","main_expt"
"272","","bandit","238","1501438","0.0-199.0-0.0","38292526","wem/bandit_either","APGX2WZ59OWDN","either","6","","","","","","","0","0","1","0.4834703177","","0.6","0.4","0.2","0.8","","","","","0.4834703177","0.1327856751","0.3188379944","0.1289005464","","","","","","","72","H","0","img/none_selected.jpg","","160","main_expt"
"306","","bandit","239","1503255","0.0-200.0-0.0","38292526","wem/bandit_either","APGX2WZ59OWDN","either","6","","","","","","","0","1","0","","0.4783639554","0.6","0.4","0.2","0.8","0.4783639554","0.1936248495","0.3918259889","0.07062595825","","","","","","","","","","","72","H","0","img/none_selected.jpg","","161","main_expt"
"327","","bandit","240","1505095","0.0-201.0-0.0","38292526","wem/bandit_either","APGX2WZ59OWDN","either","6","","","","","","","0","0","1","","0.4702379588","0.6","0.4","0.2","0.8","0.4702379588","0.1917288119","0.3825352776","0.08554885259","","","","","","","","","","","72","H","0","img/none_selected.jpg","","162","main_expt"
"40","","bandit","241","1506648","0.0-202.0-0.0","38292526","wem/bandit_either","APGX2WZ59OWDN","either","6","","","","","","","0","1","0","","0.4761999765","0.6","0.4","0.2","0.8","0.4761999765","0.2410074379","0.3500114378","0.05790820845","","","","","","","","","","","72","H","0","img/none_selected.jpg","","163","main_expt"
"375","","bandit","242","1508537","0.0-203.0-0.0","38292526","wem/bandit_either","APGX2WZ59OWDN","either","6","","","","","","","0","1","0","","0.4683988395","0.6","0.4","0.2","0.8","0.4683988395","0.2717164652","0.3138306729","0.04744410613","","","","","","","","","","","72","H","0","img/none_selected.jpg","","164","main_expt"
"270","","bandit","243","1510321","0.0-204.0-0.0","38292526","wem/bandit_either","APGX2WZ59OWDN","either","6","","","","","","","0","0","1","","0.4594806004","0.6","0.4","0.2","0.8","0.4594806004","0.3360488911","0.3066591237","0.07721988326","","","","","","","","","","","72","H","0","img/none_selected.jpg","","165","main_expt"
"189","","bandit","244","1512025","0.0-205.0-0.0","38292526","wem/bandit_either","APGX2WZ59OWDN","either","6","","","","","","","0","0","1","","0.4769271284","0.6","0.4","0.2","0.8","0.4769271284","0.3288768439","0.359337808","0.09276645858","","","","","","","","","","","72","H","0","img/none_selected.jpg","","166","main_expt"
"165","","bandit","245","1513704","0.0-206.0-0.0","38292526","wem/bandit_either","APGX2WZ59OWDN","either","6","","","","","","","1","0","0","0.4824675089","","0.6","0.4","0.2","0.8","","","","","0.4824675089","0.341079324","0.3888119778","0.1092251717","","","","","","","72","H","0","img/none_selected.jpg","","167","main_expt"
"191","","bandit","246","1515405","0.0-207.0-0.0","38292526","wem/bandit_either","APGX2WZ59OWDN","either","6","","","","","","","1","0","0","0.4731218304","","0.6","0.4","0.2","0.8","","","","","0.4731218304","0.2972081376","0.3188253523","0.09704797424","","","","","","","72","H","0","img/none_selected.jpg","","168","main_expt"
"353","","bandit","247","1517271","0.0-208.0-0.0","38292526","wem/bandit_either","APGX2WZ59OWDN","either","6","","","","","","","0","0","1","0.4558692975","","0.6","0.4","0.2","0.8","","","","","0.4558692975","0.2716537329","0.3035082617","0.1131958007","","","","","","","72","H","0","img/none_selected.jpg","","169","main_expt"
"151","","bandit","248","1518933","0.0-209.0-0.0","38292526","wem/bandit_either","APGX2WZ59OWDN","either","6","","","","","","","0","0","1","0.424927817","","0.6","0.4","0.2","0.8","","","","","0.424927817","0.3705489528","0.3540810543","0.1636150477","","","","","","","72","H","0","img/none_selected.jpg","","170","main_expt"
"400","","bandit","249","1520848","0.0-210.0-0.0","38292526","wem/bandit_either","APGX2WZ59OWDN","either","6","","","","","","","0","0","1","","0.4254050478","0.6","0.4","0.2","0.8","0.4254050478","0.3259531709","0.2912941695","0.1889182236","","","","","","","","","","","72","H","0","img/none_selected.jpg","","171","main_expt"
"117","","bandit","250","1522480","0.0-211.0-0.0","38292526","wem/bandit_either","APGX2WZ59OWDN","either","6","","","","","","","0","0","1","","0.3253578443","0.6","0.4","0.2","0.8","0.4319935488","0.3253578443","0.2964718019","0.1494540944","","","","","","","","","","","74","J","1","","","172","main_expt"
"118","","bandit","251","1524109","0.0-212.0-0.0","38292526","wem/bandit_either","APGX2WZ59OWDN","either","6","","","","","","","0","0","1","","0.2411205861","0.6","0.4","0.2","0.8","0.4157756128","0.3133285256","0.2411205861","0.1700291406","","","","","","","","","","","75","K","2","","","173","main_expt"
"111","","bandit","252","1525737","0.0-213.0-0.0","38292526","wem/bandit_either","APGX2WZ59OWDN","either","6","","","","","","","1","0","0","0.2007600912","","0.6","0.4","0.2","0.8","","","","","0.3650518631","0.3470844982","0.2132737127","0.2007600912","","","","","","","76","L","3","","","174","main_expt"
"146","","bandit","253","1527399","0.0-214.0-0.0","38292526","wem/bandit_either","APGX2WZ59OWDN","either","6","","","","","","","0","0","1","0.1613291475","","0.6","0.4","0.2","0.8","","","","","0.3583375904","0.3615725976","0.2722172758","0.1613291475","","","","","","","76","L","3","","","175","main_expt"
"229","","bandit","254","1529144","0.0-215.0-0.0","38292526","wem/bandit_either","APGX2WZ59OWDN","either","6","","","","","","","0","0","1","0.1618540135","","0.6","0.4","0.2","0.8","","","","","0.3849487833","0.3592449917","0.3158297255","0.1618540135","","","","","","","76","L","3","","","176","main_expt"
"2292","","bandit","255","1532952","0.0-216.0-0.0","38292526","wem/bandit_either","APGX2WZ59OWDN","either","6","","","","","","","0","0","1","0.1337509382","","0.6","0.4","0.2","0.8","","","","","0.3741193846","0.3614776984","0.3033070912","0.1337509382","","","","","","","76","L","3","","","177","main_expt"
"267","","bandit","256","1534734","0.0-217.0-0.0","38292526","wem/bandit_either","APGX2WZ59OWDN","either","6","","","","","","","0","0","1","0.3704436283","","0.6","0.4","0.2","0.8","","","","","0.3704436283","0.4042649322","0.3070990366","0.172909152","","","","","","","72","H","0","img/none_selected.jpg","","178","main_expt"
"62","","bandit","257","1536309","0.0-218.0-0.0","38292526","wem/bandit_either","APGX2WZ59OWDN","either","6","","","","","","","0","0","1","0.3626499081","","0.6","0.4","0.2","0.8","","","","","0.3718647044","0.3626499081","0.349206168","0.2306318455","","","","","","","74","J","1","","","179","main_expt"
"223","","bandit","258","1538048","0.0-219.0-0.0","38292526","wem/bandit_either","APGX2WZ59OWDN","either","6","","","","","","","0","1","0","","0.3533593609","0.6","0.4","0.2","0.8","0.3144845341","0.365831292","0.3533593609","0.2531752843","","","","","","","","","","","75","K","2","","","180","main_expt"
"203","","bandit","259","1539766","0.0-220.0-0.0","38292526","wem/bandit_either","APGX2WZ59OWDN","either","6","","","","","","","1","0","0","0.3792633926","","0.6","0.4","0.2","0.8","","","","","0.3328992573","0.3720079561","0.3792633926","0.2995137733","","","","","","","75","K","2","","","181","main_expt"
"284","","bandit","260","1541567","0.0-221.0-0.0","38292526","wem/bandit_either","APGX2WZ59OWDN","either","6","","","","","","","0","0","1","","0.4170401524","0.6","0.4","0.2","0.8","0.3443004049","0.3747751333","0.4170401524","0.2818604164","","","","","","","","","","","75","K","2","","","182","main_expt"
"260","","bandit","261","1543342","0.0-222.0-0.0","38292526","wem/bandit_either","APGX2WZ59OWDN","either","6","","","","","","","0","0","1","","0.4349898381","0.6","0.4","0.2","0.8","0.3572445505","0.3772869326","0.4349898381","0.2706787236","","","","","","","","","","","75","K","2","","","183","main_expt"
"246","","bandit","262","1545101","0.0-223.0-0.0","38292526","wem/bandit_either","APGX2WZ59OWDN","either","6","","","","","","","0","1","0","","0.4355724899","0.6","0.4","0.2","0.8","0.358140682","0.3719200221","0.4355724899","0.2788381055","","","","","","","","","","","75","K","2","","","184","main_expt"
"301","","bandit","263","1546918","0.0-224.0-0.0","38292526","wem/bandit_either","APGX2WZ59OWDN","either","6","","","","","","","0","1","0","","0.443517249","0.6","0.4","0.2","0.8","0.2938856532","0.3759280431","0.443517249","0.2591604306","","","","","","","","","","","75","K","2","","","185","main_expt"
"245","","bandit","264","1548677","0.0-225.0-0.0","38292526","wem/bandit_either","APGX2WZ59OWDN","either","6","","","","","","","0","0","1","0.4185550765","","0.6","0.4","0.2","0.8","","","","","0.2570442146","0.3686405037","0.4185550765","0.1717283936","","","","","","","75","K","2","","","186","main_expt"
"326","","bandit","265","1550515","0.0-226.0-0.0","38292526","wem/bandit_either","APGX2WZ59OWDN","either","6","","","","","","","0","0","1","0.4582246802","","0.6","0.4","0.2","0.8","","","","","0.2781151114","0.3693778387","0.4582246802","0.1399016055","","","","","","","75","K","2","","","187","main_expt"
"367","","bandit","266","1552398","0.0-227.0-0.0","38292526","wem/bandit_either","APGX2WZ59OWDN","either","6","","","","","","","0","0","1","","0.4499637214","0.6","0.4","0.2","0.8","0.2510368257","0.3858781765","0.4499637214","0.116743447","","","","","","","","","","","75","K","2","","","188","main_expt"
"262","","bandit","267","1554172","0.0-228.0-0.0","38292526","wem/bandit_either","APGX2WZ59OWDN","either","6","","","","","","","0","0","1","0.09810356538","","0.6","0.4","0.2","0.8","","","","","0.2299291889","0.353665234","0.4681283031","0.09810356538","","","","","","","76","L","3","","","189","main_expt"
"328","","bandit","268","1556014","0.0-229.0-0.0","38292526","wem/bandit_either","APGX2WZ59OWDN","either","6","","","","","","","0","0","1","","0.2957770397","0.6","0.4","0.2","0.8","0.2957770397","0.3702546744","0.4672384316","0.1333212727","","","","","","","","","","","72","H","0","img/none_selected.jpg","","190","main_expt"
"84","","bandit","269","1557610","0.0-230.0-0.0","38292526","wem/bandit_either","APGX2WZ59OWDN","either","6","","","","","","","0","0","1","0.3373283559","","0.6","0.4","0.2","0.8","","","","","0.2806998676","0.3373283559","0.4633056668","0.07289491444","","","","","","","74","J","1","","","191","main_expt"
"200","","bandit","270","1559324","0.0-231.0-0.0","38292526","wem/bandit_either","APGX2WZ59OWDN","either","6","","","","","","","0","0","1","","0.4701423021","0.6","0.4","0.2","0.8","0.2578649702","0.3717228864","0.4701423021","0.09060717316","","","","","","","","","","","75","K","2","","","192","main_expt"
"319","","bandit","271","1561157","0.0-232.0-0.0","38292526","wem/bandit_either","APGX2WZ59OWDN","either","6","","","","","","","0","1","0","","0.1038106097","0.6","0.4","0.2","0.8","0.3019093773","0.3861484819","0.4625827917","0.1038106097","","","","","","","","","","","76","L","3","","","193","main_expt"
"220","","bandit","272","1562893","0.0-233.0-0.0","38292526","wem/bandit_either","APGX2WZ59OWDN","either","6","","","","","","","0","0","1","0.1222204007","","0.6","0.4","0.2","0.8","","","","","0.3028603149","0.3884838939","0.4480064119","0.1222204007","","","","","","","76","L","3","","","194","main_expt"
"54","","bandit","273","1564462","0.0-234.0-0.0","38292526","wem/bandit_either","APGX2WZ59OWDN","either","6","","","","","","","0","0","1","0.1230179676","","0.6","0.4","0.2","0.8","","","","","0.2933095063","0.4058549971","0.4263193963","0.1230179676","","","","","","","76","L","3","","","195","main_expt"
"276","","bandit","274","1566251","0.0-235.0-0.0","38292526","wem/bandit_either","APGX2WZ59OWDN","either","6","","","","","","","0","0","1","0.1972068901","","0.6","0.4","0.2","0.8","","","","","0.3333663608","0.3894648227","0.4399191733","0.1972068901","","","","","","","76","L","3","","","196","main_expt"
"310","","bandit","275","1568074","0.0-236.0-0.0","38292526","wem/bandit_either","APGX2WZ59OWDN","either","6","","","","","","","0","0","1","","0.3472763543","0.6","0.4","0.2","0.8","0.3472763543","0.3452919481","0.4303685687","0.2091218652","","","","","","","","","","","72","H","0","img/none_selected.jpg","","197","main_expt"
"88","","bandit","276","1569676","0.0-237.0-0.0","38292526","wem/bandit_either","APGX2WZ59OWDN","either","6","","","","","","","0","1","0","","0.3571156804","0.6","0.4","0.2","0.8","0.3420385624","0.3571156804","0.4166638701","0.2316117542","","","","","","","","","","","74","J","1","","","198","main_expt"
"20","","bandit","277","1571208","0.0-238.0-0.0","38292526","wem/bandit_either","APGX2WZ59OWDN","either","6","","","","","","","0","1","0","","0.3761278261","0.6","0.4","0.2","0.8","0.3009927129","0.3761278261","0.4166192342","0.1983173389","","","","","","","","","","","74","J","1","","","199","main_expt"
"337","","bandit","278","1573063","0.0-239.0-0.0","38292526","wem/bandit_either","APGX2WZ59OWDN","either","6","","","","","","","0","0","1","","0.3623939384","0.6","0.4","0.2","0.8","0.2834367318","0.3623939384","0.4065109498","0.2275108597","","","","","","","","","","","74","J","1","","","200","main_expt"
"162","","bandit","279","1574742","0.0-240.0-0.0","38292526","wem/bandit_either","APGX2WZ59OWDN","either","6","","","","","","","0","0","1","","0.3470966653","0.6","0.4","0.2","0.8","0.2305195973","0.3470966653","0.4210367682","0.2753755663","","","","","","","","","","","74","J","1","","","201","main_expt"
"227","","bandit","280","1576481","0.0-241.0-0.0","38292526","wem/bandit_either","APGX2WZ59OWDN","either","6","","","","","","","0","0","1","0.3738670455","","0.6","0.4","0.2","0.8","","","","","0.236439039","0.3738670455","0.4059774394","0.2867984519","","","","","","","74","J","1","","","202","main_expt"
"200","","bandit","281","1578194","0.0-242.0-0.0","38292526","wem/bandit_either","APGX2WZ59OWDN","either","6","","","","","","","0","0","1","","0.4217634448","0.6","0.4","0.2","0.8","0.207292508","0.4434414113","0.4217634448","0.227681123","","","","","","","","","","","75","K","2","","","203","main_expt"
"223","","bandit","282","1579929","0.0-243.0-0.0","38292526","wem/bandit_either","APGX2WZ59OWDN","either","6","","","","","","","0","0","1","","0.417590799","0.6","0.4","0.2","0.8","0.2706274655","0.4363530878","0.417590799","0.2421814767","","","","","","","","","","","75","K","2","","","204","main_expt"
"16","","bandit","283","1581459","0.0-244.0-0.0","38292526","wem/bandit_either","APGX2WZ59OWDN","either","6","","","","","","","0","0","1","0.2250127273","","0.6","0.4","0.2","0.8","","","","","0.2688171721","0.4390009565","0.3892328218","0.2250127273","","","","","","","76","L","3","","","205","main_expt"
"295","","bandit","284","1583266","0.0-245.0-0.0","38292526","wem/bandit_either","APGX2WZ59OWDN","either","6","","","","","","","0","0","1","","0.2774640617","0.6","0.4","0.2","0.8","0.2774640617","0.4606838579","0.3877758809","0.2148063869","","","","","","","","","","","72","H","0","img/none_selected.jpg","","206","main_expt"
"119","","bandit","285","1584898","0.0-246.0-0.0","38292526","wem/bandit_either","APGX2WZ59OWDN","either","6","","","","","","","0","0","1","0.4679198071","","0.6","0.4","0.2","0.8","","","","","0.31303597","0.4679198071","0.3344078408","0.2370073307","","","","","","","74","J","1","","","207","main_expt"
"47","","bandit","286","1586460","0.0-247.0-0.0","38292526","wem/bandit_either","APGX2WZ59OWDN","either","6","","","","","","","0","0","1","","0.3285414067","0.6","0.4","0.2","0.8","0.3187850143","0.4731710197","0.3285414067","0.1736764344","","","","","","","","","","","75","K","2","","","208","main_expt"
"237","","bandit","287","1588212","0.0-248.0-0.0","38292526","wem/bandit_either","APGX2WZ59OWDN","either","6","","","","","","","1","0","0","0.2033963155","","0.6","0.4","0.2","0.8","","","","","0.3031297305","0.472507437","0.337659841","0.2033963155","","","","","","","76","L","3","","","209","main_expt"
"116","","bandit","288","1589844","0.0-249.0-0.0","38292526","wem/bandit_either","APGX2WZ59OWDN","either","6","","","","","","","1","0","0","0.1849029676","","0.6","0.4","0.2","0.8","","","","","0.3593083662","0.4759946166","0.322880172","0.1849029676","","","","","","","76","L","3","","","210","main_expt"
"244","","bandit","289","1591603","0.0-250.0-0.0","38292526","wem/bandit_either","APGX2WZ59OWDN","either","6","","","","","","","0","0","1","0.08033524441","","0.6","0.4","0.2","0.8","","","","","0.3758292662","0.4838002785","0.3440981268","0.08033524441","","","","","","","76","L","3","","","211","main_expt"
"174","","bandit","290","1593292","0.0-251.0-0.0","38292526","wem/bandit_either","APGX2WZ59OWDN","either","6","","","","","","","0","0","1","0.1024936548","","0.6","0.4","0.2","0.8","","","","","0.3771764803","0.4871609062","0.3135232579","0.1024936548","","","","","","","76","L","3","","","212","main_expt"
"190","","bandit","291","1594999","0.0-252.0-0.0","38292526","wem/bandit_either","APGX2WZ59OWDN","either","6","","","","","","","0","1","0","","0.1380366818","0.6","0.4","0.2","0.8","0.3935517348","0.4829725273","0.328558382","0.1380366818","","","","","","","","","","","76","L","3","","","213","main_expt"
"337","","bandit","292","1596850","0.0-253.0-0.0","38292526","wem/bandit_either","APGX2WZ59OWDN","either","6","","","","","","","0","0","1","0.1206441992","","0.6","0.4","0.2","0.8","","","","","0.3792377037","0.4742933803","0.3024402918","0.1206441992","","","","","","","76","L","3","","","214","main_expt"
"199","","bandit","293","1598562","0.0-254.0-0.0","38292526","wem/bandit_either","APGX2WZ59OWDN","either","6","","","","","","","0","0","1","0.1320715796","","0.6","0.4","0.2","0.8","","","","","0.3364308411","0.4754417465","0.3024001881","0.1320715796","","","","","","","76","L","3","","","215","main_expt"
"295","","bandit","294","1600368","0.0-255.0-0.0","38292526","wem/bandit_either","APGX2WZ59OWDN","either","6","","","","","","","0","0","1","","0.1152906885","0.6","0.4","0.2","0.8","0.3348871659","0.4764866221","0.2975117226","0.1152906885","","","","","","","","","","","76","L","3","","","216","main_expt"
"312","","bandit","295","1602193","0.0-256.0-0.0","38292526","wem/bandit_either","APGX2WZ59OWDN","either","6","","","","","","","0","0","1","","0.321293363","0.6","0.4","0.2","0.8","0.321293363","0.4727866334","0.3331298207","0.1191406027","","","","","","","","","","","72","H","0","img/none_selected.jpg","","217","main_expt"
"135","","bandit","296","1603844","0.0-257.0-0.0","38292526","wem/bandit_either","APGX2WZ59OWDN","either","6","","","","","","","0","0","1","","0.4664653133","0.6","0.4","0.2","0.8","0.3530973922","0.4664653133","0.2905667849","0.1177717736","","","","","","","","","","","74","J","1","","","218","main_expt"
"132","","bandit","297","1605489","0.0-258.0-0.0","38292526","wem/bandit_either","APGX2WZ59OWDN","either","6","","","","","","","0","0","1","0.2701708387","","0.6","0.4","0.2","0.8","","","","","0.3837093308","0.4636837267","0.2701708387","0.1178729669","","","","","","","75","K","2","","","219","main_expt"
"126","","bandit","298","1607131","0.0-259.0-0.0","38292526","wem/bandit_either","APGX2WZ59OWDN","either","6","","","","","","","0","0","1","0.1284790336","","0.6","0.4","0.2","0.8","","","","","0.3651541458","0.4599900571","0.2395453957","0.1284790336","","","","","","","76","L","3","","","220","main_expt"
"237","","bandit","299","1608883","0.0-260.0-0.0","38292526","wem/bandit_either","APGX2WZ59OWDN","either","6","","","","","","","0","1","0","","0.254085412","0.6","0.4","0.2","0.8","0.254085412","0.4490722186","0.2770622605","0.147465279","","","","","","","","","","","72","H","0","img/none_selected.jpg","","221","main_expt"
"109","","bandit","300","1610506","0.0-261.0-0.0","38292526","wem/bandit_either","APGX2WZ59OWDN","either","6","","","","","","","0","0","1","0.2590796483","","0.6","0.4","0.2","0.8","","","","","0.2590796483","0.4253353094","0.3390746663","0.1441925756","","","","","","","72","H","0","img/none_selected.jpg","","222","main_expt"
"149","","bandit","301","1612170","0.0-262.0-0.0","38292526","wem/bandit_either","APGX2WZ59OWDN","either","6","","","","","","","1","0","0","0.2640852941","","0.6","0.4","0.2","0.8","","","","","0.2640852941","0.4559825987","0.384843876","0.1731110736","","","","","","","72","H","0","img/none_selected.jpg","","223","main_expt"
"278","","bandit","302","1613962","0.0-263.0-0.0","38292526","wem/bandit_either","APGX2WZ59OWDN","either","6","","","","","","","0","0","1","","0.2636590797","0.6","0.4","0.2","0.8","0.2636590797","0.464560515","0.4367619307","0.1124600034","","","","","","","","","","","72","H","0","img/none_selected.jpg","","224","main_expt"
"93","","bandit","303","1615570","0.0-264.0-0.0","38292526","wem/bandit_either","APGX2WZ59OWDN","either","6","","","","","","","0","1","0","","0.3110444069","0.6","0.4","0.2","0.8","0.3110444069","0.4528378766","0.42055701","0.1174510337","","","","","","","","","","","72","H","0","img/none_selected.jpg","","225","main_expt"
"277","","bandit","304","1617363","0.0-265.0-0.0","38292526","wem/bandit_either","APGX2WZ59OWDN","either","6","","","","","","","1","0","0","0.3268768972","","0.6","0.4","0.2","0.8","","","","","0.3268768972","0.4585160156","0.4282593698","0.1494320736","","","","","","","72","H","0","img/none_selected.jpg","","226","main_expt"
"228","","bandit","305","1619105","0.0-266.0-0.0","38292526","wem/bandit_either","APGX2WZ59OWDN","either","6","","","","","","","0","0","1","0.3112991039","","0.6","0.4","0.2","0.8","","","","","0.3112991039","0.4525914875","0.4213985596","0.1655037845","","","","","","","72","H","0","img/none_selected.jpg","","227","main_expt"
"894","","bandit","306","1621514","0.0-267.0-0.0","38292526","wem/bandit_either","APGX2WZ59OWDN","either","6","","","","","","","0","0","1","","0.3481066565","0.6","0.4","0.2","0.8","0.3481066565","0.4618810074","0.4115599459","0.1595877114","","","","","","","","","","","72","H","0","img/none_selected.jpg","","228","main_expt"
"411","","bandit","307","1623441","0.0-268.0-0.0","38292526","wem/bandit_either","APGX2WZ59OWDN","either","6","","","","","","","0","0","1","","0.3267856819","0.6","0.4","0.2","0.8","0.3267856819","0.4661541784","0.375967734","0.1811982871","","","","","","","","","","","72","H","0","img/none_selected.jpg","","229","main_expt"
"101","","bandit","308","1625058","0.0-269.0-0.0","38292526","wem/bandit_either","APGX2WZ59OWDN","either","6","","","","","","","0","0","1","0.3043034776","","0.6","0.4","0.2","0.8","","","","","0.3043034776","0.4681373403","0.4172813036","0.2088208598","","","","","","","72","H","0","img/none_selected.jpg","","230","main_expt"
"348","","bandit","309","1626920","0.0-270.0-0.0","38292526","wem/bandit_either","APGX2WZ59OWDN","either","6","","","","","","","1","0","0","0.4733838814","","0.6","0.4","0.2","0.8","","","","","0.3127123154","0.4733838814","0.3871641603","0.2062946352","","","","","","","74","J","1","","","231","main_expt"
"239","","bandit","310","1628671","0.0-271.0-0.0","38292526","wem/bandit_either","APGX2WZ59OWDN","either","6","","","","","","","0","1","0","","0.455942125","0.6","0.4","0.2","0.8","0.3039198066","0.455942125","0.3381606844","0.1448621505","","","","","","","","","","","74","J","1","","","232","main_expt"
"488","","bandit","311","1630674","0.0-272.0-0.0","38292526","wem/bandit_either","APGX2WZ59OWDN","either","6","","","","","","","0","0","1","0.4523014459","","0.6","0.4","0.2","0.8","","","","","0.2846072758","0.4523014459","0.2918198365","0.1096360744","","","","","","","74","J","1","","","233","main_expt"
"332","","bandit","312","1632520","0.0-273.0-0.0","38292526","wem/bandit_either","APGX2WZ59OWDN","either","6","","","","","","","0","1","0","","0.4715877437","0.6","0.4","0.2","0.8","0.2430061478","0.4715877437","0.3016980071","0.1102272527","","","","","","","","","","","74","J","1","","","234","main_expt"
"791","","bandit","313","1634825","0.0-274.0-0.0","38292526","wem/bandit_either","APGX2WZ59OWDN","either","6","","","","","","","0","1","0","","0.4667146267","0.6","0.4","0.2","0.8","0.263037213","0.4667146267","0.2940059945","0.1428859574","","","","","","","","","","","74","J","1","","","235","main_expt"
"549","","bandit","314","1636891","0.0-275.0-0.0","38292526","wem/bandit_either","APGX2WZ59OWDN","either","6","","","","","","","0","1","0","","0.4638430617","0.6","0.4","0.2","0.8","0.2976510001","0.4638430617","0.2926833733","0.1659437887","","","","","","","","","","","74","J","1","","","236","main_expt"
"507","","bandit","315","1638911","0.0-276.0-0.0","38292526","wem/bandit_either","APGX2WZ59OWDN","either","6","","","","","","","0","0","1","","0.4584702359","0.6","0.4","0.2","0.8","0.2789990486","0.4584702359","0.278351659","0.1948695303","","","","","","","","","","","74","J","1","","","237","main_expt"
"391","","bandit","316","1640815","0.0-277.0-0.0","38292526","wem/bandit_either","APGX2WZ59OWDN","either","6","","","","","","","0","0","1","","0.4297714473","0.6","0.4","0.2","0.8","0.2760904485","0.4297714473","0.2475781625","0.2231382717","","","","","","","","","","","74","J","1","","","238","main_expt"
"798","","bandit","317","1643131","0.0-278.0-0.0","38292526","wem/bandit_either","APGX2WZ59OWDN","either","6","","","","","","","0","0","1","","0.2476463542","0.6","0.4","0.2","0.8","0.2679201555","0.4225482751","0.2476463542","0.2118273477","","","","","","","","","","","75","K","2","","","239","main_expt"
"243","","bandit","318","1644892","0.0-279.0-0.0","38292526","wem/bandit_either","APGX2WZ59OWDN","either","6","","","","","","","1","0","0","0.175879666","","0.6","0.4","0.2","0.8","","","","","0.1815101208","0.3911766626","0.2691810592","0.175879666","","","","","","","76","L","3","","","240","main_expt"
"528","","bandit","319","1646937","0.0-280.0-0.0","38292526","wem/bandit_either","APGX2WZ59OWDN","either","6","","","","","","","0","0","1","","0.2619723004","0.6","0.4","0.2","0.8","0.2107278188","0.3576719612","0.2600118225","0.2619723004","","","","","","","","","","","76","L","3","","","241","main_expt"
"381","","bandit","320","1648830","0.0-281.0-0.0","38292526","wem/bandit_either","APGX2WZ59OWDN","either","6","","","","","","","0","0","1","0.253357122","","0.6","0.4","0.2","0.8","","","","","0.1890457695","0.3649942216","0.2585740571","0.253357122","","","","","","","76","L","3","","","242","main_expt"
"552","","bandit","321","1650899","0.0-282.0-0.0","38292526","wem/bandit_either","APGX2WZ59OWDN","either","6","","","","","","","0","0","1","0.1983598585","","0.6","0.4","0.2","0.8","","","","","0.1983598585","0.3462843793","0.1943885749","0.2937411872","","","","","","","72","H","0","img/none_selected.jpg","","243","main_expt"
"282","","bandit","322","1652697","0.0-283.0-0.0","38292526","wem/bandit_either","APGX2WZ59OWDN","either","6","","","","","","","0","0","1","","0.3520149162","0.6","0.4","0.2","0.8","0.2165838592","0.3520149162","0.1861062248","0.2743784529","","","","","","","","","","","74","J","1","","","244","main_expt"
"131","","bandit","323","1654346","0.0-284.0-0.0","38292526","wem/bandit_either","APGX2WZ59OWDN","either","6","","","","","","","0","0","1","","0.1398782291","0.6","0.4","0.2","0.8","0.1823109088","0.3483485742","0.1398782291","0.2734657034","","","","","","","","","","","75","K","2","","","245","main_expt"
"156","","bandit","324","1656017","0.0-285.0-0.0","38292526","wem/bandit_either","APGX2WZ59OWDN","either","6","","","","","","","0","0","1","0.2285423815","","0.6","0.4","0.2","0.8","","","","","0.172760958","0.3814570076","0.1392076576","0.2285423815","","","","","","","76","L","3","","","246","main_expt"
"3","","bandit","325","1657533","0.0-286.0-0.0","38292526","wem/bandit_either","APGX2WZ59OWDN","either","6","","","","","","","0","0","1","0.1955602127","","0.6","0.4","0.2","0.8","","","","","0.1955602127","0.3871035364","0.2028121248","0.269943793","","","","","","","72","H","0","img/none_selected.jpg","","247","main_expt"
"119","","bandit","326","1659169","0.0-287.0-0.0","38292526","wem/bandit_either","APGX2WZ59OWDN","either","6","","","","","","","1","0","0","0.3746835134","","0.6","0.4","0.2","0.8","","","","","0.1770790361","0.3746835134","0.2522392451","0.2974302923","","","","","","","74","J","1","","","248","main_expt"
"139","","bandit","327","1660824","0.0-288.0-0.0","38292526","wem/bandit_either","APGX2WZ59OWDN","either","6","","","","","","","0","0","1","0.3787028279","","0.6","0.4","0.2","0.8","","","","","0.1884848562","0.3787028279","0.234975876","0.2667415426","","","","","","","74","J","1","","","249","main_expt"
"181","","bandit","328","1662518","0.0-289.0-0.0","38292526","wem/bandit_either","APGX2WZ59OWDN","either","6","","","","","","","1","0","0","0.3475116331","","0.6","0.4","0.2","0.8","","","","","0.2314514176","0.3475116331","0.2388523745","0.3302420342","","","","","","","74","J","1","","","250","main_expt"
