"rt","responses","trial_type","trial_index","time_elapsed","internal_node_id","subjID","study","MID","cond","drift","key_press","expt_phase","target","like","value","connected","respCharCode","respKey","respChoiceNum","respChoice","gems","bombs","no_reward","GemPrChosen","BombPrChosen","practice","trial_counter","WinPr_0","LosePr_0","trial_label","GainOverPainPr_0","WinPr_1","GainOverPainPr_1","LosePr_1","WinPr_2","GainOverPainPr_2","WinPr_3","GainOverPainPr_3","LosePr_2","LosePr_3","Q0","Q1","Q2","gender","age","ethnicity"
"2717","{""Q0"":""A3963FCT1PKKOH""}","survey-text","0","2730","0.0-0.0","38985709","wem/bandit_either","A3963FCT1PKKOH","either","8","","","","","","","","","","","","","","","","","","","","","","","","","","","","","","","","","","","",""
"1538","","text","1","5272","0.0-1.0","38985709","wem/bandit_either","A3963FCT1PKKOH","either","8","32","","","","","","","","","","","","","","","","","","","","","","","","","","","","","","","","","","",""
"195","","text","2","5470","0.0-2.0","38985709","wem/bandit_either","A3963FCT1PKKOH","either","8","32","","","","","","","","","","","","","","","","","","","","","","","","","","","","","","","","","","",""
"450","","text","3","5922","0.0-3.0","38985709","wem/bandit_either","A3963FCT1PKKOH","either","8","32","","","","","","","","","","","","","","","","","","","","","","","","","","","","","","","","","","",""
"274","","text","4","6197","0.0-4.0","38985709","wem/bandit_either","A3963FCT1PKKOH","either","8","32","","","","","","","","","","","","","","","","","","","","","","","","","","","","","","","","","","",""
"235","","text","5","6435","0.0-5.0","38985709","wem/bandit_either","A3963FCT1PKKOH","either","8","32","","","","","","","","","","","","","","","","","","","","","","","","","","","","","","","","","","",""
"266","","text","6","6702","0.0-6.0","38985709","wem/bandit_either","A3963FCT1PKKOH","either","8","32","","","","","","","","","","","","","","","","","","","","","","","","","","","","","","","","","","",""
"307","","text","7","7011","0.0-7.0","38985709","wem/bandit_either","A3963FCT1PKKOH","either","8","32","","","","","","","","","","","","","","","","","","","","","","","","","","","","","","","","","","",""
"3135","","identification","8","10185","0.0-8.0-0.0","38985709","wem/bandit_either","A3963FCT1PKKOH","either","8","","identification_pre","the village of Zur","2","2","2","","","","","","","","","","","","","","","","","","","","","","","","","","","","","",""
"2806","","identification","9","14035","0.0-8.0-1.0","38985709","wem/bandit_either","A3963FCT1PKKOH","either","8","","identification_pre","the village of Nyx","3","4","4","","","","","","","","","","","","","","","","","","","","","","","","","","","","","",""
"950","","text","10","15990","0.0-9.0","38985709","wem/bandit_either","A3963FCT1PKKOH","either","8","32","","","","","","","","","","","","","","","","","","","","","","","","","","","","","","","","","","",""
"429","","text","11","16421","0.0-10.0","38985709","wem/bandit_either","A3963FCT1PKKOH","either","8","32","","","","","","","","","","","","","","","","","","","","","","","","","","","","","","","","","","",""
"339","","text","12","16764","0.0-11.0","38985709","wem/bandit_either","A3963FCT1PKKOH","either","8","32","","","","","","","","","","","","","","","","","","","","","","","","","","","","","","","","","","",""
"301","","text","13","17067","0.0-12.0","38985709","wem/bandit_either","A3963FCT1PKKOH","either","8","32","","","","","","","","","","","","","","","","","","","","","","","","","","","","","","","","","","",""
"3205","","bandit","14","21911","0.0-13.0-0.0","38985709","wem/bandit_either","A3963FCT1PKKOH","either","8","","","","","","","74","J","0","img/none_selected_demo.jpg","0","0","1","0","0","true","0","0","0","","","","","","","","","","","","","","","","",""
"3602","","bandit","15","27034","0.0-14.0-0.0","38985709","wem/bandit_either","A3963FCT1PKKOH","either","8","","","","","","","75","K","0","img/none_selected_demo.jpg","0","0","1","0","0","true","0","0","0","","","","","","","","","","","","","","","","",""
"1482","","text","16","28524","0.0-15.0","38985709","wem/bandit_either","A3963FCT1PKKOH","either","8","32","","","","","","","","","","","","","","","","","","","","","","","","","","","","","","","","","","",""
"403","","text","17","28931","0.0-16.0","38985709","wem/bandit_either","A3963FCT1PKKOH","either","8","32","","","","","","","","","","","","","","","","","","","","","","","","","","","","","","","","","","",""
"266","","text","18","29201","0.0-17.0","38985709","wem/bandit_either","A3963FCT1PKKOH","either","8","32","","","","","","","","","","","","","","","","","","","","","","","","","","","","","","","","","","",""
"301","","text","19","29504","0.0-18.0","38985709","wem/bandit_either","A3963FCT1PKKOH","either","8","32","","","","","","","","","","","","","","","","","","","","","","","","","","","","","","","","","","",""
"2501","","bandit","20","33521","0.0-19.0-0.0","38985709","wem/bandit_either","A3963FCT1PKKOH","either","8","","","","","","","74","J","0","img/none_selected_demo.jpg","1","0","0","0.8","","true","0","0.8","","80_20_practice","0.5","0.2","0.5","","","","","","","","","","","","",""
"983","","bandit","21","36066","0.0-19.0-1.0","38985709","wem/bandit_either","A3963FCT1PKKOH","either","8","","","","","","","75","K","1","","0","1","0","","0.2","true","0","","0.8","80_20_practice","0.5","","0.5","0.2","","","","","","","","","","","",""
"70","","bandit","22","37651","0.0-19.0-2.0","38985709","wem/bandit_either","A3963FCT1PKKOH","either","8","","","","","","","75","K","1","","0","0","1","","0.2","true","0","","0.8","80_20_practice","0.5","","0.5","0.2","","","","","","","","","","","",""
"223","","bandit","23","39388","0.0-19.0-3.0","38985709","wem/bandit_either","A3963FCT1PKKOH","either","8","","","","","","","75","K","1","","1","0","0","0.2","","true","0","0.8","","80_20_practice","0.5","0.2","0.5","","","","","","","","","","","","",""
"10","","bandit","24","40912","0.0-19.0-4.0","38985709","wem/bandit_either","A3963FCT1PKKOH","either","8","","","","","","","75","K","1","","0","0","1","","0.2","true","0","","0.8","80_20_practice","0.5","","0.5","0.2","","","","","","","","","","","",""
"65","","bandit","25","42492","0.0-19.0-5.0","38985709","wem/bandit_either","A3963FCT1PKKOH","either","8","","","","","","","75","K","1","","0","0","1","0.2","","true","0","0.8","","80_20_practice","0.5","0.2","0.5","","","","","","","","","","","","",""
"904","","bandit","26","44911","0.0-19.0-6.0","38985709","wem/bandit_either","A3963FCT1PKKOH","either","8","","","","","","","75","K","1","","0","0","1","","0.2","true","0","","0.8","80_20_practice","0.5","","0.5","0.2","","","","","","","","","","","",""
"2851","","bandit","27","49274","0.0-19.0-7.0","38985709","wem/bandit_either","A3963FCT1PKKOH","either","8","","","","","","","75","K","1","","0","0","1","0.2","","true","0","0.8","","80_20_practice","0.5","0.2","0.5","","","","","","","","","","","","",""
"689","","bandit","28","51474","0.0-19.0-8.0","38985709","wem/bandit_either","A3963FCT1PKKOH","either","8","","","","","","","75","K","1","","1","0","0","0.2","","true","0","0.8","","80_20_practice","0.5","0.2","0.5","","","","","","","","","","","","",""
"5588","","bandit","29","58638","0.0-19.0-9.0","38985709","wem/bandit_either","A3963FCT1PKKOH","either","8","","","","","","","75","K","1","","0","0","1","0.2","","true","0","0.8","","80_20_practice","0.5","0.2","0.5","","","","","","","","","","","","",""
"228","","bandit","30","60458","0.0-19.0-10.0","38985709","wem/bandit_either","A3963FCT1PKKOH","either","8","","","","","","","75","K","1","","0","0","1","0.2","","true","0","0.8","","80_20_practice","0.5","0.2","0.5","","","","","","","","","","","","",""
"31","","bandit","31","62006","0.0-19.0-11.0","38985709","wem/bandit_either","A3963FCT1PKKOH","either","8","","","","","","","75","K","1","","0","0","1","0.2","","true","0","0.8","","80_20_practice","0.5","0.2","0.5","","","","","","","","","","","","",""
"1471","","bandit","32","64999","0.0-19.0-12.0","38985709","wem/bandit_either","A3963FCT1PKKOH","either","8","","","","","","","75","K","1","","0","0","1","0.2","","true","0","0.8","","80_20_practice","0.5","0.2","0.5","","","","","","","","","","","","",""
"615","","bandit","33","67189","0.0-19.0-13.0","38985709","wem/bandit_either","A3963FCT1PKKOH","either","8","","","","","","","75","K","1","","0","0","1","0.2","","true","0","0.8","","80_20_practice","0.5","0.2","0.5","","","","","","","","","","","","",""
"214","","bandit","34","68918","0.0-19.0-14.0","38985709","wem/bandit_either","A3963FCT1PKKOH","either","8","","","","","","","75","K","1","","0","0","1","0.2","","true","0","0.8","","80_20_practice","0.5","0.2","0.5","","","","","","","","","","","","",""
"4934","","bandit","35","75375","0.0-19.0-15.0","38985709","wem/bandit_either","A3963FCT1PKKOH","either","8","","","","","","","75","K","1","","0","0","1","0.2","","true","0","0.8","","80_20_practice","0.5","0.2","0.5","","","","","","","","","","","","",""
"1785","","bandit","36","78679","0.0-19.0-16.0","38985709","wem/bandit_either","A3963FCT1PKKOH","either","8","","","","","","","75","K","1","","0","0","1","0.2","","true","0","0.8","","80_20_practice","0.5","0.2","0.5","","","","","","","","","","","","",""
"19","","bandit","37","80225","0.0-19.0-17.0","38985709","wem/bandit_either","A3963FCT1PKKOH","either","8","","","","","","","75","K","1","","0","0","1","","0.2","true","0","","0.8","80_20_practice","0.5","","0.5","0.2","","","","","","","","","","","",""
"1901","","bandit","38","83641","0.0-19.0-18.0","38985709","wem/bandit_either","A3963FCT1PKKOH","either","8","","","","","","","75","K","1","","0","0","1","0.2","","true","0","0.8","","80_20_practice","0.5","0.2","0.5","","","","","","","","","","","","",""
"2278","","bandit","39","87432","0.0-19.0-19.0","38985709","wem/bandit_either","A3963FCT1PKKOH","either","8","","","","","","","75","K","1","","0","0","1","","0.2","true","0","","0.8","80_20_practice","0.5","","0.5","0.2","","","","","","","","","","","",""
"5670","","text","40","93106","0.0-20.0","38985709","wem/bandit_either","A3963FCT1PKKOH","either","8","32","","","","","","","","","","","","","","","","","","","","","","","","","","","","","","","","","","",""
"855","","bandit","41","95475","0.0-21.0-0.0","38985709","wem/bandit_either","A3963FCT1PKKOH","either","8","","","","","","","75","K","1","","0","1","0","0","1","true","0","1","0","","","0","","1","","","","","","","","","","","",""
"645","","text","42","96123","0.0-22.0","38985709","wem/bandit_either","A3963FCT1PKKOH","either","8","74","","","","","","","","","","","","","","","","","","","","","","","","","","","","","","","","","","",""
"1892","","text","43","98019","0.0-23.0","38985709","wem/bandit_either","A3963FCT1PKKOH","either","8","32","","","","","","","","","","","","","","","","","","","","","","","","","","","","","","","","","","",""
"1535","","text","44","99558","0.0-24.0","38985709","wem/bandit_either","A3963FCT1PKKOH","either","8","32","","","","","","","","","","","","","","","","","","","","","","","","","","","","","","","","","","",""
"231","","text","45","99793","0.0-25.0","38985709","wem/bandit_either","A3963FCT1PKKOH","either","8","32","","","","","","","","","","","","","","","","","","","","","","","","","","","","","","","","","","",""
"119","","text","46","99917","0.0-26.0","38985709","wem/bandit_either","A3963FCT1PKKOH","either","8","32","","","","","","","","","","","","","","","","","","","","","","","","","","","","","","","","","","",""
"176","","text","47","100096","0.0-27.0","38985709","wem/bandit_either","A3963FCT1PKKOH","either","8","32","","","","","","","","","","","","","","","","","","","","","","","","","","","","","","","","","","",""
"174","","text","48","100273","0.0-28.0","38985709","wem/bandit_either","A3963FCT1PKKOH","either","8","32","","","","","","","","","","","","","","","","","","","","","","","","","","","","","","","","","","",""
"174","","text","49","100453","0.0-29.0","38985709","wem/bandit_either","A3963FCT1PKKOH","either","8","32","","","","","","","","","","","","","","","","","","","","","","","","","","","","","","","","","","",""
"190","","text","50","100645","0.0-30.0","38985709","wem/bandit_either","A3963FCT1PKKOH","either","8","32","","","","","","","","","","","","","","","","","","","","","","","","","","","","","","","","","","",""
"190","","text","51","100838","0.0-31.0","38985709","wem/bandit_either","A3963FCT1PKKOH","either","8","32","","","","","","","","","","","","","","","","","","","","","","","","","","","","","","","","","","",""
"209","","text","52","101050","0.0-32.0","38985709","wem/bandit_either","A3963FCT1PKKOH","either","8","32","","","","","","","","","","","","","","","","","","","","","","","","","","","","","","","","","","",""
"1487","","bandit","53","104055","0.0-33.0-0.0","38985709","wem/bandit_either","A3963FCT1PKKOH","either","8","","","","","","","72","H","0","img/none_selected.jpg","1","0","0","0.8","","true","0","0.8","","full_practice","0.5","0.2","0.5","","0.6","0.5","0.2","0.5","","","","","","","",""
"568","","bandit","54","106155","0.0-33.0-1.0","38985709","wem/bandit_either","A3963FCT1PKKOH","either","8","","","","","","","75","K","2","","0","0","1","0.6","","true","0","0.8","","full_practice","0.5","0.2","0.5","","0.6","0.5","0.2","0.5","","","","","","","",""
"966","","bandit","55","108635","0.0-33.0-2.0","38985709","wem/bandit_either","A3963FCT1PKKOH","either","8","","","","","","","74","J","1","","0","0","1","","0.2","true","0","","0.8","full_practice","0.5","","0.5","0.2","","0.5","","0.5","0.6","0.2","","","","","",""
"8","","bandit","56","110158","0.0-33.0-3.0","38985709","wem/bandit_either","A3963FCT1PKKOH","either","8","","","","","","","76","L","3","","0","0","1","0.2","","true","0","0.8","","full_practice","0.5","0.2","0.5","","0.6","0.5","0.2","0.5","","","","","","","",""
"919","","bandit","57","112591","0.0-33.0-4.0","38985709","wem/bandit_either","A3963FCT1PKKOH","either","8","","","","","","","76","L","3","","0","1","0","","0.2","true","0","","0.8","full_practice","0.5","","0.5","0.2","","0.5","","0.5","0.6","0.2","","","","","",""
"319","","bandit","58","114425","0.0-33.0-5.0","38985709","wem/bandit_either","A3963FCT1PKKOH","either","8","","","","","","","75","K","2","","0","0","1","","0.6","true","0","","0.8","full_practice","0.5","","0.5","0.2","","0.5","","0.5","0.6","0.2","","","","","",""
"438","","bandit","59","116380","0.0-33.0-6.0","38985709","wem/bandit_either","A3963FCT1PKKOH","either","8","","","","","","","75","K","2","","0","1","0","","0.6","true","0","","0.8","full_practice","0.5","","0.5","0.2","","0.5","","0.5","0.6","0.2","","","","","",""
"259","","bandit","60","118150","0.0-33.0-7.0","38985709","wem/bandit_either","A3963FCT1PKKOH","either","8","","","","","","","75","K","2","","0","0","1","0.6","","true","0","0.8","","full_practice","0.5","0.2","0.5","","0.6","0.5","0.2","0.5","","","","","","","",""
"214","","bandit","61","119877","0.0-33.0-8.0","38985709","wem/bandit_either","A3963FCT1PKKOH","either","8","","","","","","","75","K","2","","0","0","1","0.6","","true","0","0.8","","full_practice","0.5","0.2","0.5","","0.6","0.5","0.2","0.5","","","","","","","",""
"226","","bandit","62","121618","0.0-33.0-9.0","38985709","wem/bandit_either","A3963FCT1PKKOH","either","8","","","","","","","74","J","1","","0","0","1","","0.2","true","0","","0.8","full_practice","0.5","","0.5","0.2","","0.5","","0.5","0.6","0.2","","","","","",""
"18","","bandit","63","123154","0.0-33.0-10.0","38985709","wem/bandit_either","A3963FCT1PKKOH","either","8","","","","","","","75","K","2","","0","1","0","","0.6","true","0","","0.8","full_practice","0.5","","0.5","0.2","","0.5","","0.5","0.6","0.2","","","","","",""
"75","","bandit","64","124750","0.0-33.0-11.0","38985709","wem/bandit_either","A3963FCT1PKKOH","either","8","","","","","","","72","H","0","img/none_selected.jpg","0","0","1","0.8","","true","0","0.8","","full_practice","0.5","0.2","0.5","","0.6","0.5","0.2","0.5","","","","","","","",""
"168","","bandit","65","126493","0.0-33.0-12.0","38985709","wem/bandit_either","A3963FCT1PKKOH","either","8","","","","","","","72","H","0","img/none_selected.jpg","1","0","0","0.8","","true","0","0.8","","full_practice","0.5","0.2","0.5","","0.6","0.5","0.2","0.5","","","","","","","",""
"245","","bandit","66","128254","0.0-33.0-13.0","38985709","wem/bandit_either","A3963FCT1PKKOH","either","8","","","","","","","72","H","0","img/none_selected.jpg","1","0","0","0.8","","true","0","0.8","","full_practice","0.5","0.2","0.5","","0.6","0.5","0.2","0.5","","","","","","","",""
"143","","bandit","67","129915","0.0-33.0-14.0","38985709","wem/bandit_either","A3963FCT1PKKOH","either","8","","","","","","","72","H","0","img/none_selected.jpg","1","0","0","0.8","","true","0","0.8","","full_practice","0.5","0.2","0.5","","0.6","0.5","0.2","0.5","","","","","","","",""
"310","","bandit","68","131745","0.0-33.0-15.0","38985709","wem/bandit_either","A3963FCT1PKKOH","either","8","","","","","","","72","H","0","img/none_selected.jpg","1","0","0","0.8","","true","0","0.8","","full_practice","0.5","0.2","0.5","","0.6","0.5","0.2","0.5","","","","","","","",""
"3694","","bandit","69","136961","0.0-33.0-16.0","38985709","wem/bandit_either","A3963FCT1PKKOH","either","8","","","","","","","72","H","0","img/none_selected.jpg","0","0","1","","0.8","true","0","","0.8","full_practice","0.5","","0.5","0.2","","0.5","","0.5","0.6","0.2","","","","","",""
"160","","bandit","70","138643","0.0-33.0-17.0","38985709","wem/bandit_either","A3963FCT1PKKOH","either","8","","","","","","","72","H","0","img/none_selected.jpg","1","0","0","0.8","","true","0","0.8","","full_practice","0.5","0.2","0.5","","0.6","0.5","0.2","0.5","","","","","","","",""
"3","","bandit","71","140164","0.0-33.0-18.0","38985709","wem/bandit_either","A3963FCT1PKKOH","either","8","","","","","","","72","H","0","img/none_selected.jpg","0","1","0","","0.8","true","0","","0.8","full_practice","0.5","","0.5","0.2","","0.5","","0.5","0.6","0.2","","","","","",""
"569","","bandit","72","142250","0.0-33.0-19.0","38985709","wem/bandit_either","A3963FCT1PKKOH","either","8","","","","","","","75","K","2","","0","0","1","","0.6","true","0","","0.8","full_practice","0.5","","0.5","0.2","","0.5","","0.5","0.6","0.2","","","","","",""
"2557","","text","73","144824","0.0-34.0","38985709","wem/bandit_either","A3963FCT1PKKOH","either","8","32","","","","","","","","","","","","","","","","","","","","","","","","","","","","","","","","","","",""
"369","","text","74","146205","0.0-35.0","38985709","wem/bandit_either","A3963FCT1PKKOH","either","8","32","","","","","","","","","","","","","","","","","","","","","","","","","","","","","","","","","","",""
"418","","text","75","146629","0.0-36.0","38985709","wem/bandit_either","A3963FCT1PKKOH","either","8","32","","","","","","","","","","","","","","","","","","","","","","","","","","","","","","","","","","",""
"408","","text","76","147041","0.0-37.0","38985709","wem/bandit_either","A3963FCT1PKKOH","either","8","32","","","","","","","","","","","","","","","","","","","","","","","","","","","","","","","","","","",""
"387","","text","77","147435","0.0-38.0","38985709","wem/bandit_either","A3963FCT1PKKOH","either","8","32","","","","","","","","","","","","","","","","","","","","","","","","","","","","","","","","","","",""
"383","","text","78","147828","0.0-39.0","38985709","wem/bandit_either","A3963FCT1PKKOH","either","8","32","","","","","","","","","","","","","","","","","","","","","","","","","","","","","","","","","","",""
"1235","","bandit","79","150589","0.0-40.0-0.0","38985709","wem/bandit_either","A3963FCT1PKKOH","either","8","","","","","","","72","H","0","img/none_selected.jpg","0","0","1","","0.3540548627","","1","","0.3540548627","main_expt","0.4","","0.6","0.2928194041","","0.2","","0.8","0.2637293772","0.1351790469","","","","","",""
"283","","bandit","80","152398","0.0-41.0-0.0","38985709","wem/bandit_either","A3963FCT1PKKOH","either","8","","","","","","","72","H","0","img/none_selected.jpg","0","0","1","0.3812516843","","","2","0.3812516843","","main_expt","0.4","0.3040419902","0.6","","0.2760013096","0.2","0.125602744","0.8","","","","","","","",""
"5","","bandit","81","153922","0.0-42.0-0.0","38985709","wem/bandit_either","A3963FCT1PKKOH","either","8","","","","","","","74","J","1","","1","0","0","0.2875251023","","","3","0.3901316494","","main_expt","0.4","0.2875251023","0.6","","0.3240499928","0.2","0.09574082279","0.8","","","","","","","",""
"349","","bandit","82","155824","0.0-43.0-0.0","38985709","wem/bandit_either","A3963FCT1PKKOH","either","8","","","","","","","74","J","1","","1","0","0","0.2965567903","","","4","0.3945399471","","main_expt","0.4","0.2965567903","0.6","","0.3510822359","0.2","0.0913382225","0.8","","","","","","","",""
"103","","bandit","83","157439","0.0-44.0-0.0","38985709","wem/bandit_either","A3963FCT1PKKOH","either","8","","","","","","","75","K","2","","1","0","0","0.3522827721","","","5","0.3997977613","","main_expt","0.4","0.2681113314","0.6","","0.3522827721","0.2","0.106177601","0.8","","","","","","","",""
"73","","bandit","84","159026","0.0-45.0-0.0","38985709","wem/bandit_either","A3963FCT1PKKOH","either","8","","","","","","","74","J","1","","0","0","1","","0.2330443498","","6","","0.390783501","main_expt","0.4","","0.6","0.2330443498","","0.2","","0.8","0.382674005","0.08998955495","","","","","",""
"267","","bandit","85","160806","0.0-46.0-0.0","38985709","wem/bandit_either","A3963FCT1PKKOH","either","8","","","","","","","74","J","1","","1","0","0","0.1630509172","","","7","0.3305693427","","main_expt","0.4","0.1630509172","0.6","","0.3998463606","0.2","0.1077526668","0.8","","","","","","","",""
"884","","bandit","86","163207","0.0-47.0-0.0","38985709","wem/bandit_either","A3963FCT1PKKOH","either","8","","","","","","","72","H","0","img/none_selected.jpg","0","0","1","","0.3056545716","","8","","0.3056545716","main_expt","0.4","","0.6","0.2002468685","","0.2","","0.8","0.3832029687","0.1243697388","","","","","",""
"6737","","bandit","87","171479","0.0-48.0-0.0","38985709","wem/bandit_either","A3963FCT1PKKOH","either","8","","","","","","","74","J","1","","0","0","1","0.1835034381","","","9","0.3278889804","","main_expt","0.4","0.1835034381","0.6","","0.3796681134","0.2","0.1698108096","0.8","","","","","","","",""
"125","","bandit","88","173189","0.0-49.0-0.0","38985709","wem/bandit_either","A3963FCT1PKKOH","either","8","","","","","","","74","J","1","","0","0","1","0.1939723001","","","10","0.3137855556","","main_expt","0.4","0.1939723001","0.6","","0.3614311416","0.2","0.221757114","0.8","","","","","","","",""
"203","","bandit","89","174918","0.0-50.0-0.0","38985709","wem/bandit_either","A3963FCT1PKKOH","either","8","","","","","","","75","K","2","","0","0","1","","0.3938737051","","11","","0.3253079181","main_expt","0.4","","0.6","0.1949806013","","0.2","","0.8","0.3938737051","0.1961062924","","","","","",""
"244","","bandit","90","176682","0.0-51.0-0.0","38985709","wem/bandit_either","A3963FCT1PKKOH","either","8","","","","","","","76","L","3","","0","0","1","","0.1907056259","","12","","0.3298150516","main_expt","0.4","","0.6","0.2587943474","","0.2","","0.8","0.3810544723","0.1907056259","","","","","",""
"201","","bandit","91","178401","0.0-52.0-0.0","38985709","wem/bandit_either","A3963FCT1PKKOH","either","8","","","","","","","76","L","3","","1","0","0","0.2162865666","","","13","0.3673307406","","main_expt","0.4","0.3085985727","0.6","","0.3707046684","0.2","0.2162865666","0.8","","","","","","","",""
"20","","bandit","92","179947","0.0-53.0-0.0","38985709","wem/bandit_either","A3963FCT1PKKOH","either","8","","","","","","","76","L","3","","0","0","1","0.2399362825","","","14","0.3679224674","","main_expt","0.4","0.2464992766","0.6","","0.3486531997","0.2","0.2399362825","0.8","","","","","","","",""
"111","","bandit","93","181580","0.0-54.0-0.0","38985709","wem/bandit_either","A3963FCT1PKKOH","either","8","","","","","","","75","K","2","","0","1","0","","0.3263578384","","15","","0.3062507314","main_expt","0.4","","0.6","0.2474611475","","0.2","","0.8","0.3263578384","0.1986859052","","","","","",""
"20","","bandit","94","183118","0.0-55.0-0.0","38985709","wem/bandit_either","A3963FCT1PKKOH","either","8","","","","","","","75","K","2","","0","0","1","","0.3514189979","","16","","0.2892976033","main_expt","0.4","","0.6","0.2835538477","","0.2","","0.8","0.3514189979","0.1865641621","","","","","",""
"21","","bandit","95","184718","0.0-56.0-0.0","38985709","wem/bandit_either","A3963FCT1PKKOH","either","8","","","","","","","76","L","3","","0","0","1","0.2035525071","","","17","0.2861796528","","main_expt","0.4","0.3256112075","0.6","","0.3532592314","0.2","0.2035525071","0.8","","","","","","","",""
"188","","bandit","96","186477","0.0-57.0-0.0","38985709","wem/bandit_either","A3963FCT1PKKOH","either","8","","","","","","","72","H","0","img/none_selected.jpg","0","1","0","","0.2958570682","","18","","0.2958570682","main_expt","0.4","","0.6","0.3802227677","","0.2","","0.8","0.3858608091","0.2039336531","","","","","",""
"393","","bandit","97","188388","0.0-58.0-0.0","38985709","wem/bandit_either","A3963FCT1PKKOH","either","8","","","","","","","72","H","0","img/none_selected.jpg","0","0","1","0.3353028819","","","19","0.3353028819","","main_expt","0.4","0.360566968","0.6","","0.3837638756","0.2","0.1598579642","0.8","","","","","","","",""
"8028","","bandit","98","197966","0.0-59.0-0.0","38985709","wem/bandit_either","A3963FCT1PKKOH","either","8","","","","","","","72","H","0","img/none_selected.jpg","1","0","0","0.3139704528","","","20","0.3139704528","","main_expt","0.4","0.3696799013","0.6","","0.2872100501","0.2","0.1437622327","0.8","","","","","","","",""
"227","","bandit","99","199719","0.0-60.0-0.0","38985709","wem/bandit_either","A3963FCT1PKKOH","either","8","","","","","","","74","J","1","","0","0","1","","0.4006907501","","21","","0.2524707143","main_expt","0.4","","0.6","0.4006907501","","0.2","","0.8","0.2975414498","0.07974703335","","","","","",""
"26","","bandit","100","201267","0.0-61.0-0.0","38985709","wem/bandit_either","A3963FCT1PKKOH","either","8","","","","","","","75","K","2","","0","0","1","0.2741965999","","","22","0.248326021","","main_expt","0.4","0.4081217326","0.6","","0.2741965999","0.2","0.1361132429","0.8","","","","","","","",""
"438","","bandit","101","203224","0.0-62.0-0.0","38985709","wem/bandit_either","A3963FCT1PKKOH","either","8","","","","","","","72","H","0","img/none_selected.jpg","0","0","1","0.2937153481","","","23","0.2937153481","","main_expt","0.4","0.3740207531","0.6","","0.2379064449","0.2","0.1705973249","0.8","","","","","","","",""
"223","","bandit","102","204966","0.0-63.0-0.0","38985709","wem/bandit_either","A3963FCT1PKKOH","either","8","","","","","","","75","K","2","","0","0","1","","0.2078598572","","24","","0.2625315469","main_expt","0.4","","0.6","0.3913756451","","0.2","","0.8","0.2078598572","0.1392759225","","","","","",""
"169","","bandit","103","206658","0.0-64.0-0.0","38985709","wem/bandit_either","A3963FCT1PKKOH","either","8","","","","","","","74","J","1","","0","0","1","","0.4100905738","","25","","0.2405651368","main_expt","0.4","","0.6","0.4100905738","","0.2","","0.8","0.2764850733","0.1800538527","","","","","",""
"67","","bandit","104","208243","0.0-65.0-0.0","38985709","wem/bandit_either","A3963FCT1PKKOH","either","8","","","","","","","75","K","2","","0","0","1","","0.3080191348","","26","","0.2503350336","main_expt","0.4","","0.6","0.3600668969","","0.2","","0.8","0.3080191348","0.2146400533","","","","","",""
"172","","bandit","105","209930","0.0-66.0-0.0","38985709","wem/bandit_either","A3963FCT1PKKOH","either","8","","","","","","","75","K","2","","0","1","0","","0.3606197488","","27","","0.354091838","main_expt","0.4","","0.6","0.3703096079","","0.2","","0.8","0.3606197488","0.1948367851","","","","","",""
"34","","bandit","106","211480","0.0-67.0-0.0","38985709","wem/bandit_either","A3963FCT1PKKOH","either","8","","","","","","","76","L","3","","0","0","1","0.2282666016","","","28","0.3419366675","","main_expt","0.4","0.3527269899","0.6","","0.3696097963","0.2","0.2282666016","0.8","","","","","","","",""
"78","","bandit","107","213072","0.0-68.0-0.0","38985709","wem/bandit_either","A3963FCT1PKKOH","either","8","","","","","","","76","L","3","","0","0","1","0.1842618798","","","29","0.361896517","","main_expt","0.4","0.2854860911","0.6","","0.3434444954","0.2","0.1842618798","0.8","","","","","","","",""
"47","","bandit","108","214633","0.0-69.0-0.0","38985709","wem/bandit_either","A3963FCT1PKKOH","either","8","","","","","","","75","K","2","","0","1","0","","0.3528183973","","30","","0.3701160785","main_expt","0.4","","0.6","0.2971434158","","0.2","","0.8","0.3528183973","0.1930267653","","","","","",""
"43","","bandit","109","216190","0.0-70.0-0.0","38985709","wem/bandit_either","A3963FCT1PKKOH","either","8","","","","","","","75","K","2","","1","0","0","0.3436926249","","","31","0.3602312343","","main_expt","0.4","0.3192935598","0.6","","0.3436926249","0.2","0.2279264959","0.8","","","","","","","",""
"33","","bandit","110","217766","0.0-71.0-0.0","38985709","wem/bandit_either","A3963FCT1PKKOH","either","8","","","","","","","74","J","1","","0","0","1","0.2910845839","","","32","0.3550043818","","main_expt","0.4","0.2910845839","0.6","","0.3392376576","0.2","0.1922668126","0.8","","","","","","","",""
"630","","bandit","111","219915","0.0-72.0-0.0","38985709","wem/bandit_either","A3963FCT1PKKOH","either","8","","","","","","","76","L","3","","0","0","1","0.1503247695","","","33","0.3927862597","","main_expt","0.4","0.2956883229","0.6","","0.2524106513","0.2","0.1503247695","0.8","","","","","","","",""
"612","","bandit","112","222046","0.0-73.0-0.0","38985709","wem/bandit_either","A3963FCT1PKKOH","either","8","","","","","","","76","L","3","","0","0","1","0.1875072744","","","34","0.4185963197","","main_expt","0.4","0.2918182698","0.6","","0.2378308988","0.2","0.1875072744","0.8","","","","","","","",""
"103","","bandit","113","223701","0.0-74.0-0.0","38985709","wem/bandit_either","A3963FCT1PKKOH","either","8","","","","","","","76","L","3","","1","0","0","0.2135507624","","","35","0.441983755","","main_expt","0.4","0.3063909307","0.6","","0.2683654211","0.2","0.2135507624","0.8","","","","","","","",""
"12","","bandit","114","225229","0.0-75.0-0.0","38985709","wem/bandit_either","A3963FCT1PKKOH","either","8","","","","","","","76","L","3","","0","0","1","0.2042402853","","","36","0.4352827683","","main_expt","0.4","0.2820805085","0.6","","0.2645223933","0.2","0.2042402853","0.8","","","","","","","",""
"146","","bandit","115","226899","0.0-76.0-0.0","38985709","wem/bandit_either","A3963FCT1PKKOH","either","8","","","","","","","75","K","2","","0","0","1","","0.2360561858","","37","","0.450520142","main_expt","0.4","","0.6","0.2610370824","","0.2","","0.8","0.2360561858","0.2024605481","","","","","",""
"6","","bandit","116","228427","0.0-77.0-0.0","38985709","wem/bandit_either","A3963FCT1PKKOH","either","8","","","","","","","75","K","2","","0","0","1","","0.2001865083","","38","","0.4681224698","main_expt","0.4","","0.6","0.1896233007","","0.2","","0.8","0.2001865083","0.1677713785","","","","","",""
"40","","bandit","117","229984","0.0-78.0-0.0","38985709","wem/bandit_either","A3963FCT1PKKOH","either","8","","","","","","","75","K","2","","0","1","0","","0.1687915361","","39","","0.4711022053","main_expt","0.4","","0.6","0.168851025","","0.2","","0.8","0.1687915361","0.221779122","","","","","",""
"251","","bandit","118","231753","0.0-79.0-0.0","38985709","wem/bandit_either","A3963FCT1PKKOH","either","8","","","","","","","72","H","0","img/none_selected.jpg","1","0","0","0.4559447699","","","40","0.4559447699","","main_expt","0.4","0.1615787635","0.6","","0.1503151413","0.2","0.2722397218","0.8","","","","","","","",""
"113","","bandit","119","233389","0.0-80.0-0.0","38985709","wem/bandit_either","A3963FCT1PKKOH","either","8","","","","","","","74","J","1","","0","0","1","0.1472326003","","","41","0.4412687596","","main_expt","0.4","0.1472326003","0.6","","0.08168262283","0.2","0.3298230943","0.8","","","","","","","",""
"121","","bandit","120","235035","0.0-81.0-0.0","38985709","wem/bandit_either","A3963FCT1PKKOH","either","8","","","","","","","72","H","0","img/none_selected.jpg","0","1","0","","0.4457751761","","42","","0.4457751761","main_expt","0.4","","0.6","0.1533480506","","0.2","","0.8","0.07668629145","0.3104885444","","","","","",""
"54","","bandit","121","236608","0.0-82.0-0.0","38985709","wem/bandit_either","A3963FCT1PKKOH","either","8","","","","","","","72","H","0","img/none_selected.jpg","0","1","0","","0.4298378352","","43","","0.4298378352","main_expt","0.4","","0.6","0.1414351437","","0.2","","0.8","0.07394587158","0.3005355489","","","","","",""
"193","","bandit","122","238319","0.0-83.0-0.0","38985709","wem/bandit_either","A3963FCT1PKKOH","either","8","","","","","","","74","J","1","","0","0","1","0.1067646429","","","44","0.4416915379","","main_expt","0.4","0.1067646429","0.6","","0.1192337685","0.2","0.2456242138","0.8","","","","","","","",""
"169","","bandit","123","240007","0.0-84.0-0.0","38985709","wem/bandit_either","A3963FCT1PKKOH","either","8","","","","","","","75","K","2","","0","0","1","","0.1285724119","","45","","0.3915522423","main_expt","0.4","","0.6","0.1250796286","","0.2","","0.8","0.1285724119","0.2839901561","","","","","",""
"68","","bandit","124","241600","0.0-85.0-0.0","38985709","wem/bandit_either","A3963FCT1PKKOH","either","8","","","","","","","76","L","3","","0","0","1","","0.2353621531","","46","","0.4318427431","main_expt","0.4","","0.6","0.1927264636","","0.2","","0.8","0.1112684106","0.2353621531","","","","","",""
"225","","bandit","125","243350","0.0-86.0-0.0","38985709","wem/bandit_either","A3963FCT1PKKOH","either","8","","","","","","","75","K","2","","0","0","1","","0.1207340475","","47","","0.4395998441","main_expt","0.4","","0.6","0.1804488412","","0.2","","0.8","0.1207340475","0.2405257196","","","","","",""
"227","","bandit","126","245094","0.0-87.0-0.0","38985709","wem/bandit_either","A3963FCT1PKKOH","either","8","","","","","","","74","J","1","","0","0","1","0.168268176","","","48","0.4630443269","","main_expt","0.4","0.168268176","0.6","","0.1182533935","0.2","0.2629408555","0.8","","","","","","","",""
"15","","bandit","127","246629","0.0-88.0-0.0","38985709","wem/bandit_either","A3963FCT1PKKOH","either","8","","","","","","","75","K","2","","0","0","1","0.1460801474","","","49","0.4794982466","","main_expt","0.4","0.1466838001","0.6","","0.1460801474","0.2","0.2902453213","0.8","","","","","","","",""
"198","","bandit","128","248368","0.0-89.0-0.0","38985709","wem/bandit_either","A3963FCT1PKKOH","either","8","","","","","","","74","J","1","","0","0","1","","0.1336340117","","50","","0.4562783041","main_expt","0.4","","0.6","0.1336340117","","0.2","","0.8","0.1765155983","0.3033715012","","","","","",""
"69","","bandit","129","249956","0.0-90.0-0.0","38985709","wem/bandit_either","A3963FCT1PKKOH","either","8","","","","","","","72","H","0","img/none_selected.jpg","1","0","0","0.4515646323","","","51","0.4515646323","","main_expt","0.4","0.1067821754","0.6","","0.1614266163","0.2","0.3536831403","0.8","","","","","","","",""
"203","","bandit","130","251681","0.0-91.0-0.0","38985709","wem/bandit_either","A3963FCT1PKKOH","either","8","","","","","","","75","K","2","","0","0","1","","0.1938643747","","52","","0.4344137529","main_expt","0.4","","0.6","0.07294577227","","0.2","","0.8","0.1938643747","0.3058792917","","","","","",""
"311","","bandit","131","253508","0.0-92.0-0.0","38985709","wem/bandit_either","A3963FCT1PKKOH","either","8","","","","","","","72","H","0","img/none_selected.jpg","0","1","0","","0.4421766306","","53","","0.4421766306","main_expt","0.4","","0.6","0.07676454597","","0.2","","0.8","0.1721886996","0.3466820038","","","","","",""
"141","","bandit","132","255219","0.0-93.0-0.0","38985709","wem/bandit_either","A3963FCT1PKKOH","either","8","","","","","","","75","K","2","","0","0","1","","0.1542880765","","54","","0.4591875032","main_expt","0.4","","0.6","0.07707135067","","0.2","","0.8","0.1542880765","0.3159173384","","","","","",""
"6","","bandit","133","256742","0.0-94.0-0.0","38985709","wem/bandit_either","A3963FCT1PKKOH","either","8","","","","","","","76","L","3","","1","0","0","0.3205246683","","","55","0.4455250987","","main_expt","0.4","0.08227932488","0.6","","0.2155598061","0.2","0.3205246683","0.8","","","","","","","",""
"193","","bandit","134","258524","0.0-95.0-0.0","38985709","wem/bandit_either","A3963FCT1PKKOH","either","8","","","","","","","75","K","2","","0","0","1","0.199350645","","","56","0.4200701886","","main_expt","0.4","0.09013031375","0.6","","0.199350645","0.2","0.3067659888","0.8","","","","","","","",""
"50","","bandit","135","260128","0.0-96.0-0.0","38985709","wem/bandit_either","A3963FCT1PKKOH","either","8","","","","","","","74","J","1","","0","0","1","","0.106866739","","57","","0.3635567377","main_expt","0.4","","0.6","0.106866739","","0.2","","0.8","0.1991981904","0.3786279545","","","","","",""
"18","","bandit","136","261667","0.0-97.0-0.0","38985709","wem/bandit_either","A3963FCT1PKKOH","either","8","","","","","","","72","H","0","img/none_selected.jpg","0","0","1","","0.3647217687","","58","","0.3647217687","main_expt","0.4","","0.6","0.0915584437","","0.2","","0.8","0.1307276253","0.3796022377","","","","","",""
"4","","bandit","137","263190","0.0-98.0-0.0","38985709","wem/bandit_either","A3963FCT1PKKOH","either","8","","","","","","","76","L","3","","1","0","0","0.3570845549","","","59","0.3975499765","","main_expt","0.4","0.1036540812","0.6","","0.1540949786","0.2","0.3570845549","0.8","","","","","","","",""
"366","","bandit","138","265075","0.0-99.0-0.0","38985709","wem/bandit_either","A3963FCT1PKKOH","either","8","","","","","","","72","H","0","img/none_selected.jpg","1","0","0","0.376383165","","","60","0.376383165","","main_expt","0.4","0.07948280662","0.6","","0.1187181044","0.2","0.398525789","0.8","","","","","","","",""
"527","","bandit","139","267118","0.0-100.0-0.0","38985709","wem/bandit_either","A3963FCT1PKKOH","either","8","","","","","","","76","L","3","","0","0","1","0.380986593","","","61","0.3384437455","","main_expt","0.4","0.0685056185","0.6","","0.1734870435","0.2","0.380986593","0.8","","","","","","","",""
"405","","bandit","140","269047","0.0-101.0-0.0","38985709","wem/bandit_either","A3963FCT1PKKOH","either","8","","","","","","","72","H","0","img/none_selected.jpg","0","0","1","","0.3086389155","","62","","0.3086389155","main_expt","0.4","","0.6","0.04196312691","","0.2","","0.8","0.2056999461","0.3928002855","","","","","",""
"98","","bandit","141","270660","0.0-102.0-0.0","38985709","wem/bandit_either","A3963FCT1PKKOH","either","8","","","","","","","76","L","3","","0","0","1","0.4097838671","","","63","0.3098998428","","main_expt","0.4","0.06524357318","0.6","","0.2421495796","0.2","0.4097838671","0.8","","","","","","","",""
"302","","bandit","142","272482","0.0-103.0-0.0","38985709","wem/bandit_either","A3963FCT1PKKOH","either","8","","","","","","","72","H","0","img/none_selected.jpg","0","0","1","0.2859800092","","","64","0.2859800092","","main_expt","0.4","0.04599317762","0.6","","0.2678986655","0.2","0.3942475769","0.8","","","","","","","",""
"457","","bandit","143","274474","0.0-104.0-0.0","38985709","wem/bandit_either","A3963FCT1PKKOH","either","8","","","","","","","76","L","3","","0","0","1","0.3756823908","","","65","0.2780623804","","main_expt","0.4","0.04738713632","0.6","","0.2780805564","0.2","0.3756823908","0.8","","","","","","","",""
"319","","bandit","144","276314","0.0-105.0-0.0","38985709","wem/bandit_either","A3963FCT1PKKOH","either","8","","","","","","","72","H","0","img/none_selected.jpg","0","0","1","0.2740889186","","","66","0.2740889186","","main_expt","0.4","0.02873144913","0.6","","0.2923516192","0.2","0.3780323226","0.8","","","","","","","",""
"463","","bandit","145","278294","0.0-106.0-0.0","38985709","wem/bandit_either","A3963FCT1PKKOH","either","8","","","","","","","76","L","3","","0","0","1","0.382091886","","","67","0.3122756929","","main_expt","0.4","0.0355516853","0.6","","0.3481747094","0.2","0.382091886","0.8","","","","","","","",""
"238","","bandit","146","280047","0.0-107.0-0.0","38985709","wem/bandit_either","A3963FCT1PKKOH","either","8","","","","","","","72","H","0","img/none_selected.jpg","0","0","1","","0.3004294993","","68","","0.3004294993","main_expt","0.4","","0.6","0.04483006882","","0.2","","0.8","0.3540590834","0.4080562953","","","","","",""
"4","","bandit","147","281565","0.0-108.0-0.0","38985709","wem/bandit_either","A3963FCT1PKKOH","either","8","","","","","","","75","K","2","","0","1","0","","0.3348318208","","69","","0.3312842332","main_expt","0.4","","0.6","0.04300650393","","0.2","","0.8","0.3348318208","0.419826639","","","","","",""
"97","","bandit","148","283177","0.0-109.0-0.0","38985709","wem/bandit_either","A3963FCT1PKKOH","either","8","","","","","","","74","J","1","","0","0","1","","0.03960880855","","70","","0.2362018798","main_expt","0.4","","0.6","0.03960880855","","0.2","","0.8","0.3844983113","0.3889643965","","","","","",""
"356","","bandit","149","285078","0.0-110.0-0.0","38985709","wem/bandit_either","A3963FCT1PKKOH","either","8","","","","","","","75","K","2","","1","0","0","0.3753843975","","","71","0.1838323472","","main_expt","0.4","0.02401392238","0.6","","0.3753843975","0.2","0.3492343966","0.8","","","","","","","",""
"3757","","bandit","150","290358","0.0-111.0-0.0","38985709","wem/bandit_either","A3963FCT1PKKOH","either","8","","","","","","","76","L","3","","0","0","1","0.3502155883","","","72","0.1749810972","","main_expt","0.4","0.008756159955","0.6","","0.3861429343","0.2","0.3502155883","0.8","","","","","","","",""
"47","","bandit","151","291937","0.0-112.0-0.0","38985709","wem/bandit_either","A3963FCT1PKKOH","either","8","","","","","","","72","H","0","img/none_selected.jpg","1","0","0","0.1664097112","","","73","0.1664097112","","main_expt","0.4","0.006257651783","0.6","","0.3978436086","0.2","0.3568691787","0.8","","","","","","","",""
"161","","bandit","152","293616","0.0-113.0-0.0","38985709","wem/bandit_either","A3963FCT1PKKOH","either","8","","","","","","","76","L","3","","0","0","1","0.3303653739","","","74","0.2001176207","","main_expt","0.4","0.004732084297","0.6","","0.3847979518","0.2","0.3303653739","0.8","","","","","","","",""
"8759","","bandit","153","303900","0.0-114.0-0.0","38985709","wem/bandit_either","A3963FCT1PKKOH","either","8","","","","","","","72","H","0","img/none_selected.jpg","0","0","1","","0.1848717924","","75","","0.1848717924","main_expt","0.4","","0.6","0.006967558871","","0.2","","0.8","0.3974319157","0.3353283381","","","","","",""
"2930","","bandit","154","308411","0.0-115.0-0.0","38985709","wem/bandit_either","A3963FCT1PKKOH","either","8","","","","","","","76","L","3","","0","0","1","0.3009524994","","","76","0.1510178238","","main_expt","0.4","0.004525860487","0.6","","0.3987985884","0.2","0.3009524994","0.8","","","","","","","",""
"129","","bandit","155","310065","0.0-116.0-0.0","38985709","wem/bandit_either","A3963FCT1PKKOH","either","8","","","","","","","72","H","0","img/none_selected.jpg","0","0","1","","0.2089633591","","77","","0.2089633591","main_expt","0.4","","0.6","0.007245535115","","0.2","","0.8","0.4127312768","0.3316028908","","","","","",""
"57","","bandit","156","311640","0.0-117.0-0.0","38985709","wem/bandit_either","A3963FCT1PKKOH","either","8","","","","","","","72","H","0","img/none_selected.jpg","0","0","1","0.2285147345","","","78","0.2285147345","","main_expt","0.4","0.00483057751","0.6","","0.4257675477","0.2","0.3571024926","0.8","","","","","","","",""
"190","","bandit","157","313349","0.0-118.0-0.0","38985709","wem/bandit_either","A3963FCT1PKKOH","either","8","","","","","","","72","H","0","img/none_selected.jpg","0","0","1","0.2246975601","","","79","0.2246975601","","main_expt","0.4","0.005956317848","0.6","","0.4331167668","0.2","0.3542776451","0.8","","","","","","","",""
"59","","bandit","158","314926","0.0-119.0-0.0","38985709","wem/bandit_either","A3963FCT1PKKOH","either","8","","","","","","","76","L","3","","0","0","1","0.3201174307","","","80","0.1878766281","","main_expt","0.4","0.0076590047","0.6","","0.4294395537","0.2","0.3201174307","0.8","","","","","","","",""
"37","","bandit","159","316481","0.0-120.0-0.0","38985709","wem/bandit_either","A3963FCT1PKKOH","either","8","","","","","","","76","L","3","","0","0","1","0.3503003334","","","81","0.2436254364","","main_expt","0.4","0.009115568074","0.6","","0.4234249918","0.2","0.3503003334","0.8","","","","","","","",""
"189","","bandit","160","318193","0.0-121.0-0.0","38985709","wem/bandit_either","A3963FCT1PKKOH","either","8","","","","","","","72","H","0","img/none_selected.jpg","0","0","1","0.2627531714","","","82","0.2627531714","","main_expt","0.4","0.01382977225","0.6","","0.3956977209","0.2","0.3509066846","0.8","","","","","","","",""
"202","","bandit","161","319921","0.0-122.0-0.0","38985709","wem/bandit_either","A3963FCT1PKKOH","either","8","","","","","","","72","H","0","img/none_selected.jpg","0","0","1","","0.2672212524","","83","","0.2672212524","main_expt","0.4","","0.6","0.01500629599","","0.2","","0.8","0.4248650233","0.3951868033","","","","","",""
"6054","","bandit","162","327495","0.0-123.0-0.0","38985709","wem/bandit_either","A3963FCT1PKKOH","either","8","","","","","","","76","L","3","","0","0","1","0.4131477378","","","84","0.2817484998","","main_expt","0.4","0.02310127573","0.6","","0.4196907627","0.2","0.4131477378","0.8","","","","","","","",""
"73","","bandit","163","329153","0.0-124.0-0.0","38985709","wem/bandit_either","A3963FCT1PKKOH","either","8","","","","","","","74","J","1","","0","0","1","","0.02639065846","","85","","0.3074775227","main_expt","0.4","","0.6","0.02639065846","","0.2","","0.8","0.435633498","0.3889697292","","","","","",""
"619","","bandit","164","331295","0.0-125.0-0.0","38985709","wem/bandit_either","A3963FCT1PKKOH","either","8","","","","","","","76","L","3","","1","0","0","0.3885636443","","","86","0.2717847629","","main_expt","0.4","0.01746441632","0.6","","0.4322222521","0.2","0.3885636443","0.8","","","","","","","",""
"174","","bandit","165","332995","0.0-126.0-0.0","38985709","wem/bandit_either","A3963FCT1PKKOH","either","8","","","","","","","76","L","3","","0","0","1","0.4028282504","","","87","0.2183858348","","main_expt","0.4","0.01256144444","0.6","","0.4476119451","0.2","0.4028282504","0.8","","","","","","","",""
"217","","bandit","166","334737","0.0-127.0-0.0","38985709","wem/bandit_either","A3963FCT1PKKOH","either","8","","","","","","","76","L","3","","0","0","1","0.4306890759","","","88","0.2054961256","","main_expt","0.4","0.01178158386","0.6","","0.4073123198","0.2","0.4306890759","0.8","","","","","","","",""
"25","","bandit","167","336287","0.0-128.0-0.0","38985709","wem/bandit_either","A3963FCT1PKKOH","either","8","","","","","","","75","K","2","","1","0","0","0.3862301724","","","89","0.1452714398","","main_expt","0.4","0.008722555822","0.6","","0.3862301724","0.2","0.4103738654","0.8","","","","","","","",""
"44","","bandit","168","337851","0.0-129.0-0.0","38985709","wem/bandit_either","A3963FCT1PKKOH","either","8","","","","","","","76","L","3","","0","1","0","","0.3980827974","","90","","0.1077779513","main_expt","0.4","","0.6","0.008232471735","","0.2","","0.8","0.3596745144","0.3980827974","","","","","",""
"4","","bandit","169","339381","0.0-130.0-0.0","38985709","wem/bandit_either","A3963FCT1PKKOH","either","8","","","","","","","76","L","3","","0","0","1","0.4040531024","","","91","0.1308407065","","main_expt","0.4","0.01249180717","0.6","","0.3082854458","0.2","0.4040531024","0.8","","","","","","","",""
"200","","bandit","170","341111","0.0-131.0-0.0","38985709","wem/bandit_either","A3963FCT1PKKOH","either","8","","","","","","","76","L","3","","0","0","1","0.3462944796","","","92","0.1652322036","","main_expt","0.4","0.01470986316","0.6","","0.312225492","0.2","0.3462944796","0.8","","","","","","","",""
"5","","bandit","171","342641","0.0-132.0-0.0","38985709","wem/bandit_either","A3963FCT1PKKOH","either","8","","","","","","","74","J","1","","0","0","1","","0.02655281846","","93","","0.1344678182","main_expt","0.4","","0.6","0.02655281846","","0.2","","0.8","0.3671658277","0.3411451966","","","","","",""
"1","","bandit","172","344162","0.0-133.0-0.0","38985709","wem/bandit_either","A3963FCT1PKKOH","either","8","","","","","","","74","J","1","","0","0","1","","0.02575246025","","94","","0.1301314301","main_expt","0.4","","0.6","0.02575246025","","0.2","","0.8","0.3401731108","0.3384154489","","","","","",""
"42","","bandit","173","345725","0.0-134.0-0.0","38985709","wem/bandit_either","A3963FCT1PKKOH","either","8","","","","","","","74","J","1","","0","0","1","0.02262355665","","","95","0.1746055711","","main_expt","0.4","0.02262355665","0.6","","0.3413923724","0.2","0.3126988266","0.8","","","","","","","",""
"51","","bandit","174","347297","0.0-135.0-0.0","38985709","wem/bandit_either","A3963FCT1PKKOH","either","8","","","","","","","74","J","1","","0","0","1","","0.02047181149","","96","","0.1994244555","main_expt","0.4","","0.6","0.02047181149","","0.2","","0.8","0.3570420485","0.3800019137","","","","","",""
"68","","bandit","175","348897","0.0-136.0-0.0","38985709","wem/bandit_either","A3963FCT1PKKOH","either","8","","","","","","","75","K","2","","0","0","1","0.3435474977","","","97","0.1834602947","","main_expt","0.4","0.0207754381","0.6","","0.3435474977","0.2","0.3328121005","0.8","","","","","","","",""
"50","","bandit","176","350467","0.0-137.0-0.0","38985709","wem/bandit_either","A3963FCT1PKKOH","either","8","","","","","","","76","L","3","","0","0","1","0.332228596","","","98","0.1719221531","","main_expt","0.4","0.02955834597","0.6","","0.3614714926","0.2","0.332228596","0.8","","","","","","","",""
"5","","bandit","177","351996","0.0-138.0-0.0","38985709","wem/bandit_either","A3963FCT1PKKOH","either","8","","","","","","","76","L","3","","0","0","1","0.2843854285","","","99","0.1183399241","","main_expt","0.4","0.0383131093","0.6","","0.3176405447","0.2","0.2843854285","0.8","","","","","","","",""
"180","","bandit","178","353695","0.0-139.0-0.0","38985709","wem/bandit_either","A3963FCT1PKKOH","either","8","","","","","","","74","J","1","","0","0","1","","0.03580757471","","100","","0.1558635017","main_expt","0.4","","0.6","0.03580757471","","0.2","","0.8","0.3586553183","0.309751149","","","","","",""
"341","","bandit","179","355554","0.0-140.0-0.0","38985709","wem/bandit_either","A3963FCT1PKKOH","either","8","","","","","","","75","K","2","","0","0","1","0.2951503345","","","101","0.1389665978","","main_expt","0.4","0.04899620691","0.6","","0.2951503345","0.2","0.2993195944","0.8","","","","","","","",""
"455","","bandit","180","357532","0.0-141.0-0.0","38985709","wem/bandit_either","A3963FCT1PKKOH","either","8","","","","","","","76","L","3","","0","0","1","0.3551890872","","","102","0.1377203561","","main_expt","0.4","0.08055650644","0.6","","0.2998391809","0.2","0.3551890872","0.8","","","","","","","",""
"29","","bandit","181","359085","0.0-142.0-0.0","38985709","wem/bandit_either","A3963FCT1PKKOH","either","8","","","","","","","74","J","1","","0","0","1","0.1040447627","","","103","0.1285548106","","main_expt","0.4","0.1040447627","0.6","","0.2791823827","0.2","0.3148404956","0.8","","","","","","","",""
"3","","bandit","182","360607","0.0-143.0-0.0","38985709","wem/bandit_either","A3963FCT1PKKOH","either","8","","","","","","","74","J","1","","1","0","0","0.1143547335","","","104","0.1555523735","","main_expt","0.4","0.1143547335","0.6","","0.3382769334","0.2","0.3286912191","0.8","","","","","","","",""
"158","","bandit","183","362290","0.0-144.0-0.0","38985709","wem/bandit_either","A3963FCT1PKKOH","either","8","","","","","","","74","J","1","","0","0","1","0.1487676438","","","105","0.1775592141","","main_expt","0.4","0.1487676438","0.6","","0.3339697125","0.2","0.298340497","0.8","","","","","","","",""
"0","","bandit","184","363815","0.0-145.0-0.0","38985709","wem/bandit_either","A3963FCT1PKKOH","either","8","","","","","","","76","L","3","","0","0","1","0.3504464386","","","106","0.2263451353","","main_expt","0.4","0.152088545","0.6","","0.3124129253","0.2","0.3504464386","0.8","","","","","","","",""
"43","","bandit","185","365375","0.0-146.0-0.0","38985709","wem/bandit_either","A3963FCT1PKKOH","either","8","","","","","","","76","L","3","","0","1","0","","0.3510410077","","107","","0.1679769802","main_expt","0.4","","0.6","0.2406734145","","0.2","","0.8","0.3400683723","0.3510410077","","","","","",""
"43","","bandit","186","366934","0.0-147.0-0.0","38985709","wem/bandit_either","A3963FCT1PKKOH","either","8","","","","","","","74","J","1","","0","0","1","0.3048040024","","","108","0.1999870147","","main_expt","0.4","0.3048040024","0.6","","0.3557340834","0.2","0.3282766846","0.8","","","","","","","",""
"1270","","bandit","187","369726","0.0-148.0-0.0","38985709","wem/bandit_either","A3963FCT1PKKOH","either","8","","","","","","","74","J","1","","0","0","1","0.3418503096","","","109","0.208992856","","main_expt","0.4","0.3418503096","0.6","","0.3846418901","0.2","0.3561186451","0.8","","","","","","","",""
"120","","bandit","188","371365","0.0-149.0-0.0","38985709","wem/bandit_either","A3963FCT1PKKOH","either","8","","","","","","","74","J","1","","0","0","1","0.3198501315","","","110","0.1716040471","","main_expt","0.4","0.3198501315","0.6","","0.4057962062","0.2","0.3576445865","0.8","","","","","","","",""
"51","","bandit","189","372932","0.0-150.0-0.0","38985709","wem/bandit_either","A3963FCT1PKKOH","either","8","","","","","","","75","K","2","","0","0","1","","0.3692451483","","111","","0.08984071331","main_expt","0.4","","0.6","0.3681534847","","0.2","","0.8","0.3692451483","0.3377543854","","","","","",""
"10","","bandit","190","374513","0.0-151.0-0.0","38985709","wem/bandit_either","A3963FCT1PKKOH","either","8","","","","","","","76","L","3","","1","0","0","0.286234052","","","112","0.1243463141","","main_expt","0.4","0.3757830796","0.6","","0.3577317973","0.2","0.286234052","0.8","","","","","","","",""
"371","","bandit","191","376403","0.0-152.0-0.0","38985709","wem/bandit_either","A3963FCT1PKKOH","either","8","","","","","","","74","J","1","","0","0","1","","0.3838999828","","113","","0.1433440675","main_expt","0.4","","0.6","0.3838999828","","0.2","","0.8","0.3328808086","0.1932674395","","","","","",""
"75","","bandit","192","377995","0.0-153.0-0.0","38985709","wem/bandit_either","A3963FCT1PKKOH","either","8","","","","","","","76","L","3","","1","0","0","0.2403040534","","","114","0.1510662198","","main_expt","0.4","0.4157938717","0.6","","0.3416979579","0.2","0.2403040534","0.8","","","","","","","",""
"459","","bandit","193","379972","0.0-154.0-0.0","38985709","wem/bandit_either","A3963FCT1PKKOH","either","8","","","","","","","76","L","3","","0","0","1","","0.254937398","","115","","0.09845245139","main_expt","0.4","","0.6","0.4055870595","","0.2","","0.8","0.3377137281","0.254937398","","","","","",""
"1015","","bandit","194","382505","0.0-155.0-0.0","38985709","wem/bandit_either","A3963FCT1PKKOH","either","8","","","","","","","76","L","3","","0","0","1","0.2605063941","","","116","0.107393795","","main_expt","0.4","0.4161015278","0.6","","0.3039448029","0.2","0.2605063941","0.8","","","","","","","",""
"586","","bandit","195","384611","0.0-156.0-0.0","38985709","wem/bandit_either","A3963FCT1PKKOH","either","8","","","","","","","76","L","3","","0","0","1","0.2161328783","","","117","0.07879800556","","main_expt","0.4","0.414877819","0.6","","0.2974336912","0.2","0.2161328783","0.8","","","","","","","",""
"84","","bandit","196","386231","0.0-157.0-0.0","38985709","wem/bandit_either","A3963FCT1PKKOH","either","8","","","","","","","74","J","1","","0","1","0","","0.3968259953","","118","","0.08383735875","main_expt","0.4","","0.6","0.3968259953","","0.2","","0.8","0.2651867246","0.1931197841","","","","","",""
"4","","bandit","197","387752","0.0-158.0-0.0","38985709","wem/bandit_either","A3963FCT1PKKOH","either","8","","","","","","","74","J","1","","1","0","0","0.4198241006","","","119","0.1392474383","","main_expt","0.4","0.4198241006","0.6","","0.3131666206","0.2","0.1638183597","0.8","","","","","","","",""
"500","","bandit","198","389768","0.0-159.0-0.0","38985709","wem/bandit_either","A3963FCT1PKKOH","either","8","","","","","","","74","J","1","","0","0","1","","0.4286088018","","120","","0.1649404926","main_expt","0.4","","0.6","0.4286088018","","0.2","","0.8","0.358829095","0.1893282748","","","","","",""
"254","","bandit","199","391582","0.0-160.0-0.0","38985709","wem/bandit_either","A3963FCT1PKKOH","either","8","","","","","","","74","J","1","","1","0","0","0.4253829576","","","121","0.1764152442","","main_expt","0.4","0.4253829576","0.6","","0.3189860171","0.2","0.2290368179","0.8","","","","","","","",""
"220","","bandit","200","393322","0.0-161.0-0.0","38985709","wem/bandit_either","A3963FCT1PKKOH","either","8","","","","","","","76","L","3","","0","0","1","0.2445441383","","","122","0.2092397698","","main_expt","0.4","0.4235175979","0.6","","0.3011672979","0.2","0.2445441383","0.8","","","","","","","",""
"87","","bandit","201","394934","0.0-162.0-0.0","38985709","wem/bandit_either","A3963FCT1PKKOH","either","8","","","","","","","72","H","0","img/none_selected.jpg","1","0","0","0.1884058447","","","123","0.1884058447","","main_expt","0.4","0.4182090072","0.6","","0.3037948063","0.2","0.2091075756","0.8","","","","","","","",""
"176","","bandit","202","396656","0.0-163.0-0.0","38985709","wem/bandit_either","A3963FCT1PKKOH","either","8","","","","","","","72","H","0","img/none_selected.jpg","0","0","1","0.1876417206","","","124","0.1876417206","","main_expt","0.4","0.4356016004","0.6","","0.2446200253","0.2","0.2216111921","0.8","","","","","","","",""
"101","","bandit","203","398410","0.0-164.0-0.0","38985709","wem/bandit_either","A3963FCT1PKKOH","either","8","","","","","","","75","K","2","","1","0","0","0.2464628806","","","125","0.1890564589","","main_expt","0.4","0.403953628","0.6","","0.2464628806","0.2","0.1622020501","0.8","","","","","","","",""
"236","","bandit","204","400165","0.0-165.0-0.0","38985709","wem/bandit_either","A3963FCT1PKKOH","either","8","","","","","","","76","L","3","","0","0","1","0.173533554","","","126","0.1659850756","","main_expt","0.4","0.4020675328","0.6","","0.281169445","0.2","0.173533554","0.8","","","","","","","",""
"135","","bandit","205","401825","0.0-166.0-0.0","38985709","wem/bandit_either","A3963FCT1PKKOH","either","8","","","","","","","72","H","0","img/none_selected.jpg","0","0","1","0.2006343121","","","127","0.2006343121","","main_expt","0.4","0.338443572","0.6","","0.290080064","0.2","0.189829559","0.8","","","","","","","",""
"50","","bandit","206","403402","0.0-167.0-0.0","38985709","wem/bandit_either","A3963FCT1PKKOH","either","8","","","","","","","74","J","1","","1","0","0","0.323123489","","","128","0.2637444583","","main_expt","0.4","0.323123489","0.6","","0.3280989756","0.2","0.1764696366","0.8","","","","","","","",""
"203","","bandit","207","405127","0.0-168.0-0.0","38985709","wem/bandit_either","A3963FCT1PKKOH","either","8","","","","","","","74","J","1","","0","0","1","","0.3615310162","","129","","0.2783394686","main_expt","0.4","","0.6","0.3615310162","","0.2","","0.8","0.3052704822","0.172709194","","","","","",""
"59","","bandit","208","406715","0.0-169.0-0.0","38985709","wem/bandit_either","A3963FCT1PKKOH","either","8","","","","","","","74","J","1","","0","0","1","","0.3667448715","","130","","0.2674474002","main_expt","0.4","","0.6","0.3667448715","","0.2","","0.8","0.314718742","0.1407460215","","","","","",""
"170","","bandit","209","408416","0.0-170.0-0.0","38985709","wem/bandit_either","A3963FCT1PKKOH","either","8","","","","","","","72","H","0","img/none_selected.jpg","0","0","1","","0.2122920843","","131","","0.2122920843","main_expt","0.4","","0.6","0.341745941","","0.2","","0.8","0.2492347367","0.143826562","","","","","",""
"76","","bandit","210","410017","0.0-171.0-0.0","38985709","wem/bandit_either","A3963FCT1PKKOH","either","8","","","","","","","76","L","3","","0","0","1","","0.1862992663","","132","","0.1969346152","main_expt","0.4","","0.6","0.2615325727","","0.2","","0.8","0.2495736985","0.1862992663","","","","","",""
"487","","bandit","211","412028","0.0-172.0-0.0","38985709","wem/bandit_either","A3963FCT1PKKOH","either","8","","","","","","","74","J","1","","1","0","0","0.27905624","","","133","0.1390835973","","main_expt","0.4","0.27905624","0.6","","0.2487120015","0.2","0.185648564","0.8","","","","","","","",""
"212","","bandit","212","413759","0.0-173.0-0.0","38985709","wem/bandit_either","A3963FCT1PKKOH","either","8","","","","","","","74","J","1","","0","0","1","","0.2751163123","","134","","0.1437640715","main_expt","0.4","","0.6","0.2751163123","","0.2","","0.8","0.3239420422","0.2002276213","","","","","",""
"16","","bandit","213","415297","0.0-174.0-0.0","38985709","wem/bandit_either","A3963FCT1PKKOH","either","8","","","","","","","72","H","0","img/none_selected.jpg","0","0","1","0.1175999949","","","135","0.1175999949","","main_expt","0.4","0.2586507773","0.6","","0.3903525049","0.2","0.2474552851","0.8","","","","","","","",""
"127","","bandit","214","416947","0.0-175.0-0.0","38985709","wem/bandit_either","A3963FCT1PKKOH","either","8","","","","","","","74","J","1","","0","0","1","0.2385277364","","","136","0.1108499649","","main_expt","0.4","0.2385277364","0.6","","0.3703049055","0.2","0.2454982057","0.8","","","","","","","",""
"5","","bandit","215","418469","0.0-176.0-0.0","38985709","wem/bandit_either","A3963FCT1PKKOH","either","8","","","","","","","75","K","2","","0","1","0","","0.3657944308","","137","","0.1208727618","main_expt","0.4","","0.6","0.1935782534","","0.2","","0.8","0.3657944308","0.2708690816","","","","","",""
"268","","bandit","216","420307","0.0-177.0-0.0","38985709","wem/bandit_either","A3963FCT1PKKOH","either","8","","","","","","","75","K","2","","0","0","1","","0.3452946514","","138","","0.1098805161","main_expt","0.4","","0.6","0.14087624","","0.2","","0.8","0.3452946514","0.2219039101","","","","","",""
"68","","bandit","217","421900","0.0-178.0-0.0","38985709","wem/bandit_either","A3963FCT1PKKOH","either","8","","","","","","","72","H","0","img/none_selected.jpg","0","0","1","0.1359731218","","","139","0.1359731218","","main_expt","0.4","0.1340930794","0.6","","0.3225052804","0.2","0.2485571535","0.8","","","","","","","",""
"375","","bandit","218","423796","0.0-179.0-0.0","38985709","wem/bandit_either","A3963FCT1PKKOH","either","8","","","","","","","76","L","3","","0","0","1","0.2605640439","","","140","0.1419248406","","main_expt","0.4","0.1170750994","0.6","","0.2997250911","0.2","0.2605640439","0.8","","","","","","","",""
"3","","bandit","219","425320","0.0-180.0-0.0","38985709","wem/bandit_either","A3963FCT1PKKOH","either","8","","","","","","","72","H","0","img/none_selected.jpg","0","1","0","","0.1269577117","","141","","0.1269577117","main_expt","0.4","","0.6","0.1316830279","","0.2","","0.8","0.311933389","0.2260680923","","","","","",""
"87","","bandit","220","426929","0.0-181.0-0.0","38985709","wem/bandit_either","A3963FCT1PKKOH","either","8","","","","","","","72","H","0","img/none_selected.jpg","0","1","0","","0.1073819056","","142","","0.1073819056","main_expt","0.4","","0.6","0.09490366034","","0.2","","0.8","0.3442568425","0.2354846983","","","","","",""
"50","","bandit","221","428508","0.0-182.0-0.0","38985709","wem/bandit_either","A3963FCT1PKKOH","either","8","","","","","","","74","J","1","","0","0","1","","0.1246024154","","143","","0.1152767294","main_expt","0.4","","0.6","0.1246024154","","0.2","","0.8","0.3117203045","0.2089358464","","","","","",""
"349","","bandit","222","430378","0.0-183.0-0.0","38985709","wem/bandit_either","A3963FCT1PKKOH","either","8","","","","","","","74","J","1","","0","0","1","0.1179874238","","","144","0.1317444946","","main_expt","0.4","0.1179874238","0.6","","0.3080771123","0.2","0.1844607625","0.8","","","","","","","",""
"160","","bandit","223","432057","0.0-184.0-0.0","38985709","wem/bandit_either","A3963FCT1PKKOH","either","8","","","","","","","72","H","0","img/none_selected.jpg","0","0","1","","0.1058600218","","145","","0.1058600218","main_expt","0.4","","0.6","0.1211842963","","0.2","","0.8","0.3146876691","0.1940384654","","","","","",""
"158","","bandit","224","433738","0.0-185.0-0.0","38985709","wem/bandit_either","A3963FCT1PKKOH","either","8","","","","","","","74","J","1","","0","0","1","","0.06212451067","","146","","0.1862633901","main_expt","0.4","","0.6","0.06212451067","","0.2","","0.8","0.3526806189","0.2532022814","","","","","",""
"156","","bandit","225","435412","0.0-186.0-0.0","38985709","wem/bandit_either","A3963FCT1PKKOH","either","8","","","","","","","76","L","3","","0","0","1","0.272856749","","","147","0.1944793183","","main_expt","0.4","0.05826033827","0.6","","0.3859334927","0.2","0.272856749","0.8","","","","","","","",""
"8","","bandit","226","436944","0.0-187.0-0.0","38985709","wem/bandit_either","A3963FCT1PKKOH","either","8","","","","","","","75","K","2","","0","0","1","","0.4089873985","","148","","0.1572605535","main_expt","0.4","","0.6","0.04847575149","","0.2","","0.8","0.4089873985","0.2441255329","","","","","",""
"63","","bandit","227","438525","0.0-188.0-0.0","38985709","wem/bandit_either","A3963FCT1PKKOH","either","8","","","","","","","74","J","1","","0","0","1","","0.07397138717","","149","","0.1632070519","main_expt","0.4","","0.6","0.07397138717","","0.2","","0.8","0.3317076441","0.2304797635","","","","","",""
"242","","bandit","228","440290","0.0-189.0-0.0","38985709","wem/bandit_either","A3963FCT1PKKOH","either","8","","","","","","","72","H","0","img/none_selected.jpg","0","0","1","0.2162169298","","","150","0.2162169298","","main_expt","0.4","0.1178437277","0.6","","0.2514439341","0.2","0.2645424191","0.8","","","","","","","",""
"437","","bandit","229","442246","0.0-190.0-0.0","38985709","wem/bandit_either","A3963FCT1PKKOH","either","8","","","","","","","72","H","0","img/none_selected.jpg","0","1","0","","0.2806681102","","151","","0.2806681102","main_expt","0.4","","0.6","0.1116740648","","0.2","","0.8","0.2209696772","0.2919476008","","","","","",""
"228","","bandit","230","444046","0.0-191.0-0.0","38985709","wem/bandit_either","A3963FCT1PKKOH","either","8","","","","","","","76","L","3","","0","0","1","0.3004198658","","","152","0.25223767","","main_expt","0.4","0.09681320826","0.6","","0.2004300668","0.2","0.3004198658","0.8","","","","","","","",""
"1","","bandit","231","445591","0.0-192.0-0.0","38985709","wem/bandit_either","A3963FCT1PKKOH","either","8","","","","","","","74","J","1","","0","1","0","","0.1162344283","","153","","0.2259503681","main_expt","0.4","","0.6","0.1162344283","","0.2","","0.8","0.1803159607","0.2910243242","","","","","",""
"750","","bandit","232","447870","0.0-193.0-0.0","38985709","wem/bandit_either","A3963FCT1PKKOH","either","8","","","","","","","76","L","3","","1","0","0","0.2858680692","","","154","0.2520515582","","main_expt","0.4","0.1441765144","0.6","","0.1793353988","0.2","0.2858680692","0.8","","","","","","","",""
"127","","bandit","233","449516","0.0-194.0-0.0","38985709","wem/bandit_either","A3963FCT1PKKOH","either","8","","","","","","","75","K","2","","0","0","1","0.175125938","","","155","0.246895917","","main_expt","0.4","0.1506434262","0.6","","0.175125938","0.2","0.276906037","0.8","","","","","","","",""
"3","","bandit","234","451039","0.0-195.0-0.0","38985709","wem/bandit_either","A3963FCT1PKKOH","either","8","","","","","","","74","J","1","","0","0","1","0.1691825384","","","156","0.2067462234","","main_expt","0.4","0.1691825384","0.6","","0.19004546","0.2","0.3087514371","0.8","","","","","","","",""
"175","","bandit","235","452747","0.0-196.0-0.0","38985709","wem/bandit_either","A3963FCT1PKKOH","either","8","","","","","","","75","K","2","","0","0","1","","0.1538528063","","157","","0.1736677602","main_expt","0.4","","0.6","0.1465267651","","0.2","","0.8","0.1538528063","0.3400763937","","","","","",""
"158","","bandit","236","454424","0.0-197.0-0.0","38985709","wem/bandit_either","A3963FCT1PKKOH","either","8","","","","","","","74","J","1","","1","0","0","0.1517260174","","","158","0.2437422656","","main_expt","0.4","0.1517260174","0.6","","0.1624419901","0.2","0.3388441277","0.8","","","","","","","",""
"196","","bandit","237","456138","0.0-198.0-0.0","38985709","wem/bandit_either","A3963FCT1PKKOH","either","8","","","","","","","72","H","0","img/none_selected.jpg","0","0","1","0.2627628197","","","159","0.2627628197","","main_expt","0.4","0.143579764","0.6","","0.1749682205","0.2","0.3496437485","0.8","","","","","","","",""
"385","","bandit","238","458040","0.0-199.0-0.0","38985709","wem/bandit_either","A3963FCT1PKKOH","either","8","","","","","","","75","K","2","","0","0","1","","0.2227833177","","160","","0.2532756584","main_expt","0.4","","0.6","0.1701049762","","0.2","","0.8","0.2227833177","0.3347491532","","","","","",""
"127","","bandit","239","459687","0.0-200.0-0.0","38985709","wem/bandit_either","A3963FCT1PKKOH","either","8","","","","","","","76","L","3","","0","0","1","0.3036625801","","","161","0.2846030245","","main_expt","0.4","0.1596038406","0.6","","0.1616195486","0.2","0.3036625801","0.8","","","","","","","",""
"135","","bandit","240","461343","0.0-201.0-0.0","38985709","wem/bandit_either","A3963FCT1PKKOH","either","8","","","","","","","74","J","1","","0","0","1","0.1186271452","","","162","0.2480450928","","main_expt","0.4","0.1186271452","0.6","","0.1440802068","0.2","0.2735804545","0.8","","","","","","","",""
"126","","bandit","241","463002","0.0-202.0-0.0","38985709","wem/bandit_either","A3963FCT1PKKOH","either","8","","","","","","","75","K","2","","0","0","1","","0.1349250059","","163","","0.3217860246","main_expt","0.4","","0.6","0.1460830151","","0.2","","0.8","0.1349250059","0.2219233964","","","","","",""
"207","","bandit","242","464734","0.0-203.0-0.0","38985709","wem/bandit_either","A3963FCT1PKKOH","either","8","","","","","","","72","H","0","img/none_selected.jpg","1","0","0","0.3528623486","","","164","0.3528623486","","main_expt","0.4","0.1924179555","0.6","","0.1482528248","0.2","0.2489701673","0.8","","","","","","","",""
"261","","bandit","243","466620","0.0-204.0-0.0","38985709","wem/bandit_either","A3963FCT1PKKOH","either","8","","","","","","","72","H","0","img/none_selected.jpg","0","0","1","","0.3113737792","","165","","0.3113737792","main_expt","0.4","","0.6","0.1909643941","","0.2","","0.8","0.1444116863","0.2424219606","","","","","",""
"56","","bandit","244","468216","0.0-205.0-0.0","38985709","wem/bandit_either","A3963FCT1PKKOH","either","8","","","","","","","76","L","3","","0","0","1","0.1899742571","","","166","0.2820045276","","main_expt","0.4","0.1917506842","0.6","","0.1621449425","0.2","0.1899742571","0.8","","","","","","","",""
"374","","bandit","245","470132","0.0-206.0-0.0","38985709","wem/bandit_either","A3963FCT1PKKOH","either","8","","","","","","","72","H","0","img/none_selected.jpg","0","1","0","","0.2539690707","","167","","0.2539690707","main_expt","0.4","","0.6","0.2238056512","","0.2","","0.8","0.1695256229","0.2298880826","","","","","",""
"471","","bandit","246","472128","0.0-207.0-0.0","38985709","wem/bandit_either","A3963FCT1PKKOH","either","8","","","","","","","72","H","0","img/none_selected.jpg","0","0","1","0.2177565821","","","168","0.2177565821","","main_expt","0.4","0.2132240521","0.6","","0.1712445676","0.2","0.241220494","0.8","","","","","","","",""
"46","","bandit","247","473698","0.0-208.0-0.0","38985709","wem/bandit_either","A3963FCT1PKKOH","either","8","","","","","","","76","L","3","","0","0","1","0.2113351254","","","169","0.183214586","","main_expt","0.4","0.1363713625","0.6","","0.191079104","0.2","0.2113351254","0.8","","","","","","","",""
"245","","bandit","248","475468","0.0-209.0-0.0","38985709","wem/bandit_either","A3963FCT1PKKOH","either","8","","","","","","","76","L","3","","1","0","0","0.2224744884","","","170","0.1757282231","","main_expt","0.4","0.2007690262","0.6","","0.2227666825","0.2","0.2224744884","0.8","","","","","","","",""
"58","","bandit","249","477052","0.0-210.0-0.0","38985709","wem/bandit_either","A3963FCT1PKKOH","either","8","","","","","","","72","H","0","img/none_selected.jpg","0","0","1","0.1679331046","","","171","0.1679331046","","main_expt","0.4","0.1238998316","0.6","","0.2719914804","0.2","0.262177911","0.8","","","","","","","",""
"1","","bandit","250","478584","0.0-211.0-0.0","38985709","wem/bandit_either","A3963FCT1PKKOH","either","8","","","","","","","74","J","1","","1","0","0","0.09746419185","","","172","0.14560319","","main_expt","0.4","0.09746419185","0.6","","0.2330128459","0.2","0.2822992514","0.8","","","","","","","",""
"126","","bandit","251","480230","0.0-212.0-0.0","38985709","wem/bandit_either","A3963FCT1PKKOH","either","8","","","","","","","75","K","2","","0","1","0","","0.2840251313","","173","","0.1341549344","main_expt","0.4","","0.6","0.1018164217","","0.2","","0.8","0.2840251313","0.2545762091","","","","","",""
"414","","bandit","252","482165","0.0-213.0-0.0","38985709","wem/bandit_either","A3963FCT1PKKOH","either","8","","","","","","","72","H","0","img/none_selected.jpg","0","0","1","","0.1471305278","","174","","0.1471305278","main_expt","0.4","","0.6","0.1401689619","","0.2","","0.8","0.2739042306","0.2838184637","","","","","",""
"369","","bandit","253","484053","0.0-214.0-0.0","38985709","wem/bandit_either","A3963FCT1PKKOH","either","8","","","","","","","76","L","3","","1","0","0","0.3002790513","","","175","0.173963405","","main_expt","0.4","0.1697524679","0.6","","0.3444735506","0.2","0.3002790513","0.8","","","","","","","",""
"248","","bandit","254","485823","0.0-215.0-0.0","38985709","wem/bandit_either","A3963FCT1PKKOH","either","8","","","","","","","72","H","0","img/none_selected.jpg","0","0","1","","0.1821857965","","176","","0.1821857965","main_expt","0.4","","0.6","0.1896898672","","0.2","","0.8","0.3223017316","0.3771690292","","","","","",""
"275","","bandit","255","487624","0.0-216.0-0.0","38985709","wem/bandit_either","A3963FCT1PKKOH","either","8","","","","","","","76","L","3","","1","0","0","0.4047809956","","","177","0.1444884472","","main_expt","0.4","0.2441254625","0.6","","0.2964924158","0.2","0.4047809956","0.8","","","","","","","",""
"126","","bandit","256","489272","0.0-217.0-0.0","38985709","wem/bandit_either","A3963FCT1PKKOH","either","8","","","","","","","72","H","0","img/none_selected.jpg","0","0","1","0.1207783293","","","178","0.1207783293","","main_expt","0.4","0.2427722412","0.6","","0.2780576925","0.2","0.4344960837","0.8","","","","","","","",""
"114","","bandit","257","490913","0.0-218.0-0.0","38985709","wem/bandit_either","A3963FCT1PKKOH","either","8","","","","","","","74","J","1","","0","0","1","","0.2284650367","","179","","0.111585665","main_expt","0.4","","0.6","0.2284650367","","0.2","","0.8","0.2859751729","0.4287912686","","","","","",""
"111","","bandit","258","492555","0.0-219.0-0.0","38985709","wem/bandit_either","A3963FCT1PKKOH","either","8","","","","","","","75","K","2","","0","0","1","0.283533164","","","180","0.06891525065","","main_expt","0.4","0.2694081366","0.6","","0.283533164","0.2","0.4294180747","0.8","","","","","","","",""
"144","","bandit","259","494222","0.0-220.0-0.0","38985709","wem/bandit_either","A3963FCT1PKKOH","either","8","","","","","","","76","L","3","","0","0","1","0.3887332701","","","181","0.07407739619","","main_expt","0.4","0.2471628034","0.6","","0.2430023428","0.2","0.3887332701","0.8","","","","","","","",""
"95","","bandit","260","495839","0.0-221.0-0.0","38985709","wem/bandit_either","A3963FCT1PKKOH","either","8","","","","","","","74","J","1","","0","0","1","0.275372354","","","182","0.07501704201","","main_expt","0.4","0.275372354","0.6","","0.223254837","0.2","0.3910635387","0.8","","","","","","","",""
"126","","bandit","261","497495","0.0-222.0-0.0","38985709","wem/bandit_either","A3963FCT1PKKOH","either","8","","","","","","","74","J","1","","0","0","1","0.2378950907","","","183","0.09354103142","","main_expt","0.4","0.2378950907","0.6","","0.2274286797","0.2","0.3957792538","0.8","","","","","","","",""
"121","","bandit","262","499136","0.0-223.0-0.0","38985709","wem/bandit_either","A3963FCT1PKKOH","either","8","","","","","","","72","H","0","img/none_selected.jpg","0","0","1","0.06673830493","","","184","0.06673830493","","main_expt","0.4","0.2611999536","0.6","","0.2485964068","0.2","0.3777829694","0.8","","","","","","","",""
"87","","bandit","263","500744","0.0-224.0-0.0","38985709","wem/bandit_either","A3963FCT1PKKOH","either","8","","","","","","","72","H","0","img/none_selected.jpg","0","0","1","","0.08617836821","","185","","0.08617836821","main_expt","0.4","","0.6","0.2799245071","","0.2","","0.8","0.2080173303","0.4130939835","","","","","",""
"12078","","bandit","264","514345","0.0-225.0-0.0","38985709","wem/bandit_either","A3963FCT1PKKOH","either","8","","","","","","","74","J","1","","1","0","0","0.2275386122","","","186","0.05054014018","","main_expt","0.4","0.2275386122","0.6","","0.2538883687","0.2","0.376930599","0.8","","","","","","","",""
"143","","bandit","265","516008","0.0-226.0-0.0","38985709","wem/bandit_either","A3963FCT1PKKOH","either","8","","","","","","","72","H","0","img/none_selected.jpg","0","0","1","0.1101456656","","","187","0.1101456656","","main_expt","0.4","0.2558518805","0.6","","0.2267652077","0.2","0.3934592684","0.8","","","","","","","",""
"95","","bandit","266","517635","0.0-227.0-0.0","38985709","wem/bandit_either","A3963FCT1PKKOH","either","8","","","","","","","72","H","0","img/none_selected.jpg","0","0","1","0.1076418148","","","188","0.1076418148","","main_expt","0.4","0.2757393749","0.6","","0.2583789709","0.2","0.4086060551","0.8","","","","","","","",""
"183","","bandit","267","519367","0.0-228.0-0.0","38985709","wem/bandit_either","A3963FCT1PKKOH","either","8","","","","","","","74","J","1","","0","0","1","","0.3326758055","","189","","0.1230456027","main_expt","0.4","","0.6","0.3326758055","","0.2","","0.8","0.2329768584","0.447145564","","","","","",""
"247","","bandit","268","521134","0.0-229.0-0.0","38985709","wem/bandit_either","A3963FCT1PKKOH","either","8","","","","","","","76","L","3","","1","0","0","0.386091063","","","190","0.1872873117","","main_expt","0.4","0.332927569","0.6","","0.2002510669","0.2","0.386091063","0.8","","","","","","","",""
"33","","bandit","269","522685","0.0-230.0-0.0","38985709","wem/bandit_either","A3963FCT1PKKOH","either","8","","","","","","","74","J","1","","0","1","0","","0.3859199101","","191","","0.1413073252","main_expt","0.4","","0.6","0.3859199101","","0.2","","0.8","0.2182600554","0.4221145333","","","","","",""
"40","","bandit","270","524257","0.0-231.0-0.0","38985709","wem/bandit_either","A3963FCT1PKKOH","either","8","","","","","","","72","H","0","img/none_selected.jpg","0","0","1","","0.1868627967","","192","","0.1868627967","main_expt","0.4","","0.6","0.392668484","","0.2","","0.8","0.2681613901","0.3913199708","","","","","",""
"64","","bandit","271","525841","0.0-232.0-0.0","38985709","wem/bandit_either","A3963FCT1PKKOH","either","8","","","","","","","74","J","1","","0","0","1","","0.3789843676","","193","","0.2312719224","main_expt","0.4","","0.6","0.3789843676","","0.2","","0.8","0.3035027483","0.4013624592","","","","","",""
"196","","bandit","272","527556","0.0-233.0-0.0","38985709","wem/bandit_either","A3963FCT1PKKOH","either","8","","","","","","","76","L","3","","0","0","1","0.3668237699","","","194","0.2585201677","","main_expt","0.4","0.3689216281","0.6","","0.275531754","0.2","0.3668237699","0.8","","","","","","","",""
"27","","bandit","273","529105","0.0-234.0-0.0","38985709","wem/bandit_either","A3963FCT1PKKOH","either","8","","","","","","","74","J","1","","0","0","1","0.4136905162","","","195","0.2786104129","","main_expt","0.4","0.4136905162","0.6","","0.2716401532","0.2","0.3856266791","0.8","","","","","","","",""
"14933","","bandit","274","545575","0.0-235.0-0.0","38985709","wem/bandit_either","A3963FCT1PKKOH","either","8","","","","","","","72","H","0","img/none_selected.jpg","0","0","1","","0.2407834285","","196","","0.2407834285","main_expt","0.4","","0.6","0.4258575101","","0.2","","0.8","0.2814611543","0.3702439493","","","","","",""
"8","","bandit","275","547113","0.0-236.0-0.0","38985709","wem/bandit_either","A3963FCT1PKKOH","either","8","","","","","","","76","L","3","","0","0","1","0.3665926528","","","197","0.2550568011","","main_expt","0.4","0.3976178043","0.6","","0.2588010394","0.2","0.3665926528","0.8","","","","","","","",""
"23439","","bandit","276","572081","0.0-237.0-0.0","38985709","wem/bandit_either","A3963FCT1PKKOH","either","8","","","","","","","72","H","0","img/none_selected.jpg","0","0","1","0.3094863904","","","198","0.3094863904","","main_expt","0.4","0.3802378075","0.6","","0.3094610495","0.2","0.3432124584","0.8","","","","","","","",""
"344","","bandit","277","573948","0.0-238.0-0.0","38985709","wem/bandit_either","A3963FCT1PKKOH","either","8","","","","","","","72","H","0","img/none_selected.jpg","0","0","1","0.3012985694","","","199","0.3012985694","","main_expt","0.4","0.3926800246","0.6","","0.3139278769","0.2","0.4096574544","0.8","","","","","","","",""
"138","","bandit","278","575645","0.0-239.0-0.0","38985709","wem/bandit_either","A3963FCT1PKKOH","either","8","","","","","","","75","K","2","","0","0","1","0.3459706187","","","200","0.3149132519","","main_expt","0.4","0.3814844917","0.6","","0.3459706187","0.2","0.3799023259","0.8","","","","","","","",""
"39","","bandit","279","577208","0.0-240.0-0.0","38985709","wem/bandit_either","A3963FCT1PKKOH","either","8","","","","","","","72","H","0","img/none_selected.jpg","0","0","1","0.3236307962","","","201","0.3236307962","","main_expt","0.4","0.3831630738","0.6","","0.3038365479","0.2","0.3513783521","0.8","","","","","","","",""
"229","","bandit","280","578958","0.0-241.0-0.0","38985709","wem/bandit_either","A3963FCT1PKKOH","either","8","","","","","","","72","H","0","img/none_selected.jpg","1","0","0","0.3163717903","","","202","0.3163717903","","main_expt","0.4","0.3957430938","0.6","","0.2964599608","0.2","0.3439351057","0.8","","","","","","","",""
"45","","bandit","281","580524","0.0-242.0-0.0","38985709","wem/bandit_either","A3963FCT1PKKOH","either","8","","","","","","","72","H","0","img/none_selected.jpg","0","0","1","0.3165936227","","","203","0.3165936227","","main_expt","0.4","0.4175506619","0.6","","0.280336616","0.2","0.2615327891","0.8","","","","","","","",""
"446","","bandit","282","582542","0.0-243.0-0.0","38985709","wem/bandit_either","A3963FCT1PKKOH","either","8","","","","","","","72","H","0","img/none_selected.jpg","0","0","1","","0.3166231072","","204","","0.3166231072","main_expt","0.4","","0.6","0.4356800279","","0.2","","0.8","0.262900641","0.2211517471","","","","","",""
"85","","bandit","283","584154","0.0-244.0-0.0","38985709","wem/bandit_either","A3963FCT1PKKOH","either","8","","","","","","","75","K","2","","0","0","1","","0.3403150927","","205","","0.2983153058","main_expt","0.4","","0.6","0.4342993254","","0.2","","0.8","0.3403150927","0.1955747294","","","","","",""
"107","","bandit","284","585791","0.0-245.0-0.0","38985709","wem/bandit_either","A3963FCT1PKKOH","either","8","","","","","","","72","H","0","img/none_selected.jpg","0","0","1","","0.255573156","","206","","0.255573156","main_expt","0.4","","0.6","0.4515967499","","0.2","","0.8","0.3407188883","0.3137251184","","","","","",""
"124","","bandit","285","587438","0.0-246.0-0.0","38985709","wem/bandit_either","A3963FCT1PKKOH","either","8","","","","","","","76","L","3","","0","0","1","","0.2982459604","","207","","0.2816724171","main_expt","0.4","","0.6","0.4559700358","","0.2","","0.8","0.2955601217","0.2982459604","","","","","",""
"100","","bandit","286","589061","0.0-247.0-0.0","38985709","wem/bandit_either","A3963FCT1PKKOH","either","8","","","","","","","74","J","1","","1","0","0","0.4711787588","","","208","0.2462622089","","main_expt","0.4","0.4711787588","0.6","","0.2832193826","0.2","0.2359404152","0.8","","","","","","","",""
"159","","bandit","287","590743","0.0-248.0-0.0","38985709","wem/bandit_either","A3963FCT1PKKOH","either","8","","","","","","","72","H","0","img/none_selected.jpg","1","0","0","0.2608633631","","","209","0.2608633631","","main_expt","0.4","0.4859779177","0.6","","0.25637755","0.2","0.2396635106","0.8","","","","","","","",""
"211","","bandit","288","592474","0.0-249.0-0.0","38985709","wem/bandit_either","A3963FCT1PKKOH","either","8","","","","","","","72","H","0","img/none_selected.jpg","0","0","1","","0.2649708152","","210","","0.2649708152","main_expt","0.4","","0.6","0.4798195452","","0.2","","0.8","0.2500912527","0.2320506775","","","","","",""
"4","","bandit","289","594007","0.0-250.0-0.0","38985709","wem/bandit_either","A3963FCT1PKKOH","either","8","","","","","","","74","J","1","","0","0","1","0.4754072522","","","211","0.2658594566","","main_expt","0.4","0.4754072522","0.6","","0.2481129288","0.2","0.1894847828","0.8","","","","","","","",""
"681","","bandit","290","596216","0.0-251.0-0.0","38985709","wem/bandit_either","A3963FCT1PKKOH","either","8","","","","","","","76","L","3","","0","0","1","0.2330804604","","","212","0.2648449814","","main_expt","0.4","0.4780703898","0.6","","0.3192168596","0.2","0.2330804604","0.8","","","","","","","",""
"6","","bandit","291","597756","0.0-252.0-0.0","38985709","wem/bandit_either","A3963FCT1PKKOH","either","8","","","","","","","76","L","3","","0","0","1","0.2484053244","","","213","0.286492297","","main_expt","0.4","0.4883488692","0.6","","0.2361953268","0.2","0.2484053244","0.8","","","","","","","",""
"166","","bandit","292","599451","0.0-253.0-0.0","38985709","wem/bandit_either","A3963FCT1PKKOH","either","8","","","","","","","74","J","1","","0","0","1","0.4872562331","","","214","0.2540339129","","main_expt","0.4","0.4872562331","0.6","","0.2308921763","0.2","0.2182548364","0.8","","","","","","","",""
"298","","bandit","293","601273","0.0-254.0-0.0","38985709","wem/bandit_either","A3963FCT1PKKOH","either","8","","","","","","","74","J","1","","1","0","0","0.4749609167","","","215","0.254651127","","main_expt","0.4","0.4749609167","0.6","","0.2161033537","0.2","0.1824073789","0.8","","","","","","","",""
"195","","bandit","294","602989","0.0-255.0-0.0","38985709","wem/bandit_either","A3963FCT1PKKOH","either","8","","","","","","","74","J","1","","1","0","0","0.4798413464","","","216","0.3140517816","","main_expt","0.4","0.4798413464","0.6","","0.1896756427","0.2","0.1923730387","0.8","","","","","","","",""
"435","","bandit","295","604946","0.0-256.0-0.0","38985709","wem/bandit_either","A3963FCT1PKKOH","either","8","","","","","","","72","H","0","img/none_selected.jpg","0","0","1","0.3338676317","","","217","0.3338676317","","main_expt","0.4","0.4865144435","0.6","","0.1724286307","0.2","0.2266612446","0.8","","","","","","","",""
"90","","bandit","296","606606","0.0-257.0-0.0","38985709","wem/bandit_either","A3963FCT1PKKOH","either","8","","","","","","","74","J","1","","1","0","0","0.4789145001","","","218","0.3397001125","","main_expt","0.4","0.4789145001","0.6","","0.161168334","0.2","0.1702705737","0.8","","","","","","","",""
"37","","bandit","297","608175","0.0-258.0-0.0","38985709","wem/bandit_either","A3963FCT1PKKOH","either","8","","","","","","","74","J","1","","1","0","0","0.4834748692","","","219","0.2982528089","","main_expt","0.4","0.4834748692","0.6","","0.2021763003","0.2","0.1159766116","0.8","","","","","","","",""
"304","","bandit","298","610009","0.0-259.0-0.0","38985709","wem/bandit_either","A3963FCT1PKKOH","either","8","","","","","","","74","J","1","","0","1","0","","0.4722371777","","220","","0.2770934022","main_expt","0.4","","0.6","0.4722371777","","0.2","","0.8","0.2142164272","0.09529473055","","","","","",""
"469","","bandit","299","612005","0.0-260.0-0.0","38985709","wem/bandit_either","A3963FCT1PKKOH","either","8","","","","","","","72","H","0","img/none_selected.jpg","0","0","1","0.2696770889","","","221","0.2696770889","","main_expt","0.4","0.4654689219","0.6","","0.189068297","0.2","0.09060922323","0.8","","","","","","","",""
"250","","bandit","300","613786","0.0-261.0-0.0","38985709","wem/bandit_either","A3963FCT1PKKOH","either","8","","","","","","","75","K","2","","1","0","0","0.2120997892","","","222","0.3103502417","","main_expt","0.4","0.4533789701","0.6","","0.2120997892","0.2","0.1250772464","0.8","","","","","","","",""
"5","","bandit","301","615314","0.0-262.0-0.0","38985709","wem/bandit_either","A3963FCT1PKKOH","either","8","","","","","","","72","H","0","img/none_selected.jpg","0","0","1","","0.3477728299","","223","","0.3477728299","main_expt","0.4","","0.6","0.4473019993","","0.2","","0.8","0.1937664477","0.1177235221","","","","","",""
"351","","bandit","302","617189","0.0-263.0-0.0","38985709","wem/bandit_either","A3963FCT1PKKOH","either","8","","","","","","","75","K","2","","0","0","1","0.2195846313","","","224","0.3230244909","","main_expt","0.4","0.4651086175","0.6","","0.2195846313","0.2","0.1589673504","0.8","","","","","","","",""
"4","","bandit","303","618721","0.0-264.0-0.0","38985709","wem/bandit_either","A3963FCT1PKKOH","either","8","","","","","","","76","L","3","","0","0","1","0.1582937281","","","225","0.3641913847","","main_expt","0.4","0.4704934375","0.6","","0.1973587738","0.2","0.1582937281","0.8","","","","","","","",""
"253","","bandit","304","620499","0.0-265.0-0.0","38985709","wem/bandit_either","A3963FCT1PKKOH","either","8","","","","","","","75","K","2","","0","0","1","","0.2029059012","","226","","0.3211822138","main_expt","0.4","","0.6","0.4545632724","","0.2","","0.8","0.2029059012","0.1585786296","","","","","",""
"140","","bandit","305","622160","0.0-266.0-0.0","38985709","wem/bandit_either","A3963FCT1PKKOH","either","8","","","","","","","74","J","1","","1","0","0","0.4313330006","","","227","0.3318596792","","main_expt","0.4","0.4313330006","0.6","","0.1677618241","0.2","0.1614007709","0.8","","","","","","","",""
"306","","bandit","306","623990","0.0-267.0-0.0","38985709","wem/bandit_either","A3963FCT1PKKOH","either","8","","","","","","","74","J","1","","0","0","1","0.4253897179","","","228","0.3715738924","","main_expt","0.4","0.4253897179","0.6","","0.2079318551","0.2","0.1160982884","0.8","","","","","","","",""
"444","","bandit","307","625963","0.0-268.0-0.0","38985709","wem/bandit_either","A3963FCT1PKKOH","either","8","","","","","","","72","H","0","img/none_selected.jpg","0","0","1","","0.3571583743","","229","","0.3571583743","main_expt","0.4","","0.6","0.4416009531","","0.2","","0.8","0.1860779256","0.1327168588","","","","","",""
"201","","bandit","308","627686","0.0-269.0-0.0","38985709","wem/bandit_either","A3963FCT1PKKOH","either","8","","","","","","","76","L","3","","0","0","1","0.1751239199","","","230","0.3455313741","","main_expt","0.4","0.4612445757","0.6","","0.1294985144","0.2","0.1751239199","0.8","","","","","","","",""
"7","","bandit","309","629218","0.0-270.0-0.0","38985709","wem/bandit_either","A3963FCT1PKKOH","either","8","","","","","","","75","K","2","","0","1","0","","0.1424139305","","231","","0.3114256563","main_expt","0.4","","0.6","0.4455927364","","0.2","","0.8","0.1424139305","0.2080149414","","","","","",""
"31","","bandit","310","630775","0.0-271.0-0.0","38985709","wem/bandit_either","A3963FCT1PKKOH","either","8","","","","","","","76","L","3","","0","1","0","","0.2305008548","","232","","0.3127001645","main_expt","0.4","","0.6","0.4449483857","","0.2","","0.8","0.1777617008","0.2305008548","","","","","",""
"277","","bandit","311","632581","0.0-272.0-0.0","38985709","wem/bandit_either","A3963FCT1PKKOH","either","8","","","","","","","74","J","1","","0","1","0","","0.4570404202","","233","","0.2953609795","main_expt","0.4","","0.6","0.4570404202","","0.2","","0.8","0.1408291819","0.2331895239","","","","","",""
"121","","bandit","312","634224","0.0-273.0-0.0","38985709","wem/bandit_either","A3963FCT1PKKOH","either","8","","","","","","","72","H","0","img/none_selected.jpg","0","0","1","","0.2743769666","","234","","0.2743769666","main_expt","0.4","","0.6","0.4785018613","","0.2","","0.8","0.09563300426","0.2007149185","","","","","",""
"5","","bandit","313","635754","0.0-274.0-0.0","38985709","wem/bandit_either","A3963FCT1PKKOH","either","8","","","","","","","72","H","0","img/none_selected.jpg","0","0","1","","0.2842570603","","235","","0.2842570603","main_expt","0.4","","0.6","0.4708517218","","0.2","","0.8","0.06508254785","0.1428876463","","","","","",""
"40","","bandit","314","637319","0.0-275.0-0.0","38985709","wem/bandit_either","A3963FCT1PKKOH","either","8","","","","","","","72","H","0","img/none_selected.jpg","0","1","0","","0.3536106974","","236","","0.3536106974","main_expt","0.4","","0.6","0.4721911582","","0.2","","0.8","0.05272484418","0.1327756685","","","","","",""
"99","","bandit","315","638946","0.0-276.0-0.0","38985709","wem/bandit_either","A3963FCT1PKKOH","either","8","","","","","","","74","J","1","","1","0","0","0.4567984566","","","237","0.3777879982","","main_expt","0.4","0.4567984566","0.6","","0.05000735717","0.2","0.1969646424","0.8","","","","","","","",""
"114","","bandit","316","640594","0.0-277.0-0.0","38985709","wem/bandit_either","A3963FCT1PKKOH","either","8","","","","","","","74","J","1","","0","0","1","0.4601910044","","","238","0.3819628943","","main_expt","0.4","0.4601910044","0.6","","0.03409798278","0.2","0.2040955009","0.8","","","","","","","",""
"153","","bandit","317","642268","0.0-278.0-0.0","38985709","wem/bandit_either","A3963FCT1PKKOH","either","8","","","","","","","74","J","1","","0","1","0","","0.4663275819","","239","","0.3590612953","main_expt","0.4","","0.6","0.4663275819","","0.2","","0.8","0.03555143528","0.1885012088","","","","","",""
"268","","bandit","318","644060","0.0-279.0-0.0","38985709","wem/bandit_either","A3963FCT1PKKOH","either","8","","","","","","","75","K","2","","0","0","1","","0.06633834621","","240","","0.3943681209","main_expt","0.4","","0.6","0.4781926851","","0.2","","0.8","0.06633834621","0.1779850251","","","","","",""
"19","","bandit","319","645613","0.0-280.0-0.0","38985709","wem/bandit_either","A3963FCT1PKKOH","either","8","","","","","","","75","K","2","","0","1","0","","0.0332650027","","241","","0.4178476804","main_expt","0.4","","0.6","0.4813407325","","0.2","","0.8","0.0332650027","0.2132761508","","","","","",""
"31","","bandit","320","647165","0.0-281.0-0.0","38985709","wem/bandit_either","A3963FCT1PKKOH","either","8","","","","","","","76","L","3","","1","0","0","0.2181708985","","","242","0.4083523659","","main_expt","0.4","0.4758201438","0.6","","0.03674005559","0.2","0.2181708985","0.8","","","","","","","",""
"142","","bandit","321","648831","0.0-282.0-0.0","38985709","wem/bandit_either","A3963FCT1PKKOH","either","8","","","","","","","76","L","3","","0","0","1","0.1880751836","","","243","0.4107673147","","main_expt","0.4","0.4739127226","0.6","","0.02732183546","0.2","0.1880751836","0.8","","","","","","","",""
"567","","bandit","322","650921","0.0-283.0-0.0","38985709","wem/bandit_either","A3963FCT1PKKOH","either","8","","","","","","","76","L","3","","1","0","0","0.2693527465","","","244","0.3914084711","","main_expt","0.4","0.4467527753","0.6","","0.02742276317","0.2","0.2693527465","0.8","","","","","","","",""
"315","","bandit","323","652759","0.0-284.0-0.0","38985709","wem/bandit_either","A3963FCT1PKKOH","either","8","","","","","","","76","L","3","","1","0","0","0.2474629182","","","245","0.4117032301","","main_expt","0.4","0.4492118003","0.6","","0.03322496416","0.2","0.2474629182","0.8","","","","","","","",""
"662","","bandit","324","654946","0.0-285.0-0.0","38985709","wem/bandit_either","A3963FCT1PKKOH","either","8","","","","","","","76","L","3","","1","0","0","0.3019125269","","","246","0.4225436654","","main_expt","0.4","0.4702058379","0.6","","0.0538648904","0.2","0.3019125269","0.8","","","","","","","",""
"4","","bandit","325","656537","0.0-286.0-0.0","38985709","wem/bandit_either","A3963FCT1PKKOH","either","8","","","","","","","75","K","2","","0","0","1","","0.05538537946","","247","","0.4327875568","main_expt","0.4","","0.6","0.4717010128","","0.2","","0.8","0.05538537946","0.3013832462","","","","","",""
"16","","bandit","326","658081","0.0-287.0-0.0","38985709","wem/bandit_either","A3963FCT1PKKOH","either","8","","","","","","","76","L","3","","1","0","0","0.2917300956","","","248","0.4478523955","","main_expt","0.4","0.4750055548","0.6","","0.07377210468","0.2","0.2917300956","0.8","","","","","","","",""
"5174","","bandit","327","664779","0.0-288.0-0.0","38985709","wem/bandit_either","A3963FCT1PKKOH","either","8","","","","","","","76","L","3","","0","0","1","0.2976682537","","","249","0.4221620221","","main_expt","0.4","0.4608113614","0.6","","0.07098242635","0.2","0.2976682537","0.8","","","","","","","",""
"4","","bandit","328","666307","0.0-289.0-0.0","38985709","wem/bandit_either","A3963FCT1PKKOH","either","8","","","","","","","75","K","2","","0","0","1","","0.08291081884","","250","","0.3998447204","main_expt","0.4","","0.6","0.4361301801","","0.2","","0.8","0.08291081884","0.2921609534","","","","","",""
"21","","bandit","329","667941","0.0-290.0-0.0","38985709","wem/bandit_either","A3963FCT1PKKOH","either","8","","","","","","","75","K","2","","0","0","1","","0.07668358207","","251","","0.4053116556","main_expt","0.4","","0.6","0.4203652199","","0.2","","0.8","0.07668358207","0.3026336231","","","","","",""
"0","","bandit","330","669476","0.0-291.0-0.0","38985709","wem/bandit_either","A3963FCT1PKKOH","either","8","","","","","","","74","J","1","","0","0","1","0.4465363659","","","252","0.3780439072","","main_expt","0.4","0.4465363659","0.6","","0.05892609675","0.2","0.3303824841","0.8","","","","","","","",""
"4560","","bandit","331","675610","0.0-292.0-0.0","38985709","wem/bandit_either","A3963FCT1PKKOH","either","8","","","","","","","75","K","2","","1","0","0","0.05309255245","","","253","0.4356020742","","main_expt","0.4","0.4480562975","0.6","","0.05309255245","0.2","0.3024212104","0.8","","","","","","","",""
"24","","bandit","332","677215","0.0-293.0-0.0","38985709","wem/bandit_either","A3963FCT1PKKOH","either","8","","","","","","","74","J","1","","0","0","1","0.4421075204","","","254","0.4576925499","","main_expt","0.4","0.4421075204","0.6","","0.03865169821","0.2","0.3110648486","0.8","","","","","","","",""
"217","","bandit","333","678962","0.0-294.0-0.0","38985709","wem/bandit_either","A3963FCT1PKKOH","either","8","","","","","","","75","K","2","","0","0","1","","0.04471370441","","255","","0.4745940057","main_expt","0.4","","0.6","0.4233433244","","0.2","","0.8","0.04471370441","0.2494326665","","","","","",""
