"rt","responses","trial_type","trial_index","time_elapsed","internal_node_id","subjID","study","MID","cond","drift","key_press","expt_phase","target","like","value","connected","respCharCode","respKey","respChoiceNum","respChoice","gems","bombs","no_reward","GemPrChosen","BombPrChosen","practice","trial_counter","WinPr_0","LosePr_0","trial_label","GainOverPainPr_0","WinPr_1","GainOverPainPr_1","LosePr_1","WinPr_2","GainOverPainPr_2","WinPr_3","GainOverPainPr_3","LosePr_2","LosePr_3","Q0","Q1","Q2","gender","age","ethnicity"
"5006","{""Q0"":""AA7ASGQEOMKEZ""}","survey-text","0","5013","0.0-0.0","39988116","wem/bandit_either","AA7ASGQEOMKEZ","either","5","","","","","","","","","","","","","","","","","","","","","","","","","","","","","","","","","","","",""
"12234","","text","1","18251","0.0-1.0","39988116","wem/bandit_either","AA7ASGQEOMKEZ","either","5","32","","","","","","","","","","","","","","","","","","","","","","","","","","","","","","","","","","",""
"6034","","text","2","24287","0.0-2.0","39988116","wem/bandit_either","AA7ASGQEOMKEZ","either","5","32","","","","","","","","","","","","","","","","","","","","","","","","","","","","","","","","","","",""
"22332","","text","3","46623","0.0-3.0","39988116","wem/bandit_either","AA7ASGQEOMKEZ","either","5","32","","","","","","","","","","","","","","","","","","","","","","","","","","","","","","","","","","",""
"22125","","text","4","68750","0.0-4.0","39988116","wem/bandit_either","AA7ASGQEOMKEZ","either","5","32","","","","","","","","","","","","","","","","","","","","","","","","","","","","","","","","","","",""
"13953","","text","5","82705","0.0-5.0","39988116","wem/bandit_either","AA7ASGQEOMKEZ","either","5","32","","","","","","","","","","","","","","","","","","","","","","","","","","","","","","","","","","",""
"5241","","text","6","87949","0.0-6.0","39988116","wem/bandit_either","AA7ASGQEOMKEZ","either","5","32","","","","","","","","","","","","","","","","","","","","","","","","","","","","","","","","","","",""
"4791","","text","7","92742","0.0-7.0","39988116","wem/bandit_either","AA7ASGQEOMKEZ","either","5","32","","","","","","","","","","","","","","","","","","","","","","","","","","","","","","","","","","",""
"10732","","identification","8","103492","0.0-8.0-0.0","39988116","wem/bandit_either","AA7ASGQEOMKEZ","either","5","","identification_pre","the village of Zur","4","5","4","","","","","","","","","","","","","","","","","","","","","","","","","","","","","",""
"6432","","identification","9","110943","0.0-8.0-1.0","39988116","wem/bandit_either","AA7ASGQEOMKEZ","either","5","","identification_pre","the village of Nyx","1","3","1","","","","","","","","","","","","","","","","","","","","","","","","","","","","","",""
"3975","","text","10","115920","0.0-9.0","39988116","wem/bandit_either","AA7ASGQEOMKEZ","either","5","32","","","","","","","","","","","","","","","","","","","","","","","","","","","","","","","","","","",""
"2710","","text","11","118632","0.0-10.0","39988116","wem/bandit_either","AA7ASGQEOMKEZ","either","5","32","","","","","","","","","","","","","","","","","","","","","","","","","","","","","","","","","","",""
"2082","","text","12","120715","0.0-11.0","39988116","wem/bandit_either","AA7ASGQEOMKEZ","either","5","32","","","","","","","","","","","","","","","","","","","","","","","","","","","","","","","","","","",""
"6090","","text","13","126807","0.0-12.0","39988116","wem/bandit_either","AA7ASGQEOMKEZ","either","5","32","","","","","","","","","","","","","","","","","","","","","","","","","","","","","","","","","","",""
"1316","","bandit","14","129633","0.0-13.0-0.0","39988116","wem/bandit_either","AA7ASGQEOMKEZ","either","5","","","","","","","74","J","0","img/none_selected_demo.jpg","0","0","1","0","0","true","0","0","0","","","","","","","","","","","","","","","","",""
"1016","","bandit","15","132157","0.0-14.0-0.0","39988116","wem/bandit_either","AA7ASGQEOMKEZ","either","5","","","","","","","75","K","0","img/none_selected_demo.jpg","0","0","1","0","0","true","0","0","0","","","","","","","","","","","","","","","","",""
"8307","","text","16","140466","0.0-15.0","39988116","wem/bandit_either","AA7ASGQEOMKEZ","either","5","32","","","","","","","","","","","","","","","","","","","","","","","","","","","","","","","","","","",""
"10122","","text","17","150590","0.0-16.0","39988116","wem/bandit_either","AA7ASGQEOMKEZ","either","5","32","","","","","","","","","","","","","","","","","","","","","","","","","","","","","","","","","","",""
"4849","","text","18","155442","0.0-17.0","39988116","wem/bandit_either","AA7ASGQEOMKEZ","either","5","32","","","","","","","","","","","","","","","","","","","","","","","","","","","","","","","","","","",""
"6623","","text","19","162068","0.0-18.0","39988116","wem/bandit_either","AA7ASGQEOMKEZ","either","5","32","","","","","","","","","","","","","","","","","","","","","","","","","","","","","","","","","","",""
"674","","bandit","20","164248","0.0-19.0-0.0","39988116","wem/bandit_either","AA7ASGQEOMKEZ","either","5","","","","","","","74","J","0","img/none_selected_demo.jpg","0","0","1","0.8","","true","0","0.8","","80_20_practice","0.5","0.2","0.5","","","","","","","","","","","","",""
"425","","bandit","21","166178","0.0-19.0-1.0","39988116","wem/bandit_either","AA7ASGQEOMKEZ","either","5","","","","","","","74","J","0","img/none_selected_demo.jpg","1","0","0","0.8","","true","0","0.8","","80_20_practice","0.5","0.2","0.5","","","","","","","","","","","","",""
"322","","bandit","22","168006","0.0-19.0-2.0","39988116","wem/bandit_either","AA7ASGQEOMKEZ","either","5","","","","","","","74","J","0","img/none_selected_demo.jpg","1","0","0","0.8","","true","0","0.8","","80_20_practice","0.5","0.2","0.5","","","","","","","","","","","","",""
"438","","bandit","23","169951","0.0-19.0-3.0","39988116","wem/bandit_either","AA7ASGQEOMKEZ","either","5","","","","","","","74","J","0","img/none_selected_demo.jpg","1","0","0","0.8","","true","0","0.8","","80_20_practice","0.5","0.2","0.5","","","","","","","","","","","","",""
"291","","bandit","24","171749","0.0-19.0-4.0","39988116","wem/bandit_either","AA7ASGQEOMKEZ","either","5","","","","","","","74","J","0","img/none_selected_demo.jpg","0","1","0","","0.8","true","0","","0.8","80_20_practice","0.5","","0.5","0.2","","","","","","","","","","","",""
"420","","bandit","25","173676","0.0-19.0-5.0","39988116","wem/bandit_either","AA7ASGQEOMKEZ","either","5","","","","","","","74","J","0","img/none_selected_demo.jpg","1","0","0","0.8","","true","0","0.8","","80_20_practice","0.5","0.2","0.5","","","","","","","","","","","","",""
"495","","bandit","26","175677","0.0-19.0-6.0","39988116","wem/bandit_either","AA7ASGQEOMKEZ","either","5","","","","","","","74","J","0","img/none_selected_demo.jpg","0","1","0","","0.8","true","0","","0.8","80_20_practice","0.5","","0.5","0.2","","","","","","","","","","","",""
"329","","bandit","27","177513","0.0-19.0-7.0","39988116","wem/bandit_either","AA7ASGQEOMKEZ","either","5","","","","","","","74","J","0","img/none_selected_demo.jpg","0","1","0","","0.8","true","0","","0.8","80_20_practice","0.5","","0.5","0.2","","","","","","","","","","","",""
"1892","","bandit","28","180911","0.0-19.0-8.0","39988116","wem/bandit_either","AA7ASGQEOMKEZ","either","5","","","","","","","74","J","0","img/none_selected_demo.jpg","1","0","0","0.8","","true","0","0.8","","80_20_practice","0.5","0.2","0.5","","","","","","","","","","","","",""
"361","","bandit","29","182779","0.0-19.0-9.0","39988116","wem/bandit_either","AA7ASGQEOMKEZ","either","5","","","","","","","74","J","0","img/none_selected_demo.jpg","1","0","0","0.8","","true","0","0.8","","80_20_practice","0.5","0.2","0.5","","","","","","","","","","","","",""
"222","","bandit","30","184507","0.0-19.0-10.0","39988116","wem/bandit_either","AA7ASGQEOMKEZ","either","5","","","","","","","74","J","0","img/none_selected_demo.jpg","1","0","0","0.8","","true","0","0.8","","80_20_practice","0.5","0.2","0.5","","","","","","","","","","","","",""
"354","","bandit","31","186365","0.0-19.0-11.0","39988116","wem/bandit_either","AA7ASGQEOMKEZ","either","5","","","","","","","75","K","1","","0","0","1","0.2","","true","0","0.8","","80_20_practice","0.5","0.2","0.5","","","","","","","","","","","","",""
"239","","bandit","32","188112","0.0-19.0-12.0","39988116","wem/bandit_either","AA7ASGQEOMKEZ","either","5","","","","","","","75","K","1","","0","0","1","","0.2","true","0","","0.8","80_20_practice","0.5","","0.5","0.2","","","","","","","","","","","",""
"261","","bandit","33","189880","0.0-19.0-13.0","39988116","wem/bandit_either","AA7ASGQEOMKEZ","either","5","","","","","","","75","K","1","","0","0","1","","0.2","true","0","","0.8","80_20_practice","0.5","","0.5","0.2","","","","","","","","","","","",""
"149","","bandit","34","191537","0.0-19.0-14.0","39988116","wem/bandit_either","AA7ASGQEOMKEZ","either","5","","","","","","","75","K","1","","0","0","1","","0.2","true","0","","0.8","80_20_practice","0.5","","0.5","0.2","","","","","","","","","","","",""
"530","","bandit","35","193572","0.0-19.0-15.0","39988116","wem/bandit_either","AA7ASGQEOMKEZ","either","5","","","","","","","75","K","1","","0","0","1","","0.2","true","0","","0.8","80_20_practice","0.5","","0.5","0.2","","","","","","","","","","","",""
"269","","bandit","36","195348","0.0-19.0-16.0","39988116","wem/bandit_either","AA7ASGQEOMKEZ","either","5","","","","","","","74","J","0","img/none_selected_demo.jpg","0","1","0","","0.8","true","0","","0.8","80_20_practice","0.5","","0.5","0.2","","","","","","","","","","","",""
"316","","bandit","37","197173","0.0-19.0-17.0","39988116","wem/bandit_either","AA7ASGQEOMKEZ","either","5","","","","","","","74","J","0","img/none_selected_demo.jpg","0","1","0","","0.8","true","0","","0.8","80_20_practice","0.5","","0.5","0.2","","","","","","","","","","","",""
"9","","bandit","38","198690","0.0-19.0-18.0","39988116","wem/bandit_either","AA7ASGQEOMKEZ","either","5","","","","","","","74","J","0","img/none_selected_demo.jpg","0","0","1","","0.8","true","0","","0.8","80_20_practice","0.5","","0.5","0.2","","","","","","","","","","","",""
"415","","bandit","39","200610","0.0-19.0-19.0","39988116","wem/bandit_either","AA7ASGQEOMKEZ","either","5","","","","","","","74","J","0","img/none_selected_demo.jpg","0","0","1","0.8","","true","0","0.8","","80_20_practice","0.5","0.2","0.5","","","","","","","","","","","","",""
"2768","","text","40","203381","0.0-20.0","39988116","wem/bandit_either","AA7ASGQEOMKEZ","either","5","32","","","","","","","","","","","","","","","","","","","","","","","","","","","","","","","","","","",""
"777","","bandit","41","205666","0.0-21.0-0.0","39988116","wem/bandit_either","AA7ASGQEOMKEZ","either","5","","","","","","","74","J","0","img/none_selected_demo.jpg","1","0","0","1","0","true","0","1","0","","","0","","1","","","","","","","","","","","",""
"6477","","text","42","212145","0.0-22.0","39988116","wem/bandit_either","AA7ASGQEOMKEZ","either","5","32","","","","","","","","","","","","","","","","","","","","","","","","","","","","","","","","","","",""
"1696","","text","43","213844","0.0-23.0","39988116","wem/bandit_either","AA7ASGQEOMKEZ","either","5","32","","","","","","","","","","","","","","","","","","","","","","","","","","","","","","","","","","",""
"3020","","text","44","216867","0.0-24.0","39988116","wem/bandit_either","AA7ASGQEOMKEZ","either","5","32","","","","","","","","","","","","","","","","","","","","","","","","","","","","","","","","","","",""
"4319","","text","45","221189","0.0-25.0","39988116","wem/bandit_either","AA7ASGQEOMKEZ","either","5","32","","","","","","","","","","","","","","","","","","","","","","","","","","","","","","","","","","",""
"7604","","text","46","228795","0.0-26.0","39988116","wem/bandit_either","AA7ASGQEOMKEZ","either","5","32","","","","","","","","","","","","","","","","","","","","","","","","","","","","","","","","","","",""
"2308","","text","47","231105","0.0-27.0","39988116","wem/bandit_either","AA7ASGQEOMKEZ","either","5","32","","","","","","","","","","","","","","","","","","","","","","","","","","","","","","","","","","",""
"4123","","text","48","235231","0.0-28.0","39988116","wem/bandit_either","AA7ASGQEOMKEZ","either","5","32","","","","","","","","","","","","","","","","","","","","","","","","","","","","","","","","","","",""
"2392","","text","49","237624","0.0-29.0","39988116","wem/bandit_either","AA7ASGQEOMKEZ","either","5","32","","","","","","","","","","","","","","","","","","","","","","","","","","","","","","","","","","",""
"4547","","text","50","242173","0.0-30.0","39988116","wem/bandit_either","AA7ASGQEOMKEZ","either","5","32","","","","","","","","","","","","","","","","","","","","","","","","","","","","","","","","","","",""
"1565","","text","51","243740","0.0-31.0","39988116","wem/bandit_either","AA7ASGQEOMKEZ","either","5","32","","","","","","","","","","","","","","","","","","","","","","","","","","","","","","","","","","",""
"4749","","text","52","248492","0.0-32.0","39988116","wem/bandit_either","AA7ASGQEOMKEZ","either","5","32","","","","","","","","","","","","","","","","","","","","","","","","","","","","","","","","","","",""
"714","","bandit","53","250715","0.0-33.0-0.0","39988116","wem/bandit_either","AA7ASGQEOMKEZ","either","5","","","","","","","72","H","0","img/none_selected.jpg","0","0","1","0.8","","true","0","0.8","","full_practice","0.5","0.2","0.5","","0.6","0.5","0.2","0.5","","","","","","","",""
"320","","bandit","54","252544","0.0-33.0-1.0","39988116","wem/bandit_either","AA7ASGQEOMKEZ","either","5","","","","","","","74","J","1","","0","0","1","","0.2","true","0","","0.8","full_practice","0.5","","0.5","0.2","","0.5","","0.5","0.6","0.2","","","","","",""
"338","","bandit","55","254388","0.0-33.0-2.0","39988116","wem/bandit_either","AA7ASGQEOMKEZ","either","5","","","","","","","75","K","2","","1","0","0","0.6","","true","0","0.8","","full_practice","0.5","0.2","0.5","","0.6","0.5","0.2","0.5","","","","","","","",""
"300","","bandit","56","256196","0.0-33.0-3.0","39988116","wem/bandit_either","AA7ASGQEOMKEZ","either","5","","","","","","","76","L","3","","0","0","1","","0.2","true","0","","0.8","full_practice","0.5","","0.5","0.2","","0.5","","0.5","0.6","0.2","","","","","",""
"377","","bandit","57","258083","0.0-33.0-4.0","39988116","wem/bandit_either","AA7ASGQEOMKEZ","either","5","","","","","","","75","K","2","","0","1","0","","0.6","true","0","","0.8","full_practice","0.5","","0.5","0.2","","0.5","","0.5","0.6","0.2","","","","","",""
"253","","bandit","58","259843","0.0-33.0-5.0","39988116","wem/bandit_either","AA7ASGQEOMKEZ","either","5","","","","","","","75","K","2","","0","1","0","","0.6","true","0","","0.8","full_practice","0.5","","0.5","0.2","","0.5","","0.5","0.6","0.2","","","","","",""
"314","","bandit","59","261665","0.0-33.0-6.0","39988116","wem/bandit_either","AA7ASGQEOMKEZ","either","5","","","","","","","75","K","2","","0","0","1","0.6","","true","0","0.8","","full_practice","0.5","0.2","0.5","","0.6","0.5","0.2","0.5","","","","","","","",""
"256","","bandit","60","263429","0.0-33.0-7.0","39988116","wem/bandit_either","AA7ASGQEOMKEZ","either","5","","","","","","","75","K","2","","0","0","1","0.6","","true","0","0.8","","full_practice","0.5","0.2","0.5","","0.6","0.5","0.2","0.5","","","","","","","",""
"229","","bandit","61","265166","0.0-33.0-8.0","39988116","wem/bandit_either","AA7ASGQEOMKEZ","either","5","","","","","","","76","L","3","","0","0","1","0.2","","true","0","0.8","","full_practice","0.5","0.2","0.5","","0.6","0.5","0.2","0.5","","","","","","","",""
"160","","bandit","62","266835","0.0-33.0-9.0","39988116","wem/bandit_either","AA7ASGQEOMKEZ","either","5","","","","","","","74","J","1","","0","0","1","","0.2","true","0","","0.8","full_practice","0.5","","0.5","0.2","","0.5","","0.5","0.6","0.2","","","","","",""
"140","","bandit","63","268484","0.0-33.0-10.0","39988116","wem/bandit_either","AA7ASGQEOMKEZ","either","5","","","","","","","72","H","0","img/none_selected.jpg","0","0","1","0.8","","true","0","0.8","","full_practice","0.5","0.2","0.5","","0.6","0.5","0.2","0.5","","","","","","","",""
"131","","bandit","64","270122","0.0-33.0-11.0","39988116","wem/bandit_either","AA7ASGQEOMKEZ","either","5","","","","","","","75","K","2","","0","1","0","","0.6","true","0","","0.8","full_practice","0.5","","0.5","0.2","","0.5","","0.5","0.6","0.2","","","","","",""
"321","","bandit","65","271951","0.0-33.0-12.0","39988116","wem/bandit_either","AA7ASGQEOMKEZ","either","5","","","","","","","75","K","2","","0","1","0","","0.6","true","0","","0.8","full_practice","0.5","","0.5","0.2","","0.5","","0.5","0.6","0.2","","","","","",""
"276","","bandit","66","273735","0.0-33.0-13.0","39988116","wem/bandit_either","AA7ASGQEOMKEZ","either","5","","","","","","","75","K","2","","0","1","0","","0.6","true","0","","0.8","full_practice","0.5","","0.5","0.2","","0.5","","0.5","0.6","0.2","","","","","",""
"247","","bandit","67","275488","0.0-33.0-14.0","39988116","wem/bandit_either","AA7ASGQEOMKEZ","either","5","","","","","","","75","K","2","","0","0","1","0.6","","true","0","0.8","","full_practice","0.5","0.2","0.5","","0.6","0.5","0.2","0.5","","","","","","","",""
"286","","bandit","68","277284","0.0-33.0-15.0","39988116","wem/bandit_either","AA7ASGQEOMKEZ","either","5","","","","","","","75","K","2","","0","1","0","","0.6","true","0","","0.8","full_practice","0.5","","0.5","0.2","","0.5","","0.5","0.6","0.2","","","","","",""
"307","","bandit","69","279106","0.0-33.0-16.0","39988116","wem/bandit_either","AA7ASGQEOMKEZ","either","5","","","","","","","75","K","2","","0","1","0","","0.6","true","0","","0.8","full_practice","0.5","","0.5","0.2","","0.5","","0.5","0.6","0.2","","","","","",""
"285","","bandit","70","280897","0.0-33.0-17.0","39988116","wem/bandit_either","AA7ASGQEOMKEZ","either","5","","","","","","","75","K","2","","1","0","0","0.6","","true","0","0.8","","full_practice","0.5","0.2","0.5","","0.6","0.5","0.2","0.5","","","","","","","",""
"190","","bandit","71","282593","0.0-33.0-18.0","39988116","wem/bandit_either","AA7ASGQEOMKEZ","either","5","","","","","","","75","K","2","","0","1","0","","0.6","true","0","","0.8","full_practice","0.5","","0.5","0.2","","0.5","","0.5","0.6","0.2","","","","","",""
"202","","bandit","72","284304","0.0-33.0-19.0","39988116","wem/bandit_either","AA7ASGQEOMKEZ","either","5","","","","","","","75","K","2","","1","0","0","0.6","","true","0","0.8","","full_practice","0.5","0.2","0.5","","0.6","0.5","0.2","0.5","","","","","","","",""
"2336","","text","73","286647","0.0-34.0","39988116","wem/bandit_either","AA7ASGQEOMKEZ","either","5","32","","","","","","","","","","","","","","","","","","","","","","","","","","","","","","","","","","",""
"10770","","text","74","298421","0.0-35.0","39988116","wem/bandit_either","AA7ASGQEOMKEZ","either","5","32","","","","","","","","","","","","","","","","","","","","","","","","","","","","","","","","","","",""
"13284","","text","75","311709","0.0-36.0","39988116","wem/bandit_either","AA7ASGQEOMKEZ","either","5","32","","","","","","","","","","","","","","","","","","","","","","","","","","","","","","","","","","",""
"3557","","text","76","315270","0.0-37.0","39988116","wem/bandit_either","AA7ASGQEOMKEZ","either","5","32","","","","","","","","","","","","","","","","","","","","","","","","","","","","","","","","","","",""
"5379","","text","77","320651","0.0-38.0","39988116","wem/bandit_either","AA7ASGQEOMKEZ","either","5","32","","","","","","","","","","","","","","","","","","","","","","","","","","","","","","","","","","",""
"3372","","text","78","324026","0.0-39.0","39988116","wem/bandit_either","AA7ASGQEOMKEZ","either","5","32","","","","","","","","","","","","","","","","","","","","","","","","","","","","","","","","","","",""
"1892","","bandit","79","327425","0.0-40.0-0.0","39988116","wem/bandit_either","AA7ASGQEOMKEZ","either","5","","","","","","","72","H","0","img/none_selected.jpg","1","0","0","0.3897275569","","","1","0.3897275569","","main_expt","0.6","0.3340388524","0.4","","0.4265570961","0.8","0.1165465043","0.2","","","","","","","",""
"10","","bandit","80","328942","0.0-41.0-0.0","39988116","wem/bandit_either","AA7ASGQEOMKEZ","either","5","","","","","","","72","H","0","img/none_selected.jpg","0","0","1","0.3911966266","","","2","0.3911966266","","main_expt","0.6","0.3223834482","0.4","","0.4177099958","0.8","0.08371899021","0.2","","","","","","","",""
"465","","bandit","81","330916","0.0-42.0-0.0","39988116","wem/bandit_either","AA7ASGQEOMKEZ","either","5","","","","","","","72","H","0","img/none_selected.jpg","1","0","0","0.4074861021","","","3","0.4074861021","","main_expt","0.6","0.3585509001","0.4","","0.4192185534","0.8","0.04339790364","0.2","","","","","","","",""
"324","","bandit","82","332749","0.0-43.0-0.0","39988116","wem/bandit_either","AA7ASGQEOMKEZ","either","5","","","","","","","72","H","0","img/none_selected.jpg","1","0","0","0.3965638453","","","4","0.3965638453","","main_expt","0.6","0.3416436242","0.4","","0.4241610434","0.8","0.04073472785","0.2","","","","","","","",""
"224","","bandit","83","334481","0.0-44.0-0.0","39988116","wem/bandit_either","AA7ASGQEOMKEZ","either","5","","","","","","","72","H","0","img/none_selected.jpg","0","1","0","","0.3688269119","","5","","0.3688269119","main_expt","0.6","","0.4","0.3444758892","","0.8","","0.2","0.4284837315","0.04731773769","","","","","",""
"217","","bandit","84","336206","0.0-45.0-0.0","39988116","wem/bandit_either","AA7ASGQEOMKEZ","either","5","","","","","","","72","H","0","img/none_selected.jpg","0","0","1","","0.3865867917","","6","","0.3865867917","main_expt","0.6","","0.4","0.3574177426","","0.8","","0.2","0.4328708062","0.05617088868","","","","","",""
"270","","bandit","85","337984","0.0-46.0-0.0","39988116","wem/bandit_either","AA7ASGQEOMKEZ","either","5","","","","","","","72","H","0","img/none_selected.jpg","0","1","0","","0.4294719924","","7","","0.4294719924","main_expt","0.6","","0.4","0.3634052143","","0.8","","0.2","0.4176545671","0.05606577856","","","","","",""
"330","","bandit","86","339819","0.0-47.0-0.0","39988116","wem/bandit_either","AA7ASGQEOMKEZ","either","5","","","","","","","72","H","0","img/none_selected.jpg","0","0","1","","0.4210378118","","8","","0.4210378118","main_expt","0.6","","0.4","0.3675420607","","0.8","","0.2","0.4022395488","0.09244853328","","","","","",""
"159","","bandit","87","341488","0.0-48.0-0.0","39988116","wem/bandit_either","AA7ASGQEOMKEZ","either","5","","","","","","","72","H","0","img/none_selected.jpg","0","1","0","","0.4502112583","","9","","0.4502112583","main_expt","0.6","","0.4","0.3921196104","","0.8","","0.2","0.3929004949","0.1271341085","","","","","",""
"263","","bandit","88","343258","0.0-49.0-0.0","39988116","wem/bandit_either","AA7ASGQEOMKEZ","either","5","","","","","","","72","H","0","img/none_selected.jpg","1","0","0","0.4452653155","","","10","0.4452653155","","main_expt","0.6","0.4026182126","0.4","","0.3863711448","0.8","0.1370717255","0.2","","","","","","","",""
"235","","bandit","89","345001","0.0-50.0-0.0","39988116","wem/bandit_either","AA7ASGQEOMKEZ","either","5","","","","","","","72","H","0","img/none_selected.jpg","0","0","1","0.4352349267","","","11","0.4352349267","","main_expt","0.6","0.3543069494","0.4","","0.4205849279","0.8","0.1275050207","0.2","","","","","","","",""
"116","","bandit","90","346625","0.0-51.0-0.0","39988116","wem/bandit_either","AA7ASGQEOMKEZ","either","5","","","","","","","72","H","0","img/none_selected.jpg","0","0","1","","0.4029030639","","12","","0.4029030639","main_expt","0.6","","0.4","0.3504097904","","0.8","","0.2","0.4525069231","0.122317004","","","","","",""
"540","","bandit","91","348672","0.0-52.0-0.0","39988116","wem/bandit_either","AA7ASGQEOMKEZ","either","5","","","","","","","72","H","0","img/none_selected.jpg","0","1","0","","0.4198147105","","13","","0.4198147105","main_expt","0.6","","0.4","0.2787441393","","0.8","","0.2","0.4485799753","0.1251711411","","","","","",""
"446","","bandit","92","350627","0.0-53.0-0.0","39988116","wem/bandit_either","AA7ASGQEOMKEZ","either","5","","","","","","","72","H","0","img/none_selected.jpg","0","0","1","","0.3761312174","","14","","0.3761312174","main_expt","0.6","","0.4","0.2723245106","","0.8","","0.2","0.4504049656","0.1380641988","","","","","",""
"449","","bandit","93","352585","0.0-54.0-0.0","39988116","wem/bandit_either","AA7ASGQEOMKEZ","either","5","","","","","","","74","J","1","","0","1","0","","0.3687644442","","15","","0.4017507227","main_expt","0.6","","0.4","0.3687644442","","0.8","","0.2","0.4281165459","0.2010812313","","","","","",""
"243","","bandit","94","354336","0.0-55.0-0.0","39988116","wem/bandit_either","AA7ASGQEOMKEZ","either","5","","","","","","","74","J","1","","0","0","1","0.3992289848","","","16","0.3859888637","","main_expt","0.6","0.3992289848","0.4","","0.4035101098","0.8","0.1747275657","0.2","","","","","","","",""
"307","","bandit","95","356152","0.0-56.0-0.0","39988116","wem/bandit_either","AA7ASGQEOMKEZ","either","5","","","","","","","74","J","1","","0","0","1","","0.4067061876","","17","","0.3706978481","main_expt","0.6","","0.4","0.4067061876","","0.8","","0.2","0.4063691663","0.1816524112","","","","","",""
"291","","bandit","96","357951","0.0-57.0-0.0","39988116","wem/bandit_either","AA7ASGQEOMKEZ","either","5","","","","","","","75","K","2","","1","0","0","0.4201618032","","","18","0.3323991027","","main_expt","0.6","0.3969002131","0.4","","0.4201618032","0.8","0.1700798448","0.2","","","","","","","",""
"265","","bandit","97","359724","0.0-58.0-0.0","39988116","wem/bandit_either","AA7ASGQEOMKEZ","either","5","","","","","","","75","K","2","","0","0","1","0.3868389751","","","19","0.3301718366","","main_expt","0.6","0.3930099592","0.4","","0.3868389751","0.8","0.1998500639","0.2","","","","","","","",""
"268","","bandit","98","361502","0.0-59.0-0.0","39988116","wem/bandit_either","AA7ASGQEOMKEZ","either","5","","","","","","","75","K","2","","0","0","1","0.3868875991","","","20","0.3714618997","","main_expt","0.6","0.3791602553","0.4","","0.3868875991","0.8","0.2418808817","0.2","","","","","","","",""
"363","","bandit","99","363373","0.0-60.0-0.0","39988116","wem/bandit_either","AA7ASGQEOMKEZ","either","5","","","","","","","76","L","3","","0","1","0","","0.2293341009","","21","","0.3621694591","main_expt","0.6","","0.4","0.4127515201","","0.8","","0.2","0.4253770554","0.2293341009","","","","","",""
"259","","bandit","100","365142","0.0-61.0-0.0","39988116","wem/bandit_either","AA7ASGQEOMKEZ","either","5","","","","","","","76","L","3","","0","0","1","","0.2074184163","","22","","0.3648829928","main_expt","0.6","","0.4","0.4164833055","","0.8","","0.2","0.4285762007","0.2074184163","","","","","",""
"195","","bandit","101","366846","0.0-62.0-0.0","39988116","wem/bandit_either","AA7ASGQEOMKEZ","either","5","","","","","","","76","L","3","","0","0","1","","0.1832507358","","23","","0.2856994719","main_expt","0.6","","0.4","0.4143027846","","0.8","","0.2","0.4082522222","0.1832507358","","","","","",""
"426","","bandit","102","368781","0.0-63.0-0.0","39988116","wem/bandit_either","AA7ASGQEOMKEZ","either","5","","","","","","","72","H","0","img/none_selected.jpg","0","0","1","0.3152516524","","","24","0.3152516524","","main_expt","0.6","0.3649270698","0.4","","0.4027270218","0.8","0.1469425149","0.2","","","","","","","",""
"382","","bandit","103","370672","0.0-64.0-0.0","39988116","wem/bandit_either","AA7ASGQEOMKEZ","either","5","","","","","","","72","H","0","img/none_selected.jpg","0","0","1","0.2778145345","","","25","0.2778145345","","main_expt","0.6","0.392676409","0.4","","0.4100212433","0.8","0.102794739","0.2","","","","","","","",""
"366","","bandit","104","372545","0.0-65.0-0.0","39988116","wem/bandit_either","AA7ASGQEOMKEZ","either","5","","","","","","","72","H","0","img/none_selected.jpg","0","0","1","","0.3170506137","","26","","0.3170506137","main_expt","0.6","","0.4","0.4031565401","","0.8","","0.2","0.4190791169","0.1173732637","","","","","",""
"417","","bandit","105","374471","0.0-66.0-0.0","39988116","wem/bandit_either","AA7ASGQEOMKEZ","either","5","","","","","","","74","J","1","","0","0","1","","0.4245959001","","27","","0.3223143746","main_expt","0.6","","0.4","0.4245959001","","0.8","","0.2","0.4527212376","0.08835016803","","","","","",""
"259","","bandit","106","376239","0.0-67.0-0.0","39988116","wem/bandit_either","AA7ASGQEOMKEZ","either","5","","","","","","","74","J","1","","0","1","0","","0.4232885055","","28","","0.3234472479","main_expt","0.6","","0.4","0.4232885055","","0.8","","0.2","0.4480998813","0.1134440288","","","","","",""
"275","","bandit","107","378024","0.0-68.0-0.0","39988116","wem/bandit_either","AA7ASGQEOMKEZ","either","5","","","","","","","74","J","1","","0","1","0","","0.4495512981","","29","","0.2881425904","main_expt","0.6","","0.4","0.4495512981","","0.8","","0.2","0.4628669208","0.1982905849","","","","","",""
"307","","bandit","108","379837","0.0-69.0-0.0","39988116","wem/bandit_either","AA7ASGQEOMKEZ","either","5","","","","","","","74","J","1","","0","0","1","0.4485299892","","","30","0.2326555855","","main_expt","0.6","0.4485299892","0.4","","0.4565655028","0.8","0.2366655967","0.2","","","","","","","",""
"181","","bandit","109","381530","0.0-70.0-0.0","39988116","wem/bandit_either","AA7ASGQEOMKEZ","either","5","","","","","","","74","J","1","","1","0","0","0.4599237238","","","31","0.2364604256","","main_expt","0.6","0.4599237238","0.4","","0.4686031056","0.8","0.1622470467","0.2","","","","","","","",""
"292","","bandit","110","383331","0.0-71.0-0.0","39988116","wem/bandit_either","AA7ASGQEOMKEZ","either","5","","","","","","","74","J","1","","0","0","1","","0.4508116693","","32","","0.2451982598","main_expt","0.6","","0.4","0.4508116693","","0.8","","0.2","0.4659582456","0.1771911602","","","","","",""
"97","","bandit","111","384938","0.0-72.0-0.0","39988116","wem/bandit_either","AA7ASGQEOMKEZ","either","5","","","","","","","74","J","1","","1","0","0","0.45101727","","","33","0.2360369815","","main_expt","0.6","0.45101727","0.4","","0.4810757035","0.8","0.1622836308","0.2","","","","","","","",""
"209","","bandit","112","386654","0.0-73.0-0.0","39988116","wem/bandit_either","AA7ASGQEOMKEZ","either","5","","","","","","","74","J","1","","0","1","0","","0.4340174653","","34","","0.2317763892","main_expt","0.6","","0.4","0.4340174653","","0.8","","0.2","0.4842727378","0.1655985557","","","","","",""
"245","","bandit","113","388410","0.0-74.0-0.0","39988116","wem/bandit_either","AA7ASGQEOMKEZ","either","5","","","","","","","74","J","1","","0","1","0","","0.4040147441","","35","","0.2527891731","main_expt","0.6","","0.4","0.4040147441","","0.8","","0.2","0.4745470136","0.1492797185","","","","","",""
"211","","bandit","114","390132","0.0-75.0-0.0","39988116","wem/bandit_either","AA7ASGQEOMKEZ","either","5","","","","","","","74","J","1","","0","0","1","","0.4268829696","","36","","0.2641283143","main_expt","0.6","","0.4","0.4268829696","","0.8","","0.2","0.4440965139","0.1504543003","","","","","",""
"271","","bandit","115","391913","0.0-76.0-0.0","39988116","wem/bandit_either","AA7ASGQEOMKEZ","either","5","","","","","","","74","J","1","","1","0","0","0.4562327564","","","37","0.2309310423","","main_expt","0.6","0.4562327564","0.4","","0.4544425755","0.8","0.1064249526","0.2","","","","","","","",""
"234","","bandit","116","393655","0.0-77.0-0.0","39988116","wem/bandit_either","AA7ASGQEOMKEZ","either","5","","","","","","","74","J","1","","0","1","0","","0.4481627861","","38","","0.2093170459","main_expt","0.6","","0.4","0.4481627861","","0.8","","0.2","0.4700138218","0.1346530267","","","","","",""
"188","","bandit","117","395351","0.0-78.0-0.0","39988116","wem/bandit_either","AA7ASGQEOMKEZ","either","5","","","","","","","74","J","1","","0","0","1","0.4475890948","","","39","0.1398625959","","main_expt","0.6","0.4475890948","0.4","","0.466948448","0.8","0.1303494481","0.2","","","","","","","",""
"64","","bandit","118","396924","0.0-79.0-0.0","39988116","wem/bandit_either","AA7ASGQEOMKEZ","either","5","","","","","","","74","J","1","","1","0","0","0.4501575696","","","40","0.09690087606","","main_expt","0.6","0.4501575696","0.4","","0.4679256248","0.8","0.1492074344","0.2","","","","","","","",""
"246","","bandit","119","398683","0.0-80.0-0.0","39988116","wem/bandit_either","AA7ASGQEOMKEZ","either","5","","","","","","","74","J","1","","0","0","1","","0.4121884666","","41","","0.1129569356","main_expt","0.6","","0.4","0.4121884666","","0.8","","0.2","0.445537573","0.1370672299","","","","","",""
"69","","bandit","120","400260","0.0-81.0-0.0","39988116","wem/bandit_either","AA7ASGQEOMKEZ","either","5","","","","","","","74","J","1","","1","0","0","0.4379939247","","","42","0.1227033228","","main_expt","0.6","0.4379939247","0.4","","0.4521531226","0.8","0.08144147181","0.2","","","","","","","",""
"298","","bandit","121","402065","0.0-82.0-0.0","39988116","wem/bandit_either","AA7ASGQEOMKEZ","either","5","","","","","","","74","J","1","","1","0","0","0.4271747655","","","43","0.08393287497","","main_expt","0.6","0.4271747655","0.4","","0.4695072217","0.8","0.06793865388","0.2","","","","","","","",""
"290","","bandit","122","403864","0.0-83.0-0.0","39988116","wem/bandit_either","AA7ASGQEOMKEZ","either","5","","","","","","","74","J","1","","0","1","0","","0.4480494518","","44","","0.06260074275","main_expt","0.6","","0.4","0.4480494518","","0.8","","0.2","0.4807409838","0.05295344446","","","","","",""
"256","","bandit","123","405629","0.0-84.0-0.0","39988116","wem/bandit_either","AA7ASGQEOMKEZ","either","5","","","","","","","74","J","1","","1","0","0","0.4269729589","","","45","0.08062123592","","main_expt","0.6","0.4269729589","0.4","","0.4507048108","0.8","0.02744239742","0.2","","","","","","","",""
"247","","bandit","124","407384","0.0-85.0-0.0","39988116","wem/bandit_either","AA7ASGQEOMKEZ","either","5","","","","","","","74","J","1","","0","1","0","","0.4475746277","","46","","0.1110847749","main_expt","0.6","","0.4","0.4475746277","","0.8","","0.2","0.4382321206","0.02347437243","","","","","",""
"209","","bandit","125","409101","0.0-86.0-0.0","39988116","wem/bandit_either","AA7ASGQEOMKEZ","either","5","","","","","","","74","J","1","","0","0","1","","0.4295618238","","47","","0.05346849493","main_expt","0.6","","0.4","0.4295618238","","0.8","","0.2","0.4393937913","0.02418160198","","","","","",""
"6","","bandit","126","410616","0.0-87.0-0.0","39988116","wem/bandit_either","AA7ASGQEOMKEZ","either","5","","","","","","","74","J","1","","0","0","1","","0.4431907244","","48","","0.04499733497","main_expt","0.6","","0.4","0.4431907244","","0.8","","0.2","0.440318131","0.01182676654","","","","","",""
"296","","bandit","127","412420","0.0-88.0-0.0","39988116","wem/bandit_either","AA7ASGQEOMKEZ","either","5","","","","","","","74","J","1","","1","0","0","0.4187732916","","","49","0.07378534534","","main_expt","0.6","0.4187732916","0.4","","0.4362102412","0.8","0.0186287842","0.2","","","","","","","",""
"296","","bandit","128","414223","0.0-89.0-0.0","39988116","wem/bandit_either","AA7ASGQEOMKEZ","either","5","","","","","","","74","J","1","","0","0","1","","0.356579213","","50","","0.06168845619","main_expt","0.6","","0.4","0.356579213","","0.8","","0.2","0.44488671","0.02550629551","","","","","",""
"150","","bandit","129","415880","0.0-90.0-0.0","39988116","wem/bandit_either","AA7ASGQEOMKEZ","either","5","","","","","","","74","J","1","","0","0","1","","0.2629404955","","51","","0.1062028567","main_expt","0.6","","0.4","0.2629404955","","0.8","","0.2","0.4633405548","0.04366809707","","","","","",""
"226","","bandit","130","417613","0.0-91.0-0.0","39988116","wem/bandit_either","AA7ASGQEOMKEZ","either","5","","","","","","","74","J","1","","0","0","1","0.2919747068","","","52","0.1379608546","","main_expt","0.6","0.2919747068","0.4","","0.4528043762","0.8","0.04357168116","0.2","","","","","","","",""
"255","","bandit","131","419376","0.0-92.0-0.0","39988116","wem/bandit_either","AA7ASGQEOMKEZ","either","5","","","","","","","72","H","0","img/none_selected.jpg","0","0","1","","0.1356826849","","53","","0.1356826849","main_expt","0.6","","0.4","0.3809901122","","0.8","","0.2","0.4390431751","0.03899227154","","","","","",""
"375","","bandit","132","421261","0.0-93.0-0.0","39988116","wem/bandit_either","AA7ASGQEOMKEZ","either","5","","","","","","","72","H","0","img/none_selected.jpg","0","0","1","0.1038772241","","","54","0.1038772241","","main_expt","0.6","0.3452518694","0.4","","0.4549270822","0.8","0.04009146386","0.2","","","","","","","",""
"777","","bandit","133","423547","0.0-94.0-0.0","39988116","wem/bandit_either","AA7ASGQEOMKEZ","either","5","","","","","","","72","H","0","img/none_selected.jpg","0","0","1","0.1689791829","","","55","0.1689791829","","main_expt","0.6","0.3263112327","0.4","","0.4710341864","0.8","0.0155768565","0.2","","","","","","","",""
"288","","bandit","134","425345","0.0-95.0-0.0","39988116","wem/bandit_either","AA7ASGQEOMKEZ","either","5","","","","","","","75","K","2","","0","0","1","0.4745834276","","","56","0.1108888145","","main_expt","0.6","0.3308963945","0.4","","0.4745834276","0.8","0.02112461672","0.2","","","","","","","",""
"598","","bandit","135","427451","0.0-96.0-0.0","39988116","wem/bandit_either","AA7ASGQEOMKEZ","either","5","","","","","","","75","K","2","","1","0","0","0.489318572","","","57","0.1206542402","","main_expt","0.6","0.3150326571","0.4","","0.489318572","0.8","0.0126553198","0.2","","","","","","","",""
"276","","bandit","136","429240","0.0-97.0-0.0","39988116","wem/bandit_either","AA7ASGQEOMKEZ","either","5","","","","","","","75","K","2","","0","0","1","0.480037986","","","58","0.09707343937","","main_expt","0.6","0.3049116772","0.4","","0.480037986","0.8","0.01131359515","0.2","","","","","","","",""
"238","","bandit","137","430988","0.0-98.0-0.0","39988116","wem/bandit_either","AA7ASGQEOMKEZ","either","5","","","","","","","75","K","2","","1","0","0","0.4593461039","","","59","0.1044384952","","main_expt","0.6","0.3050987947","0.4","","0.4593461039","0.8","0.01030075821","0.2","","","","","","","",""
"336","","bandit","138","432835","0.0-99.0-0.0","39988116","wem/bandit_either","AA7ASGQEOMKEZ","either","5","","","","","","","75","K","2","","1","0","0","0.446051488","","","60","0.08890369623","","main_expt","0.6","0.3274009355","0.4","","0.446051488","0.8","0.005868957973","0.2","","","","","","","",""
"227","","bandit","139","434572","0.0-100.0-0.0","39988116","wem/bandit_either","AA7ASGQEOMKEZ","either","5","","","","","","","75","K","2","","1","0","0","0.4391285327","","","61","0.08921221942","","main_expt","0.6","0.3428943983","0.4","","0.4391285327","0.8","0.004361943215","0.2","","","","","","","",""
"220","","bandit","140","436301","0.0-101.0-0.0","39988116","wem/bandit_either","AA7ASGQEOMKEZ","either","5","","","","","","","75","K","2","","1","0","0","0.4063883723","","","62","0.09812025034","","main_expt","0.6","0.3549763931","0.4","","0.4063883723","0.8","0.005208412743","0.2","","","","","","","",""
"224","","bandit","141","438030","0.0-102.0-0.0","39988116","wem/bandit_either","AA7ASGQEOMKEZ","either","5","","","","","","","75","K","2","","0","0","1","0.4330387396","","","63","0.09006279409","","main_expt","0.6","0.3496678451","0.4","","0.4330387396","0.8","0.006461011255","0.2","","","","","","","",""
"452","","bandit","142","439992","0.0-103.0-0.0","39988116","wem/bandit_either","AA7ASGQEOMKEZ","either","5","","","","","","","75","K","2","","0","0","1","0.4207902426","","","64","0.1118976224","","main_expt","0.6","0.3188537263","0.4","","0.4207902426","0.8","0.01267926231","0.2","","","","","","","",""
"225","","bandit","143","441726","0.0-104.0-0.0","39988116","wem/bandit_either","AA7ASGQEOMKEZ","either","5","","","","","","","75","K","2","","1","0","0","0.3719582347","","","65","0.1053817613","","main_expt","0.6","0.3191795336","0.4","","0.3719582347","0.8","0.009732787917","0.2","","","","","","","",""
"294","","bandit","144","443530","0.0-105.0-0.0","39988116","wem/bandit_either","AA7ASGQEOMKEZ","either","5","","","","","","","75","K","2","","1","0","0","0.3748569955","","","66","0.1307356695","","main_expt","0.6","0.268616347","0.4","","0.3748569955","0.8","0.01092542651","0.2","","","","","","","",""
"703","","bandit","145","445741","0.0-106.0-0.0","39988116","wem/bandit_either","AA7ASGQEOMKEZ","either","5","","","","","","","75","K","2","","1","0","0","0.335252031","","","67","0.1418436428","","main_expt","0.6","0.259194563","0.4","","0.335252031","0.8","0.02125534741","0.2","","","","","","","",""
"373","","bandit","146","447626","0.0-107.0-0.0","39988116","wem/bandit_either","AA7ASGQEOMKEZ","either","5","","","","","","","75","K","2","","0","0","1","0.3199157278","","","68","0.1459089566","","main_expt","0.6","0.2281204868","0.4","","0.3199157278","0.8","0.02360283027","0.2","","","","","","","",""
"521","","bandit","147","449656","0.0-108.0-0.0","39988116","wem/bandit_either","AA7ASGQEOMKEZ","either","5","","","","","","","75","K","2","","0","0","1","","0.3068525281","","69","","0.1809721424","main_expt","0.6","","0.4","0.2195844169","","0.8","","0.2","0.3068525281","0.02539305756","","","","","",""
"356","","bandit","148","451520","0.0-109.0-0.0","39988116","wem/bandit_either","AA7ASGQEOMKEZ","either","5","","","","","","","76","L","3","","0","0","1","","0.05014388586","","70","","0.1784068974","main_expt","0.6","","0.4","0.1883338509","","0.8","","0.2","0.3181076016","0.05014388586","","","","","",""
"290","","bandit","149","453318","0.0-110.0-0.0","39988116","wem/bandit_either","AA7ASGQEOMKEZ","either","5","","","","","","","76","L","3","","0","0","1","","0.04209054697","","71","","0.1973023396","main_expt","0.6","","0.4","0.1639708178","","0.8","","0.2","0.2926426422","0.04209054697","","","","","",""
"266","","bandit","150","455094","0.0-111.0-0.0","39988116","wem/bandit_either","AA7ASGQEOMKEZ","either","5","","","","","","","76","L","3","","0","0","1","0.05611199342","","","72","0.2436342847","","main_expt","0.6","0.1312842785","0.4","","0.2380263643","0.8","0.05611199342","0.2","","","","","","","",""
"574","","bandit","151","457177","0.0-112.0-0.0","39988116","wem/bandit_either","AA7ASGQEOMKEZ","either","5","","","","","","","72","H","0","img/none_selected.jpg","0","0","1","0.1992173182","","","73","0.1992173182","","main_expt","0.6","0.1805041857","0.4","","0.2407197948","0.8","0.05293238473","0.2","","","","","","","",""
"331","","bandit","152","459017","0.0-113.0-0.0","39988116","wem/bandit_either","AA7ASGQEOMKEZ","either","5","","","","","","","72","H","0","img/none_selected.jpg","0","0","1","0.2347098304","","","74","0.2347098304","","main_expt","0.6","0.1739557812","0.4","","0.2317468449","0.8","0.0318456884","0.2","","","","","","","",""
"285","","bandit","153","460809","0.0-114.0-0.0","39988116","wem/bandit_either","AA7ASGQEOMKEZ","either","5","","","","","","","72","H","0","img/none_selected.jpg","0","0","1","","0.2641442137","","75","","0.2641442137","main_expt","0.6","","0.4","0.2434916027","","0.8","","0.2","0.2545997551","0.03873230677","","","","","",""
"235","","bandit","154","462554","0.0-115.0-0.0","39988116","wem/bandit_either","AA7ASGQEOMKEZ","either","5","","","","","","","74","J","1","","0","0","1","","0.2438468568","","76","","0.3192644053","main_expt","0.6","","0.4","0.2438468568","","0.8","","0.2","0.2890845388","0.03304947682","","","","","",""
"284","","bandit","155","464349","0.0-116.0-0.0","39988116","wem/bandit_either","AA7ASGQEOMKEZ","either","5","","","","","","","74","J","1","","1","0","0","0.2425324642","","","77","0.3351132613","","main_expt","0.6","0.2425324642","0.4","","0.2386362654","0.8","0.02607887458","0.2","","","","","","","",""
"287","","bandit","156","466144","0.0-117.0-0.0","39988116","wem/bandit_either","AA7ASGQEOMKEZ","either","5","","","","","","","74","J","1","","0","0","1","","0.205588479","","78","","0.3086784207","main_expt","0.6","","0.4","0.205588479","","0.8","","0.2","0.2673679704","0.02492981692","","","","","",""
"50","","bandit","157","467703","0.0-118.0-0.0","39988116","wem/bandit_either","AA7ASGQEOMKEZ","either","5","","","","","","","74","J","1","","0","0","1","","0.213062191","","79","","0.3076482073","main_expt","0.6","","0.4","0.213062191","","0.8","","0.2","0.2813811921","0.01824110002","","","","","",""
"298","","bandit","158","469509","0.0-119.0-0.0","39988116","wem/bandit_either","AA7ASGQEOMKEZ","either","5","","","","","","","74","J","1","","0","0","1","0.1852926048","","","80","0.3605025214","","main_expt","0.6","0.1852926048","0.4","","0.2419447949","0.8","0.0202176162","0.2","","","","","","","",""
"327","","bandit","159","471345","0.0-120.0-0.0","39988116","wem/bandit_either","AA7ASGQEOMKEZ","either","5","","","","","","","74","J","1","","0","1","0","","0.2332942271","","81","","0.3286166321","main_expt","0.6","","0.4","0.2332942271","","0.8","","0.2","0.323481111","0.0252752587","","","","","",""
"250","","bandit","160","473104","0.0-121.0-0.0","39988116","wem/bandit_either","AA7ASGQEOMKEZ","either","5","","","","","","","74","J","1","","0","0","1","","0.2087797338","","82","","0.3459677762","main_expt","0.6","","0.4","0.2087797338","","0.8","","0.2","0.3097244961","0.05668457717","","","","","",""
"200","","bandit","161","474814","0.0-122.0-0.0","39988116","wem/bandit_either","AA7ASGQEOMKEZ","either","5","","","","","","","74","J","1","","0","0","1","","0.2049979043","","83","","0.3092751195","main_expt","0.6","","0.4","0.2049979043","","0.8","","0.2","0.2787498647","0.07760530004","","","","","",""
"162","","bandit","162","476484","0.0-123.0-0.0","39988116","wem/bandit_either","AA7ASGQEOMKEZ","either","5","","","","","","","75","K","2","","0","0","1","0.2589524449","","","84","0.3044630387","","main_expt","0.6","0.2151780091","0.4","","0.2589524449","0.8","0.03696005566","0.2","","","","","","","",""
"336","","bandit","163","478330","0.0-124.0-0.0","39988116","wem/bandit_either","AA7ASGQEOMKEZ","either","5","","","","","","","75","K","2","","0","0","1","0.2769318636","","","85","0.2812480587","","main_expt","0.6","0.1497615914","0.4","","0.2769318636","0.8","0.04177257934","0.2","","","","","","","",""
"318","","bandit","164","480158","0.0-125.0-0.0","39988116","wem/bandit_either","AA7ASGQEOMKEZ","either","5","","","","","","","76","L","3","","0","0","1","","0.0385770192","","86","","0.2506532223","main_expt","0.6","","0.4","0.1223687677","","0.8","","0.2","0.2849222391","0.0385770192","","","","","",""
"275","","bandit","165","481942","0.0-126.0-0.0","39988116","wem/bandit_either","AA7ASGQEOMKEZ","either","5","","","","","","","76","L","3","","0","0","1","","0.03720252147","","87","","0.2269900387","main_expt","0.6","","0.4","0.1472857413","","0.8","","0.2","0.3131087309","0.03720252147","","","","","",""
"210","","bandit","166","483662","0.0-127.0-0.0","39988116","wem/bandit_either","AA7ASGQEOMKEZ","either","5","","","","","","","75","K","2","","0","0","1","0.3038587512","","","88","0.1504729919","","main_expt","0.6","0.1252586248","0.4","","0.3038587512","0.8","0.06746059371","0.2","","","","","","","",""
"45","","bandit","167","485219","0.0-128.0-0.0","39988116","wem/bandit_either","AA7ASGQEOMKEZ","either","5","","","","","","","72","H","0","img/none_selected.jpg","0","0","1","","0.1382070302","","89","","0.1382070302","main_expt","0.6","","0.4","0.1194927994","","0.8","","0.2","0.3308022157","0.04069757945","","","","","",""
"346","","bandit","168","487075","0.0-129.0-0.0","39988116","wem/bandit_either","AA7ASGQEOMKEZ","either","5","","","","","","","72","H","0","img/none_selected.jpg","0","0","1","0.1364765349","","","90","0.1364765349","","main_expt","0.6","0.1589750007","0.4","","0.3574922351","0.8","0.07325379503","0.2","","","","","","","",""
"219","","bandit","169","488806","0.0-130.0-0.0","39988116","wem/bandit_either","AA7ASGQEOMKEZ","either","5","","","","","","","72","H","0","img/none_selected.jpg","0","0","1","","0.09318196272","","91","","0.09318196272","main_expt","0.6","","0.4","0.1859960426","","0.8","","0.2","0.3729517688","0.06877471811","","","","","",""
"466","","bandit","170","490780","0.0-131.0-0.0","39988116","wem/bandit_either","AA7ASGQEOMKEZ","either","5","","","","","","","74","J","1","","0","0","1","","0.192419488","","92","","0.06946097624","main_expt","0.6","","0.4","0.192419488","","0.8","","0.2","0.398352994","0.04115987362","","","","","",""
"311","","bandit","171","492601","0.0-132.0-0.0","39988116","wem/bandit_either","AA7ASGQEOMKEZ","either","5","","","","","","","74","J","1","","0","0","1","","0.1716033463","","93","","0.08102832817","main_expt","0.6","","0.4","0.1716033463","","0.8","","0.2","0.4135860398","0.07078892783","","","","","",""
"15","","bandit","172","494147","0.0-133.0-0.0","39988116","wem/bandit_either","AA7ASGQEOMKEZ","either","5","","","","","","","74","J","1","","0","0","1","","0.1935897604","","94","","0.1271360848","main_expt","0.6","","0.4","0.1935897604","","0.8","","0.2","0.3786880174","0.05572868433","","","","","",""
"409","","bandit","173","496064","0.0-134.0-0.0","39988116","wem/bandit_either","AA7ASGQEOMKEZ","either","5","","","","","","","75","K","2","","0","0","1","0.3823424718","","","95","0.1097592989","","main_expt","0.6","0.2193228015","0.4","","0.3823424718","0.8","0.05056929995","0.2","","","","","","","",""
"264","","bandit","174","497837","0.0-135.0-0.0","39988116","wem/bandit_either","AA7ASGQEOMKEZ","either","5","","","","","","","75","K","2","","0","0","1","0.3642725552","","","96","0.1085490834","","main_expt","0.6","0.3262643469","0.4","","0.3642725552","0.8","0.04159874267","0.2","","","","","","","",""
"756","","bandit","175","500104","0.0-136.0-0.0","39988116","wem/bandit_either","AA7ASGQEOMKEZ","either","5","","","","","","","76","L","3","","0","0","1","","0.03654451862","","97","","0.1049812554","main_expt","0.6","","0.4","0.3207405496","","0.8","","0.2","0.3197717944","0.03654451862","","","","","",""
"314","","bandit","176","501926","0.0-137.0-0.0","39988116","wem/bandit_either","AA7ASGQEOMKEZ","either","5","","","","","","","76","L","3","","0","0","1","","0.04190300095","","98","","0.08177978443","main_expt","0.6","","0.4","0.3712856991","","0.8","","0.2","0.2514424369","0.04190300095","","","","","",""
"182","","bandit","177","503616","0.0-138.0-0.0","39988116","wem/bandit_either","AA7ASGQEOMKEZ","either","5","","","","","","","76","L","3","","0","0","1","","0.08742990617","","99","","0.07574087804","main_expt","0.6","","0.4","0.3740145378","","0.8","","0.2","0.2926772137","0.08742990617","","","","","",""
"430","","bandit","178","505558","0.0-139.0-0.0","39988116","wem/bandit_either","AA7ASGQEOMKEZ","either","5","","","","","","","75","K","2","","0","0","1","0.234485335","","","100","0.07829319678","","main_expt","0.6","0.3776295542","0.4","","0.234485335","0.8","0.08966523481","0.2","","","","","","","",""
"246","","bandit","179","507314","0.0-140.0-0.0","39988116","wem/bandit_either","AA7ASGQEOMKEZ","either","5","","","","","","","75","K","2","","1","0","0","0.250352175","","","101","0.07919243683","","main_expt","0.6","0.3592666398","0.4","","0.250352175","0.8","0.07849065771","0.2","","","","","","","",""
"365","","bandit","180","509187","0.0-141.0-0.0","39988116","wem/bandit_either","AA7ASGQEOMKEZ","either","5","","","","","","","75","K","2","","0","0","1","0.2139972863","","","102","0.1052753188","","main_expt","0.6","0.3412191773","0.4","","0.2139972863","0.8","0.1054267613","0.2","","","","","","","",""
"275","","bandit","181","510974","0.0-142.0-0.0","39988116","wem/bandit_either","AA7ASGQEOMKEZ","either","5","","","","","","","75","K","2","","0","0","1","0.20092706","","","103","0.1248526142","","main_expt","0.6","0.3133100433","0.4","","0.20092706","0.8","0.1120981937","0.2","","","","","","","",""
"182","","bandit","182","512666","0.0-143.0-0.0","39988116","wem/bandit_either","AA7ASGQEOMKEZ","either","5","","","","","","","75","K","2","","0","0","1","0.2305366804","","","104","0.142969925","","main_expt","0.6","0.3219148419","0.4","","0.2305366804","0.8","0.1034740879","0.2","","","","","","","",""
"210","","bandit","183","514388","0.0-144.0-0.0","39988116","wem/bandit_either","AA7ASGQEOMKEZ","either","5","","","","","","","75","K","2","","0","0","1","","0.2102135581","","105","","0.13947254","main_expt","0.6","","0.4","0.3300892518","","0.8","","0.2","0.2102135581","0.07597240327","","","","","",""
"340","","bandit","184","516241","0.0-145.0-0.0","39988116","wem/bandit_either","AA7ASGQEOMKEZ","either","5","","","","","","","74","J","1","","0","0","1","0.3401839058","","","106","0.1329526997","","main_expt","0.6","0.3401839058","0.4","","0.2219457329","0.8","0.1124257427","0.2","","","","","","","",""
"390","","bandit","185","518141","0.0-146.0-0.0","39988116","wem/bandit_either","AA7ASGQEOMKEZ","either","5","","","","","","","72","H","0","img/none_selected.jpg","0","0","1","0.1727290233","","","107","0.1727290233","","main_expt","0.6","0.3784706915","0.4","","0.3048423019","0.8","0.1133168519","0.2","","","","","","","",""
"336","","bandit","186","519985","0.0-147.0-0.0","39988116","wem/bandit_either","AA7ASGQEOMKEZ","either","5","","","","","","","74","J","1","","0","0","1","","0.3945753887","","108","","0.1864487031","main_expt","0.6","","0.4","0.3945753887","","0.8","","0.2","0.258150515","0.1752395656","","","","","",""
"112","","bandit","187","521610","0.0-148.0-0.0","39988116","wem/bandit_either","AA7ASGQEOMKEZ","either","5","","","","","","","72","H","0","img/none_selected.jpg","0","0","1","","0.2463216238","","109","","0.2463216238","main_expt","0.6","","0.4","0.356827327","","0.8","","0.2","0.1859129148","0.1862973424","","","","","",""
"209","","bandit","188","523328","0.0-149.0-0.0","39988116","wem/bandit_either","AA7ASGQEOMKEZ","either","5","","","","","","","76","L","3","","0","0","1","","0.2015845776","","110","","0.2431522628","main_expt","0.6","","0.4","0.2344179837","","0.8","","0.2","0.1371624404","0.2015845776","","","","","",""
"489","","bandit","189","525327","0.0-150.0-0.0","39988116","wem/bandit_either","AA7ASGQEOMKEZ","either","5","","","","","","","75","K","2","","0","0","1","0.1258232978","","","111","0.1757476643","","main_expt","0.6","0.2644823096","0.4","","0.1258232978","0.8","0.2003651753","0.2","","","","","","","",""
"416","","bandit","190","527253","0.0-151.0-0.0","39988116","wem/bandit_either","AA7ASGQEOMKEZ","either","5","","","","","","","72","H","0","img/none_selected.jpg","0","0","1","","0.2451518953","","112","","0.2451518953","main_expt","0.6","","0.4","0.28311182","","0.8","","0.2","0.1529967373","0.21392293","","","","","",""
"682","","bandit","191","529445","0.0-152.0-0.0","39988116","wem/bandit_either","AA7ASGQEOMKEZ","either","5","","","","","","","74","J","1","","0","0","1","0.2413269532","","","113","0.2407836715","","main_expt","0.6","0.2413269532","0.4","","0.148248117","0.8","0.1606798039","0.2","","","","","","","",""
"239","","bandit","192","531196","0.0-153.0-0.0","39988116","wem/bandit_either","AA7ASGQEOMKEZ","either","5","","","","","","","75","K","2","","0","0","1","0.1562208239","","","114","0.3099317417","","main_expt","0.6","0.3100969134","0.4","","0.1562208239","0.8","0.2095980235","0.2","","","","","","","",""
"261","","bandit","193","532966","0.0-154.0-0.0","39988116","wem/bandit_either","AA7ASGQEOMKEZ","either","5","","","","","","","76","L","3","","1","0","0","0.2550279667","","","115","0.3180754701","","main_expt","0.6","0.329842252","0.4","","0.2138032898","0.8","0.2550279667","0.2","","","","","","","",""
"237","","bandit","194","534716","0.0-155.0-0.0","39988116","wem/bandit_either","AA7ASGQEOMKEZ","either","5","","","","","","","76","L","3","","0","1","0","","0.2471764387","","116","","0.2919742107","main_expt","0.6","","0.4","0.3223706096","","0.8","","0.2","0.2331260325","0.2471764387","","","","","",""
"545","","bandit","195","536770","0.0-156.0-0.0","39988116","wem/bandit_either","AA7ASGQEOMKEZ","either","5","","","","","","","76","L","3","","0","0","1","","0.2730878341","","117","","0.2799774295","main_expt","0.6","","0.4","0.3098408215","","0.8","","0.2","0.1826309729","0.2730878341","","","","","",""
"311","","bandit","196","538591","0.0-157.0-0.0","39988116","wem/bandit_either","AA7ASGQEOMKEZ","either","5","","","","","","","76","L","3","","0","0","1","","0.2071462199","","118","","0.2646714695","main_expt","0.6","","0.4","0.2974554567","","0.8","","0.2","0.1511269107","0.2071462199","","","","","",""
"265","","bandit","197","540365","0.0-158.0-0.0","39988116","wem/bandit_either","AA7ASGQEOMKEZ","either","5","","","","","","","76","L","3","","0","0","1","","0.2275232499","","119","","0.3179839519","main_expt","0.6","","0.4","0.3598468986","","0.8","","0.2","0.1559979654","0.2275232499","","","","","",""
"23","","bandit","198","541897","0.0-159.0-0.0","39988116","wem/bandit_either","AA7ASGQEOMKEZ","either","5","","","","","","","76","L","3","","0","0","1","0.2767559596","","","120","0.3302262658","","main_expt","0.6","0.2984373086","0.4","","0.1463004055","0.8","0.2767559596","0.2","","","","","","","",""
"331","","bandit","199","543742","0.0-160.0-0.0","39988116","wem/bandit_either","AA7ASGQEOMKEZ","either","5","","","","","","","76","L","3","","0","1","0","","0.3448590315","","121","","0.3500549905","main_expt","0.6","","0.4","0.2973090059","","0.8","","0.2","0.1418195479","0.3448590315","","","","","",""
"296","","bandit","200","545551","0.0-161.0-0.0","39988116","wem/bandit_either","AA7ASGQEOMKEZ","either","5","","","","","","","76","L","3","","0","0","1","","0.3593301016","","122","","0.2686616284","main_expt","0.6","","0.4","0.3382791822","","0.8","","0.2","0.1270782113","0.3593301016","","","","","",""
"164","","bandit","201","547226","0.0-162.0-0.0","39988116","wem/bandit_either","AA7ASGQEOMKEZ","either","5","","","","","","","76","L","3","","0","0","1","","0.3680529171","","123","","0.2277230314","main_expt","0.6","","0.4","0.3154347028","","0.8","","0.2","0.1207154071","0.3680529171","","","","","",""
"281","","bandit","202","549017","0.0-163.0-0.0","39988116","wem/bandit_either","AA7ASGQEOMKEZ","either","5","","","","","","","76","L","3","","0","0","1","","0.3476523483","","124","","0.3287090939","main_expt","0.6","","0.4","0.2966737815","","0.8","","0.2","0.1229329119","0.3476523483","","","","","",""
"115","","bandit","203","550645","0.0-164.0-0.0","39988116","wem/bandit_either","AA7ASGQEOMKEZ","either","5","","","","","","","76","L","3","","0","1","0","","0.3564603465","","125","","0.3687339586","main_expt","0.6","","0.4","0.3094831126","","0.8","","0.2","0.09241122996","0.3564603465","","","","","",""
"307","","bandit","204","552466","0.0-165.0-0.0","39988116","wem/bandit_either","AA7ASGQEOMKEZ","either","5","","","","","","","76","L","3","","0","1","0","","0.3550684458","","126","","0.3836195774","main_expt","0.6","","0.4","0.2488993205","","0.8","","0.2","0.08418962236","0.3550684458","","","","","",""
"284","","bandit","205","554261","0.0-166.0-0.0","39988116","wem/bandit_either","AA7ASGQEOMKEZ","either","5","","","","","","","76","L","3","","0","1","0","","0.3235559827","","127","","0.3617365958","main_expt","0.6","","0.4","0.1953487027","","0.8","","0.2","0.154715772","0.3235559827","","","","","",""
"307","","bandit","206","556078","0.0-167.0-0.0","39988116","wem/bandit_either","AA7ASGQEOMKEZ","either","5","","","","","","","76","L","3","","0","0","1","","0.312087491","","128","","0.3235283493","main_expt","0.6","","0.4","0.2171889907","","0.8","","0.2","0.1556709078","0.312087491","","","","","",""
"307","","bandit","207","557896","0.0-168.0-0.0","39988116","wem/bandit_either","AA7ASGQEOMKEZ","either","5","","","","","","","76","L","3","","0","1","0","","0.2843272188","","129","","0.3453830546","main_expt","0.6","","0.4","0.2467699801","","0.8","","0.2","0.1214200615","0.2843272188","","","","","",""
"321","","bandit","208","559730","0.0-169.0-0.0","39988116","wem/bandit_either","AA7ASGQEOMKEZ","either","5","","","","","","","76","L","3","","0","1","0","","0.2128416856","","130","","0.3242747857","main_expt","0.6","","0.4","0.2814443482","","0.8","","0.2","0.1377283829","0.2128416856","","","","","",""
"317","","bandit","209","561557","0.0-170.0-0.0","39988116","wem/bandit_either","AA7ASGQEOMKEZ","either","5","","","","","","","76","L","3","","0","0","1","","0.2403879813","","131","","0.3417201858","main_expt","0.6","","0.4","0.2834176508","","0.8","","0.2","0.1397421628","0.2403879813","","","","","",""
"46","","bandit","210","563114","0.0-171.0-0.0","39988116","wem/bandit_either","AA7ASGQEOMKEZ","either","5","","","","","","","76","L","3","","0","0","1","","0.2811421594","","132","","0.3498614837","main_expt","0.6","","0.4","0.2429908031","","0.8","","0.2","0.1061875113","0.2811421594","","","","","",""
"175","","bandit","211","564800","0.0-172.0-0.0","39988116","wem/bandit_either","AA7ASGQEOMKEZ","either","5","","","","","","","76","L","3","","0","0","1","","0.3002858371","","133","","0.3134828643","main_expt","0.6","","0.4","0.3053559495","","0.8","","0.2","0.07774811701","0.3002858371","","","","","",""
"328","","bandit","212","566637","0.0-173.0-0.0","39988116","wem/bandit_either","AA7ASGQEOMKEZ","either","5","","","","","","","76","L","3","","0","0","1","","0.277406375","","134","","0.3554593188","main_expt","0.6","","0.4","0.2693478067","","0.8","","0.2","0.08211281178","0.277406375","","","","","",""
"191","","bandit","213","568338","0.0-174.0-0.0","39988116","wem/bandit_either","AA7ASGQEOMKEZ","either","5","","","","","","","76","L","3","","0","0","1","","0.2897147582","","135","","0.3150900126","main_expt","0.6","","0.4","0.3369166079","","0.8","","0.2","0.1123817552","0.2897147582","","","","","",""
"188","","bandit","214","570040","0.0-175.0-0.0","39988116","wem/bandit_either","AA7ASGQEOMKEZ","either","5","","","","","","","76","L","3","","0","0","1","","0.3590576628","","136","","0.3199395785","main_expt","0.6","","0.4","0.268603144","","0.8","","0.2","0.1478339482","0.3590576628","","","","","",""
"719","","bandit","215","572272","0.0-176.0-0.0","39988116","wem/bandit_either","AA7ASGQEOMKEZ","either","5","","","","","","","75","K","2","","0","0","1","0.1374936615","","","137","0.33362357","","main_expt","0.6","0.2373427956","0.4","","0.1374936615","0.8","0.3822427384","0.2","","","","","","","",""
"249","","bandit","216","574032","0.0-177.0-0.0","39988116","wem/bandit_either","AA7ASGQEOMKEZ","either","5","","","","","","","75","K","2","","0","0","1","0.159761955","","","138","0.3611324022","","main_expt","0.6","0.2206869265","0.4","","0.159761955","0.8","0.3410071165","0.2","","","","","","","",""
"248","","bandit","217","575790","0.0-178.0-0.0","39988116","wem/bandit_either","AA7ASGQEOMKEZ","either","5","","","","","","","74","J","1","","0","0","1","","0.2177966349","","139","","0.3504145086","main_expt","0.6","","0.4","0.2177966349","","0.8","","0.2","0.1363721132","0.3738014659","","","","","",""
"274","","bandit","218","577575","0.0-179.0-0.0","39988116","wem/bandit_either","AA7ASGQEOMKEZ","either","5","","","","","","","74","J","1","","0","0","1","0.2387685432","","","140","0.309774603","","main_expt","0.6","0.2387685432","0.4","","0.1031445192","0.8","0.422575493","0.2","","","","","","","",""
"457","","bandit","219","579542","0.0-180.0-0.0","39988116","wem/bandit_either","AA7ASGQEOMKEZ","either","5","","","","","","","72","H","0","img/none_selected.jpg","1","0","0","0.3506531288","","","141","0.3506531288","","main_expt","0.6","0.2575087366","0.4","","0.09805286369","0.8","0.4439129864","0.2","","","","","","","",""
"208","","bandit","220","581261","0.0-181.0-0.0","39988116","wem/bandit_either","AA7ASGQEOMKEZ","either","5","","","","","","","72","H","0","img/none_selected.jpg","0","0","1","0.2965027242","","","142","0.2965027242","","main_expt","0.6","0.2392038972","0.4","","0.1149002948","0.8","0.4323802182","0.2","","","","","","","",""
"315","","bandit","221","583086","0.0-182.0-0.0","39988116","wem/bandit_either","AA7ASGQEOMKEZ","either","5","","","","","","","72","H","0","img/none_selected.jpg","1","0","0","0.2087517366","","","143","0.2087517366","","main_expt","0.6","0.2216470548","0.4","","0.1209542099","0.8","0.4358412593","0.2","","","","","","","",""
"342","","bandit","222","584942","0.0-183.0-0.0","39988116","wem/bandit_either","AA7ASGQEOMKEZ","either","5","","","","","","","72","H","0","img/none_selected.jpg","0","0","1","0.2313605626","","","144","0.2313605626","","main_expt","0.6","0.2224896139","0.4","","0.1202521083","0.8","0.4407373256","0.2","","","","","","","",""
"380","","bandit","223","586833","0.0-184.0-0.0","39988116","wem/bandit_either","AA7ASGQEOMKEZ","either","5","","","","","","","72","H","0","img/none_selected.jpg","0","1","0","","0.1785565547","","145","","0.1785565547","main_expt","0.6","","0.4","0.1925605464","","0.8","","0.2","0.1619743669","0.4661091035","","","","","",""
"286","","bandit","224","588630","0.0-185.0-0.0","39988116","wem/bandit_either","AA7ASGQEOMKEZ","either","5","","","","","","","72","H","0","img/none_selected.jpg","0","0","1","0.1770660648","","","146","0.1770660648","","main_expt","0.6","0.2069800611","0.4","","0.1664631043","0.8","0.4637097668","0.2","","","","","","","",""
"415","","bandit","225","590560","0.0-186.0-0.0","39988116","wem/bandit_either","AA7ASGQEOMKEZ","either","5","","","","","","","72","H","0","img/none_selected.jpg","0","0","1","","0.1063371611","","147","","0.1063371611","main_expt","0.6","","0.4","0.2489662189","","0.8","","0.2","0.1669241763","0.4700491642","","","","","",""
"555","","bandit","226","592626","0.0-187.0-0.0","39988116","wem/bandit_either","AA7ASGQEOMKEZ","either","5","","","","","","","72","H","0","img/none_selected.jpg","0","0","1","","0.1216370817","","148","","0.1216370817","main_expt","0.6","","0.4","0.1946464158","","0.8","","0.2","0.1581456949","0.4648109734","","","","","",""
"291","","bandit","227","594427","0.0-188.0-0.0","39988116","wem/bandit_either","AA7ASGQEOMKEZ","either","5","","","","","","","72","H","0","img/none_selected.jpg","0","0","1","","0.1024256959","","149","","0.1024256959","main_expt","0.6","","0.4","0.1826562491","","0.8","","0.2","0.1698392466","0.4635511513","","","","","",""
"389","","bandit","228","596325","0.0-189.0-0.0","39988116","wem/bandit_either","AA7ASGQEOMKEZ","either","5","","","","","","","72","H","0","img/none_selected.jpg","1","0","0","0.1371094633","","","150","0.1371094633","","main_expt","0.6","0.1750473563","0.4","","0.2140114634","0.8","0.4445017148","0.2","","","","","","","",""
"290","","bandit","229","598129","0.0-190.0-0.0","39988116","wem/bandit_either","AA7ASGQEOMKEZ","either","5","","","","","","","72","H","0","img/none_selected.jpg","0","0","1","","0.1702433702","","151","","0.1702433702","main_expt","0.6","","0.4","0.1109536645","","0.8","","0.2","0.2392960001","0.4434799742","","","","","",""
"442","","bandit","230","600082","0.0-191.0-0.0","39988116","wem/bandit_either","AA7ASGQEOMKEZ","either","5","","","","","","","72","H","0","img/none_selected.jpg","0","0","1","0.1860489046","","","152","0.1860489046","","main_expt","0.6","0.1143086707","0.4","","0.2095863317","0.8","0.4451665291","0.2","","","","","","","",""
"285","","bandit","231","601878","0.0-192.0-0.0","39988116","wem/bandit_either","AA7ASGQEOMKEZ","either","5","","","","","","","72","H","0","img/none_selected.jpg","1","0","0","0.2117094388","","","153","0.2117094388","","main_expt","0.6","0.1236290712","0.4","","0.2543258611","0.8","0.4401532833","0.2","","","","","","","",""
"240","","bandit","232","603629","0.0-193.0-0.0","39988116","wem/bandit_either","AA7ASGQEOMKEZ","either","5","","","","","","","72","H","0","img/none_selected.jpg","0","0","1","0.2072389033","","","154","0.2072389033","","main_expt","0.6","0.1600695342","0.4","","0.2602259906","0.8","0.4516855879","0.2","","","","","","","",""
"34","","bandit","233","605179","0.0-194.0-0.0","39988116","wem/bandit_either","AA7ASGQEOMKEZ","either","5","","","","","","","72","H","0","img/none_selected.jpg","0","0","1","0.1986333914","","","155","0.1986333914","","main_expt","0.6","0.1770288166","0.4","","0.2750581274","0.8","0.4480264808","0.2","","","","","","","",""
"723","","bandit","234","607415","0.0-195.0-0.0","39988116","wem/bandit_either","AA7ASGQEOMKEZ","either","5","","","","","","","72","H","0","img/none_selected.jpg","0","0","1","0.2054640346","","","156","0.2054640346","","main_expt","0.6","0.1761817894","0.4","","0.2438045727","0.8","0.4260414265","0.2","","","","","","","",""
"982","","bandit","235","609908","0.0-196.0-0.0","39988116","wem/bandit_either","AA7ASGQEOMKEZ","either","5","","","","","","","74","J","1","","0","0","1","0.1998830888","","","157","0.1810715383","","main_expt","0.6","0.1998830888","0.4","","0.2857025143","0.8","0.4365201507","0.2","","","","","","","",""
"381","","bandit","236","611800","0.0-197.0-0.0","39988116","wem/bandit_either","AA7ASGQEOMKEZ","either","5","","","","","","","74","J","1","","0","1","0","","0.2150354531","","158","","0.2118906364","main_expt","0.6","","0.4","0.2150354531","","0.8","","0.2","0.2887719476","0.4076244479","","","","","",""
"713","","bandit","237","614032","0.0-198.0-0.0","39988116","wem/bandit_either","AA7ASGQEOMKEZ","either","5","","","","","","","74","J","1","","0","0","1","","0.2221069796","","159","","0.2293976715","main_expt","0.6","","0.4","0.2221069796","","0.8","","0.2","0.2859462397","0.403953851","","","","","",""
"498","","bandit","238","616045","0.0-199.0-0.0","39988116","wem/bandit_either","AA7ASGQEOMKEZ","either","5","","","","","","","74","J","1","","0","0","1","0.2627335039","","","160","0.2186051381","","main_expt","0.6","0.2627335039","0.4","","0.207432816","0.8","0.4282135537","0.2","","","","","","","",""
"366","","bandit","239","617921","0.0-200.0-0.0","39988116","wem/bandit_either","AA7ASGQEOMKEZ","either","5","","","","","","","75","K","2","","0","0","1","0.1611694724","","","161","0.2175927206","","main_expt","0.6","0.2922457848","0.4","","0.1611694724","0.8","0.4479073124","0.2","","","","","","","",""
"272","","bandit","240","619704","0.0-201.0-0.0","39988116","wem/bandit_either","AA7ASGQEOMKEZ","either","5","","","","","","","75","K","2","","1","0","0","0.14378348","","","162","0.2370404117","","main_expt","0.6","0.3040212123","0.4","","0.14378348","0.8","0.4456201243","0.2","","","","","","","",""
"238","","bandit","241","621452","0.0-202.0-0.0","39988116","wem/bandit_either","AA7ASGQEOMKEZ","either","5","","","","","","","75","K","2","","0","0","1","0.1707099899","","","163","0.2778780432","","main_expt","0.6","0.2933359027","0.4","","0.1707099899","0.8","0.4384930657","0.2","","","","","","","",""
"623","","bandit","242","623586","0.0-203.0-0.0","39988116","wem/bandit_either","AA7ASGQEOMKEZ","either","5","","","","","","","75","K","2","","0","0","1","","0.1933693166","","164","","0.2643388611","main_expt","0.6","","0.4","0.2388203062","","0.8","","0.2","0.1933693166","0.4231568034","","","","","",""
"552","","bandit","243","625647","0.0-204.0-0.0","39988116","wem/bandit_either","AA7ASGQEOMKEZ","either","5","","","","","","","75","K","2","","1","0","0","0.2406324952","","","165","0.1967204453","","main_expt","0.6","0.2646204916","0.4","","0.2406324952","0.8","0.4412535734","0.2","","","","","","","",""
"342","","bandit","244","627503","0.0-205.0-0.0","39988116","wem/bandit_either","AA7ASGQEOMKEZ","either","5","","","","","","","75","K","2","","1","0","0","0.2650462377","","","166","0.1567937345","","main_expt","0.6","0.2591758032","0.4","","0.2650462377","0.8","0.438364003","0.2","","","","","","","",""
"422","","bandit","245","629434","0.0-206.0-0.0","39988116","wem/bandit_either","AA7ASGQEOMKEZ","either","5","","","","","","","75","K","2","","0","1","0","","0.245875583","","167","","0.1201482918","main_expt","0.6","","0.4","0.1955934818","","0.8","","0.2","0.245875583","0.4290991351","","","","","",""
"292","","bandit","246","631240","0.0-207.0-0.0","39988116","wem/bandit_either","AA7ASGQEOMKEZ","either","5","","","","","","","75","K","2","","0","0","1","0.257303599","","","168","0.0936051119","","main_expt","0.6","0.2090603634","0.4","","0.257303599","0.8","0.4510860662","0.2","","","","","","","",""
"456","","bandit","247","633215","0.0-208.0-0.0","39988116","wem/bandit_either","AA7ASGQEOMKEZ","either","5","","","","","","","75","K","2","","0","0","1","","0.2993732043","","169","","0.08775096918","main_expt","0.6","","0.4","0.2678479696","","0.8","","0.2","0.2993732043","0.4491424364","","","","","",""
"394","","bandit","248","635119","0.0-209.0-0.0","39988116","wem/bandit_either","AA7ASGQEOMKEZ","either","5","","","","","","","75","K","2","","1","0","0","0.3388977639","","","170","0.06743429675","","main_expt","0.6","0.2532125956","0.4","","0.3388977639","0.8","0.4332244901","0.2","","","","","","","",""
"456","","bandit","249","637087","0.0-210.0-0.0","39988116","wem/bandit_either","AA7ASGQEOMKEZ","either","5","","","","","","","75","K","2","","1","0","0","0.2947926635","","","171","0.05979118822","","main_expt","0.6","0.2568627054","0.4","","0.2947926635","0.8","0.4405036994","0.2","","","","","","","",""
"558","","bandit","250","639156","0.0-211.0-0.0","39988116","wem/bandit_either","AA7ASGQEOMKEZ","either","5","","","","","","","75","K","2","","1","0","0","0.2892529657","","","172","0.03200499914","","main_expt","0.6","0.2451563353","0.4","","0.2892529657","0.8","0.4358521759","0.2","","","","","","","",""
"430","","bandit","251","641101","0.0-212.0-0.0","39988116","wem/bandit_either","AA7ASGQEOMKEZ","either","5","","","","","","","75","K","2","","0","0","1","0.2571917514","","","173","0.04613358223","","main_expt","0.6","0.3003395367","0.4","","0.2571917514","0.8","0.4471617722","0.2","","","","","","","",""
"354","","bandit","252","642969","0.0-213.0-0.0","39988116","wem/bandit_either","AA7ASGQEOMKEZ","either","5","","","","","","","75","K","2","","0","0","1","0.244173221","","","174","0.05969677181","","main_expt","0.6","0.2545998681","0.4","","0.244173221","0.8","0.4560251174","0.2","","","","","","","",""
"267","","bandit","253","644743","0.0-214.0-0.0","39988116","wem/bandit_either","AA7ASGQEOMKEZ","either","5","","","","","","","75","K","2","","0","0","1","0.2038098688","","","175","0.05930066603","","main_expt","0.6","0.3383135611","0.4","","0.2038098688","0.8","0.4379349024","0.2","","","","","","","",""
"301","","bandit","254","646556","0.0-215.0-0.0","39988116","wem/bandit_either","AA7ASGQEOMKEZ","either","5","","","","","","","76","L","3","","0","1","0","","0.4328841116","","176","","0.08110879181","main_expt","0.6","","0.4","0.3880627729","","0.8","","0.2","0.2053823003","0.4328841116","","","","","",""
"463","","bandit","255","648529","0.0-216.0-0.0","39988116","wem/bandit_either","AA7ASGQEOMKEZ","either","5","","","","","","","76","L","3","","0","0","1","","0.3965365967","","177","","0.07611568943","main_expt","0.6","","0.4","0.3920994557","","0.8","","0.2","0.2193083282","0.3965365967","","","","","",""
"163","","bandit","256","650204","0.0-217.0-0.0","39988116","wem/bandit_either","AA7ASGQEOMKEZ","either","5","","","","","","","76","L","3","","0","0","1","","0.3899234309","","178","","0.1220467165","main_expt","0.6","","0.4","0.3882277994","","0.8","","0.2","0.1904263594","0.3899234309","","","","","",""
"143","","bandit","257","651856","0.0-218.0-0.0","39988116","wem/bandit_either","AA7ASGQEOMKEZ","either","5","","","","","","","76","L","3","","0","0","1","0.4238443777","","","179","0.1698853315","","main_expt","0.6","0.3939691408","0.4","","0.2212788648","0.8","0.4238443777","0.2","","","","","","","",""
"479","","bandit","258","653846","0.0-219.0-0.0","39988116","wem/bandit_either","AA7ASGQEOMKEZ","either","5","","","","","","","76","L","3","","0","0","1","","0.4487400994","","180","","0.1374762061","main_expt","0.6","","0.4","0.4074656662","","0.8","","0.2","0.2640717145","0.4487400994","","","","","",""
"189","","bandit","259","655544","0.0-220.0-0.0","39988116","wem/bandit_either","AA7ASGQEOMKEZ","either","5","","","","","","","75","K","2","","0","0","1","0.2426483564","","","181","0.09961924189","","main_expt","0.6","0.3724421945","0.4","","0.2426483564","0.8","0.4314573438","0.2","","","","","","","",""
"383","","bandit","260","657438","0.0-221.0-0.0","39988116","wem/bandit_either","AA7ASGQEOMKEZ","either","5","","","","","","","74","J","1","","0","1","0","","0.2998177931","","182","","0.1391043194","main_expt","0.6","","0.4","0.2998177931","","0.8","","0.2","0.2001563476","0.4458059303","","","","","",""
"521","","bandit","261","659468","0.0-222.0-0.0","39988116","wem/bandit_either","AA7ASGQEOMKEZ","either","5","","","","","","","74","J","1","","0","1","0","","0.3629728763","","183","","0.1336424596","main_expt","0.6","","0.4","0.3629728763","","0.8","","0.2","0.2167094124","0.4485460149","","","","","",""
"475","","bandit","262","661455","0.0-223.0-0.0","39988116","wem/bandit_either","AA7ASGQEOMKEZ","either","5","","","","","","","74","J","1","","0","0","1","","0.3763603645","","184","","0.115911235","main_expt","0.6","","0.4","0.3763603645","","0.8","","0.2","0.2402813617","0.4078350507","","","","","",""
"277","","bandit","263","663241","0.0-224.0-0.0","39988116","wem/bandit_either","AA7ASGQEOMKEZ","either","5","","","","","","","74","J","1","","0","0","1","","0.3472982705","","185","","0.1394203739","main_expt","0.6","","0.4","0.3472982705","","0.8","","0.2","0.2745112141","0.3805788675","","","","","",""
"109","","bandit","264","664859","0.0-225.0-0.0","39988116","wem/bandit_either","AA7ASGQEOMKEZ","either","5","","","","","","","74","J","1","","0","0","1","0.3095995051","","","186","0.1557479742","","main_expt","0.6","0.3095995051","0.4","","0.2774566956","0.8","0.4236809331","0.2","","","","","","","",""
"206","","bandit","265","666575","0.0-226.0-0.0","39988116","wem/bandit_either","AA7ASGQEOMKEZ","either","5","","","","","","","72","H","0","img/none_selected.jpg","0","0","1","","0.1823611596","","187","","0.1823611596","main_expt","0.6","","0.4","0.2567332284","","0.8","","0.2","0.2876011691","0.4058627081","","","","","",""
"169","","bandit","266","668255","0.0-227.0-0.0","39988116","wem/bandit_either","AA7ASGQEOMKEZ","either","5","","","","","","","72","H","0","img/none_selected.jpg","0","0","1","0.1854179297","","","188","0.1854179297","","main_expt","0.6","0.2555256861","0.4","","0.2947112378","0.8","0.3913346521","0.2","","","","","","","",""
"277","","bandit","267","670044","0.0-228.0-0.0","39988116","wem/bandit_either","AA7ASGQEOMKEZ","either","5","","","","","","","72","H","0","img/none_selected.jpg","1","0","0","0.1875645599","","","189","0.1875645599","","main_expt","0.6","0.2009875262","0.4","","0.2581494","0.8","0.3760164219","0.2","","","","","","","",""
"250","","bandit","268","671809","0.0-229.0-0.0","39988116","wem/bandit_either","AA7ASGQEOMKEZ","either","5","","","","","","","72","H","0","img/none_selected.jpg","0","0","1","0.2018323604","","","190","0.2018323604","","main_expt","0.6","0.2055488595","0.4","","0.1756323468","0.8","0.3327352817","0.2","","","","","","","",""
"458","","bandit","269","673776","0.0-230.0-0.0","39988116","wem/bandit_either","AA7ASGQEOMKEZ","either","5","","","","","","","72","H","0","img/none_selected.jpg","0","0","1","","0.221094727","","191","","0.221094727","main_expt","0.6","","0.4","0.1506387864","","0.8","","0.2","0.2521570866","0.3015177445","","","","","",""
"91","","bandit","270","675384","0.0-231.0-0.0","39988116","wem/bandit_either","AA7ASGQEOMKEZ","either","5","","","","","","","72","H","0","img/none_selected.jpg","0","0","1","","0.2320570195","","192","","0.2320570195","main_expt","0.6","","0.4","0.2027442266","","0.8","","0.2","0.2964739449","0.2773298268","","","","","",""
"195","","bandit","271","677088","0.0-232.0-0.0","39988116","wem/bandit_either","AA7ASGQEOMKEZ","either","5","","","","","","","72","H","0","img/none_selected.jpg","0","1","0","","0.2948950962","","193","","0.2948950962","main_expt","0.6","","0.4","0.1969137872","","0.8","","0.2","0.2612966838","0.2836613797","","","","","",""
"267","","bandit","272","678868","0.0-233.0-0.0","39988116","wem/bandit_either","AA7ASGQEOMKEZ","either","5","","","","","","","72","H","0","img/none_selected.jpg","1","0","0","0.2602906927","","","194","0.2602906927","","main_expt","0.6","0.2114994946","0.4","","0.3292914436","0.8","0.2799350415","0.2","","","","","","","",""
"191","","bandit","273","680568","0.0-234.0-0.0","39988116","wem/bandit_either","AA7ASGQEOMKEZ","either","5","","","","","","","72","H","0","img/none_selected.jpg","0","0","1","","0.1771499101","","195","","0.1771499101","main_expt","0.6","","0.4","0.2467939011","","0.8","","0.2","0.4070308407","0.2068597772","","","","","",""
"79","","bandit","274","682160","0.0-235.0-0.0","39988116","wem/bandit_either","AA7ASGQEOMKEZ","either","5","","","","","","","72","H","0","img/none_selected.jpg","0","0","1","0.1746274925","","","196","0.1746274925","","main_expt","0.6","0.2731811988","0.4","","0.3494820729","0.8","0.2679469531","0.2","","","","","","","",""
"295","","bandit","275","683965","0.0-236.0-0.0","39988116","wem/bandit_either","AA7ASGQEOMKEZ","either","5","","","","","","","72","H","0","img/none_selected.jpg","0","0","1","","0.193224684","","197","","0.193224684","main_expt","0.6","","0.4","0.2512114903","","0.8","","0.2","0.3571939809","0.2448078588","","","","","",""
"225","","bandit","276","685703","0.0-237.0-0.0","39988116","wem/bandit_either","AA7ASGQEOMKEZ","either","5","","","","","","","72","H","0","img/none_selected.jpg","0","0","1","","0.1771509929","","198","","0.1771509929","main_expt","0.6","","0.4","0.190651112","","0.8","","0.2","0.382430028","0.2433987968","","","","","",""
"175","","bandit","277","687387","0.0-238.0-0.0","39988116","wem/bandit_either","AA7ASGQEOMKEZ","either","5","","","","","","","75","K","2","","0","0","1","0.3353474301","","","199","0.2466668772","","main_expt","0.6","0.1701189695","0.4","","0.3353474301","0.8","0.2653624242","0.2","","","","","","","",""
"298","","bandit","278","689196","0.0-239.0-0.0","39988116","wem/bandit_either","AA7ASGQEOMKEZ","either","5","","","","","","","75","K","2","","0","0","1","0.3321976498","","","200","0.2477816141","","main_expt","0.6","0.1656975488","0.4","","0.3321976498","0.8","0.2551376492","0.2","","","","","","","",""
"184","","bandit","279","690891","0.0-240.0-0.0","39988116","wem/bandit_either","AA7ASGQEOMKEZ","either","5","","","","","","","74","J","1","","1","0","0","0.1647298582","","","201","0.2744817861","","main_expt","0.6","0.1647298582","0.4","","0.3218117355","0.8","0.2660639347","0.2","","","","","","","",""
"105","","bandit","280","692507","0.0-241.0-0.0","39988116","wem/bandit_either","AA7ASGQEOMKEZ","either","5","","","","","","","74","J","1","","0","0","1","","0.1242041815","","202","","0.3043062986","main_expt","0.6","","0.4","0.1242041815","","0.8","","0.2","0.2949214693","0.2220900594","","","","","",""
"214","","bandit","281","694230","0.0-242.0-0.0","39988116","wem/bandit_either","AA7ASGQEOMKEZ","either","5","","","","","","","74","J","1","","1","0","0","0.1684487429","","","203","0.272185569","","main_expt","0.6","0.1684487429","0.4","","0.300077299","0.8","0.1543353204","0.2","","","","","","","",""
"285","","bandit","282","696026","0.0-243.0-0.0","39988116","wem/bandit_either","AA7ASGQEOMKEZ","either","5","","","","","","","74","J","1","","0","0","1","","0.1666409686","","204","","0.2610767704","main_expt","0.6","","0.4","0.1666409686","","0.8","","0.2","0.2866085977","0.1605482003","","","","","",""
"273","","bandit","283","697813","0.0-244.0-0.0","39988116","wem/bandit_either","AA7ASGQEOMKEZ","either","5","","","","","","","74","J","1","","0","0","1","0.2197286508","","","205","0.2832615928","","main_expt","0.6","0.2197286508","0.4","","0.2695546272","0.8","0.1406914754","0.2","","","","","","","",""
"123","","bandit","284","699448","0.0-245.0-0.0","39988116","wem/bandit_either","AA7ASGQEOMKEZ","either","5","","","","","","","74","J","1","","0","0","1","0.2754509052","","","206","0.300913322","","main_expt","0.6","0.2754509052","0.4","","0.2622178416","0.8","0.1138947463","0.2","","","","","","","",""
"315","","bandit","285","701274","0.0-246.0-0.0","39988116","wem/bandit_either","AA7ASGQEOMKEZ","either","5","","","","","","","74","J","1","","0","0","1","","0.2664869377","","207","","0.3260258847","main_expt","0.6","","0.4","0.2664869377","","0.8","","0.2","0.2498186578","0.1096702189","","","","","",""
"516","","bandit","286","703302","0.0-247.0-0.0","39988116","wem/bandit_either","AA7ASGQEOMKEZ","either","5","","","","","","","76","L","3","","0","0","1","","0.09922356593","","208","","0.3173829003","main_expt","0.6","","0.4","0.2686565688","","0.8","","0.2","0.2335358635","0.09922356593","","","","","",""
"97","","bandit","287","704910","0.0-248.0-0.0","39988116","wem/bandit_either","AA7ASGQEOMKEZ","either","5","","","","","","","76","L","3","","0","0","1","","0.101567507","","209","","0.3153846937","main_expt","0.6","","0.4","0.2380255957","","0.8","","0.2","0.2638942681","0.101567507","","","","","",""
"761","","bandit","288","707184","0.0-249.0-0.0","39988116","wem/bandit_either","AA7ASGQEOMKEZ","either","5","","","","","","","76","L","3","","0","0","1","","0.08675379402","","210","","0.3010876552","main_expt","0.6","","0.4","0.2507768727","","0.8","","0.2","0.2526926237","0.08675379402","","","","","",""
"512","","bandit","289","709211","0.0-250.0-0.0","39988116","wem/bandit_either","AA7ASGQEOMKEZ","either","5","","","","","","","76","L","3","","0","0","1","0.07512021269","","","211","0.2864900033","","main_expt","0.6","0.2685142319","0.4","","0.2740367769","0.8","0.07512021269","0.2","","","","","","","",""
"247","","bandit","290","710971","0.0-251.0-0.0","39988116","wem/bandit_either","AA7ASGQEOMKEZ","either","5","","","","","","","76","L","3","","0","0","1","","0.08144254236","","212","","0.3163372434","main_expt","0.6","","0.4","0.260511483","","0.8","","0.2","0.2440836191","0.08144254236","","","","","",""
"320","","bandit","291","712800","0.0-252.0-0.0","39988116","wem/bandit_either","AA7ASGQEOMKEZ","either","5","","","","","","","75","K","2","","0","0","1","0.2341903104","","","213","0.2701305136","","main_expt","0.6","0.2579605047","0.4","","0.2341903104","0.8","0.06585574052","0.2","","","","","","","",""
"170","","bandit","292","714488","0.0-253.0-0.0","39988116","wem/bandit_either","AA7ASGQEOMKEZ","either","5","","","","","","","75","K","2","","0","0","1","0.2097526345","","","214","0.302599165","","main_expt","0.6","0.2470456849","0.4","","0.2097526345","0.8","0.08686614453","0.2","","","","","","","",""
"229","","bandit","293","716227","0.0-254.0-0.0","39988116","wem/bandit_either","AA7ASGQEOMKEZ","either","5","","","","","","","74","J","1","","0","0","1","","0.3285383036","","215","","0.2968005471","main_expt","0.6","","0.4","0.3285383036","","0.8","","0.2","0.1796882487","0.1068548489","","","","","",""
"323","","bandit","294","718062","0.0-255.0-0.0","39988116","wem/bandit_either","AA7ASGQEOMKEZ","either","5","","","","","","","72","H","0","img/none_selected.jpg","0","0","1","0.2835536598","","","216","0.2835536598","","main_expt","0.6","0.3780044773","0.4","","0.2237900511","0.8","0.1211736082","0.2","","","","","","","",""
"164","","bandit","295","719736","0.0-256.0-0.0","39988116","wem/bandit_either","AA7ASGQEOMKEZ","either","5","","","","","","","74","J","1","","0","1","0","","0.3939228946","","217","","0.2520762718","main_expt","0.6","","0.4","0.3939228946","","0.8","","0.2","0.2265358539","0.09343701815","","","","","",""
"498","","bandit","296","721747","0.0-257.0-0.0","39988116","wem/bandit_either","AA7ASGQEOMKEZ","either","5","","","","","","","74","J","1","","0","1","0","","0.3198270803","","218","","0.2562699476","main_expt","0.6","","0.4","0.3198270803","","0.8","","0.2","0.2364013437","0.1001055386","","","","","",""
"255","","bandit","297","723513","0.0-258.0-0.0","39988116","wem/bandit_either","AA7ASGQEOMKEZ","either","5","","","","","","","74","J","1","","1","0","0","0.3502502288","","","219","0.3002431464","","main_expt","0.6","0.3502502288","0.4","","0.2810560361","0.8","0.09524874014","0.2","","","","","","","",""
"248","","bandit","298","725271","0.0-259.0-0.0","39988116","wem/bandit_either","AA7ASGQEOMKEZ","either","5","","","","","","","74","J","1","","1","0","0","0.3402456168","","","220","0.3365413303","","main_expt","0.6","0.3402456168","0.4","","0.3027429446","0.8","0.1304899995","0.2","","","","","","","",""
"236","","bandit","299","727018","0.0-260.0-0.0","39988116","wem/bandit_either","AA7ASGQEOMKEZ","either","5","","","","","","","74","J","1","","0","0","1","","0.3770059732","","221","","0.2946103072","main_expt","0.6","","0.4","0.3770059732","","0.8","","0.2","0.3132134988","0.1272814923","","","","","",""
"150","","bandit","300","728680","0.0-261.0-0.0","39988116","wem/bandit_either","AA7ASGQEOMKEZ","either","5","","","","","","","74","J","1","","0","0","1","","0.3864421123","","222","","0.3267284332","main_expt","0.6","","0.4","0.3864421123","","0.8","","0.2","0.2424821827","0.1654407056","","","","","",""
"24","","bandit","301","730222","0.0-262.0-0.0","39988116","wem/bandit_either","AA7ASGQEOMKEZ","either","5","","","","","","","74","J","1","","1","0","0","0.4205211408","","","223","0.3175152631","","main_expt","0.6","0.4205211408","0.4","","0.2595367495","0.8","0.1788325852","0.2","","","","","","","",""
"351","","bandit","302","732089","0.0-263.0-0.0","39988116","wem/bandit_either","AA7ASGQEOMKEZ","either","5","","","","","","","74","J","1","","0","1","0","","0.4131889957","","224","","0.3192400935","main_expt","0.6","","0.4","0.4131889957","","0.8","","0.2","0.328819141","0.1736623033","","","","","",""
"299","","bandit","303","733897","0.0-264.0-0.0","39988116","wem/bandit_either","AA7ASGQEOMKEZ","either","5","","","","","","","74","J","1","","0","0","1","","0.4001513574","","225","","0.3096750449","main_expt","0.6","","0.4","0.4001513574","","0.8","","0.2","0.356121412","0.1721911447","","","","","",""
"151","","bandit","304","735558","0.0-265.0-0.0","39988116","wem/bandit_either","AA7ASGQEOMKEZ","either","5","","","","","","","74","J","1","","0","0","1","","0.3963688582","","226","","0.3142833063","main_expt","0.6","","0.4","0.3963688582","","0.8","","0.2","0.3394019192","0.2133818582","","","","","",""
"291","","bandit","305","737361","0.0-266.0-0.0","39988116","wem/bandit_either","AA7ASGQEOMKEZ","either","5","","","","","","","74","J","1","","0","1","0","","0.3979714495","","227","","0.3096885674","main_expt","0.6","","0.4","0.3979714495","","0.8","","0.2","0.2860553004","0.2620007467","","","","","",""
"87","","bandit","306","738961","0.0-267.0-0.0","39988116","wem/bandit_either","AA7ASGQEOMKEZ","either","5","","","","","","","74","J","1","","0","1","0","","0.3811043637","","228","","0.3048295172","main_expt","0.6","","0.4","0.3811043637","","0.8","","0.2","0.2967856672","0.2961930455","","","","","",""
"476","","bandit","307","740949","0.0-268.0-0.0","39988116","wem/bandit_either","AA7ASGQEOMKEZ","either","5","","","","","","","74","J","1","","0","1","0","","0.3488149186","","229","","0.2553920021","main_expt","0.6","","0.4","0.3488149186","","0.8","","0.2","0.2857745529","0.3081123415","","","","","",""
"391","","bandit","308","742851","0.0-269.0-0.0","39988116","wem/bandit_either","AA7ASGQEOMKEZ","either","5","","","","","","","74","J","1","","0","0","1","","0.2883621188","","230","","0.2783794412","main_expt","0.6","","0.4","0.2883621188","","0.8","","0.2","0.2589404948","0.3027177586","","","","","",""
"319","","bandit","309","744682","0.0-270.0-0.0","39988116","wem/bandit_either","AA7ASGQEOMKEZ","either","5","","","","","","","74","J","1","","0","0","1","","0.2444465504","","231","","0.2735536708","main_expt","0.6","","0.4","0.2444465504","","0.8","","0.2","0.2628441024","0.2495346478","","","","","",""
"236","","bandit","310","746432","0.0-271.0-0.0","39988116","wem/bandit_either","AA7ASGQEOMKEZ","either","5","","","","","","","74","J","1","","0","0","1","","0.2996930955","","232","","0.2262440502","main_expt","0.6","","0.4","0.2996930955","","0.8","","0.2","0.276537748","0.2185872191","","","","","",""
"372","","bandit","311","748317","0.0-272.0-0.0","39988116","wem/bandit_either","AA7ASGQEOMKEZ","either","5","","","","","","","74","J","1","","0","0","1","0.3103031796","","","233","0.2171974885","","main_expt","0.6","0.3103031796","0.4","","0.2485723575","0.8","0.1874863907","0.2","","","","","","","",""
"38","","bandit","312","749871","0.0-273.0-0.0","39988116","wem/bandit_either","AA7ASGQEOMKEZ","either","5","","","","","","","74","J","1","","0","0","1","0.2971988612","","","234","0.2951485073","","main_expt","0.6","0.2971988612","0.4","","0.2172766866","0.8","0.2165838284","0.2","","","","","","","",""
"259","","bandit","313","751643","0.0-274.0-0.0","39988116","wem/bandit_either","AA7ASGQEOMKEZ","either","5","","","","","","","72","H","0","img/none_selected.jpg","0","0","1","0.3135740045","","","235","0.3135740045","","main_expt","0.6","0.3266576642","0.4","","0.221542824","0.8","0.1791302586","0.2","","","","","","","",""
"230","","bandit","314","753383","0.0-275.0-0.0","39988116","wem/bandit_either","AA7ASGQEOMKEZ","either","5","","","","","","","72","H","0","img/none_selected.jpg","0","0","1","0.2945285262","","","236","0.2945285262","","main_expt","0.6","0.3596878827","0.4","","0.2200573756","0.8","0.2463713802","0.2","","","","","","","",""
"475","","bandit","315","755372","0.0-276.0-0.0","39988116","wem/bandit_either","AA7ASGQEOMKEZ","either","5","","","","","","","75","K","2","","1","0","0","0.2146478317","","","237","0.2797454337","","main_expt","0.6","0.3951370387","0.4","","0.2146478317","0.8","0.2204623923","0.2","","","","","","","",""
"318","","bandit","316","757204","0.0-277.0-0.0","39988116","wem/bandit_either","AA7ASGQEOMKEZ","either","5","","","","","","","75","K","2","","0","0","1","","0.2237656472","","238","","0.266453507","main_expt","0.6","","0.4","0.3863552979","","0.8","","0.2","0.2237656472","0.2316256556","","","","","",""
"217","","bandit","317","758933","0.0-278.0-0.0","39988116","wem/bandit_either","AA7ASGQEOMKEZ","either","5","","","","","","","75","K","2","","0","0","1","0.2302611888","","","239","0.310831157","","main_expt","0.6","0.3962704677","0.4","","0.2302611888","0.8","0.2406304147","0.2","","","","","","","",""
"310","","bandit","318","760757","0.0-279.0-0.0","39988116","wem/bandit_either","AA7ASGQEOMKEZ","either","5","","","","","","","75","K","2","","0","0","1","0.2253069634","","","240","0.331950591","","main_expt","0.6","0.3926977495","0.4","","0.2253069634","0.8","0.2624476398","0.2","","","","","","","",""
"36","","bandit","319","762305","0.0-280.0-0.0","39988116","wem/bandit_either","AA7ASGQEOMKEZ","either","5","","","","","","","75","K","2","","0","0","1","0.2523404353","","","241","0.3223776605","","main_expt","0.6","0.3381110468","0.4","","0.2523404353","0.8","0.2627099727","0.2","","","","","","","",""
"244","","bandit","320","764062","0.0-281.0-0.0","39988116","wem/bandit_either","AA7ASGQEOMKEZ","either","5","","","","","","","75","K","2","","0","0","1","0.238450381","","","242","0.3389272588","","main_expt","0.6","0.3213381148","0.4","","0.238450381","0.8","0.2262339403","0.2","","","","","","","",""
"320","","bandit","321","765903","0.0-282.0-0.0","39988116","wem/bandit_either","AA7ASGQEOMKEZ","either","5","","","","","","","74","J","1","","1","0","0","0.3395415742","","","243","0.4023830898","","main_expt","0.6","0.3395415742","0.4","","0.2476478509","0.8","0.2511573395","0.2","","","","","","","",""
"350","","bandit","322","767768","0.0-283.0-0.0","39988116","wem/bandit_either","AA7ASGQEOMKEZ","either","5","","","","","","","74","J","1","","0","0","1","","0.3077285799","","244","","0.4072225753","main_expt","0.6","","0.4","0.3077285799","","0.8","","0.2","0.2603762171","0.3112309098","","","","","",""
"264","","bandit","323","769545","0.0-284.0-0.0","39988116","wem/bandit_either","AA7ASGQEOMKEZ","either","5","","","","","","","75","K","2","","0","0","1","0.2778117757","","","245","0.4047901721","","main_expt","0.6","0.269997398","0.4","","0.2778117757","0.8","0.3169667097","0.2","","","","","","","",""
"244","","bandit","324","771303","0.0-285.0-0.0","39988116","wem/bandit_either","AA7ASGQEOMKEZ","either","5","","","","","","","74","J","1","","0","0","1","0.2896792764","","","246","0.4245844383","","main_expt","0.6","0.2896792764","0.4","","0.2571702875","0.8","0.3774934029","0.2","","","","","","","",""
"199","","bandit","325","773014","0.0-286.0-0.0","39988116","wem/bandit_either","AA7ASGQEOMKEZ","either","5","","","","","","","75","K","2","","1","0","0","0.2790325972","","","247","0.4425022826","","main_expt","0.6","0.3079745892","0.4","","0.2790325972","0.8","0.3592590195","0.2","","","","","","","",""
"276","","bandit","326","774802","0.0-287.0-0.0","39988116","wem/bandit_either","AA7ASGQEOMKEZ","either","5","","","","","","","75","K","2","","0","0","1","0.2665328125","","","248","0.4454461089","","main_expt","0.6","0.2306801962","0.4","","0.2665328125","0.8","0.3659800935","0.2","","","","","","","",""
"256","","bandit","327","776573","0.0-288.0-0.0","39988116","wem/bandit_either","AA7ASGQEOMKEZ","either","5","","","","","","","75","K","2","","0","0","1","0.2666328085","","","249","0.4565985803","","main_expt","0.6","0.2363838343","0.4","","0.2666328085","0.8","0.3940863056","0.2","","","","","","","",""
"337","","bandit","328","778422","0.0-289.0-0.0","39988116","wem/bandit_either","AA7ASGQEOMKEZ","either","5","","","","","","","75","K","2","","0","0","1","0.2637425143","","","250","0.4666950096","","main_expt","0.6","0.2865845142","0.4","","0.2637425143","0.8","0.3652193683","0.2","","","","","","","",""
"280","","bandit","329","780217","0.0-290.0-0.0","39988116","wem/bandit_either","AA7ASGQEOMKEZ","either","5","","","","","","","74","J","1","","0","0","1","","0.3527425442","","251","","0.4491167865","main_expt","0.6","","0.4","0.3527425442","","0.8","","0.2","0.3041279159","0.3118516898","","","","","",""
"367","","bandit","330","782097","0.0-291.0-0.0","39988116","wem/bandit_either","AA7ASGQEOMKEZ","either","5","","","","","","","74","J","1","","0","0","1","0.3236638898","","","252","0.4512042396","","main_expt","0.6","0.3236638898","0.4","","0.3054217384","0.8","0.3291033061","0.2","","","","","","","",""
"479","","bandit","331","784088","0.0-292.0-0.0","39988116","wem/bandit_either","AA7ASGQEOMKEZ","either","5","","","","","","","74","J","1","","0","0","1","0.2905162115","","","253","0.4572977034","","main_expt","0.6","0.2905162115","0.4","","0.3241125582","0.8","0.35413613","0.2","","","","","","","",""
"282","","bandit","332","785881","0.0-293.0-0.0","39988116","wem/bandit_either","AA7ASGQEOMKEZ","either","5","","","","","","","72","H","0","img/none_selected.jpg","0","0","1","","0.4550853681","","254","","0.4550853681","main_expt","0.6","","0.4","0.2486268238","","0.8","","0.2","0.3512447021","0.2644422317","","","","","",""
"609","","bandit","333","788004","0.0-294.0-0.0","39988116","wem/bandit_either","AA7ASGQEOMKEZ","either","5","","","","","","","72","H","0","img/none_selected.jpg","1","0","0","0.4068249484","","","255","0.4068249484","","main_expt","0.6","0.2578586278","0.4","","0.3367754603","0.8","0.3151268161","0.2","","","","","","","",""
