"rt","responses","trial_type","trial_index","time_elapsed","internal_node_id","subjID","study","MID","cond","drift","key_press","expt_phase","target","like","value","connected","gems","bombs","no_reward","GemPrChosen","BombPrChosen","GainOverPainPr_0","GainOverPainPr_1","GainOverPainPr_2","GainOverPainPr_3","LosePr_0","LosePr_1","LosePr_2","LosePr_3","WinPr_0","WinPr_1","WinPr_2","WinPr_3","Q0","Q1","Q2","gender","age","ethnicity","respCharCode","respKey","respChoiceNum","respChoice","practice","trial_counter","trial_label"
"5953","{""Q0"":""A1T2162PMSEH0P""}","survey-text","0","5959","0.0-0.0","40637120","wem/bandit_either","A1T2162PMSEH0P","either","4","","","","","","","","","","","","","","","","","","","","","","","","","","","","","","","","","","","",""
"18851","","text","1","25817","0.0-1.0","40637120","wem/bandit_either","A1T2162PMSEH0P","either","4","32","","","","","","","","","","","","","","","","","","","","","","","","","","","","","","","","","","",""
"9873","","text","2","35692","0.0-2.0","40637120","wem/bandit_either","A1T2162PMSEH0P","either","4","32","","","","","","","","","","","","","","","","","","","","","","","","","","","","","","","","","","",""
"24014","","text","3","59708","0.0-3.0","40637120","wem/bandit_either","A1T2162PMSEH0P","either","4","32","","","","","","","","","","","","","","","","","","","","","","","","","","","","","","","","","","",""
"20954","","text","4","80664","0.0-4.0","40637120","wem/bandit_either","A1T2162PMSEH0P","either","4","32","","","","","","","","","","","","","","","","","","","","","","","","","","","","","","","","","","",""
"31089","","text","5","111755","0.0-5.0","40637120","wem/bandit_either","A1T2162PMSEH0P","either","4","32","","","","","","","","","","","","","","","","","","","","","","","","","","","","","","","","","","",""
"6963","","text","6","118720","0.0-6.0","40637120","wem/bandit_either","A1T2162PMSEH0P","either","4","32","","","","","","","","","","","","","","","","","","","","","","","","","","","","","","","","","","",""
"6497","","text","7","125219","0.0-7.0","40637120","wem/bandit_either","A1T2162PMSEH0P","either","4","32","","","","","","","","","","","","","","","","","","","","","","","","","","","","","","","","","","",""
"12274","","identification","8","137520","0.0-8.0-0.0","40637120","wem/bandit_either","A1T2162PMSEH0P","either","4","","identification_pre","the village of Zur","","","","","","","","","","","","","","","","","","","","","","","","","","","","","","","","",""
"10946","","identification","9","149488","0.0-8.0-1.0","40637120","wem/bandit_either","A1T2162PMSEH0P","either","4","","identification_pre","the village of Nyx","","","","","","","","","","","","","","","","","","","","","","","","","","","","","","","","",""
"9609","","text","10","160102","0.0-9.0","40637120","wem/bandit_either","A1T2162PMSEH0P","either","4","32","","","","","","","","","","","","","","","","","","","","","","","","","","","","","","","","","","",""
"2526","","text","11","162630","0.0-10.0","40637120","wem/bandit_either","A1T2162PMSEH0P","either","4","32","","","","","","","","","","","","","","","","","","","","","","","","","","","","","","","","","","",""
"1750","","text","12","164381","0.0-11.0","40637120","wem/bandit_either","A1T2162PMSEH0P","either","4","32","","","","","","","","","","","","","","","","","","","","","","","","","","","","","","","","","","",""
"9499","","text","13","173883","0.0-12.0","40637120","wem/bandit_either","A1T2162PMSEH0P","either","4","32","","","","","","","","","","","","","","","","","","","","","","","","","","","","","","","","","","",""
"7211","","bandit","14","182607","0.0-13.0-0.0","40637120","wem/bandit_either","A1T2162PMSEH0P","either","4","","","","","","","0","0","1","0","0","","","","","0","","","","0","","","","","","","","","","74","J","0","img/none_selected_demo.jpg","true","0",""
"2806","","bandit","15","186923","0.0-14.0-0.0","40637120","wem/bandit_either","A1T2162PMSEH0P","either","4","","","","","","","0","0","1","0","0","","","","","0","","","","0","","","","","","","","","","75","K","0","img/none_selected_demo.jpg","true","0",""
"10367","","text","16","197293","0.0-15.0","40637120","wem/bandit_either","A1T2162PMSEH0P","either","4","32","","","","","","","","","","","","","","","","","","","","","","","","","","","","","","","","","","",""
"13151","","text","17","210446","0.0-16.0","40637120","wem/bandit_either","A1T2162PMSEH0P","either","4","32","","","","","","","","","","","","","","","","","","","","","","","","","","","","","","","","","","",""
"7194","","text","18","217643","0.0-17.0","40637120","wem/bandit_either","A1T2162PMSEH0P","either","4","32","","","","","","","","","","","","","","","","","","","","","","","","","","","","","","","","","","",""
"4936","","text","19","222581","0.0-18.0","40637120","wem/bandit_either","A1T2162PMSEH0P","either","4","32","","","","","","","","","","","","","","","","","","","","","","","","","","","","","","","","","","",""
"939","","bandit","20","225028","0.0-19.0-0.0","40637120","wem/bandit_either","A1T2162PMSEH0P","either","4","","","","","","","1","0","0","0.8","","0.5","0.5","","","","","","","0.8","0.2","","","","","","","","","74","J","0","img/none_selected_demo.jpg","true","0","80_20_practice"
"705","","bandit","21","227243","0.0-19.0-1.0","40637120","wem/bandit_either","A1T2162PMSEH0P","either","4","","","","","","","1","0","0","0.8","","0.5","0.5","","","","","","","0.8","0.2","","","","","","","","","74","J","0","img/none_selected_demo.jpg","true","0","80_20_practice"
"421","","bandit","22","229171","0.0-19.0-2.0","40637120","wem/bandit_either","A1T2162PMSEH0P","either","4","","","","","","","0","0","1","","0.8","0.5","0.5","","","0.8","0.2","","","","","","","","","","","","","74","J","0","img/none_selected_demo.jpg","true","0","80_20_practice"
"382","","bandit","23","231061","0.0-19.0-3.0","40637120","wem/bandit_either","A1T2162PMSEH0P","either","4","","","","","","","1","0","0","0.8","","0.5","0.5","","","","","","","0.8","0.2","","","","","","","","","74","J","0","img/none_selected_demo.jpg","true","0","80_20_practice"
"422","","bandit","24","232992","0.0-19.0-4.0","40637120","wem/bandit_either","A1T2162PMSEH0P","either","4","","","","","","","0","0","1","0.8","","0.5","0.5","","","","","","","0.8","0.2","","","","","","","","","74","J","0","img/none_selected_demo.jpg","true","0","80_20_practice"
"434","","bandit","25","234934","0.0-19.0-5.0","40637120","wem/bandit_either","A1T2162PMSEH0P","either","4","","","","","","","0","1","0","","0.8","0.5","0.5","","","0.8","0.2","","","","","","","","","","","","","74","J","0","img/none_selected_demo.jpg","true","0","80_20_practice"
"1769","","bandit","26","238211","0.0-19.0-6.0","40637120","wem/bandit_either","A1T2162PMSEH0P","either","4","","","","","","","0","0","1","","0.8","0.5","0.5","","","0.8","0.2","","","","","","","","","","","","","74","J","0","img/none_selected_demo.jpg","true","0","80_20_practice"
"305","","bandit","27","240025","0.0-19.0-7.0","40637120","wem/bandit_either","A1T2162PMSEH0P","either","4","","","","","","","1","0","0","0.2","","0.5","0.5","","","","","","","0.8","0.2","","","","","","","","","75","K","1","","true","0","80_20_practice"
"336","","bandit","28","241869","0.0-19.0-8.0","40637120","wem/bandit_either","A1T2162PMSEH0P","either","4","","","","","","","0","0","1","","0.2","0.5","0.5","","","0.8","0.2","","","","","","","","","","","","","75","K","1","","true","0","80_20_practice"
"354","","bandit","29","243729","0.0-19.0-9.0","40637120","wem/bandit_either","A1T2162PMSEH0P","either","4","","","","","","","0","0","1","","0.2","0.5","0.5","","","0.8","0.2","","","","","","","","","","","","","75","K","1","","true","0","80_20_practice"
"317","","bandit","30","245554","0.0-19.0-10.0","40637120","wem/bandit_either","A1T2162PMSEH0P","either","4","","","","","","","0","1","0","","0.8","0.5","0.5","","","0.8","0.2","","","","","","","","","","","","","74","J","0","img/none_selected_demo.jpg","true","0","80_20_practice"
"447","","bandit","31","247506","0.0-19.0-11.0","40637120","wem/bandit_either","A1T2162PMSEH0P","either","4","","","","","","","0","0","1","0.8","","0.5","0.5","","","","","","","0.8","0.2","","","","","","","","","74","J","0","img/none_selected_demo.jpg","true","0","80_20_practice"
"306","","bandit","32","249320","0.0-19.0-12.0","40637120","wem/bandit_either","A1T2162PMSEH0P","either","4","","","","","","","1","0","0","0.8","","0.5","0.5","","","","","","","0.8","0.2","","","","","","","","","74","J","0","img/none_selected_demo.jpg","true","0","80_20_practice"
"358","","bandit","33","251188","0.0-19.0-13.0","40637120","wem/bandit_either","A1T2162PMSEH0P","either","4","","","","","","","1","0","0","0.8","","0.5","0.5","","","","","","","0.8","0.2","","","","","","","","","74","J","0","img/none_selected_demo.jpg","true","0","80_20_practice"
"317","","bandit","34","253017","0.0-19.0-14.0","40637120","wem/bandit_either","A1T2162PMSEH0P","either","4","","","","","","","1","0","0","0.8","","0.5","0.5","","","","","","","0.8","0.2","","","","","","","","","74","J","0","img/none_selected_demo.jpg","true","0","80_20_practice"
"266","","bandit","35","254791","0.0-19.0-15.0","40637120","wem/bandit_either","A1T2162PMSEH0P","either","4","","","","","","","0","0","1","","0.8","0.5","0.5","","","0.8","0.2","","","","","","","","","","","","","74","J","0","img/none_selected_demo.jpg","true","0","80_20_practice"
"271","","bandit","36","256571","0.0-19.0-16.0","40637120","wem/bandit_either","A1T2162PMSEH0P","either","4","","","","","","","1","0","0","0.8","","0.5","0.5","","","","","","","0.8","0.2","","","","","","","","","74","J","0","img/none_selected_demo.jpg","true","0","80_20_practice"
"294","","bandit","37","258373","0.0-19.0-17.0","40637120","wem/bandit_either","A1T2162PMSEH0P","either","4","","","","","","","1","0","0","0.8","","0.5","0.5","","","","","","","0.8","0.2","","","","","","","","","74","J","0","img/none_selected_demo.jpg","true","0","80_20_practice"
"312","","bandit","38","260192","0.0-19.0-18.0","40637120","wem/bandit_either","A1T2162PMSEH0P","either","4","","","","","","","0","1","0","","0.8","0.5","0.5","","","0.8","0.2","","","","","","","","","","","","","74","J","0","img/none_selected_demo.jpg","true","0","80_20_practice"
"333","","bandit","39","262035","0.0-19.0-19.0","40637120","wem/bandit_either","A1T2162PMSEH0P","either","4","","","","","","","0","1","0","","0.8","0.5","0.5","","","0.8","0.2","","","","","","","","","","","","","74","J","0","img/none_selected_demo.jpg","true","0","80_20_practice"
"3445","","text","40","265483","0.0-20.0","40637120","wem/bandit_either","A1T2162PMSEH0P","either","4","32","","","","","","","","","","","","","","","","","","","","","","","","","","","","","","","","","","",""
"897","","bandit","41","267886","0.0-21.0-0.0","40637120","wem/bandit_either","A1T2162PMSEH0P","either","4","","","","","","","1","0","0","1","0","","","","","0","1","","","1","0","","","","","","","","","74","J","0","img/none_selected_demo.jpg","true","0",""
"9600","","text","42","277489","0.0-22.0","40637120","wem/bandit_either","A1T2162PMSEH0P","either","4","32","","","","","","","","","","","","","","","","","","","","","","","","","","","","","","","","","","",""
"2440","","text","43","279932","0.0-23.0","40637120","wem/bandit_either","A1T2162PMSEH0P","either","4","32","","","","","","","","","","","","","","","","","","","","","","","","","","","","","","","","","","",""
"2606","","text","44","282541","0.0-24.0","40637120","wem/bandit_either","A1T2162PMSEH0P","either","4","32","","","","","","","","","","","","","","","","","","","","","","","","","","","","","","","","","","",""
"6286","","text","45","288830","0.0-25.0","40637120","wem/bandit_either","A1T2162PMSEH0P","either","4","32","","","","","","","","","","","","","","","","","","","","","","","","","","","","","","","","","","",""
"9786","","text","46","298619","0.0-26.0","40637120","wem/bandit_either","A1T2162PMSEH0P","either","4","32","","","","","","","","","","","","","","","","","","","","","","","","","","","","","","","","","","",""
"4633","","text","47","303255","0.0-27.0","40637120","wem/bandit_either","A1T2162PMSEH0P","either","4","32","","","","","","","","","","","","","","","","","","","","","","","","","","","","","","","","","","",""
"6838","","text","48","310098","0.0-28.0","40637120","wem/bandit_either","A1T2162PMSEH0P","either","4","32","","","","","","","","","","","","","","","","","","","","","","","","","","","","","","","","","","",""
"4902","","text","49","315003","0.0-29.0","40637120","wem/bandit_either","A1T2162PMSEH0P","either","4","32","","","","","","","","","","","","","","","","","","","","","","","","","","","","","","","","","","",""
"4695","","text","50","319701","0.0-30.0","40637120","wem/bandit_either","A1T2162PMSEH0P","either","4","32","","","","","","","","","","","","","","","","","","","","","","","","","","","","","","","","","","",""
"1543","","text","51","321247","0.0-31.0","40637120","wem/bandit_either","A1T2162PMSEH0P","either","4","32","","","","","","","","","","","","","","","","","","","","","","","","","","","","","","","","","","",""
"3786","","text","52","325036","0.0-32.0","40637120","wem/bandit_either","A1T2162PMSEH0P","either","4","32","","","","","","","","","","","","","","","","","","","","","","","","","","","","","","","","","","",""
"1063","","bandit","53","327611","0.0-33.0-0.0","40637120","wem/bandit_either","A1T2162PMSEH0P","either","4","","","","","","","0","0","1","","0.2","0.5","0.5","0.5","0.5","0.8","0.2","0.6","0.2","","","","","","","","","","","76","L","3","","true","0","full_practice"
"795","","bandit","54","329917","0.0-33.0-1.0","40637120","wem/bandit_either","A1T2162PMSEH0P","either","4","","","","","","","0","0","1","","0.2","0.5","0.5","0.5","0.5","0.8","0.2","0.6","0.2","","","","","","","","","","","74","J","1","","true","0","full_practice"
"321","","bandit","55","331745","0.0-33.0-2.0","40637120","wem/bandit_either","A1T2162PMSEH0P","either","4","","","","","","","1","0","0","0.8","","0.5","0.5","0.5","0.5","","","","","0.8","0.2","0.6","0.2","","","","","","","72","H","0","img/none_selected.jpg","true","0","full_practice"
"346","","bandit","56","333597","0.0-33.0-3.0","40637120","wem/bandit_either","A1T2162PMSEH0P","either","4","","","","","","","0","1","0","","0.8","0.5","0.5","0.5","0.5","0.8","0.2","0.6","0.2","","","","","","","","","","","72","H","0","img/none_selected.jpg","true","0","full_practice"
"330","","bandit","57","335436","0.0-33.0-4.0","40637120","wem/bandit_either","A1T2162PMSEH0P","either","4","","","","","","","0","1","0","","0.8","0.5","0.5","0.5","0.5","0.8","0.2","0.6","0.2","","","","","","","","","","","72","H","0","img/none_selected.jpg","true","0","full_practice"
"347","","bandit","58","337292","0.0-33.0-5.0","40637120","wem/bandit_either","A1T2162PMSEH0P","either","4","","","","","","","0","0","1","0.8","","0.5","0.5","0.5","0.5","","","","","0.8","0.2","0.6","0.2","","","","","","","72","H","0","img/none_selected.jpg","true","0","full_practice"
"295","","bandit","59","339098","0.0-33.0-6.0","40637120","wem/bandit_either","A1T2162PMSEH0P","either","4","","","","","","","1","0","0","0.8","","0.5","0.5","0.5","0.5","","","","","0.8","0.2","0.6","0.2","","","","","","","72","H","0","img/none_selected.jpg","true","0","full_practice"
"312","","bandit","60","340920","0.0-33.0-7.0","40637120","wem/bandit_either","A1T2162PMSEH0P","either","4","","","","","","","0","1","0","","0.8","0.5","0.5","0.5","0.5","0.8","0.2","0.6","0.2","","","","","","","","","","","72","H","0","img/none_selected.jpg","true","0","full_practice"
"307","","bandit","61","342737","0.0-33.0-8.0","40637120","wem/bandit_either","A1T2162PMSEH0P","either","4","","","","","","","0","1","0","","0.8","0.5","0.5","0.5","0.5","0.8","0.2","0.6","0.2","","","","","","","","","","","72","H","0","img/none_selected.jpg","true","0","full_practice"
"312","","bandit","62","344559","0.0-33.0-9.0","40637120","wem/bandit_either","A1T2162PMSEH0P","either","4","","","","","","","0","1","0","","0.8","0.5","0.5","0.5","0.5","0.8","0.2","0.6","0.2","","","","","","","","","","","72","H","0","img/none_selected.jpg","true","0","full_practice"
"357","","bandit","63","346426","0.0-33.0-10.0","40637120","wem/bandit_either","A1T2162PMSEH0P","either","4","","","","","","","1","0","0","0.8","","0.5","0.5","0.5","0.5","","","","","0.8","0.2","0.6","0.2","","","","","","","72","H","0","img/none_selected.jpg","true","0","full_practice"
"347","","bandit","64","348285","0.0-33.0-11.0","40637120","wem/bandit_either","A1T2162PMSEH0P","either","4","","","","","","","0","1","0","","0.8","0.5","0.5","0.5","0.5","0.8","0.2","0.6","0.2","","","","","","","","","","","72","H","0","img/none_selected.jpg","true","0","full_practice"
"385","","bandit","65","350180","0.0-33.0-12.0","40637120","wem/bandit_either","A1T2162PMSEH0P","either","4","","","","","","","1","0","0","0.8","","0.5","0.5","0.5","0.5","","","","","0.8","0.2","0.6","0.2","","","","","","","72","H","0","img/none_selected.jpg","true","0","full_practice"
"311","","bandit","66","352000","0.0-33.0-13.0","40637120","wem/bandit_either","A1T2162PMSEH0P","either","4","","","","","","","1","0","0","0.8","","0.5","0.5","0.5","0.5","","","","","0.8","0.2","0.6","0.2","","","","","","","72","H","0","img/none_selected.jpg","true","0","full_practice"
"281","","bandit","67","353789","0.0-33.0-14.0","40637120","wem/bandit_either","A1T2162PMSEH0P","either","4","","","","","","","1","0","0","0.8","","0.5","0.5","0.5","0.5","","","","","0.8","0.2","0.6","0.2","","","","","","","72","H","0","img/none_selected.jpg","true","0","full_practice"
"290","","bandit","68","355589","0.0-33.0-15.0","40637120","wem/bandit_either","A1T2162PMSEH0P","either","4","","","","","","","0","1","0","","0.8","0.5","0.5","0.5","0.5","0.8","0.2","0.6","0.2","","","","","","","","","","","72","H","0","img/none_selected.jpg","true","0","full_practice"
"483","","bandit","69","357581","0.0-33.0-16.0","40637120","wem/bandit_either","A1T2162PMSEH0P","either","4","","","","","","","0","1","0","","0.8","0.5","0.5","0.5","0.5","0.8","0.2","0.6","0.2","","","","","","","","","","","72","H","0","img/none_selected.jpg","true","0","full_practice"
"315","","bandit","70","359407","0.0-33.0-17.0","40637120","wem/bandit_either","A1T2162PMSEH0P","either","4","","","","","","","0","0","1","0.8","","0.5","0.5","0.5","0.5","","","","","0.8","0.2","0.6","0.2","","","","","","","72","H","0","img/none_selected.jpg","true","0","full_practice"
"284","","bandit","71","361200","0.0-33.0-18.0","40637120","wem/bandit_either","A1T2162PMSEH0P","either","4","","","","","","","0","1","0","","0.8","0.5","0.5","0.5","0.5","0.8","0.2","0.6","0.2","","","","","","","","","","","72","H","0","img/none_selected.jpg","true","0","full_practice"
"248","","bandit","72","362957","0.0-33.0-19.0","40637120","wem/bandit_either","A1T2162PMSEH0P","either","4","","","","","","","1","0","0","0.8","","0.5","0.5","0.5","0.5","","","","","0.8","0.2","0.6","0.2","","","","","","","72","H","0","img/none_selected.jpg","true","0","full_practice"
"3941","","text","73","366907","0.0-34.0","40637120","wem/bandit_either","A1T2162PMSEH0P","either","4","32","","","","","","","","","","","","","","","","","","","","","","","","","","","","","","","","","","",""
"10642","","text","74","378553","0.0-35.0","40637120","wem/bandit_either","A1T2162PMSEH0P","either","4","32","","","","","","","","","","","","","","","","","","","","","","","","","","","","","","","","","","",""
"11068","","text","75","389627","0.0-36.0","40637120","wem/bandit_either","A1T2162PMSEH0P","either","4","32","","","","","","","","","","","","","","","","","","","","","","","","","","","","","","","","","","",""
"6807","","text","76","396437","0.0-37.0","40637120","wem/bandit_either","A1T2162PMSEH0P","either","4","32","","","","","","","","","","","","","","","","","","","","","","","","","","","","","","","","","","",""
"8810","","text","77","405251","0.0-38.0","40637120","wem/bandit_either","A1T2162PMSEH0P","either","4","32","","","","","","","","","","","","","","","","","","","","","","","","","","","","","","","","","","",""
"8558","","text","78","413813","0.0-39.0","40637120","wem/bandit_either","A1T2162PMSEH0P","either","4","32","","","","","","","","","","","","","","","","","","","","","","","","","","","","","","","","","","",""
"1561","","bandit","79","416885","0.0-40.0-0.0","40637120","wem/bandit_either","A1T2162PMSEH0P","either","4","","","","","","","0","0","1","0.3894728165","","0.4","0.2","0.8","0.6","","","","","0.3894728165","0.3525715257","0.3242650943","0.2771551185","","","","","","","72","H","0","img/none_selected.jpg","","1","main_expt"
"887","","bandit","80","419281","0.0-41.0-0.0","40637120","wem/bandit_either","A1T2162PMSEH0P","either","4","","","","","","","0","0","1","","0.390153736","0.4","0.2","0.8","0.6","0.363660736","0.390153736","0.3296228245","0.3030893157","","","","","","","","","","","74","J","1","","","2","main_expt"
"299","","bandit","81","421089","0.0-42.0-0.0","40637120","wem/bandit_either","A1T2162PMSEH0P","either","4","","","","","","","0","1","0","","0.3102780753","0.4","0.2","0.8","0.6","0.3842171554","0.3725447061","0.3102780753","0.3211059343","","","","","","","","","","","75","K","2","","","3","main_expt"
"289","","bandit","82","422888","0.0-43.0-0.0","40637120","wem/bandit_either","A1T2162PMSEH0P","either","4","","","","","","","0","1","0","","0.2749892112","0.4","0.2","0.8","0.6","0.3831963053","0.3431524481","0.2749892112","0.2804386453","","","","","","","","","","","75","K","2","","","4","main_expt"
"642","","bandit","83","425041","0.0-44.0-0.0","40637120","wem/bandit_either","A1T2162PMSEH0P","either","4","","","","","","","0","0","1","","0.3037824898","0.4","0.2","0.8","0.6","0.4056596471","0.3448007793","0.3037824898","0.2609559086","","","","","","","","","","","75","K","2","","","5","main_expt"
"366","","bandit","84","426917","0.0-45.0-0.0","40637120","wem/bandit_either","A1T2162PMSEH0P","either","4","","","","","","","1","0","0","0.3217417103","","0.4","0.2","0.8","0.6","","","","","0.4409946319","0.3980888019","0.3217417103","0.2259287768","","","","","","","75","K","2","","","6","main_expt"
"470","","bandit","85","428899","0.0-46.0-0.0","40637120","wem/bandit_either","A1T2162PMSEH0P","either","4","","","","","","","0","0","1","","0.3018715163","0.4","0.2","0.8","0.6","0.3821747998","0.3693121862","0.3018715163","0.2433618728","","","","","","","","","","","75","K","2","","","7","main_expt"
"282","","bandit","86","430691","0.0-47.0-0.0","40637120","wem/bandit_either","A1T2162PMSEH0P","either","4","","","","","","","1","0","0","0.3643645816","","0.4","0.2","0.8","0.6","","","","","0.3841844813","0.2933697555","0.3643645816","0.2025356769","","","","","","","75","K","2","","","8","main_expt"
"263","","bandit","87","432461","0.0-48.0-0.0","40637120","wem/bandit_either","A1T2162PMSEH0P","either","4","","","","","","","0","0","1","0.3418610374","","0.4","0.2","0.8","0.6","","","","","0.3412237964","0.3036212831","0.3418610374","0.1441028094","","","","","","","75","K","2","","","9","main_expt"
"294","","bandit","88","434266","0.0-49.0-0.0","40637120","wem/bandit_either","A1T2162PMSEH0P","either","4","","","","","","","0","0","1","","0.1736005971","0.4","0.2","0.8","0.6","0.3256420777","0.308020301","0.3190157878","0.1736005971","","","","","","","","","","","76","L","3","","","10","main_expt"
"846","","bandit","89","436623","0.0-50.0-0.0","40637120","wem/bandit_either","A1T2162PMSEH0P","either","4","","","","","","","0","0","1","","0.3514007431","0.4","0.2","0.8","0.6","0.3514007431","0.3065973113","0.2998731478","0.1836365694","","","","","","","","","","","72","H","0","img/none_selected.jpg","","11","main_expt"
"254","","bandit","90","438388","0.0-51.0-0.0","40637120","wem/bandit_either","A1T2162PMSEH0P","either","4","","","","","","","0","0","1","","0.3271859636","0.4","0.2","0.8","0.6","0.3722032088","0.3271859636","0.2942822571","0.2143869662","","","","","","","","","","","74","J","1","","","12","main_expt"
"202","","bandit","91","440101","0.0-52.0-0.0","40637120","wem/bandit_either","A1T2162PMSEH0P","either","4","","","","","","","0","0","1","","0.3009212619","0.4","0.2","0.8","0.6","0.3681707299","0.2761076709","0.3009212619","0.1637139448","","","","","","","","","","","75","K","2","","","13","main_expt"
"277","","bandit","92","441888","0.0-53.0-0.0","40637120","wem/bandit_either","A1T2162PMSEH0P","either","4","","","","","","","0","0","1","0.3227424667","","0.4","0.2","0.8","0.6","","","","","0.3528222564","0.2311164494","0.3227424667","0.1488535162","","","","","","","75","K","2","","","14","main_expt"
"263","","bandit","93","443662","0.0-54.0-0.0","40637120","wem/bandit_either","A1T2162PMSEH0P","either","4","","","","","","","0","0","1","0.1332411271","","0.4","0.2","0.8","0.6","","","","","0.3738838661","0.2905977425","0.3547546862","0.1332411271","","","","","","","76","L","3","","","15","main_expt"
"304","","bandit","94","445477","0.0-55.0-0.0","40637120","wem/bandit_either","A1T2162PMSEH0P","either","4","","","","","","","0","0","1","","0.09882415698","0.4","0.2","0.8","0.6","0.3385239332","0.2924554969","0.3241157583","0.09882415698","","","","","","","","","","","76","L","3","","","16","main_expt"
"203","","bandit","95","447191","0.0-56.0-0.0","40637120","wem/bandit_either","A1T2162PMSEH0P","either","4","","","","","","","0","0","1","","0.3111355138","0.4","0.2","0.8","0.6","0.3111355138","0.3114836302","0.3363410386","0.1069157009","","","","","","","","","","","72","H","0","img/none_selected.jpg","","17","main_expt"
"287","","bandit","96","448988","0.0-57.0-0.0","40637120","wem/bandit_either","A1T2162PMSEH0P","either","4","","","","","","","1","0","0","0.3487767647","","0.4","0.2","0.8","0.6","","","","","0.3487767647","0.3215333475","0.3880947854","0.134958137","","","","","","","72","H","0","img/none_selected.jpg","","18","main_expt"
"358","","bandit","97","450857","0.0-58.0-0.0","40637120","wem/bandit_either","A1T2162PMSEH0P","either","4","","","","","","","0","0","1","","0.3010303499","0.4","0.2","0.8","0.6","0.3010303499","0.2733398822","0.4116912081","0.1230418706","","","","","","","","","","","72","H","0","img/none_selected.jpg","","19","main_expt"
"281","","bandit","98","452648","0.0-59.0-0.0","40637120","wem/bandit_either","A1T2162PMSEH0P","either","4","","","","","","","0","0","1","","0.2907203997","0.4","0.2","0.8","0.6","0.2907203997","0.2351410235","0.3973894305","0.09866604889","","","","","","","","","","","72","H","0","img/none_selected.jpg","","20","main_expt"
"277","","bandit","99","454436","0.0-60.0-0.0","40637120","wem/bandit_either","A1T2162PMSEH0P","either","4","","","","","","","0","0","1","","0.2257810982","0.4","0.2","0.8","0.6","0.3088108907","0.2257810982","0.369037109","0.1021222834","","","","","","","","","","","74","J","1","","","21","main_expt"
"254","","bandit","100","456201","0.0-61.0-0.0","40637120","wem/bandit_either","A1T2162PMSEH0P","either","4","","","","","","","0","0","1","","0.2221856846","0.4","0.2","0.8","0.6","0.349202701","0.2221856846","0.4179468344","0.1234138809","","","","","","","","","","","74","J","1","","","22","main_expt"
"87","","bandit","101","457798","0.0-62.0-0.0","40637120","wem/bandit_either","A1T2162PMSEH0P","either","4","","","","","","","1","0","0","0.4276062926","","0.4","0.2","0.8","0.6","","","","","0.3785068464","0.2127124712","0.4276062926","0.1030640584","","","","","","","75","K","2","","","23","main_expt"
"302","","bandit","102","459611","0.0-63.0-0.0","40637120","wem/bandit_either","A1T2162PMSEH0P","either","4","","","","","","","0","0","1","0.4078122208","","0.4","0.2","0.8","0.6","","","","","0.4012919653","0.1882566648","0.4078122208","0.1261035851","","","","","","","75","K","2","","","24","main_expt"
"256","","bandit","103","461379","0.0-64.0-0.0","40637120","wem/bandit_either","A1T2162PMSEH0P","either","4","","","","","","","0","0","1","0.3950411191","","0.4","0.2","0.8","0.6","","","","","0.400899794","0.1273223766","0.3950411191","0.1796705612","","","","","","","75","K","2","","","25","main_expt"
"275","","bandit","104","463163","0.0-65.0-0.0","40637120","wem/bandit_either","A1T2162PMSEH0P","either","4","","","","","","","0","0","1","0.4322303329","","0.4","0.2","0.8","0.6","","","","","0.4126274585","0.15747458","0.4322303329","0.2414651519","","","","","","","75","K","2","","","26","main_expt"
"528","","bandit","105","465198","0.0-66.0-0.0","40637120","wem/bandit_either","A1T2162PMSEH0P","either","4","","","","","","","1","0","0","0.3992263875","","0.4","0.2","0.8","0.6","","","","","0.3992263875","0.1442684908","0.4353643722","0.2005374927","","","","","","","72","H","0","img/none_selected.jpg","","27","main_expt"
"304","","bandit","106","467013","0.0-67.0-0.0","40637120","wem/bandit_either","A1T2162PMSEH0P","either","4","","","","","","","0","0","1","","0.3846584236","0.4","0.2","0.8","0.6","0.3846584236","0.2255404594","0.4464017809","0.3197257227","","","","","","","","","","","72","H","0","img/none_selected.jpg","","28","main_expt"
"275","","bandit","107","468798","0.0-68.0-0.0","40637120","wem/bandit_either","A1T2162PMSEH0P","either","4","","","","","","","0","0","1","0.3561298134","","0.4","0.2","0.8","0.6","","","","","0.3561298134","0.2730951691","0.4417109462","0.3141869899","","","","","","","72","H","0","img/none_selected.jpg","","29","main_expt"
"207","","bandit","108","470511","0.0-69.0-0.0","40637120","wem/bandit_either","A1T2162PMSEH0P","either","4","","","","","","","0","0","1","","0.3101363315","0.4","0.2","0.8","0.6","0.3101363315","0.2890412698","0.4065908859","0.3445991012","","","","","","","","","","","72","H","0","img/none_selected.jpg","","30","main_expt"
"262","","bandit","109","472285","0.0-70.0-0.0","40637120","wem/bandit_either","A1T2162PMSEH0P","either","4","","","","","","","0","0","1","","0.3309226042","0.4","0.2","0.8","0.6","0.3322219809","0.3309226042","0.3954582793","0.3456655029","","","","","","","","","","","74","J","1","","","31","main_expt"
"409","","bandit","110","474205","0.0-71.0-0.0","40637120","wem/bandit_either","A1T2162PMSEH0P","either","4","","","","","","","0","0","1","0.3519301717","","0.4","0.2","0.8","0.6","","","","","0.3516269472","0.3519301717","0.3716723047","0.3826172224","","","","","","","74","J","1","","","32","main_expt"
"279","","bandit","111","475995","0.0-72.0-0.0","40637120","wem/bandit_either","A1T2162PMSEH0P","either","4","","","","","","","0","0","1","0.3799724366","","0.4","0.2","0.8","0.6","","","","","0.3852085553","0.3414953842","0.3799724366","0.3804083149","","","","","","","75","K","2","","","33","main_expt"
"249","","bandit","112","477754","0.0-73.0-0.0","40637120","wem/bandit_either","A1T2162PMSEH0P","either","4","","","","","","","1","0","0","0.409480615","","0.4","0.2","0.8","0.6","","","","","0.4196644934","0.2938412915","0.409480615","0.3808178469","","","","","","","75","K","2","","","34","main_expt"
"363","","bandit","113","479627","0.0-74.0-0.0","40637120","wem/bandit_either","A1T2162PMSEH0P","either","4","","","","","","","1","0","0","0.3869649509","","0.4","0.2","0.8","0.6","","","","","0.420891004","0.2256616696","0.3869649509","0.376129724","","","","","","","75","K","2","","","35","main_expt"
"295","","bandit","114","481431","0.0-75.0-0.0","40637120","wem/bandit_either","A1T2162PMSEH0P","either","4","","","","","","","0","0","1","0.3045389962","","0.4","0.2","0.8","0.6","","","","","0.3808881167","0.2525957923","0.3045389962","0.4027809904","","","","","","","75","K","2","","","36","main_expt"
"297","","bandit","115","483240","0.0-76.0-0.0","40637120","wem/bandit_either","A1T2162PMSEH0P","either","4","","","","","","","0","0","1","0.2954217214","","0.4","0.2","0.8","0.6","","","","","0.3634360393","0.2333373749","0.2954217214","0.3715556026","","","","","","","75","K","2","","","37","main_expt"
"159","","bandit","116","484910","0.0-77.0-0.0","40637120","wem/bandit_either","A1T2162PMSEH0P","either","4","","","","","","","0","0","1","0.2749906923","","0.4","0.2","0.8","0.6","","","","","0.3432691328","0.2126884676","0.2749906923","0.354842885","","","","","","","75","K","2","","","38","main_expt"
"297","","bandit","117","486720","0.0-78.0-0.0","40637120","wem/bandit_either","A1T2162PMSEH0P","either","4","","","","","","","1","0","0","0.2911873598","","0.4","0.2","0.8","0.6","","","","","0.3113322025","0.212498526","0.2911873598","0.3066825603","","","","","","","75","K","2","","","39","main_expt"
"283","","bandit","118","488514","0.0-79.0-0.0","40637120","wem/bandit_either","A1T2162PMSEH0P","either","4","","","","","","","0","0","1","0.3066149412","","0.4","0.2","0.8","0.6","","","","","0.3298138996","0.2031275136","0.3066149412","0.3208648015","","","","","","","75","K","2","","","40","main_expt"
"133","","bandit","119","490157","0.0-80.0-0.0","40637120","wem/bandit_either","A1T2162PMSEH0P","either","4","","","","","","","1","0","0","0.2774570704","","0.4","0.2","0.8","0.6","","","","","0.3590557929","0.2409224204","0.2612722093","0.2774570704","","","","","","","76","L","3","","","41","main_expt"
"361","","bandit","120","492028","0.0-81.0-0.0","40637120","wem/bandit_either","A1T2162PMSEH0P","either","4","","","","","","","0","1","0","","0.3092882543","0.4","0.2","0.8","0.6","0.3455434044","0.2166695961","0.2579482203","0.3092882543","","","","","","","","","","","76","L","3","","","42","main_expt"
"314","","bandit","121","493852","0.0-82.0-0.0","40637120","wem/bandit_either","A1T2162PMSEH0P","either","4","","","","","","","1","0","0","0.3161251671","","0.4","0.2","0.8","0.6","","","","","0.4020043176","0.2314197793","0.2232302517","0.3161251671","","","","","","","76","L","3","","","43","main_expt"
"347","","bandit","122","495711","0.0-83.0-0.0","40637120","wem/bandit_either","A1T2162PMSEH0P","either","4","","","","","","","0","0","1","","0.3032549762","0.4","0.2","0.8","0.6","0.4088695108","0.1889371852","0.2435669349","0.3032549762","","","","","","","","","","","76","L","3","","","44","main_expt"
"298","","bandit","123","497518","0.0-84.0-0.0","40637120","wem/bandit_either","A1T2162PMSEH0P","either","4","","","","","","","0","0","1","0.3012359134","","0.4","0.2","0.8","0.6","","","","","0.3914045207","0.2152104473","0.1885724617","0.3012359134","","","","","","","76","L","3","","","45","main_expt"
"316","","bandit","124","499346","0.0-85.0-0.0","40637120","wem/bandit_either","A1T2162PMSEH0P","either","4","","","","","","","0","0","1","0.2994346937","","0.4","0.2","0.8","0.6","","","","","0.3682142312","0.2260726972","0.104230756","0.2994346937","","","","","","","76","L","3","","","46","main_expt"
"155","","bandit","125","501013","0.0-86.0-0.0","40637120","wem/bandit_either","A1T2162PMSEH0P","either","4","","","","","","","0","1","0","","0.3462276735","0.4","0.2","0.8","0.6","0.3462276735","0.2330399618","0.09013225529","0.3169549043","","","","","","","","","","","72","H","0","img/none_selected.jpg","","47","main_expt"
"350","","bandit","126","502876","0.0-87.0-0.0","40637120","wem/bandit_either","A1T2162PMSEH0P","either","4","","","","","","","0","0","1","0.3501405617","","0.4","0.2","0.8","0.6","","","","","0.3501405617","0.2769685944","0.1066227192","0.3137179834","","","","","","","72","H","0","img/none_selected.jpg","","48","main_expt"
"278","","bandit","127","504664","0.0-88.0-0.0","40637120","wem/bandit_either","A1T2162PMSEH0P","either","4","","","","","","","0","1","0","","0.3607669766","0.4","0.2","0.8","0.6","0.3607669766","0.2954986192","0.1273062614","0.3026837323","","","","","","","","","","","72","H","0","img/none_selected.jpg","","49","main_expt"
"220","","bandit","128","506396","0.0-89.0-0.0","40637120","wem/bandit_either","A1T2162PMSEH0P","either","4","","","","","","","0","0","1","","0.3776327681","0.4","0.2","0.8","0.6","0.3776327681","0.2730110453","0.08158159543","0.2690248343","","","","","","","","","","","72","H","0","img/none_selected.jpg","","50","main_expt"
"227","","bandit","129","508131","0.0-90.0-0.0","40637120","wem/bandit_either","A1T2162PMSEH0P","either","4","","","","","","","0","1","0","","0.3922012959","0.4","0.2","0.8","0.6","0.3922012959","0.2672659715","0.08035098666","0.2407215714","","","","","","","","","","","72","H","0","img/none_selected.jpg","","51","main_expt"
"299","","bandit","130","509943","0.0-91.0-0.0","40637120","wem/bandit_either","A1T2162PMSEH0P","either","4","","","","","","","0","0","1","","0.3532085343","0.4","0.2","0.8","0.6","0.3532085343","0.2552972095","0.1007468434","0.2758158767","","","","","","","","","","","72","H","0","img/none_selected.jpg","","52","main_expt"
"306","","bandit","131","511761","0.0-92.0-0.0","40637120","wem/bandit_either","A1T2162PMSEH0P","either","4","","","","","","","0","1","0","","0.3597378762","0.4","0.2","0.8","0.6","0.3597378762","0.1954439593","0.1479770317","0.2661511239","","","","","","","","","","","72","H","0","img/none_selected.jpg","","53","main_expt"
"372","","bandit","132","513647","0.0-93.0-0.0","40637120","wem/bandit_either","A1T2162PMSEH0P","either","4","","","","","","","0","0","1","0.3553644404","","0.4","0.2","0.8","0.6","","","","","0.3553644404","0.1250298759","0.1450389045","0.250303373","","","","","","","72","H","0","img/none_selected.jpg","","54","main_expt"
"261","","bandit","133","515419","0.0-94.0-0.0","40637120","wem/bandit_either","A1T2162PMSEH0P","either","4","","","","","","","0","0","1","","0.3427354451","0.4","0.2","0.8","0.6","0.3427354451","0.1224949652","0.1678096349","0.1850572083","","","","","","","","","","","72","H","0","img/none_selected.jpg","","55","main_expt"
"375","","bandit","134","517307","0.0-95.0-0.0","40637120","wem/bandit_either","A1T2162PMSEH0P","either","4","","","","","","","0","0","1","0.3158877586","","0.4","0.2","0.8","0.6","","","","","0.3158877586","0.1312048923","0.1748395718","0.2410157884","","","","","","","72","H","0","img/none_selected.jpg","","56","main_expt"
"159","","bandit","135","518977","0.0-96.0-0.0","40637120","wem/bandit_either","A1T2162PMSEH0P","either","4","","","","","","","0","0","1","","0.14452077","0.4","0.2","0.8","0.6","0.3224611445","0.14452077","0.146986137","0.2657224069","","","","","","","","","","","74","J","1","","","57","main_expt"
"323","","bandit","136","520809","0.0-97.0-0.0","40637120","wem/bandit_either","A1T2162PMSEH0P","either","4","","","","","","","0","0","1","","0.1198415177","0.4","0.2","0.8","0.6","0.3378672788","0.1198415177","0.1316135006","0.2361308133","","","","","","","","","","","74","J","1","","","58","main_expt"
"282","","bandit","137","522600","0.0-98.0-0.0","40637120","wem/bandit_either","A1T2162PMSEH0P","either","4","","","","","","","0","0","1","0.1776120447","","0.4","0.2","0.8","0.6","","","","","0.3438075972","0.1674914914","0.1776120447","0.2078360154","","","","","","","75","K","2","","","59","main_expt"
"273","","bandit","138","524385","0.0-99.0-0.0","40637120","wem/bandit_either","A1T2162PMSEH0P","either","4","","","","","","","0","0","1","0.2034864675","","0.4","0.2","0.8","0.6","","","","","0.2950987239","0.147959707","0.2034864675","0.2256957235","","","","","","","75","K","2","","","60","main_expt"
"240","","bandit","139","526138","0.0-100.0-0.0","40637120","wem/bandit_either","A1T2162PMSEH0P","either","4","","","","","","","0","1","0","","0.2713547376","0.4","0.2","0.8","0.6","0.2939622289","0.1217284172","0.1325668513","0.2713547376","","","","","","","","","","","76","L","3","","","61","main_expt"
"517","","bandit","140","528166","0.0-101.0-0.0","40637120","wem/bandit_either","A1T2162PMSEH0P","either","4","","","","","","","1","0","0","0.2800078023","","0.4","0.2","0.8","0.6","","","","","0.2907096119","0.1392905859","0.125492747","0.2800078023","","","","","","","76","L","3","","","62","main_expt"
"341","","bandit","141","530019","0.0-102.0-0.0","40637120","wem/bandit_either","A1T2162PMSEH0P","either","4","","","","","","","0","0","1","0.362183352","","0.4","0.2","0.8","0.6","","","","","0.2696382907","0.1953314019","0.1081989139","0.362183352","","","","","","","76","L","3","","","63","main_expt"
"300","","bandit","142","531829","0.0-103.0-0.0","40637120","wem/bandit_either","A1T2162PMSEH0P","either","4","","","","","","","0","0","1","0.3354395381","","0.4","0.2","0.8","0.6","","","","","0.2496415039","0.2618523415","0.09104284411","0.3354395381","","","","","","","76","L","3","","","64","main_expt"
"327","","bandit","143","533665","0.0-104.0-0.0","40637120","wem/bandit_either","A1T2162PMSEH0P","either","4","","","","","","","0","0","1","","0.2893845237","0.4","0.2","0.8","0.6","0.2364994079","0.2686672798","0.1264903162","0.2893845237","","","","","","","","","","","76","L","3","","","65","main_expt"
"329","","bandit","144","535505","0.0-105.0-0.0","40637120","wem/bandit_either","A1T2162PMSEH0P","either","4","","","","","","","0","0","1","","0.2355717356","0.4","0.2","0.8","0.6","0.2541683514","0.2451656397","0.1665937301","0.2355717356","","","","","","","","","","","76","L","3","","","66","main_expt"
"9","","bandit","145","537026","0.0-106.0-0.0","40637120","wem/bandit_either","A1T2162PMSEH0P","either","4","","","","","","","0","0","1","0.2985471382","","0.4","0.2","0.8","0.6","","","","","0.2985471382","0.2445320338","0.1740025863","0.2848755716","","","","","","","72","H","0","img/none_selected.jpg","","67","main_expt"
"290","","bandit","146","538827","0.0-107.0-0.0","40637120","wem/bandit_either","A1T2162PMSEH0P","either","4","","","","","","","1","0","0","0.3391290389","","0.4","0.2","0.8","0.6","","","","","0.3391290389","0.2261158315","0.2300011382","0.3341158043","","","","","","","72","H","0","img/none_selected.jpg","","68","main_expt"
"294","","bandit","147","540635","0.0-108.0-0.0","40637120","wem/bandit_either","A1T2162PMSEH0P","either","4","","","","","","","1","0","0","0.3114764975","","0.4","0.2","0.8","0.6","","","","","0.3114764975","0.1627286519","0.1768594062","0.3253412689","","","","","","","72","H","0","img/none_selected.jpg","","69","main_expt"
"286","","bandit","148","542433","0.0-109.0-0.0","40637120","wem/bandit_either","A1T2162PMSEH0P","either","4","","","","","","","0","0","1","","0.3056328376","0.4","0.2","0.8","0.6","0.3056328376","0.1301009224","0.1906145184","0.3280915152","","","","","","","","","","","72","H","0","img/none_selected.jpg","","70","main_expt"
"315","","bandit","149","544260","0.0-110.0-0.0","40637120","wem/bandit_either","A1T2162PMSEH0P","either","4","","","","","","","0","0","1","0.3445325487","","0.4","0.2","0.8","0.6","","","","","0.3445325487","0.1356707761","0.1451664327","0.3772643828","","","","","","","72","H","0","img/none_selected.jpg","","71","main_expt"
"68","","bandit","150","545840","0.0-111.0-0.0","40637120","wem/bandit_either","A1T2162PMSEH0P","either","4","","","","","","","0","0","1","0.4074174212","","0.4","0.2","0.8","0.6","","","","","0.364612409","0.1045412551","0.1091447996","0.4074174212","","","","","","","76","L","3","","","72","main_expt"
"232","","bandit","151","547585","0.0-112.0-0.0","40637120","wem/bandit_either","A1T2162PMSEH0P","either","4","","","","","","","1","0","0","0.4454774056","","0.4","0.2","0.8","0.6","","","","","0.4454774056","0.0867882282","0.1248737042","0.3736299767","","","","","","","72","H","0","img/none_selected.jpg","","73","main_expt"
"459","","bandit","152","549555","0.0-113.0-0.0","40637120","wem/bandit_either","A1T2162PMSEH0P","either","4","","","","","","","0","0","1","0.4492830973","","0.4","0.2","0.8","0.6","","","","","0.4492830973","0.1018359722","0.1073746888","0.383211712","","","","","","","72","H","0","img/none_selected.jpg","","74","main_expt"
"1155","","bandit","153","552223","0.0-114.0-0.0","40637120","wem/bandit_either","A1T2162PMSEH0P","either","4","","","","","","","0","0","1","","0.449321966","0.4","0.2","0.8","0.6","0.449321966","0.09443707336","0.1051395745","0.3681962321","","","","","","","","","","","72","H","0","img/none_selected.jpg","","75","main_expt"
"336","","bandit","154","554070","0.0-115.0-0.0","40637120","wem/bandit_either","A1T2162PMSEH0P","either","4","","","","","","","0","0","1","0.3574328021","","0.4","0.2","0.8","0.6","","","","","0.4299726132","0.08768691443","0.09171451076","0.3574328021","","","","","","","76","L","3","","","76","main_expt"
"960","","bandit","155","556544","0.0-116.0-0.0","40637120","wem/bandit_either","A1T2162PMSEH0P","either","4","","","","","","","1","0","0","0.4041720962","","0.4","0.2","0.8","0.6","","","","","0.4349340462","0.07744448812","0.1256070833","0.4041720962","","","","","","","76","L","3","","","77","main_expt"
"629","","bandit","156","558684","0.0-117.0-0.0","40637120","wem/bandit_either","A1T2162PMSEH0P","either","4","","","","","","","1","0","0","0.4000946746","","0.4","0.2","0.8","0.6","","","","","0.4112950215","0.05712631425","0.1398604905","0.4000946746","","","","","","","76","L","3","","","78","main_expt"
"389","","bandit","157","560586","0.0-118.0-0.0","40637120","wem/bandit_either","A1T2162PMSEH0P","either","4","","","","","","","0","0","1","0.425248604","","0.4","0.2","0.8","0.6","","","","","0.4123046053","0.03981704588","0.1303191282","0.425248604","","","","","","","76","L","3","","","79","main_expt"
"2901","","bandit","158","564998","0.0-119.0-0.0","40637120","wem/bandit_either","A1T2162PMSEH0P","either","4","","","","","","","0","0","1","0.4263383456","","0.4","0.2","0.8","0.6","","","","","0.4345430878","0.02961196177","0.1491340647","0.4263383456","","","","","","","76","L","3","","","80","main_expt"
"640","","bandit","159","567152","0.0-120.0-0.0","40637120","wem/bandit_either","A1T2162PMSEH0P","either","4","","","","","","","1","0","0","0.4377411966","","0.4","0.2","0.8","0.6","","","","","0.4255274095","0.0408206899","0.1484119081","0.4377411966","","","","","","","76","L","3","","","81","main_expt"
"1099","","bandit","160","569764","0.0-121.0-0.0","40637120","wem/bandit_either","A1T2162PMSEH0P","either","4","","","","","","","0","1","0","","0.4263216968","0.4","0.2","0.8","0.6","0.4266934287","0.03491361241","0.135460029","0.4263216968","","","","","","","","","","","76","L","3","","","82","main_expt"
"348","","bandit","161","571630","0.0-122.0-0.0","40637120","wem/bandit_either","A1T2162PMSEH0P","either","4","","","","","","","0","0","1","","0.4536492548","0.4","0.2","0.8","0.6","0.4321646522","0.01881925386","0.09497461961","0.4536492548","","","","","","","","","","","76","L","3","","","83","main_expt"
"466","","bandit","162","573609","0.0-123.0-0.0","40637120","wem/bandit_either","A1T2162PMSEH0P","either","4","","","","","","","0","0","1","0.4344769981","","0.4","0.2","0.8","0.6","","","","","0.43129245","0.03441768066","0.0956585677","0.4344769981","","","","","","","76","L","3","","","84","main_expt"
"284","","bandit","163","575407","0.0-124.0-0.0","40637120","wem/bandit_either","A1T2162PMSEH0P","either","4","","","","","","","0","1","0","","0.4167097255","0.4","0.2","0.8","0.6","0.4307495417","0.04015732792","0.08427930603","0.4167097255","","","","","","","","","","","76","L","3","","","85","main_expt"
"292","","bandit","164","577210","0.0-125.0-0.0","40637120","wem/bandit_either","A1T2162PMSEH0P","either","4","","","","","","","0","0","1","","0.4215971904","0.4","0.2","0.8","0.6","0.4327415212","0.0462821445","0.09540141202","0.4215971904","","","","","","","","","","","76","L","3","","","86","main_expt"
"244","","bandit","165","578966","0.0-126.0-0.0","40637120","wem/bandit_either","A1T2162PMSEH0P","either","4","","","","","","","1","0","0","0.3962725568","","0.4","0.2","0.8","0.6","","","","","0.4507305815","0.07236867375","0.06504543429","0.3962725568","","","","","","","76","L","3","","","87","main_expt"
"1728","","bandit","166","582208","0.0-127.0-0.0","40637120","wem/bandit_either","A1T2162PMSEH0P","either","4","","","","","","","0","0","1","0.4038430626","","0.4","0.2","0.8","0.6","","","","","0.4571393315","0.1132918069","0.05894337134","0.4038430626","","","","","","","76","L","3","","","88","main_expt"
"855","","bandit","167","584581","0.0-128.0-0.0","40637120","wem/bandit_either","A1T2162PMSEH0P","either","4","","","","","","","1","0","0","0.4247877058","","0.4","0.2","0.8","0.6","","","","","0.4639779763","0.1466354559","0.06803635399","0.4247877058","","","","","","","76","L","3","","","89","main_expt"
"1940","","bandit","168","588033","0.0-129.0-0.0","40637120","wem/bandit_either","A1T2162PMSEH0P","either","4","","","","","","","0","1","0","","0.4196700557","0.4","0.2","0.8","0.6","0.4620017245","0.1746819083","0.09657856289","0.4196700557","","","","","","","","","","","76","L","3","","","90","main_expt"
"2250","","bandit","169","591796","0.0-130.0-0.0","40637120","wem/bandit_either","A1T2162PMSEH0P","either","4","","","","","","","0","0","1","0.401758082","","0.4","0.2","0.8","0.6","","","","","0.4492963398","0.1864657318","0.08522031428","0.401758082","","","","","","","76","L","3","","","91","main_expt"
"646","","bandit","170","593951","0.0-131.0-0.0","40637120","wem/bandit_either","A1T2162PMSEH0P","either","4","","","","","","","1","0","0","0.3422099147","","0.4","0.2","0.8","0.6","","","","","0.462009279","0.2124622091","0.07078380504","0.3422099147","","","","","","","76","L","3","","","92","main_expt"
"462","","bandit","171","595925","0.0-132.0-0.0","40637120","wem/bandit_either","A1T2162PMSEH0P","either","4","","","","","","","0","0","1","","0.3279059742","0.4","0.2","0.8","0.6","0.4363090379","0.245786276","0.0564278809","0.3279059742","","","","","","","","","","","76","L","3","","","93","main_expt"
"724","","bandit","172","598157","0.0-133.0-0.0","40637120","wem/bandit_either","A1T2162PMSEH0P","either","4","","","","","","","0","0","1","0.3155724737","","0.4","0.2","0.8","0.6","","","","","0.4457519602","0.2316759231","0.06067733924","0.3155724737","","","","","","","76","L","3","","","94","main_expt"
"621","","bandit","173","600286","0.0-134.0-0.0","40637120","wem/bandit_either","A1T2162PMSEH0P","either","4","","","","","","","0","0","1","0.3519625041","","0.4","0.2","0.8","0.6","","","","","0.4231248902","0.2231756969","0.08632751489","0.3519625041","","","","","","","76","L","3","","","95","main_expt"
"314","","bandit","174","602117","0.0-135.0-0.0","40637120","wem/bandit_either","A1T2162PMSEH0P","either","4","","","","","","","0","0","1","0.4210676831","","0.4","0.2","0.8","0.6","","","","","0.4210676831","0.1957128212","0.08481729553","0.3661455107","","","","","","","72","H","0","img/none_selected.jpg","","96","main_expt"
"1057","","bandit","175","604687","0.0-136.0-0.0","40637120","wem/bandit_either","A1T2162PMSEH0P","either","4","","","","","","","0","1","0","","0.1638116915","0.4","0.2","0.8","0.6","0.4022895305","0.1638116915","0.08386440452","0.3558031673","","","","","","","","","","","74","J","1","","","97","main_expt"
"433","","bandit","176","606633","0.0-137.0-0.0","40637120","wem/bandit_either","A1T2162PMSEH0P","either","4","","","","","","","0","0","1","","0.1405816365","0.4","0.2","0.8","0.6","0.4187351015","0.1405816365","0.0940701929","0.3558230887","","","","","","","","","","","74","J","1","","","98","main_expt"
"472","","bandit","177","608619","0.0-138.0-0.0","40637120","wem/bandit_either","A1T2162PMSEH0P","either","4","","","","","","","0","0","1","","0.1435678602","0.4","0.2","0.8","0.6","0.3981340028","0.1435678602","0.1285058524","0.3064708089","","","","","","","","","","","74","J","1","","","99","main_expt"
"360","","bandit","178","610492","0.0-139.0-0.0","40637120","wem/bandit_either","A1T2162PMSEH0P","either","4","","","","","","","0","0","1","","0.1478754355","0.4","0.2","0.8","0.6","0.3520446815","0.1478754355","0.065882019","0.352498313","","","","","","","","","","","74","J","1","","","100","main_expt"
"324","","bandit","179","612329","0.0-140.0-0.0","40637120","wem/bandit_either","A1T2162PMSEH0P","either","4","","","","","","","0","0","1","","0.05692140794","0.4","0.2","0.8","0.6","0.3715523215","0.1532559328","0.05692140794","0.3511810171","","","","","","","","","","","75","K","2","","","101","main_expt"
"409","","bandit","180","614248","0.0-141.0-0.0","40637120","wem/bandit_either","A1T2162PMSEH0P","either","4","","","","","","","0","0","1","0.04322280369","","0.4","0.2","0.8","0.6","","","","","0.3966955113","0.15857411","0.04322280369","0.3246867477","","","","","","","75","K","2","","","102","main_expt"
"394","","bandit","181","616156","0.0-142.0-0.0","40637120","wem/bandit_either","A1T2162PMSEH0P","either","4","","","","","","","0","0","1","","0.2827689756","0.4","0.2","0.8","0.6","0.3865714765","0.1552377357","0.05121437093","0.2827689756","","","","","","","","","","","76","L","3","","","103","main_expt"
"327","","bandit","182","617996","0.0-143.0-0.0","40637120","wem/bandit_either","A1T2162PMSEH0P","either","4","","","","","","","0","1","0","","0.3307995119","0.4","0.2","0.8","0.6","0.3440646931","0.1584193753","0.06548077564","0.3307995119","","","","","","","","","","","76","L","3","","","104","main_expt"
"417","","bandit","183","619926","0.0-144.0-0.0","40637120","wem/bandit_either","A1T2162PMSEH0P","either","4","","","","","","","1","0","0","0.3078297571","","0.4","0.2","0.8","0.6","","","","","0.330981063","0.192058402","0.07577357845","0.3078297571","","","","","","","76","L","3","","","105","main_expt"
"725","","bandit","184","622164","0.0-145.0-0.0","40637120","wem/bandit_either","A1T2162PMSEH0P","either","4","","","","","","","0","0","1","","0.3202685942","0.4","0.2","0.8","0.6","0.3317280627","0.1562344916","0.09041352565","0.3202685942","","","","","","","","","","","76","L","3","","","106","main_expt"
"322","","bandit","185","623999","0.0-146.0-0.0","40637120","wem/bandit_either","A1T2162PMSEH0P","either","4","","","","","","","0","1","0","","0.3163418234","0.4","0.2","0.8","0.6","0.2760665195","0.1493116313","0.1184921167","0.3163418234","","","","","","","","","","","76","L","3","","","107","main_expt"
"369","","bandit","186","625882","0.0-147.0-0.0","40637120","wem/bandit_either","A1T2162PMSEH0P","either","4","","","","","","","0","0","1","0.3425943818","","0.4","0.2","0.8","0.6","","","","","0.2826301941","0.1357435498","0.1057615429","0.3425943818","","","","","","","76","L","3","","","108","main_expt"
"416","","bandit","187","627813","0.0-148.0-0.0","40637120","wem/bandit_either","A1T2162PMSEH0P","either","4","","","","","","","1","0","0","0.2852030557","","0.4","0.2","0.8","0.6","","","","","0.318117281","0.1164074326","0.1464484126","0.2852030557","","","","","","","76","L","3","","","109","main_expt"
"364","","bandit","188","629690","0.0-149.0-0.0","40637120","wem/bandit_either","A1T2162PMSEH0P","either","4","","","","","","","0","1","0","","0.3392406975","0.4","0.2","0.8","0.6","0.3358587519","0.1444451916","0.1641354829","0.3392406975","","","","","","","","","","","76","L","3","","","110","main_expt"
"316","","bandit","189","631516","0.0-150.0-0.0","40637120","wem/bandit_either","A1T2162PMSEH0P","either","4","","","","","","","0","0","1","0.3023411017","","0.4","0.2","0.8","0.6","","","","","0.3031660534","0.09905323685","0.1386891192","0.3023411017","","","","","","","76","L","3","","","111","main_expt"
"495","","bandit","190","633526","0.0-151.0-0.0","40637120","wem/bandit_either","A1T2162PMSEH0P","either","4","","","","","","","0","1","0","","0.296849772","0.4","0.2","0.8","0.6","0.2773548355","0.09652445584","0.1847512065","0.296849772","","","","","","","","","","","76","L","3","","","112","main_expt"
"620","","bandit","191","635659","0.0-152.0-0.0","40637120","wem/bandit_either","A1T2162PMSEH0P","either","4","","","","","","","0","0","1","","0.2673419259","0.4","0.2","0.8","0.6","0.2370758425","0.09961189632","0.1304555333","0.2673419259","","","","","","","","","","","76","L","3","","","113","main_expt"
"331","","bandit","192","637506","0.0-153.0-0.0","40637120","wem/bandit_either","A1T2162PMSEH0P","either","4","","","","","","","0","0","1","0.2670531803","","0.4","0.2","0.8","0.6","","","","","0.1821928837","0.1036139638","0.1770102637","0.2670531803","","","","","","","76","L","3","","","114","main_expt"
"292","","bandit","193","639312","0.0-154.0-0.0","40637120","wem/bandit_either","A1T2162PMSEH0P","either","4","","","","","","","0","0","1","0.2825009356","","0.4","0.2","0.8","0.6","","","","","0.1315453283","0.0968506792","0.1564651975","0.2825009356","","","","","","","76","L","3","","","115","main_expt"
"107","","bandit","194","640932","0.0-155.0-0.0","40637120","wem/bandit_either","A1T2162PMSEH0P","either","4","","","","","","","0","0","1","","0.1102777544","0.4","0.2","0.8","0.6","0.1102777544","0.08782875681","0.1665702367","0.3237719372","","","","","","","","","","","72","H","0","img/none_selected.jpg","","116","main_expt"
"317","","bandit","195","642762","0.0-156.0-0.0","40637120","wem/bandit_either","A1T2162PMSEH0P","either","4","","","","","","","0","1","0","","0.1101610351","0.4","0.2","0.8","0.6","0.1101610351","0.06031800864","0.1530687496","0.3154846423","","","","","","","","","","","72","H","0","img/none_selected.jpg","","117","main_expt"
"314","","bandit","196","644591","0.0-157.0-0.0","40637120","wem/bandit_either","A1T2162PMSEH0P","either","4","","","","","","","0","0","1","","0.122460482","0.4","0.2","0.8","0.6","0.122460482","0.05633053331","0.1674206906","0.2584508078","","","","","","","","","","","72","H","0","img/none_selected.jpg","","118","main_expt"
"292","","bandit","197","646397","0.0-158.0-0.0","40637120","wem/bandit_either","A1T2162PMSEH0P","either","4","","","","","","","1","0","0","0.1451868924","","0.4","0.2","0.8","0.6","","","","","0.1451868924","0.07530514027","0.1990215448","0.2141905193","","","","","","","72","H","0","img/none_selected.jpg","","119","main_expt"
"381","","bandit","198","648294","0.0-159.0-0.0","40637120","wem/bandit_either","A1T2162PMSEH0P","either","4","","","","","","","0","0","1","0.09092593383","","0.4","0.2","0.8","0.6","","","","","0.09092593383","0.09639595661","0.2208640619","0.2341954374","","","","","","","72","H","0","img/none_selected.jpg","","120","main_expt"
"368","","bandit","199","650178","0.0-160.0-0.0","40637120","wem/bandit_either","A1T2162PMSEH0P","either","4","","","","","","","0","0","1","0.1080456108","","0.4","0.2","0.8","0.6","","","","","0.1080456108","0.1421799471","0.2602917539","0.1886372651","","","","","","","72","H","0","img/none_selected.jpg","","121","main_expt"
"328","","bandit","200","652021","0.0-161.0-0.0","40637120","wem/bandit_either","A1T2162PMSEH0P","either","4","","","","","","","0","0","1","0.1169053248","","0.4","0.2","0.8","0.6","","","","","0.1169053248","0.1624760489","0.2512498235","0.1597592322","","","","","","","72","H","0","img/none_selected.jpg","","122","main_expt"
"285","","bandit","201","653818","0.0-162.0-0.0","40637120","wem/bandit_either","A1T2162PMSEH0P","either","4","","","","","","","0","0","1","","0.1640214383","0.4","0.2","0.8","0.6","0.1571594809","0.1640214383","0.2266242761","0.1895266442","","","","","","","","","","","74","J","1","","","123","main_expt"
"296","","bandit","202","655624","0.0-163.0-0.0","40637120","wem/bandit_either","A1T2162PMSEH0P","either","4","","","","","","","0","0","1","","0.2014340991","0.4","0.2","0.8","0.6","0.2231804049","0.2014340991","0.2373824638","0.2042850732","","","","","","","","","","","74","J","1","","","124","main_expt"
"403","","bandit","203","657541","0.0-164.0-0.0","40637120","wem/bandit_either","A1T2162PMSEH0P","either","4","","","","","","","0","0","1","","0.2538727107","0.4","0.2","0.8","0.6","0.2232794356","0.2229229076","0.2538727107","0.1812515389","","","","","","","","","","","75","K","2","","","125","main_expt"
"289","","bandit","204","659343","0.0-165.0-0.0","40637120","wem/bandit_either","A1T2162PMSEH0P","either","4","","","","","","","1","0","0","0.290219491","","0.4","0.2","0.8","0.6","","","","","0.2316903634","0.2324712723","0.290219491","0.1694736183","","","","","","","75","K","2","","","126","main_expt"
"1024","","bandit","205","661881","0.0-166.0-0.0","40637120","wem/bandit_either","A1T2162PMSEH0P","either","4","","","","","","","0","1","0","","0.2542505169","0.4","0.2","0.8","0.6","0.2337524142","0.2628391623","0.2542505169","0.1624528765","","","","","","","","","","","75","K","2","","","127","main_expt"
"355","","bandit","206","663751","0.0-167.0-0.0","40637120","wem/bandit_either","A1T2162PMSEH0P","either","4","","","","","","","1","0","0","0.2582316027","","0.4","0.2","0.8","0.6","","","","","0.2198210178","0.2654356302","0.2582316027","0.1632982916","","","","","","","75","K","2","","","128","main_expt"
"583","","bandit","207","665847","0.0-168.0-0.0","40637120","wem/bandit_either","A1T2162PMSEH0P","either","4","","","","","","","0","0","1","0.3267566011","","0.4","0.2","0.8","0.6","","","","","0.2280168395","0.2070569149","0.3267566011","0.2264598068","","","","","","","75","K","2","","","129","main_expt"
"344","","bandit","208","667706","0.0-169.0-0.0","40637120","wem/bandit_either","A1T2162PMSEH0P","either","4","","","","","","","1","0","0","0.3323271388","","0.4","0.2","0.8","0.6","","","","","0.243895296","0.2579182239","0.3323271388","0.202760285","","","","","","","75","K","2","","","130","main_expt"
"343","","bandit","209","669563","0.0-170.0-0.0","40637120","wem/bandit_either","A1T2162PMSEH0P","either","4","","","","","","","0","0","1","0.2666668646","","0.4","0.2","0.8","0.6","","","","","0.2164454501","0.2329110821","0.2666668646","0.1585094705","","","","","","","75","K","2","","","131","main_expt"
"542","","bandit","210","671618","0.0-171.0-0.0","40637120","wem/bandit_either","A1T2162PMSEH0P","either","4","","","","","","","0","0","1","0.2359119393","","0.4","0.2","0.8","0.6","","","","","0.200468731","0.2400232435","0.2359119393","0.1304261544","","","","","","","75","K","2","","","132","main_expt"
"573","","bandit","211","673706","0.0-172.0-0.0","40637120","wem/bandit_either","A1T2162PMSEH0P","either","4","","","","","","","0","0","1","0.2540740643","","0.4","0.2","0.8","0.6","","","","","0.2038597077","0.2084798617","0.2540740643","0.09339990826","","","","","","","75","K","2","","","133","main_expt"
"414","","bandit","212","675633","0.0-173.0-0.0","40637120","wem/bandit_either","A1T2162PMSEH0P","either","4","","","","","","","1","0","0","0.2414927735","","0.4","0.2","0.8","0.6","","","","","0.2263269307","0.2034544","0.2414927735","0.08524612959","","","","","","","75","K","2","","","134","main_expt"
"339","","bandit","213","677486","0.0-174.0-0.0","40637120","wem/bandit_either","A1T2162PMSEH0P","either","4","","","","","","","0","0","1","0.2632369982","","0.4","0.2","0.8","0.6","","","","","0.2686469146","0.2088958693","0.2632369982","0.0622033461","","","","","","","75","K","2","","","135","main_expt"
"323","","bandit","214","679323","0.0-175.0-0.0","40637120","wem/bandit_either","A1T2162PMSEH0P","either","4","","","","","","","0","0","1","0.3032623762","","0.4","0.2","0.8","0.6","","","","","0.3170393738","0.2573758916","0.3032623762","0.05632890875","","","","","","","75","K","2","","","136","main_expt"
"328","","bandit","215","681166","0.0-176.0-0.0","40637120","wem/bandit_either","A1T2162PMSEH0P","either","4","","","","","","","1","0","0","0.2984046037","","0.4","0.2","0.8","0.6","","","","","0.338962466","0.2467438462","0.2984046037","0.06052980877","","","","","","","75","K","2","","","137","main_expt"
"403","","bandit","216","683082","0.0-177.0-0.0","40637120","wem/bandit_either","A1T2162PMSEH0P","either","4","","","","","","","0","0","1","0.3110629865","","0.4","0.2","0.8","0.6","","","","","0.3586643031","0.2221944767","0.3110629865","0.1038497792","","","","","","","75","K","2","","","138","main_expt"
"356","","bandit","217","684953","0.0-178.0-0.0","40637120","wem/bandit_either","A1T2162PMSEH0P","either","4","","","","","","","0","0","1","0.3048373826","","0.4","0.2","0.8","0.6","","","","","0.3430902759","0.2750517365","0.3048373826","0.08561062373","","","","","","","75","K","2","","","139","main_expt"
"219","","bandit","218","686689","0.0-179.0-0.0","40637120","wem/bandit_either","A1T2162PMSEH0P","either","4","","","","","","","0","0","1","0.3163642845","","0.4","0.2","0.8","0.6","","","","","0.3777112835","0.277474309","0.3163642845","0.08025295029","","","","","","","75","K","2","","","140","main_expt"
"253","","bandit","219","688457","0.0-180.0-0.0","40637120","wem/bandit_either","A1T2162PMSEH0P","either","4","","","","","","","0","0","1","0.09309891757","","0.4","0.2","0.8","0.6","","","","","0.4276051364","0.2932007391","0.2213861514","0.09309891757","","","","","","","76","L","3","","","141","main_expt"
"466","","bandit","220","690436","0.0-181.0-0.0","40637120","wem/bandit_either","A1T2162PMSEH0P","either","4","","","","","","","0","0","1","0.1107976638","","0.4","0.2","0.8","0.6","","","","","0.4312347149","0.3001807938","0.2492613222","0.1107976638","","","","","","","76","L","3","","","142","main_expt"
"280","","bandit","221","692230","0.0-182.0-0.0","40637120","wem/bandit_either","A1T2162PMSEH0P","either","4","","","","","","","0","1","0","","0.386657586","0.4","0.2","0.8","0.6","0.386657586","0.3640878437","0.2645663874","0.09575525052","","","","","","","","","","","72","H","0","img/none_selected.jpg","","143","main_expt"
"630","","bandit","222","694376","0.0-183.0-0.0","40637120","wem/bandit_either","A1T2162PMSEH0P","either","4","","","","","","","0","0","1","","0.3409851627","0.4","0.2","0.8","0.6","0.3409851627","0.2706796495","0.2928215939","0.07222794989","","","","","","","","","","","72","H","0","img/none_selected.jpg","","144","main_expt"
"371","","bandit","223","696261","0.0-184.0-0.0","40637120","wem/bandit_either","A1T2162PMSEH0P","either","4","","","","","","","1","0","0","0.3538709708","","0.4","0.2","0.8","0.6","","","","","0.3538709708","0.2359726437","0.3178979655","0.03203798906","","","","","","","72","H","0","img/none_selected.jpg","","145","main_expt"
"335","","bandit","224","698109","0.0-185.0-0.0","40637120","wem/bandit_either","A1T2162PMSEH0P","either","4","","","","","","","0","0","1","0.2745956728","","0.4","0.2","0.8","0.6","","","","","0.2745956728","0.2200332621","0.2850957273","0.03073079809","","","","","","","72","H","0","img/none_selected.jpg","","146","main_expt"
"364","","bandit","225","699988","0.0-186.0-0.0","40637120","wem/bandit_either","A1T2162PMSEH0P","either","4","","","","","","","0","0","1","","0.2375793476","0.4","0.2","0.8","0.6","0.2375793476","0.1957794229","0.2483519338","0.05105424151","","","","","","","","","","","72","H","0","img/none_selected.jpg","","147","main_expt"
"327","","bandit","226","701829","0.0-187.0-0.0","40637120","wem/bandit_either","A1T2162PMSEH0P","either","4","","","","","","","0","0","1","","0.2954602587","0.4","0.2","0.8","0.6","0.2954602587","0.1790722045","0.2309770791","0.04045355104","","","","","","","","","","","72","H","0","img/none_selected.jpg","","148","main_expt"
"302","","bandit","227","703645","0.0-188.0-0.0","40637120","wem/bandit_either","A1T2162PMSEH0P","either","4","","","","","","","0","1","0","","0.2189150546","0.4","0.2","0.8","0.6","0.3435099865","0.2189150546","0.1759049641","0.06416506337","","","","","","","","","","","74","J","1","","","149","main_expt"
"334","","bandit","228","705495","0.0-189.0-0.0","40637120","wem/bandit_either","A1T2162PMSEH0P","either","4","","","","","","","0","1","0","","0.2119229637","0.4","0.2","0.8","0.6","0.268900415","0.2119229637","0.1910702346","0.07819388902","","","","","","","","","","","74","J","1","","","150","main_expt"
"375","","bandit","229","707384","0.0-190.0-0.0","40637120","wem/bandit_either","A1T2162PMSEH0P","either","4","","","","","","","0","0","1","","0.2472398003","0.4","0.2","0.8","0.6","0.2326488896","0.2472398003","0.1799178466","0.1186979887","","","","","","","","","","","74","J","1","","","151","main_expt"
"485","","bandit","230","709384","0.0-191.0-0.0","40637120","wem/bandit_either","A1T2162PMSEH0P","either","4","","","","","","","0","0","1","","0.2148428051","0.4","0.2","0.8","0.6","0.2768057641","0.2148428051","0.1826140084","0.1084773402","","","","","","","","","","","74","J","1","","","152","main_expt"
"422","","bandit","231","711320","0.0-192.0-0.0","40637120","wem/bandit_either","A1T2162PMSEH0P","either","4","","","","","","","0","0","1","","0.1598057249","0.4","0.2","0.8","0.6","0.2997660112","0.1598057249","0.147924298","0.1314289417","","","","","","","","","","","74","J","1","","","153","main_expt"
"308","","bandit","232","713142","0.0-193.0-0.0","40637120","wem/bandit_either","A1T2162PMSEH0P","either","4","","","","","","","1","0","0","0.1388357139","","0.4","0.2","0.8","0.6","","","","","0.3196464983","0.1489099923","0.1388357139","0.1354051011","","","","","","","75","K","2","","","154","main_expt"
"366","","bandit","233","715023","0.0-194.0-0.0","40637120","wem/bandit_either","A1T2162PMSEH0P","either","4","","","","","","","0","0","1","0.1658398244","","0.4","0.2","0.8","0.6","","","","","0.3141654429","0.1502541116","0.1658398244","0.1085215933","","","","","","","75","K","2","","","155","main_expt"
"443","","bandit","234","716980","0.0-195.0-0.0","40637120","wem/bandit_either","A1T2162PMSEH0P","either","4","","","","","","","0","0","1","0.1104921729","","0.4","0.2","0.8","0.6","","","","","0.2667217688","0.1605084188","0.1104921729","0.1383379057","","","","","","","75","K","2","","","156","main_expt"
"307","","bandit","235","718802","0.0-196.0-0.0","40637120","wem/bandit_either","A1T2162PMSEH0P","either","4","","","","","","","0","0","1","0.09530810267","","0.4","0.2","0.8","0.6","","","","","0.2867075714","0.1684101418","0.09530810267","0.1428990181","","","","","","","75","K","2","","","157","main_expt"
"311","","bandit","236","720630","0.0-197.0-0.0","40637120","wem/bandit_either","A1T2162PMSEH0P","either","4","","","","","","","0","0","1","0.07455979893","","0.4","0.2","0.8","0.6","","","","","0.2788639118","0.1807688322","0.1211627972","0.07455979893","","","","","","","76","L","3","","","158","main_expt"
"358","","bandit","237","722502","0.0-198.0-0.0","40637120","wem/bandit_either","A1T2162PMSEH0P","either","4","","","","","","","0","0","1","","0.1009372764","0.4","0.2","0.8","0.6","0.3020710819","0.1516426412","0.1012897464","0.1009372764","","","","","","","","","","","76","L","3","","","159","main_expt"
"405","","bandit","238","724424","0.0-199.0-0.0","40637120","wem/bandit_either","A1T2162PMSEH0P","either","4","","","","","","","0","1","0","","0.3404227007","0.4","0.2","0.8","0.6","0.3404227007","0.1638698877","0.1188035868","0.05118862797","","","","","","","","","","","72","H","0","img/none_selected.jpg","","160","main_expt"
"459","","bandit","239","726401","0.0-200.0-0.0","40637120","wem/bandit_either","A1T2162PMSEH0P","either","4","","","","","","","0","0","1","","0.2876249865","0.4","0.2","0.8","0.6","0.2876249865","0.1645359983","0.1606836622","0.05265847637","","","","","","","","","","","72","H","0","img/none_selected.jpg","","161","main_expt"
"406","","bandit","240","728323","0.0-201.0-0.0","40637120","wem/bandit_either","A1T2162PMSEH0P","either","4","","","","","","","0","0","1","0.2401308511","","0.4","0.2","0.8","0.6","","","","","0.2401308511","0.2509918509","0.1859884171","0.07938684611","","","","","","","72","H","0","img/none_selected.jpg","","162","main_expt"
"323","","bandit","241","730160","0.0-202.0-0.0","40637120","wem/bandit_either","A1T2162PMSEH0P","either","4","","","","","","","1","0","0","0.2486605046","","0.4","0.2","0.8","0.6","","","","","0.2486605046","0.1883685458","0.2528258464","0.0970900163","","","","","","","72","H","0","img/none_selected.jpg","","163","main_expt"
"424","","bandit","242","732102","0.0-203.0-0.0","40637120","wem/bandit_either","A1T2162PMSEH0P","either","4","","","","","","","0","0","1","","0.22675384","0.4","0.2","0.8","0.6","0.22675384","0.2179532334","0.2515292425","0.07401968201","","","","","","","","","","","72","H","0","img/none_selected.jpg","","164","main_expt"
"384","","bandit","243","734000","0.0-204.0-0.0","40637120","wem/bandit_either","A1T2162PMSEH0P","either","4","","","","","","","0","0","1","","0.2841151948","0.4","0.2","0.8","0.6","0.2841151948","0.2143704678","0.2068970429","0.06633104104","","","","","","","","","","","72","H","0","img/none_selected.jpg","","165","main_expt"
"344","","bandit","244","735858","0.0-205.0-0.0","40637120","wem/bandit_either","A1T2162PMSEH0P","either","4","","","","","","","0","1","0","","0.2842980464","0.4","0.2","0.8","0.6","0.2842980464","0.2175899085","0.1413778631","0.05309652092","","","","","","","","","","","72","H","0","img/none_selected.jpg","","166","main_expt"
"510","","bandit","245","737884","0.0-206.0-0.0","40637120","wem/bandit_either","A1T2162PMSEH0P","either","4","","","","","","","0","1","0","","0.3007590714","0.4","0.2","0.8","0.6","0.3007590714","0.2137120923","0.1999497975","0.07357446968","","","","","","","","","","","72","H","0","img/none_selected.jpg","","167","main_expt"
"398","","bandit","246","739798","0.0-207.0-0.0","40637120","wem/bandit_either","A1T2162PMSEH0P","either","4","","","","","","","0","0","1","","0.2884936601","0.4","0.2","0.8","0.6","0.2884936601","0.2331560811","0.1696145944","0.1054325378","","","","","","","","","","","72","H","0","img/none_selected.jpg","","168","main_expt"
"1125","","bandit","247","742441","0.0-208.0-0.0","40637120","wem/bandit_either","A1T2162PMSEH0P","either","4","","","","","","","0","0","1","0.2803439438","","0.4","0.2","0.8","0.6","","","","","0.2803439438","0.2367963754","0.1338518967","0.08536867429","","","","","","","72","H","0","img/none_selected.jpg","","169","main_expt"
"633","","bandit","248","744589","0.0-209.0-0.0","40637120","wem/bandit_either","A1T2162PMSEH0P","either","4","","","","","","","0","1","0","","0.3010437192","0.4","0.2","0.8","0.6","0.3010437192","0.2378050175","0.1307598277","0.1083432756","","","","","","","","","","","72","H","0","img/none_selected.jpg","","170","main_expt"
"852","","bandit","249","746955","0.0-210.0-0.0","40637120","wem/bandit_either","A1T2162PMSEH0P","either","4","","","","","","","0","0","1","0.3243802095","","0.4","0.2","0.8","0.6","","","","","0.3243802095","0.2253696972","0.1200375331","0.09185370626","","","","","","","72","H","0","img/none_selected.jpg","","171","main_expt"
"472","","bandit","250","748942","0.0-211.0-0.0","40637120","wem/bandit_either","A1T2162PMSEH0P","either","4","","","","","","","0","0","1","","0.3140094691","0.4","0.2","0.8","0.6","0.3140094691","0.2903394368","0.07514546963","0.09458096772","","","","","","","","","","","72","H","0","img/none_selected.jpg","","172","main_expt"
"386","","bandit","251","750845","0.0-212.0-0.0","40637120","wem/bandit_either","A1T2162PMSEH0P","either","4","","","","","","","0","0","1","0.2433770114","","0.4","0.2","0.8","0.6","","","","","0.2433770114","0.2384828248","0.07704486673","0.1016296913","","","","","","","72","H","0","img/none_selected.jpg","","173","main_expt"
"321","","bandit","252","752682","0.0-213.0-0.0","40637120","wem/bandit_either","A1T2162PMSEH0P","either","4","","","","","","","0","0","1","","0.2823111034","0.4","0.2","0.8","0.6","0.2080779891","0.2823111034","0.04061738922","0.117107939","","","","","","","","","","","74","J","1","","","174","main_expt"
"716","","bandit","253","754914","0.0-214.0-0.0","40637120","wem/bandit_either","A1T2162PMSEH0P","either","4","","","","","","","0","0","1","","0.292147578","0.4","0.2","0.8","0.6","0.2211365803","0.292147578","0.02968316822","0.1254773658","","","","","","","","","","","74","J","1","","","175","main_expt"
"193","","bandit","254","756623","0.0-215.0-0.0","40637120","wem/bandit_either","A1T2162PMSEH0P","either","4","","","","","","","0","0","1","","0.2928295457","0.4","0.2","0.8","0.6","0.231280906","0.2928295457","0.04419366322","0.1518856622","","","","","","","","","","","74","J","1","","","176","main_expt"
"325","","bandit","255","758463","0.0-216.0-0.0","40637120","wem/bandit_either","A1T2162PMSEH0P","either","4","","","","","","","0","0","1","0.04140429262","","0.4","0.2","0.8","0.6","","","","","0.1689881391","0.297241693","0.04140429262","0.1502483312","","","","","","","75","K","2","","","177","main_expt"
"345","","bandit","256","760326","0.0-217.0-0.0","40637120","wem/bandit_either","A1T2162PMSEH0P","either","4","","","","","","","1","0","0","0.06103489621","","0.4","0.2","0.8","0.6","","","","","0.1699404395","0.276241128","0.06103489621","0.2073149786","","","","","","","75","K","2","","","178","main_expt"
"336","","bandit","257","762177","0.0-218.0-0.0","40637120","wem/bandit_either","A1T2162PMSEH0P","either","4","","","","","","","0","0","1","0.053608248","","0.4","0.2","0.8","0.6","","","","","0.1571972967","0.2405339857","0.053608248","0.1928578162","","","","","","","75","K","2","","","179","main_expt"
"273","","bandit","258","763967","0.0-219.0-0.0","40637120","wem/bandit_either","A1T2162PMSEH0P","either","4","","","","","","","0","0","1","0.06289379635","","0.4","0.2","0.8","0.6","","","","","0.1567782565","0.233428307","0.06289379635","0.1412953234","","","","","","","75","K","2","","","180","main_expt"
"359","","bandit","259","765839","0.0-220.0-0.0","40637120","wem/bandit_either","A1T2162PMSEH0P","either","4","","","","","","","0","0","1","0.07748386732","","0.4","0.2","0.8","0.6","","","","","0.1492691696","0.1459310114","0.07748386732","0.1258774719","","","","","","","75","K","2","","","181","main_expt"
"351","","bandit","260","767702","0.0-221.0-0.0","40637120","wem/bandit_either","A1T2162PMSEH0P","either","4","","","","","","","0","0","1","0.096714051","","0.4","0.2","0.8","0.6","","","","","0.1609613705","0.1796360657","0.096714051","0.1121960069","","","","","","","75","K","2","","","182","main_expt"
"508","","bandit","261","769726","0.0-222.0-0.0","40637120","wem/bandit_either","A1T2162PMSEH0P","either","4","","","","","","","0","0","1","0.08335286121","","0.4","0.2","0.8","0.6","","","","","0.1982891881","0.1907874973","0.05351369794","0.08335286121","","","","","","","76","L","3","","","183","main_expt"
"372","","bandit","262","771614","0.0-223.0-0.0","40637120","wem/bandit_either","A1T2162PMSEH0P","either","4","","","","","","","0","0","1","0.1085923678","","0.4","0.2","0.8","0.6","","","","","0.1703318442","0.1451627339","0.08854511538","0.1085923678","","","","","","","76","L","3","","","184","main_expt"
"258","","bandit","263","773389","0.0-224.0-0.0","40637120","wem/bandit_either","A1T2162PMSEH0P","either","4","","","","","","","0","0","1","0.09566746086","","0.4","0.2","0.8","0.6","","","","","0.09566746086","0.1692531577","0.136385666","0.1113654269","","","","","","","72","H","0","img/none_selected.jpg","","185","main_expt"
"314","","bandit","264","775220","0.0-225.0-0.0","40637120","wem/bandit_either","A1T2162PMSEH0P","either","4","","","","","","","0","0","1","0.1254261761","","0.4","0.2","0.8","0.6","","","","","0.1254261761","0.1885113298","0.1848043888","0.1383531569","","","","","","","72","H","0","img/none_selected.jpg","","186","main_expt"
"311","","bandit","265","777047","0.0-226.0-0.0","40637120","wem/bandit_either","A1T2162PMSEH0P","either","4","","","","","","","0","0","1","","0.2088125345","0.4","0.2","0.8","0.6","0.1081798115","0.2088125345","0.1640989128","0.1739713275","","","","","","","","","","","74","J","1","","","187","main_expt"
"327","","bandit","266","778891","0.0-227.0-0.0","40637120","wem/bandit_either","A1T2162PMSEH0P","either","4","","","","","","","0","0","1","","0.2228369986","0.4","0.2","0.8","0.6","0.08529062399","0.2228369986","0.1301402021","0.1926366302","","","","","","","","","","","74","J","1","","","188","main_expt"
"345","","bandit","267","780752","0.0-228.0-0.0","40637120","wem/bandit_either","A1T2162PMSEH0P","either","4","","","","","","","0","0","1","0.1980942663","","0.4","0.2","0.8","0.6","","","","","0.07250281893","0.2567428292","0.1980942663","0.2499935398","","","","","","","75","K","2","","","189","main_expt"
"277","","bandit","268","782547","0.0-229.0-0.0","40637120","wem/bandit_either","A1T2162PMSEH0P","either","4","","","","","","","0","0","1","0.1842725295","","0.4","0.2","0.8","0.6","","","","","0.07895395147","0.3177850294","0.1842725295","0.2367317824","","","","","","","75","K","2","","","190","main_expt"
"313","","bandit","269","784375","0.0-230.0-0.0","40637120","wem/bandit_either","A1T2162PMSEH0P","either","4","","","","","","","0","0","1","0.2515026666","","0.4","0.2","0.8","0.6","","","","","0.06204701637","0.2876912335","0.2087081259","0.2515026666","","","","","","","76","L","3","","","191","main_expt"
"271","","bandit","270","786164","0.0-231.0-0.0","40637120","wem/bandit_either","A1T2162PMSEH0P","either","4","","","","","","","0","0","1","","0.2451916405","0.4","0.2","0.8","0.6","0.064067899","0.2383873749","0.1800110976","0.2451916405","","","","","","","","","","","76","L","3","","","192","main_expt"
"352","","bandit","271","788033","0.0-232.0-0.0","40637120","wem/bandit_either","A1T2162PMSEH0P","either","4","","","","","","","0","0","1","","0.1286650472","0.4","0.2","0.8","0.6","0.1286650472","0.24690957","0.1519186298","0.2353451433","","","","","","","","","","","72","H","0","img/none_selected.jpg","","193","main_expt"
"294","","bandit","272","789843","0.0-233.0-0.0","40637120","wem/bandit_either","A1T2162PMSEH0P","either","4","","","","","","","0","0","1","","0.1746490116","0.4","0.2","0.8","0.6","0.1746490116","0.2728455101","0.1431656489","0.307075739","","","","","","","","","","","72","H","0","img/none_selected.jpg","","194","main_expt"
"332","","bandit","273","791688","0.0-234.0-0.0","40637120","wem/bandit_either","A1T2162PMSEH0P","either","4","","","","","","","1","0","0","0.2421292151","","0.4","0.2","0.8","0.6","","","","","0.129035247","0.2421292151","0.1868251083","0.3011001907","","","","","","","74","J","1","","","195","main_expt"
"351","","bandit","274","793555","0.0-235.0-0.0","40637120","wem/bandit_either","A1T2162PMSEH0P","either","4","","","","","","","0","0","1","","0.2598052724","0.4","0.2","0.8","0.6","0.09052040682","0.2598052724","0.176624335","0.2861216794","","","","","","","","","","","74","J","1","","","196","main_expt"
"503","","bandit","275","795574","0.0-236.0-0.0","40637120","wem/bandit_either","A1T2162PMSEH0P","either","4","","","","","","","0","0","1","","0.2540930088","0.4","0.2","0.8","0.6","0.08675464884","0.2540930088","0.2383323772","0.2121549007","","","","","","","","","","","74","J","1","","","197","main_expt"
"475","","bandit","276","797565","0.0-237.0-0.0","40637120","wem/bandit_either","A1T2162PMSEH0P","either","4","","","","","","","0","0","1","","0.2460150375","0.4","0.2","0.8","0.6","0.09429549835","0.2460150375","0.260618614","0.260340052","","","","","","","","","","","74","J","1","","","198","main_expt"
"369","","bandit","277","799450","0.0-238.0-0.0","40637120","wem/bandit_either","A1T2162PMSEH0P","either","4","","","","","","","0","0","1","","0.2217343644","0.4","0.2","0.8","0.6","0.09303778716","0.2217343644","0.2935067364","0.3009562829","","","","","","","","","","","74","J","1","","","199","main_expt"
"512","","bandit","278","801481","0.0-239.0-0.0","40637120","wem/bandit_either","A1T2162PMSEH0P","either","4","","","","","","","0","1","0","","0.362920627","0.4","0.2","0.8","0.6","0.07354084322","0.2830302048","0.362920627","0.3430896668","","","","","","","","","","","75","K","2","","","200","main_expt"
"340","","bandit","279","803338","0.0-240.0-0.0","40637120","wem/bandit_either","A1T2162PMSEH0P","either","4","","","","","","","1","0","0","0.3119044903","","0.4","0.2","0.8","0.6","","","","","0.08115367452","0.3175621279","0.3119044903","0.2973668079","","","","","","","75","K","2","","","201","main_expt"
"373","","bandit","280","805230","0.0-241.0-0.0","40637120","wem/bandit_either","A1T2162PMSEH0P","either","4","","","","","","","0","0","1","0.3095695708","","0.4","0.2","0.8","0.6","","","","","0.0774842685","0.3049471546","0.3095695708","0.3219337599","","","","","","","75","K","2","","","202","main_expt"
"304","","bandit","281","807050","0.0-242.0-0.0","40637120","wem/bandit_either","A1T2162PMSEH0P","either","4","","","","","","","0","0","1","","0.3005459379","0.4","0.2","0.8","0.6","0.09704724367","0.2975042969","0.3005459379","0.3229991028","","","","","","","","","","","75","K","2","","","203","main_expt"
"337","","bandit","282","808905","0.0-243.0-0.0","40637120","wem/bandit_either","A1T2162PMSEH0P","either","4","","","","","","","0","0","1","0.3116824409","","0.4","0.2","0.8","0.6","","","","","0.1224111047","0.2268457719","0.3116824409","0.3077995671","","","","","","","75","K","2","","","204","main_expt"
"324","","bandit","283","810744","0.0-244.0-0.0","40637120","wem/bandit_either","A1T2162PMSEH0P","either","4","","","","","","","0","0","1","0.3291635812","","0.4","0.2","0.8","0.6","","","","","0.1627664319","0.2582085449","0.3291635812","0.3070199156","","","","","","","75","K","2","","","205","main_expt"
"279","","bandit","284","812540","0.0-245.0-0.0","40637120","wem/bandit_either","A1T2162PMSEH0P","either","4","","","","","","","0","0","1","0.3109683939","","0.4","0.2","0.8","0.6","","","","","0.1604236747","0.2841247045","0.4008790519","0.3109683939","","","","","","","76","L","3","","","206","main_expt"
"375","","bandit","285","814432","0.0-246.0-0.0","40637120","wem/bandit_either","A1T2162PMSEH0P","either","4","","","","","","","0","0","1","0.2845075958","","0.4","0.2","0.8","0.6","","","","","0.126388554","0.3333225396","0.4202180382","0.2845075958","","","","","","","76","L","3","","","207","main_expt"
"338","","bandit","286","816288","0.0-247.0-0.0","40637120","wem/bandit_either","A1T2162PMSEH0P","either","4","","","","","","","0","0","1","","0.1602309633","0.4","0.2","0.8","0.6","0.1602309633","0.290219871","0.4168586074","0.2419557814","","","","","","","","","","","72","H","0","img/none_selected.jpg","","208","main_expt"
"357","","bandit","287","818163","0.0-248.0-0.0","40637120","wem/bandit_either","A1T2162PMSEH0P","either","4","","","","","","","0","0","1","","0.2009997365","0.4","0.2","0.8","0.6","0.2009997365","0.3426384504","0.3949328033","0.2449545816","","","","","","","","","","","72","H","0","img/none_selected.jpg","","209","main_expt"
"404","","bandit","288","820085","0.0-249.0-0.0","40637120","wem/bandit_either","A1T2162PMSEH0P","either","4","","","","","","","0","0","1","","0.2932754766","0.4","0.2","0.8","0.6","0.1997114924","0.2932754766","0.41782505","0.2176860071","","","","","","","","","","","74","J","1","","","210","main_expt"
"352","","bandit","289","821952","0.0-250.0-0.0","40637120","wem/bandit_either","A1T2162PMSEH0P","either","4","","","","","","","0","0","1","","0.2522206247","0.4","0.2","0.8","0.6","0.2631807131","0.2522206247","0.4377941382","0.2460847292","","","","","","","","","","","74","J","1","","","211","main_expt"
"443","","bandit","290","823913","0.0-251.0-0.0","40637120","wem/bandit_either","A1T2162PMSEH0P","either","4","","","","","","","0","1","0","","0.4619006446","0.4","0.2","0.8","0.6","0.2008991105","0.2323705111","0.4619006446","0.2017704833","","","","","","","","","","","75","K","2","","","212","main_expt"
"294","","bandit","291","825724","0.0-252.0-0.0","40637120","wem/bandit_either","A1T2162PMSEH0P","either","4","","","","","","","1","0","0","0.4508737721","","0.4","0.2","0.8","0.6","","","","","0.1656487101","0.2815580385","0.4508737721","0.1891715169","","","","","","","75","K","2","","","213","main_expt"
"335","","bandit","292","827577","0.0-253.0-0.0","40637120","wem/bandit_either","A1T2162PMSEH0P","either","4","","","","","","","0","1","0","","0.4639731149","0.4","0.2","0.8","0.6","0.213788386","0.2955812139","0.4639731149","0.1819308411","","","","","","","","","","","75","K","2","","","214","main_expt"
"407","","bandit","293","829502","0.0-254.0-0.0","40637120","wem/bandit_either","A1T2162PMSEH0P","either","4","","","","","","","0","0","1","","0.4690757113","0.4","0.2","0.8","0.6","0.2206736926","0.2988647484","0.4690757113","0.1406935411","","","","","","","","","","","75","K","2","","","215","main_expt"
"1199","","bandit","294","832218","0.0-255.0-0.0","40637120","wem/bandit_either","A1T2162PMSEH0P","either","4","","","","","","","1","0","0","0.4685680314","","0.4","0.2","0.8","0.6","","","","","0.2270120675","0.3361974059","0.4685680314","0.206739756","","","","","","","75","K","2","","","216","main_expt"
"780","","bandit","295","834514","0.0-256.0-0.0","40637120","wem/bandit_either","A1T2162PMSEH0P","either","4","","","","","","","0","0","1","0.4873952874","","0.4","0.2","0.8","0.6","","","","","0.2561581829","0.2764506131","0.4873952874","0.178624692","","","","","","","75","K","2","","","217","main_expt"
"521","","bandit","296","836552","0.0-257.0-0.0","40637120","wem/bandit_either","A1T2162PMSEH0P","either","4","","","","","","","1","0","0","0.4790671899","","0.4","0.2","0.8","0.6","","","","","0.2785758431","0.299893698","0.4790671899","0.2021641755","","","","","","","75","K","2","","","218","main_expt"
"215","","bandit","297","838284","0.0-258.0-0.0","40637120","wem/bandit_either","A1T2162PMSEH0P","either","4","","","","","","","1","0","0","0.4769795117","","0.4","0.2","0.8","0.6","","","","","0.2707863597","0.3213687962","0.4769795117","0.2076996705","","","","","","","75","K","2","","","219","main_expt"
"694","","bandit","298","840496","0.0-259.0-0.0","40637120","wem/bandit_either","A1T2162PMSEH0P","either","4","","","","","","","0","0","1","0.4746148145","","0.4","0.2","0.8","0.6","","","","","0.2262269101","0.3782095139","0.4746148145","0.2479045362","","","","","","","75","K","2","","","220","main_expt"
"1896","","bandit","299","843908","0.0-260.0-0.0","40637120","wem/bandit_either","A1T2162PMSEH0P","either","4","","","","","","","1","0","0","0.4789253058","","0.4","0.2","0.8","0.6","","","","","0.2522421151","0.3572699546","0.4789253058","0.251163546","","","","","","","75","K","2","","","221","main_expt"
"899","","bandit","300","846327","0.0-261.0-0.0","40637120","wem/bandit_either","A1T2162PMSEH0P","either","4","","","","","","","1","0","0","0.4765400837","","0.4","0.2","0.8","0.6","","","","","0.2323100388","0.332217079","0.4765400837","0.2653622565","","","","","","","75","K","2","","","222","main_expt"
"3158","","bandit","301","851001","0.0-262.0-0.0","40637120","wem/bandit_either","A1T2162PMSEH0P","either","4","","","","","","","1","0","0","0.4872993944","","0.4","0.2","0.8","0.6","","","","","0.2013525365","0.3327789551","0.4872993944","0.2034578964","","","","","","","75","K","2","","","223","main_expt"
"451","","bandit","302","852971","0.0-263.0-0.0","40637120","wem/bandit_either","A1T2162PMSEH0P","either","4","","","","","","","0","0","1","","0.4864577786","0.4","0.2","0.8","0.6","0.2017363432","0.3720138676","0.4864577786","0.1176985371","","","","","","","","","","","75","K","2","","","224","main_expt"
"409","","bandit","303","854898","0.0-264.0-0.0","40637120","wem/bandit_either","A1T2162PMSEH0P","either","4","","","","","","","0","0","1","","0.4815865163","0.4","0.2","0.8","0.6","0.1608447522","0.4035982493","0.4815865163","0.08531446518","","","","","","","","","","","75","K","2","","","225","main_expt"
"366","","bandit","304","856782","0.0-265.0-0.0","40637120","wem/bandit_either","A1T2162PMSEH0P","either","4","","","","","","","0","0","1","0.4781941344","","0.4","0.2","0.8","0.6","","","","","0.2023183299","0.3538577565","0.4781941344","0.0901010045","","","","","","","75","K","2","","","226","main_expt"
"457","","bandit","305","858755","0.0-266.0-0.0","40637120","wem/bandit_either","A1T2162PMSEH0P","either","4","","","","","","","0","0","1","","0.4742279627","0.4","0.2","0.8","0.6","0.1555458008","0.4205879778","0.4742279627","0.06499555022","","","","","","","","","","","75","K","2","","","227","main_expt"
"1058","","bandit","306","861335","0.0-267.0-0.0","40637120","wem/bandit_either","A1T2162PMSEH0P","either","4","","","","","","","0","0","1","","0.06967502077","0.4","0.2","0.8","0.6","0.1210896773","0.4082381823","0.4597327255","0.06967502077","","","","","","","","","","","76","L","3","","","228","main_expt"
"149","","bandit","307","863002","0.0-268.0-0.0","40637120","wem/bandit_either","A1T2162PMSEH0P","either","4","","","","","","","0","1","0","","0.07642173418","0.4","0.2","0.8","0.6","0.1206830913","0.4274963613","0.4733003713","0.07642173418","","","","","","","","","","","76","L","3","","","229","main_expt"
"449","","bandit","308","864969","0.0-269.0-0.0","40637120","wem/bandit_either","A1T2162PMSEH0P","either","4","","","","","","","0","0","1","0.04973788902","","0.4","0.2","0.8","0.6","","","","","0.1334008039","0.4362488765","0.4832022084","0.04973788902","","","","","","","76","L","3","","","230","main_expt"
"230","","bandit","309","866716","0.0-270.0-0.0","40637120","wem/bandit_either","A1T2162PMSEH0P","either","4","","","","","","","0","0","1","","0.07419495466","0.4","0.2","0.8","0.6","0.1048467088","0.4420629534","0.4802630573","0.07419495466","","","","","","","","","","","76","L","3","","","231","main_expt"
"563","","bandit","310","868799","0.0-271.0-0.0","40637120","wem/bandit_either","A1T2162PMSEH0P","either","4","","","","","","","0","0","1","0.08125260149","","0.4","0.2","0.8","0.6","","","","","0.1184002818","0.4287414635","0.4739318499","0.08125260149","","","","","","","76","L","3","","","232","main_expt"
"441","","bandit","311","870765","0.0-272.0-0.0","40637120","wem/bandit_either","A1T2162PMSEH0P","either","4","","","","","","","0","0","1","0.06057073796","","0.4","0.2","0.8","0.6","","","","","0.08533064469","0.4395511981","0.4709765286","0.06057073796","","","","","","","76","L","3","","","233","main_expt"
"403","","bandit","312","872686","0.0-273.0-0.0","40637120","wem/bandit_either","A1T2162PMSEH0P","either","4","","","","","","","0","0","1","","0.1190123434","0.4","0.2","0.8","0.6","0.1190123434","0.4479240545","0.4658145356","0.1037411708","","","","","","","","","","","72","H","0","img/none_selected.jpg","","234","main_expt"
"389","","bandit","313","874592","0.0-274.0-0.0","40637120","wem/bandit_either","A1T2162PMSEH0P","either","4","","","","","","","0","0","1","","0.1392024459","0.4","0.2","0.8","0.6","0.1392024459","0.4476644646","0.4312508187","0.1267441937","","","","","","","","","","","72","H","0","img/none_selected.jpg","","235","main_expt"
"481","","bandit","314","876587","0.0-275.0-0.0","40637120","wem/bandit_either","A1T2162PMSEH0P","either","4","","","","","","","0","0","1","","0.457106966","0.4","0.2","0.8","0.6","0.1076242464","0.457106966","0.4323277229","0.1002206095","","","","","","","","","","","74","J","1","","","236","main_expt"
"781","","bandit","315","878880","0.0-276.0-0.0","40637120","wem/bandit_either","A1T2162PMSEH0P","either","4","","","","","","","0","0","1","0.4097288684","","0.4","0.2","0.8","0.6","","","","","0.1539911713","0.4097288684","0.4517679415","0.08353940566","","","","","","","74","J","1","","","237","main_expt"
"711","","bandit","316","881110","0.0-277.0-0.0","40637120","wem/bandit_either","A1T2162PMSEH0P","either","4","","","","","","","0","1","0","","0.4476427196","0.4","0.2","0.8","0.6","0.1833253983","0.4530646831","0.4476427196","0.07847158511","","","","","","","","","","","75","K","2","","","238","main_expt"
"924","","bandit","317","883551","0.0-278.0-0.0","40637120","wem/bandit_either","A1T2162PMSEH0P","either","4","","","","","","","1","0","0","0.4421551546","","0.4","0.2","0.8","0.6","","","","","0.185515968","0.4532148127","0.4421551546","0.1132310855","","","","","","","75","K","2","","","239","main_expt"
"539","","bandit","318","885608","0.0-279.0-0.0","40637120","wem/bandit_either","A1T2162PMSEH0P","either","4","","","","","","","0","0","1","0.4205303603","","0.4","0.2","0.8","0.6","","","","","0.2545144829","0.4456906816","0.4205303603","0.130249024","","","","","","","75","K","2","","","240","main_expt"
"852","","bandit","319","887978","0.0-280.0-0.0","40637120","wem/bandit_either","A1T2162PMSEH0P","either","4","","","","","","","1","0","0","0.4304808994","","0.4","0.2","0.8","0.6","","","","","0.1902236802","0.4515134246","0.4304808994","0.1356270161","","","","","","","75","K","2","","","241","main_expt"
"813","","bandit","320","890310","0.0-281.0-0.0","40637120","wem/bandit_either","A1T2162PMSEH0P","either","4","","","","","","","1","0","0","0.4318168925","","0.4","0.2","0.8","0.6","","","","","0.2196571485","0.4640222466","0.4318168925","0.1402569013","","","","","","","75","K","2","","","242","main_expt"
"984","","bandit","321","892812","0.0-282.0-0.0","40637120","wem/bandit_either","A1T2162PMSEH0P","either","4","","","","","","","1","0","0","0.4437639365","","0.4","0.2","0.8","0.6","","","","","0.2691755858","0.4305348251","0.4437639365","0.1851652895","","","","","","","75","K","2","","","243","main_expt"
"625","","bandit","322","894948","0.0-283.0-0.0","40637120","wem/bandit_either","A1T2162PMSEH0P","either","4","","","","","","","0","0","1","","0.4444545885","0.4","0.2","0.8","0.6","0.2689580194","0.4444417595","0.4444545885","0.1871667761","","","","","","","","","","","75","K","2","","","244","main_expt"
"453","","bandit","323","896916","0.0-284.0-0.0","40637120","wem/bandit_either","A1T2162PMSEH0P","either","4","","","","","","","0","0","1","0.445216333","","0.4","0.2","0.8","0.6","","","","","0.1935089033","0.4468105605","0.445216333","0.1881322931","","","","","","","75","K","2","","","245","main_expt"
"312","","bandit","324","898746","0.0-285.0-0.0","40637120","wem/bandit_either","A1T2162PMSEH0P","either","4","","","","","","","1","0","0","0.4767449203","","0.4","0.2","0.8","0.6","","","","","0.1466547275","0.4453418505","0.4767449203","0.187853128","","","","","","","75","K","2","","","246","main_expt"
"1026","","bandit","325","901290","0.0-286.0-0.0","40637120","wem/bandit_either","A1T2162PMSEH0P","either","4","","","","","","","0","0","1","0.4530054638","","0.4","0.2","0.8","0.6","","","","","0.1275107348","0.4426138654","0.4530054638","0.1952756904","","","","","","","75","K","2","","","247","main_expt"
"509","","bandit","326","903317","0.0-287.0-0.0","40637120","wem/bandit_either","A1T2162PMSEH0P","either","4","","","","","","","1","0","0","0.4326938674","","0.4","0.2","0.8","0.6","","","","","0.107785627","0.464375056","0.4326938674","0.1722543521","","","","","","","75","K","2","","","248","main_expt"
"524","","bandit","327","905361","0.0-288.0-0.0","40637120","wem/bandit_either","A1T2162PMSEH0P","either","4","","","","","","","0","0","1","0.4276367863","","0.4","0.2","0.8","0.6","","","","","0.1169449123","0.4416705694","0.4276367863","0.1935833679","","","","","","","75","K","2","","","249","main_expt"
"490","","bandit","328","907369","0.0-289.0-0.0","40637120","wem/bandit_either","A1T2162PMSEH0P","either","4","","","","","","","0","0","1","0.4602627553","","0.4","0.2","0.8","0.6","","","","","0.1474950258","0.4352039605","0.4602627553","0.1783221165","","","","","","","75","K","2","","","250","main_expt"
"517","","bandit","329","909406","0.0-290.0-0.0","40637120","wem/bandit_either","A1T2162PMSEH0P","either","4","","","","","","","0","0","1","0.4429671406","","0.4","0.2","0.8","0.6","","","","","0.1272017844","0.4625669079","0.4429671406","0.2191654692","","","","","","","75","K","2","","","251","main_expt"
"1327","","bandit","330","912250","0.0-291.0-0.0","40637120","wem/bandit_either","A1T2162PMSEH0P","either","4","","","","","","","0","0","1","0.4423062834","","0.4","0.2","0.8","0.6","","","","","0.1383509771","0.4714010403","0.4423062834","0.2357097141","","","","","","","75","K","2","","","252","main_expt"
