"rt","responses","trial_type","trial_index","time_elapsed","internal_node_id","subjID","study","MID","cond","drift","key_press","expt_phase","target","like","value","connected","gems","bombs","no_reward","GemPrChosen","BombPrChosen","GainOverPainPr_0","GainOverPainPr_1","GainOverPainPr_2","GainOverPainPr_3","LosePr_0","LosePr_1","LosePr_2","LosePr_3","WinPr_0","WinPr_1","WinPr_2","WinPr_3","Q0","Q1","Q2","gender","age","ethnicity","respCharCode","respKey","respChoiceNum","respChoice","practice","trial_counter","trial_label"
"1399","{""Q0"":""A2RRC5B4M80XXO""}","survey-text","0","1414","0.0-0.0","42240460","wem/bandit_either","A2RRC5B4M80XXO","either","3","","","","","","","","","","","","","","","","","","","","","","","","","","","","","","","","","","","",""
"2319","","text","1","4740","0.0-1.0","42240460","wem/bandit_either","A2RRC5B4M80XXO","either","3","32","","","","","","","","","","","","","","","","","","","","","","","","","","","","","","","","","","",""
"6494","","text","2","11237","0.0-2.0","42240460","wem/bandit_either","A2RRC5B4M80XXO","either","3","32","","","","","","","","","","","","","","","","","","","","","","","","","","","","","","","","","","",""
"17559","","text","3","28798","0.0-3.0","42240460","wem/bandit_either","A2RRC5B4M80XXO","either","3","32","","","","","","","","","","","","","","","","","","","","","","","","","","","","","","","","","","",""
"10882","","text","4","39683","0.0-4.0","42240460","wem/bandit_either","A2RRC5B4M80XXO","either","3","32","","","","","","","","","","","","","","","","","","","","","","","","","","","","","","","","","","",""
"14202","","text","5","53887","0.0-5.0","42240460","wem/bandit_either","A2RRC5B4M80XXO","either","3","32","","","","","","","","","","","","","","","","","","","","","","","","","","","","","","","","","","",""
"5263","","text","6","59152","0.0-6.0","42240460","wem/bandit_either","A2RRC5B4M80XXO","either","3","32","","","","","","","","","","","","","","","","","","","","","","","","","","","","","","","","","","",""
"2620","","text","7","61774","0.0-7.0","42240460","wem/bandit_either","A2RRC5B4M80XXO","either","3","32","","","","","","","","","","","","","","","","","","","","","","","","","","","","","","","","","","",""
"16420","","identification","8","78266","0.0-8.0-0.0","42240460","wem/bandit_either","A2RRC5B4M80XXO","either","3","","identification_pre","the village of Zur","","","","","","","","","","","","","","","","","","","","","","","","","","","","","","","","",""
"3063","","identification","9","82379","0.0-8.0-1.0","42240460","wem/bandit_either","A2RRC5B4M80XXO","either","3","","identification_pre","the village of Nyx","","","","","","","","","","","","","","","","","","","","","","","","","","","","","","","","",""
"3000","","text","10","86383","0.0-9.0","42240460","wem/bandit_either","A2RRC5B4M80XXO","either","3","32","","","","","","","","","","","","","","","","","","","","","","","","","","","","","","","","","","",""
"793","","text","11","87180","0.0-10.0","42240460","wem/bandit_either","A2RRC5B4M80XXO","either","3","32","","","","","","","","","","","","","","","","","","","","","","","","","","","","","","","","","","",""
"813","","text","12","87996","0.0-11.0","42240460","wem/bandit_either","A2RRC5B4M80XXO","either","3","32","","","","","","","","","","","","","","","","","","","","","","","","","","","","","","","","","","",""
"4520","","text","13","92518","0.0-12.0","42240460","wem/bandit_either","A2RRC5B4M80XXO","either","3","32","","","","","","","","","","","","","","","","","","","","","","","","","","","","","","","","","","",""
"1387","","bandit","14","95418","0.0-13.0-0.0","42240460","wem/bandit_either","A2RRC5B4M80XXO","either","3","","","","","","","0","0","1","0","0","","","","","0","","","","0","","","","","","","","","","74","J","0","img/none_selected_demo.jpg","true","0",""
"542","","bandit","15","97465","0.0-14.0-0.0","42240460","wem/bandit_either","A2RRC5B4M80XXO","either","3","","","","","","","0","0","1","0","0","","","","","0","","","","0","","","","","","","","","","75","K","0","img/none_selected_demo.jpg","true","0",""
"1624","","text","16","99093","0.0-15.0","42240460","wem/bandit_either","A2RRC5B4M80XXO","either","3","32","","","","","","","","","","","","","","","","","","","","","","","","","","","","","","","","","","",""
"6944","","text","17","106042","0.0-16.0","42240460","wem/bandit_either","A2RRC5B4M80XXO","either","3","32","","","","","","","","","","","","","","","","","","","","","","","","","","","","","","","","","","",""
"1817","","text","18","107862","0.0-17.0","42240460","wem/bandit_either","A2RRC5B4M80XXO","either","3","32","","","","","","","","","","","","","","","","","","","","","","","","","","","","","","","","","","",""
"2708","","text","19","110574","0.0-18.0","42240460","wem/bandit_either","A2RRC5B4M80XXO","either","3","32","","","","","","","","","","","","","","","","","","","","","","","","","","","","","","","","","","",""
"2832","","bandit","20","114916","0.0-19.0-0.0","42240460","wem/bandit_either","A2RRC5B4M80XXO","either","3","","","","","","","0","0","1","","0.2","0.5","0.5","","","0.8","0.2","","","","","","","","","","","","","75","K","1","","true","0","80_20_practice"
"2253","","bandit","21","118680","0.0-19.0-1.0","42240460","wem/bandit_either","A2RRC5B4M80XXO","either","3","","","","","","","1","0","0","0.8","","0.5","0.5","","","","","","","0.8","0.2","","","","","","","","","74","J","0","img/none_selected_demo.jpg","true","0","80_20_practice"
"624","","bandit","22","120816","0.0-19.0-2.0","42240460","wem/bandit_either","A2RRC5B4M80XXO","either","3","","","","","","","1","0","0","0.8","","0.5","0.5","","","","","","","0.8","0.2","","","","","","","","","74","J","0","img/none_selected_demo.jpg","true","0","80_20_practice"
"580","","bandit","23","122907","0.0-19.0-3.0","42240460","wem/bandit_either","A2RRC5B4M80XXO","either","3","","","","","","","0","0","1","","0.8","0.5","0.5","","","0.8","0.2","","","","","","","","","","","","","74","J","0","img/none_selected_demo.jpg","true","0","80_20_practice"
"826","","bandit","24","125243","0.0-19.0-4.0","42240460","wem/bandit_either","A2RRC5B4M80XXO","either","3","","","","","","","0","1","0","","0.2","0.5","0.5","","","0.8","0.2","","","","","","","","","","","","","75","K","1","","true","0","80_20_practice"
"498","","bandit","25","127249","0.0-19.0-5.0","42240460","wem/bandit_either","A2RRC5B4M80XXO","either","3","","","","","","","0","1","0","","0.8","0.5","0.5","","","0.8","0.2","","","","","","","","","","","","","74","J","0","img/none_selected_demo.jpg","true","0","80_20_practice"
"344","","bandit","26","129104","0.0-19.0-6.0","42240460","wem/bandit_either","A2RRC5B4M80XXO","either","3","","","","","","","1","0","0","0.8","","0.5","0.5","","","","","","","0.8","0.2","","","","","","","","","74","J","0","img/none_selected_demo.jpg","true","0","80_20_practice"
"517","","bandit","27","131130","0.0-19.0-7.0","42240460","wem/bandit_either","A2RRC5B4M80XXO","either","3","","","","","","","0","1","0","","0.8","0.5","0.5","","","0.8","0.2","","","","","","","","","","","","","74","J","0","img/none_selected_demo.jpg","true","0","80_20_practice"
"720","","bandit","28","133360","0.0-19.0-8.0","42240460","wem/bandit_either","A2RRC5B4M80XXO","either","3","","","","","","","1","0","0","0.8","","0.5","0.5","","","","","","","0.8","0.2","","","","","","","","","74","J","0","img/none_selected_demo.jpg","true","0","80_20_practice"
"1050","","bandit","29","135920","0.0-19.0-9.0","42240460","wem/bandit_either","A2RRC5B4M80XXO","either","3","","","","","","","0","0","1","0.2","","0.5","0.5","","","","","","","0.8","0.2","","","","","","","","","75","K","1","","true","0","80_20_practice"
"307","","bandit","30","137737","0.0-19.0-10.0","42240460","wem/bandit_either","A2RRC5B4M80XXO","either","3","","","","","","","0","0","1","0.8","","0.5","0.5","","","","","","","0.8","0.2","","","","","","","","","74","J","0","img/none_selected_demo.jpg","true","0","80_20_practice"
"500","","bandit","31","139747","0.0-19.0-11.0","42240460","wem/bandit_either","A2RRC5B4M80XXO","either","3","","","","","","","0","1","0","","0.8","0.5","0.5","","","0.8","0.2","","","","","","","","","","","","","74","J","0","img/none_selected_demo.jpg","true","0","80_20_practice"
"424","","bandit","32","141681","0.0-19.0-12.0","42240460","wem/bandit_either","A2RRC5B4M80XXO","either","3","","","","","","","0","1","0","","0.2","0.5","0.5","","","0.8","0.2","","","","","","","","","","","","","75","K","1","","true","0","80_20_practice"
"319","","bandit","33","143510","0.0-19.0-13.0","42240460","wem/bandit_either","A2RRC5B4M80XXO","either","3","","","","","","","1","0","0","0.8","","0.5","0.5","","","","","","","0.8","0.2","","","","","","","","","74","J","0","img/none_selected_demo.jpg","true","0","80_20_practice"
"364","","bandit","34","145386","0.0-19.0-14.0","42240460","wem/bandit_either","A2RRC5B4M80XXO","either","3","","","","","","","0","1","0","","0.8","0.5","0.5","","","0.8","0.2","","","","","","","","","","","","","74","J","0","img/none_selected_demo.jpg","true","0","80_20_practice"
"303","","bandit","35","147201","0.0-19.0-15.0","42240460","wem/bandit_either","A2RRC5B4M80XXO","either","3","","","","","","","0","0","1","","0.2","0.5","0.5","","","0.8","0.2","","","","","","","","","","","","","75","K","1","","true","0","80_20_practice"
"930","","bandit","36","149642","0.0-19.0-16.0","42240460","wem/bandit_either","A2RRC5B4M80XXO","either","3","","","","","","","0","0","1","0.2","","0.5","0.5","","","","","","","0.8","0.2","","","","","","","","","75","K","1","","true","0","80_20_practice"
"307","","bandit","37","151460","0.0-19.0-17.0","42240460","wem/bandit_either","A2RRC5B4M80XXO","either","3","","","","","","","0","1","0","","0.8","0.5","0.5","","","0.8","0.2","","","","","","","","","","","","","74","J","0","img/none_selected_demo.jpg","true","0","80_20_practice"
"408","","bandit","38","153379","0.0-19.0-18.0","42240460","wem/bandit_either","A2RRC5B4M80XXO","either","3","","","","","","","0","0","1","0.2","","0.5","0.5","","","","","","","0.8","0.2","","","","","","","","","75","K","1","","true","0","80_20_practice"
"364","","bandit","39","155253","0.0-19.0-19.0","42240460","wem/bandit_either","A2RRC5B4M80XXO","either","3","","","","","","","0","0","1","0.2","","0.5","0.5","","","","","","","0.8","0.2","","","","","","","","","75","K","1","","true","0","80_20_practice"
"3562","","text","40","158816","0.0-20.0","42240460","wem/bandit_either","A2RRC5B4M80XXO","either","3","32","","","","","","","","","","","","","","","","","","","","","","","","","","","","","","","","","","",""
"913","","bandit","41","161240","0.0-21.0-0.0","42240460","wem/bandit_either","A2RRC5B4M80XXO","either","3","","","","","","","1","0","0","1","0","","","","","0","1","","","1","0","","","","","","","","","74","J","0","img/none_selected_demo.jpg","true","0",""
"6383","","text","42","167630","0.0-22.0","42240460","wem/bandit_either","A2RRC5B4M80XXO","either","3","32","","","","","","","","","","","","","","","","","","","","","","","","","","","","","","","","","","",""
"5531","","text","43","173165","0.0-23.0","42240460","wem/bandit_either","A2RRC5B4M80XXO","either","3","32","","","","","","","","","","","","","","","","","","","","","","","","","","","","","","","","","","",""
"2674","","text","44","175842","0.0-24.0","42240460","wem/bandit_either","A2RRC5B4M80XXO","either","3","32","","","","","","","","","","","","","","","","","","","","","","","","","","","","","","","","","","",""
"2456","","text","45","178303","0.0-25.0","42240460","wem/bandit_either","A2RRC5B4M80XXO","either","3","32","","","","","","","","","","","","","","","","","","","","","","","","","","","","","","","","","","",""
"4768","","text","46","183075","0.0-26.0","42240460","wem/bandit_either","A2RRC5B4M80XXO","either","3","32","","","","","","","","","","","","","","","","","","","","","","","","","","","","","","","","","","",""
"1176","","text","47","184256","0.0-27.0","42240460","wem/bandit_either","A2RRC5B4M80XXO","either","3","32","","","","","","","","","","","","","","","","","","","","","","","","","","","","","","","","","","",""
"1292","","text","48","185553","0.0-28.0","42240460","wem/bandit_either","A2RRC5B4M80XXO","either","3","32","","","","","","","","","","","","","","","","","","","","","","","","","","","","","","","","","","",""
"798","","text","49","186356","0.0-29.0","42240460","wem/bandit_either","A2RRC5B4M80XXO","either","3","32","","","","","","","","","","","","","","","","","","","","","","","","","","","","","","","","","","",""
"816","","text","50","187174","0.0-30.0","42240460","wem/bandit_either","A2RRC5B4M80XXO","either","3","32","","","","","","","","","","","","","","","","","","","","","","","","","","","","","","","","","","",""
"1072","","text","51","188250","0.0-31.0","42240460","wem/bandit_either","A2RRC5B4M80XXO","either","3","32","","","","","","","","","","","","","","","","","","","","","","","","","","","","","","","","","","",""
"1196","","text","52","189449","0.0-32.0","42240460","wem/bandit_either","A2RRC5B4M80XXO","either","3","32","","","","","","","","","","","","","","","","","","","","","","","","","","","","","","","","","","",""
"5050","","bandit","53","196010","0.0-33.0-0.0","42240460","wem/bandit_either","A2RRC5B4M80XXO","either","3","","","","","","","0","0","1","0.2","","0.5","0.5","0.5","0.5","","","","","0.8","0.2","0.6","0.2","","","","","","","76","L","3","","true","0","full_practice"
"1872","","bandit","54","199394","0.0-33.0-1.0","42240460","wem/bandit_either","A2RRC5B4M80XXO","either","3","","","","","","","1","0","0","0.8","","0.5","0.5","0.5","0.5","","","","","0.8","0.2","0.6","0.2","","","","","","","72","H","0","img/none_selected.jpg","true","0","full_practice"
"1618","","bandit","55","202527","0.0-33.0-2.0","42240460","wem/bandit_either","A2RRC5B4M80XXO","either","3","","","","","","","0","0","1","","0.6","0.5","0.5","0.5","0.5","0.8","0.2","0.6","0.2","","","","","","","","","","","75","K","2","","true","0","full_practice"
"344","","bandit","56","204382","0.0-33.0-3.0","42240460","wem/bandit_either","A2RRC5B4M80XXO","either","3","","","","","","","1","0","0","0.2","","0.5","0.5","0.5","0.5","","","","","0.8","0.2","0.6","0.2","","","","","","","74","J","1","","true","0","full_practice"
"521","","bandit","57","206413","0.0-33.0-4.0","42240460","wem/bandit_either","A2RRC5B4M80XXO","either","3","","","","","","","0","0","1","","0.2","0.5","0.5","0.5","0.5","0.8","0.2","0.6","0.2","","","","","","","","","","","76","L","3","","true","0","full_practice"
"1093","","bandit","58","209017","0.0-33.0-5.0","42240460","wem/bandit_either","A2RRC5B4M80XXO","either","3","","","","","","","0","1","0","","0.8","0.5","0.5","0.5","0.5","0.8","0.2","0.6","0.2","","","","","","","","","","","72","H","0","img/none_selected.jpg","true","0","full_practice"
"348","","bandit","59","210876","0.0-33.0-6.0","42240460","wem/bandit_either","A2RRC5B4M80XXO","either","3","","","","","","","0","0","1","","0.2","0.5","0.5","0.5","0.5","0.8","0.2","0.6","0.2","","","","","","","","","","","74","J","1","","true","0","full_practice"
"280","","bandit","60","212666","0.0-33.0-7.0","42240460","wem/bandit_either","A2RRC5B4M80XXO","either","3","","","","","","","0","0","1","","0.6","0.5","0.5","0.5","0.5","0.8","0.2","0.6","0.2","","","","","","","","","","","75","K","2","","true","0","full_practice"
"540","","bandit","61","214717","0.0-33.0-8.0","42240460","wem/bandit_either","A2RRC5B4M80XXO","either","3","","","","","","","0","0","1","","0.8","0.5","0.5","0.5","0.5","0.8","0.2","0.6","0.2","","","","","","","","","","","72","H","0","img/none_selected.jpg","true","0","full_practice"
"324","","bandit","62","216552","0.0-33.0-9.0","42240460","wem/bandit_either","A2RRC5B4M80XXO","either","3","","","","","","","0","0","1","","0.2","0.5","0.5","0.5","0.5","0.8","0.2","0.6","0.2","","","","","","","","","","","76","L","3","","true","0","full_practice"
"279","","bandit","63","218346","0.0-33.0-10.0","42240460","wem/bandit_either","A2RRC5B4M80XXO","either","3","","","","","","","0","0","1","0.6","","0.5","0.5","0.5","0.5","","","","","0.8","0.2","0.6","0.2","","","","","","","75","K","2","","true","0","full_practice"
"429","","bandit","64","220291","0.0-33.0-11.0","42240460","wem/bandit_either","A2RRC5B4M80XXO","either","3","","","","","","","1","0","0","0.8","","0.5","0.5","0.5","0.5","","","","","0.8","0.2","0.6","0.2","","","","","","","72","H","0","img/none_selected.jpg","true","0","full_practice"
"299","","bandit","65","222103","0.0-33.0-12.0","42240460","wem/bandit_either","A2RRC5B4M80XXO","either","3","","","","","","","0","0","1","0.2","","0.5","0.5","0.5","0.5","","","","","0.8","0.2","0.6","0.2","","","","","","","74","J","1","","true","0","full_practice"
"362","","bandit","66","223976","0.0-33.0-13.0","42240460","wem/bandit_either","A2RRC5B4M80XXO","either","3","","","","","","","1","0","0","0.8","","0.5","0.5","0.5","0.5","","","","","0.8","0.2","0.6","0.2","","","","","","","72","H","0","img/none_selected.jpg","true","0","full_practice"
"332","","bandit","67","225821","0.0-33.0-14.0","42240460","wem/bandit_either","A2RRC5B4M80XXO","either","3","","","","","","","0","0","1","","0.8","0.5","0.5","0.5","0.5","0.8","0.2","0.6","0.2","","","","","","","","","","","72","H","0","img/none_selected.jpg","true","0","full_practice"
"938","","bandit","68","228271","0.0-33.0-15.0","42240460","wem/bandit_either","A2RRC5B4M80XXO","either","3","","","","","","","0","0","1","0.6","","0.5","0.5","0.5","0.5","","","","","0.8","0.2","0.6","0.2","","","","","","","75","K","2","","true","0","full_practice"
"526","","bandit","69","230309","0.0-33.0-16.0","42240460","wem/bandit_either","A2RRC5B4M80XXO","either","3","","","","","","","0","1","0","","0.8","0.5","0.5","0.5","0.5","0.8","0.2","0.6","0.2","","","","","","","","","","","72","H","0","img/none_selected.jpg","true","0","full_practice"
"349","","bandit","70","232171","0.0-33.0-17.0","42240460","wem/bandit_either","A2RRC5B4M80XXO","either","3","","","","","","","0","0","1","","0.2","0.5","0.5","0.5","0.5","0.8","0.2","0.6","0.2","","","","","","","","","","","74","J","1","","true","0","full_practice"
"395","","bandit","71","234081","0.0-33.0-18.0","42240460","wem/bandit_either","A2RRC5B4M80XXO","either","3","","","","","","","0","0","1","0.2","","0.5","0.5","0.5","0.5","","","","","0.8","0.2","0.6","0.2","","","","","","","76","L","3","","true","0","full_practice"
"371","","bandit","72","235962","0.0-33.0-19.0","42240460","wem/bandit_either","A2RRC5B4M80XXO","either","3","","","","","","","0","1","0","","0.8","0.5","0.5","0.5","0.5","0.8","0.2","0.6","0.2","","","","","","","","","","","72","H","0","img/none_selected.jpg","true","0","full_practice"
"2804","","text","73","238779","0.0-34.0","42240460","wem/bandit_either","A2RRC5B4M80XXO","either","3","32","","","","","","","","","","","","","","","","","","","","","","","","","","","","","","","","","","",""
"13001","","text","74","252785","0.0-35.0","42240460","wem/bandit_either","A2RRC5B4M80XXO","either","3","32","","","","","","","","","","","","","","","","","","","","","","","","","","","","","","","","","","",""
"7876","","text","75","260666","0.0-36.0","42240460","wem/bandit_either","A2RRC5B4M80XXO","either","3","32","","","","","","","","","","","","","","","","","","","","","","","","","","","","","","","","","","",""
"811","","text","76","261482","0.0-37.0","42240460","wem/bandit_either","A2RRC5B4M80XXO","either","3","32","","","","","","","","","","","","","","","","","","","","","","","","","","","","","","","","","","",""
"2567","","text","77","264053","0.0-38.0","42240460","wem/bandit_either","A2RRC5B4M80XXO","either","3","32","","","","","","","","","","","","","","","","","","","","","","","","","","","","","","","","","","",""
"1773","","text","78","265832","0.0-39.0","42240460","wem/bandit_either","A2RRC5B4M80XXO","either","3","32","","","","","","","","","","","","","","","","","","","","","","","","","","","","","","","","","","",""
"2187","","bandit","79","269531","0.0-40.0-0.0","42240460","wem/bandit_either","A2RRC5B4M80XXO","either","3","","","","","","","0","0","1","0.1646489015","","0.2","0.6","0.8","0.4","","","","","0.1646489015","0.1426046982","0.4870892339","0.07685641067","","","","","","","72","H","0","img/none_selected.jpg","","1","main_expt"
"842","","bandit","80","271887","0.0-41.0-0.0","42240460","wem/bandit_either","A2RRC5B4M80XXO","either","3","","","","","","","0","0","1","0.1597004976","","0.2","0.6","0.8","0.4","","","","","0.2180431119","0.1597004976","0.4875162112","0.08388143876","","","","","","","74","J","1","","","2","main_expt"
"918","","bandit","81","274317","0.0-42.0-0.0","42240460","wem/bandit_either","A2RRC5B4M80XXO","either","3","","","","","","","1","0","0","0.4909945117","","0.2","0.6","0.8","0.4","","","","","0.2294217256","0.1381850853","0.4909945117","0.06528774038","","","","","","","75","K","2","","","3","main_expt"
"1580","","bandit","82","277409","0.0-43.0-0.0","42240460","wem/bandit_either","A2RRC5B4M80XXO","either","3","","","","","","","0","0","1","0.482579304","","0.2","0.6","0.8","0.4","","","","","0.2162119515","0.1787932262","0.482579304","0.07987899881","","","","","","","75","K","2","","","4","main_expt"
"433","","bandit","83","279355","0.0-44.0-0.0","42240460","wem/bandit_either","A2RRC5B4M80XXO","either","3","","","","","","","1","0","0","0.0432391811","","0.2","0.6","0.8","0.4","","","","","0.2246316054","0.1795032464","0.4887913002","0.0432391811","","","","","","","76","L","3","","","5","main_expt"
"324","","bandit","84","281190","0.0-45.0-0.0","42240460","wem/bandit_either","A2RRC5B4M80XXO","either","3","","","","","","","0","1","0","","0.4887860333","0.2","0.6","0.8","0.4","0.2061018479","0.164375756","0.4887860333","0.03467601655","","","","","","","","","","","75","K","2","","","6","main_expt"
"354","","bandit","85","283062","0.0-46.0-0.0","42240460","wem/bandit_either","A2RRC5B4M80XXO","either","3","","","","","","","0","0","1","","0.05033951668","0.2","0.6","0.8","0.4","0.1795347326","0.204957223","0.4901971563","0.05033951668","","","","","","","","","","","76","L","3","","","7","main_expt"
"748","","bandit","86","285322","0.0-47.0-0.0","42240460","wem/bandit_either","A2RRC5B4M80XXO","either","3","","","","","","","1","0","0","0.4862230721","","0.2","0.6","0.8","0.4","","","","","0.1290452752","0.2162036531","0.4862230721","0.07676355645","","","","","","","75","K","2","","","8","main_expt"
"1074","","bandit","87","287909","0.0-48.0-0.0","42240460","wem/bandit_either","A2RRC5B4M80XXO","either","3","","","","","","","0","0","1","","0.1559184374","0.2","0.6","0.8","0.4","0.1559184374","0.2167418122","0.4759730645","0.08620859221","","","","","","","","","","","72","H","0","img/none_selected.jpg","","9","main_expt"
"232","","bandit","88","289655","0.0-49.0-0.0","42240460","wem/bandit_either","A2RRC5B4M80XXO","either","3","","","","","","","0","0","1","0.1607923637","","0.2","0.6","0.8","0.4","","","","","0.1381514788","0.1607923637","0.4560980466","0.1103839657","","","","","","","74","J","1","","","10","main_expt"
"369","","bandit","89","291537","0.0-50.0-0.0","42240460","wem/bandit_either","A2RRC5B4M80XXO","either","3","","","","","","","0","0","1","0.4775116046","","0.2","0.6","0.8","0.4","","","","","0.1271140015","0.1386410957","0.4775116046","0.1334948588","","","","","","","75","K","2","","","11","main_expt"
"314","","bandit","90","293362","0.0-51.0-0.0","42240460","wem/bandit_either","A2RRC5B4M80XXO","either","3","","","","","","","0","0","1","","0.1535602519","0.2","0.6","0.8","0.4","0.1854664659","0.1718380738","0.4705073552","0.1535602519","","","","","","","","","","","76","L","3","","","12","main_expt"
"302","","bandit","91","295179","0.0-52.0-0.0","42240460","wem/bandit_either","A2RRC5B4M80XXO","either","3","","","","","","","1","0","0","0.4851887342","","0.2","0.6","0.8","0.4","","","","","0.1869952656","0.1686303413","0.4851887342","0.127854239","","","","","","","75","K","2","","","13","main_expt"
"711","","bandit","92","297400","0.0-53.0-0.0","42240460","wem/bandit_either","A2RRC5B4M80XXO","either","3","","","","","","","1","0","0","0.4731273917","","0.2","0.6","0.8","0.4","","","","","0.2035171393","0.1460019496","0.4731273917","0.1507911491","","","","","","","75","K","2","","","14","main_expt"
"832","","bandit","93","299744","0.0-54.0-0.0","42240460","wem/bandit_either","A2RRC5B4M80XXO","either","3","","","","","","","0","0","1","0.4585867004","","0.2","0.6","0.8","0.4","","","","","0.2800299461","0.1667614464","0.4585867004","0.1741212098","","","","","","","75","K","2","","","15","main_expt"
"338","","bandit","94","301595","0.0-55.0-0.0","42240460","wem/bandit_either","A2RRC5B4M80XXO","either","3","","","","","","","0","0","1","","0.1918308831","0.2","0.6","0.8","0.4","0.2725454461","0.1973644546","0.4366533258","0.1918308831","","","","","","","","","","","76","L","3","","","16","main_expt"
"441","","bandit","95","303550","0.0-56.0-0.0","42240460","wem/bandit_either","A2RRC5B4M80XXO","either","3","","","","","","","0","0","1","0.4405228744","","0.2","0.6","0.8","0.4","","","","","0.1570621471","0.1873415792","0.4405228744","0.1950212473","","","","","","","75","K","2","","","17","main_expt"
"875","","bandit","96","305937","0.0-57.0-0.0","42240460","wem/bandit_either","A2RRC5B4M80XXO","either","3","","","","","","","0","0","1","","0.1875860444","0.2","0.6","0.8","0.4","0.1968188506","0.1875860444","0.4678551263","0.2094813194","","","","","","","","","","","74","J","1","","","18","main_expt"
"582","","bandit","97","308037","0.0-58.0-0.0","42240460","wem/bandit_either","A2RRC5B4M80XXO","either","3","","","","","","","0","0","1","0.466140525","","0.2","0.6","0.8","0.4","","","","","0.2439518204","0.1988439388","0.466140525","0.2628959394","","","","","","","75","K","2","","","19","main_expt"
"369","","bandit","98","309920","0.0-59.0-0.0","42240460","wem/bandit_either","A2RRC5B4M80XXO","either","3","","","","","","","0","0","1","0.2806117898","","0.2","0.6","0.8","0.4","","","","","0.2806117898","0.1813993393","0.4094087999","0.2116504525","","","","","","","72","H","0","img/none_selected.jpg","","20","main_expt"
"311","","bandit","99","311747","0.0-60.0-0.0","42240460","wem/bandit_either","A2RRC5B4M80XXO","either","3","","","","","","","0","0","1","","0.1904426465","0.2","0.6","0.8","0.4","0.2658005831","0.2012004452","0.4386974508","0.1904426465","","","","","","","","","","","76","L","3","","","21","main_expt"
"420","","bandit","100","313679","0.0-61.0-0.0","42240460","wem/bandit_either","A2RRC5B4M80XXO","either","3","","","","","","","1","0","0","0.4505723784","","0.2","0.6","0.8","0.4","","","","","0.2774390086","0.1958646163","0.4505723784","0.1581796968","","","","","","","75","K","2","","","22","main_expt"
"420","","bandit","101","315614","0.0-62.0-0.0","42240460","wem/bandit_either","A2RRC5B4M80XXO","either","3","","","","","","","0","0","1","0.2626819079","","0.2","0.6","0.8","0.4","","","","","0.2795917474","0.2626819079","0.4568000239","0.2039009352","","","","","","","74","J","1","","","23","main_expt"
"378","","bandit","102","317506","0.0-63.0-0.0","42240460","wem/bandit_either","A2RRC5B4M80XXO","either","3","","","","","","","0","0","1","","0.228339491","0.2","0.6","0.8","0.4","0.2981059477","0.2906682881","0.4518339256","0.228339491","","","","","","","","","","","76","L","3","","","24","main_expt"
"409","","bandit","103","319428","0.0-64.0-0.0","42240460","wem/bandit_either","A2RRC5B4M80XXO","either","3","","","","","","","0","1","0","","0.4120159309","0.2","0.6","0.8","0.4","0.3272059922","0.3270173502","0.4120159309","0.2602465224","","","","","","","","","","","75","K","2","","","25","main_expt"
"1453","","bandit","104","322395","0.0-65.0-0.0","42240460","wem/bandit_either","A2RRC5B4M80XXO","either","3","","","","","","","0","0","1","","0.4134154185","0.2","0.6","0.8","0.4","0.3369826645","0.2951289915","0.4134154185","0.1939420306","","","","","","","","","","","75","K","2","","","26","main_expt"
"330","","bandit","105","324240","0.0-66.0-0.0","42240460","wem/bandit_either","A2RRC5B4M80XXO","either","3","","","","","","","1","0","0","0.4031068294","","0.2","0.6","0.8","0.4","","","","","0.2531212506","0.3520126272","0.4031068294","0.2387331149","","","","","","","75","K","2","","","27","main_expt"
"2435","","bandit","106","328187","0.0-67.0-0.0","42240460","wem/bandit_either","A2RRC5B4M80XXO","either","3","","","","","","","1","0","0","0.4305883772","","0.2","0.6","0.8","0.4","","","","","0.2170461037","0.3369287003","0.4305883772","0.2183458617","","","","","","","75","K","2","","","28","main_expt"
"87049","","bandit","107","416764","0.0-68.0-0.0","42240460","wem/bandit_either","A2RRC5B4M80XXO","either","3","","","","","","","0","0","1","","0.2151501268","0.2","0.6","0.8","0.4","0.2346211465","0.3591799128","0.4383329838","0.2151501268","","","","","","","","","","","76","L","3","","","29","main_expt"
"305","","bandit","108","418589","0.0-69.0-0.0","42240460","wem/bandit_either","A2RRC5B4M80XXO","either","3","","","","","","","0","0","1","","0.4233276099","0.2","0.6","0.8","0.4","0.2450860663","0.3324285477","0.4233276099","0.2267233056","","","","","","","","","","","75","K","2","","","30","main_expt"
"421","","bandit","109","420551","0.0-70.0-0.0","42240460","wem/bandit_either","A2RRC5B4M80XXO","either","3","","","","","","","0","1","0","","0.2141169407","0.2","0.6","0.8","0.4","0.2141169407","0.327032362","0.4016185005","0.2663701676","","","","","","","","","","","72","H","0","img/none_selected.jpg","","31","main_expt"
"755","","bandit","110","422842","0.0-71.0-0.0","42240460","wem/bandit_either","A2RRC5B4M80XXO","either","3","","","","","","","0","0","1","","0.3230905041","0.2","0.6","0.8","0.4","0.2347854155","0.3230905041","0.4134940178","0.275969473","","","","","","","","","","","74","J","1","","","32","main_expt"
"826","","bandit","111","425212","0.0-72.0-0.0","42240460","wem/bandit_either","A2RRC5B4M80XXO","either","3","","","","","","","0","0","1","0.246596708","","0.2","0.6","0.8","0.4","","","","","0.246596708","0.2969008969","0.4331174495","0.3365270118","","","","","","","72","H","0","img/none_selected.jpg","","33","main_expt"
"305","","bandit","112","427067","0.0-73.0-0.0","42240460","wem/bandit_either","A2RRC5B4M80XXO","either","3","","","","","","","0","0","1","0.4454497031","","0.2","0.6","0.8","0.4","","","","","0.1914370393","0.2536392951","0.4454497031","0.2916301021","","","","","","","75","K","2","","","34","main_expt"
"364","","bandit","113","428972","0.0-74.0-0.0","42240460","wem/bandit_either","A2RRC5B4M80XXO","either","3","","","","","","","0","0","1","","0.1408207185","0.2","0.6","0.8","0.4","0.1408207185","0.2336030597","0.4419706984","0.3236538836","","","","","","","","","","","72","H","0","img/none_selected.jpg","","35","main_expt"
"328","","bandit","114","430838","0.0-75.0-0.0","42240460","wem/bandit_either","A2RRC5B4M80XXO","either","3","","","","","","","0","1","0","","0.3317439785","0.2","0.6","0.8","0.4","0.09539735145","0.3110392291","0.4205940312","0.3317439785","","","","","","","","","","","76","L","3","","","36","main_expt"
"468","","bandit","115","432843","0.0-76.0-0.0","42240460","wem/bandit_either","A2RRC5B4M80XXO","either","3","","","","","","","0","0","1","0.4227305347","","0.2","0.6","0.8","0.4","","","","","0.08867332122","0.3354302382","0.4227305347","0.3620900841","","","","","","","75","K","2","","","37","main_expt"
"1089","","bandit","116","435470","0.0-77.0-0.0","42240460","wem/bandit_either","A2RRC5B4M80XXO","either","3","","","","","","","0","0","1","0.3359947902","","0.2","0.6","0.8","0.4","","","","","0.0804097964","0.3359947902","0.3904174821","0.3649119955","","","","","","","74","J","1","","","38","main_expt"
"365","","bandit","117","437366","0.0-78.0-0.0","42240460","wem/bandit_either","A2RRC5B4M80XXO","either","3","","","","","","","0","1","0","","0.3993258453","0.2","0.6","0.8","0.4","0.1092906338","0.3719467902","0.3704092514","0.3993258453","","","","","","","","","","","76","L","3","","","39","main_expt"
"694","","bandit","118","439585","0.0-79.0-0.0","42240460","wem/bandit_either","A2RRC5B4M80XXO","either","3","","","","","","","1","0","0","0.3250394812","","0.2","0.6","0.8","0.4","","","","","0.08771014895","0.37180955","0.3250394812","0.43145226","","","","","","","75","K","2","","","40","main_expt"
"332","","bandit","119","441462","0.0-80.0-0.0","42240460","wem/bandit_either","A2RRC5B4M80XXO","either","3","","","","","","","1","0","0","0.3925837484","","0.2","0.6","0.8","0.4","","","","","0.1065106481","0.3972707938","0.3633775572","0.3925837484","","","","","","","76","L","3","","","41","main_expt"
"1907","","bandit","120","444899","0.0-81.0-0.0","42240460","wem/bandit_either","A2RRC5B4M80XXO","either","3","","","","","","","0","0","1","","0.0926848955","0.2","0.6","0.8","0.4","0.0926848955","0.3981555674","0.3708570881","0.4020613291","","","","","","","","","","","72","H","0","img/none_selected.jpg","","42","main_expt"
"797","","bandit","121","447232","0.0-82.0-0.0","42240460","wem/bandit_either","A2RRC5B4M80XXO","either","3","","","","","","","0","0","1","","0.4199094288","0.2","0.6","0.8","0.4","0.09213729174","0.3698022864","0.3852030547","0.4199094288","","","","","","","","","","","76","L","3","","","43","main_expt"
"146","","bandit","122","448909","0.0-83.0-0.0","42240460","wem/bandit_either","A2RRC5B4M80XXO","either","3","","","","","","","0","0","1","0.3653477133","","0.2","0.6","0.8","0.4","","","","","0.0950319608","0.3278340923","0.3653477133","0.4362917367","","","","","","","75","K","2","","","44","main_expt"
"415","","bandit","123","450878","0.0-84.0-0.0","42240460","wem/bandit_either","A2RRC5B4M80XXO","either","3","","","","","","","0","0","1","0.4310393502","","0.2","0.6","0.8","0.4","","","","","0.07917944011","0.4004869948","0.3423722135","0.4310393502","","","","","","","76","L","3","","","45","main_expt"
"1073","","bandit","124","453484","0.0-85.0-0.0","42240460","wem/bandit_either","A2RRC5B4M80XXO","either","3","","","","","","","0","0","1","0.2713785315","","0.2","0.6","0.8","0.4","","","","","0.08528552535","0.4389658195","0.2713785315","0.4301719659","","","","","","","75","K","2","","","46","main_expt"
"42","","bandit","125","455044","0.0-86.0-0.0","42240460","wem/bandit_either","A2RRC5B4M80XXO","either","3","","","","","","","0","0","1","","0.4294918489","0.2","0.6","0.8","0.4","0.08303267599","0.4294918489","0.2675382036","0.4274268526","","","","","","","","","","","74","J","1","","","47","main_expt"
"350","","bandit","126","456942","0.0-87.0-0.0","42240460","wem/bandit_either","A2RRC5B4M80XXO","either","3","","","","","","","0","0","1","","0.1183490009","0.2","0.6","0.8","0.4","0.1183490009","0.3948346084","0.3006553151","0.4559220927","","","","","","","","","","","72","H","0","img/none_selected.jpg","","48","main_expt"
"386","","bandit","127","458872","0.0-88.0-0.0","42240460","wem/bandit_either","A2RRC5B4M80XXO","either","3","","","","","","","0","0","1","0.2865645246","","0.2","0.6","0.8","0.4","","","","","0.09831357925","0.4226663974","0.2865645246","0.4362936898","","","","","","","75","K","2","","","49","main_expt"
"328","","bandit","128","460744","0.0-89.0-0.0","42240460","wem/bandit_either","A2RRC5B4M80XXO","either","3","","","","","","","1","0","0","0.4001593617","","0.2","0.6","0.8","0.4","","","","","0.0896163698","0.3943232949","0.2842330123","0.4001593617","","","","","","","76","L","3","","","50","main_expt"
"573","","bandit","129","462849","0.0-90.0-0.0","42240460","wem/bandit_either","A2RRC5B4M80XXO","either","3","","","","","","","0","1","0","","0.3737598101","0.2","0.6","0.8","0.4","0.08239790895","0.3911898034","0.2933637591","0.3737598101","","","","","","","","","","","76","L","3","","","51","main_expt"
"549","","bandit","130","464932","0.0-91.0-0.0","42240460","wem/bandit_either","A2RRC5B4M80XXO","either","3","","","","","","","0","0","1","","0.3490564905","0.2","0.6","0.8","0.4","0.06509061927","0.3897106723","0.2802127762","0.3490564905","","","","","","","","","","","76","L","3","","","52","main_expt"
"516","","bandit","131","466982","0.0-92.0-0.0","42240460","wem/bandit_either","A2RRC5B4M80XXO","either","3","","","","","","","0","0","1","0.2567133084","","0.2","0.6","0.8","0.4","","","","","0.05503049918","0.3977919118","0.2567133084","0.3606416198","","","","","","","75","K","2","","","53","main_expt"
"1267","","bandit","132","469785","0.0-93.0-0.0","42240460","wem/bandit_either","A2RRC5B4M80XXO","either","3","","","","","","","0","0","1","","0.06606451817","0.2","0.6","0.8","0.4","0.06606451817","0.3803623479","0.304436262","0.3920172378","","","","","","","","","","","72","H","0","img/none_selected.jpg","","54","main_expt"
"453","","bandit","133","471777","0.0-94.0-0.0","42240460","wem/bandit_either","A2RRC5B4M80XXO","either","3","","","","","","","0","0","1","","0.3841867886","0.2","0.6","0.8","0.4","0.0812436444","0.3898030924","0.3050376594","0.3841867886","","","","","","","","","","","76","L","3","","","55","main_expt"
"519","","bandit","134","473846","0.0-95.0-0.0","42240460","wem/bandit_either","A2RRC5B4M80XXO","either","3","","","","","","","0","0","1","0.2874076515","","0.2","0.6","0.8","0.4","","","","","0.05752214818","0.4332266089","0.2874076515","0.3752679739","","","","","","","75","K","2","","","56","main_expt"
"208","","bandit","135","475582","0.0-96.0-0.0","42240460","wem/bandit_either","A2RRC5B4M80XXO","either","3","","","","","","","0","0","1","","0.05957573693","0.2","0.6","0.8","0.4","0.05957573693","0.4598680415","0.2633226407","0.3595388075","","","","","","","","","","","72","H","0","img/none_selected.jpg","","57","main_expt"
"396","","bandit","136","477506","0.0-97.0-0.0","42240460","wem/bandit_either","A2RRC5B4M80XXO","either","3","","","","","","","0","1","0","","0.4510058242","0.2","0.6","0.8","0.4","0.08347810371","0.4510058242","0.282557186","0.2926617498","","","","","","","","","","","74","J","1","","","58","main_expt"
"503","","bandit","137","479546","0.0-98.0-0.0","42240460","wem/bandit_either","A2RRC5B4M80XXO","either","3","","","","","","","0","0","1","0.4587464736","","0.2","0.6","0.8","0.4","","","","","0.1166757522","0.4587464736","0.2675679041","0.2854140482","","","","","","","74","J","1","","","59","main_expt"
"487","","bandit","138","481578","0.0-99.0-0.0","42240460","wem/bandit_either","A2RRC5B4M80XXO","either","3","","","","","","","0","0","1","0.1223048521","","0.2","0.6","0.8","0.4","","","","","0.1223048521","0.4534111386","0.2654645802","0.2767785787","","","","","","","72","H","0","img/none_selected.jpg","","60","main_expt"
"334","","bandit","139","483455","0.0-100.0-0.0","42240460","wem/bandit_either","A2RRC5B4M80XXO","either","3","","","","","","","0","1","0","","0.3110110239","0.2","0.6","0.8","0.4","0.1341525672","0.4581751116","0.2326588137","0.3110110239","","","","","","","","","","","76","L","3","","","61","main_expt"
"401","","bandit","140","485404","0.0-101.0-0.0","42240460","wem/bandit_either","A2RRC5B4M80XXO","either","3","","","","","","","1","0","0","0.2430345153","","0.2","0.6","0.8","0.4","","","","","0.1748443247","0.4447189615","0.2430345153","0.2739379344","","","","","","","75","K","2","","","62","main_expt"
"311","","bandit","141","487246","0.0-102.0-0.0","42240460","wem/bandit_either","A2RRC5B4M80XXO","either","3","","","","","","","0","0","1","","0.2518438402","0.2","0.6","0.8","0.4","0.1872250423","0.4351057758","0.2682261916","0.2518438402","","","","","","","","","","","76","L","3","","","63","main_expt"
"521","","bandit","142","489295","0.0-103.0-0.0","42240460","wem/bandit_either","A2RRC5B4M80XXO","either","3","","","","","","","0","0","1","0.3136585585","","0.2","0.6","0.8","0.4","","","","","0.1592276408","0.4559228662","0.3136585585","0.216118181","","","","","","","75","K","2","","","64","main_expt"
"603","","bandit","143","491443","0.0-104.0-0.0","42240460","wem/bandit_either","A2RRC5B4M80XXO","either","3","","","","","","","0","0","1","","0.4526438492","0.2","0.6","0.8","0.4","0.1881419285","0.4526438492","0.3208042698","0.1961712117","","","","","","","","","","","74","J","1","","","65","main_expt"
"520","","bandit","144","493508","0.0-105.0-0.0","42240460","wem/bandit_either","A2RRC5B4M80XXO","either","3","","","","","","","0","0","1","","0.1821057022","0.2","0.6","0.8","0.4","0.2075830042","0.4604690516","0.3550213758","0.1821057022","","","","","","","","","","","76","L","3","","","66","main_expt"
"1684","","bandit","145","496728","0.0-106.0-0.0","42240460","wem/bandit_either","A2RRC5B4M80XXO","either","3","","","","","","","0","1","0","","0.210321401","0.2","0.6","0.8","0.4","0.210321401","0.4479534522","0.2883445083","0.2221692745","","","","","","","","","","","72","H","0","img/none_selected.jpg","","67","main_expt"
"842","","bandit","146","499099","0.0-107.0-0.0","42240460","wem/bandit_either","A2RRC5B4M80XXO","either","3","","","","","","","0","0","1","0.4420076102","","0.2","0.6","0.8","0.4","","","","","0.1740681144","0.4420076102","0.2492112051","0.2385328342","","","","","","","74","J","1","","","68","main_expt"
"364","","bandit","147","501009","0.0-108.0-0.0","42240460","wem/bandit_either","A2RRC5B4M80XXO","either","3","","","","","","","0","0","1","0.1725364023","","0.2","0.6","0.8","0.4","","","","","0.1495678232","0.3840886122","0.1725364023","0.2693988132","","","","","","","75","K","2","","","69","main_expt"
"335","","bandit","148","502872","0.0-109.0-0.0","42240460","wem/bandit_either","A2RRC5B4M80XXO","either","3","","","","","","","0","0","1","","0.1594524764","0.2","0.6","0.8","0.4","0.1594524764","0.3764426572","0.2081322216","0.2633889128","","","","","","","","","","","72","H","0","img/none_selected.jpg","","70","main_expt"
"336","","bandit","149","504754","0.0-110.0-0.0","42240460","wem/bandit_either","A2RRC5B4M80XXO","either","3","","","","","","","0","0","1","","0.2881785301","0.2","0.6","0.8","0.4","0.1308665948","0.3925575972","0.2222096595","0.2881785301","","","","","","","","","","","76","L","3","","","71","main_expt"
"326","","bandit","150","506609","0.0-111.0-0.0","42240460","wem/bandit_either","A2RRC5B4M80XXO","either","3","","","","","","","0","0","1","0.2276413934","","0.2","0.6","0.8","0.4","","","","","0.1413665491","0.4055717031","0.2276413934","0.3496752211","","","","","","","75","K","2","","","72","main_expt"
"648","","bandit","151","508785","0.0-112.0-0.0","42240460","wem/bandit_either","A2RRC5B4M80XXO","either","3","","","","","","","0","0","1","","0.4313753627","0.2","0.6","0.8","0.4","0.1562096843","0.4313753627","0.202726327","0.3662649551","","","","","","","","","","","74","J","1","","","73","main_expt"
"264","","bandit","152","510579","0.0-113.0-0.0","42240460","wem/bandit_either","A2RRC5B4M80XXO","either","3","","","","","","","0","0","1","0.3318597218","","0.2","0.6","0.8","0.4","","","","","0.1601549975","0.4294283137","0.2465356434","0.3318597218","","","","","","","76","L","3","","","74","main_expt"
"459","","bandit","153","512559","0.0-114.0-0.0","42240460","wem/bandit_either","A2RRC5B4M80XXO","either","3","","","","","","","0","0","1","","0.2780880013","0.2","0.6","0.8","0.4","0.1962365409","0.4114775526","0.2780880013","0.3129946244","","","","","","","","","","","75","K","2","","","75","main_expt"
"349","","bandit","154","514444","0.0-115.0-0.0","42240460","wem/bandit_either","A2RRC5B4M80XXO","either","3","","","","","","","0","0","1","","0.2315068675","0.2","0.6","0.8","0.4","0.2315068675","0.4038916894","0.230570622","0.3299880354","","","","","","","","","","","72","H","0","img/none_selected.jpg","","76","main_expt"
"359","","bandit","155","516323","0.0-116.0-0.0","42240460","wem/bandit_either","A2RRC5B4M80XXO","either","3","","","","","","","0","1","0","","0.4028298088","0.2","0.6","0.8","0.4","0.1749603823","0.4028298088","0.1747897532","0.2704336052","","","","","","","","","","","74","J","1","","","77","main_expt"
"490","","bandit","156","518352","0.0-117.0-0.0","42240460","wem/bandit_either","A2RRC5B4M80XXO","either","3","","","","","","","0","0","1","","0.2091975686","0.2","0.6","0.8","0.4","0.2091975686","0.4004321452","0.2009150394","0.2489008917","","","","","","","","","","","72","H","0","img/none_selected.jpg","","78","main_expt"
"29","","bandit","157","519911","0.0-118.0-0.0","42240460","wem/bandit_either","A2RRC5B4M80XXO","either","3","","","","","","","0","0","1","","0.3909827091","0.2","0.6","0.8","0.4","0.2699334682","0.3909827091","0.2090883318","0.2182462247","","","","","","","","","","","74","J","1","","","79","main_expt"
"533","","bandit","158","521994","0.0-119.0-0.0","42240460","wem/bandit_either","A2RRC5B4M80XXO","either","3","","","","","","","0","0","1","0.215522018","","0.2","0.6","0.8","0.4","","","","","0.2712134299","0.4289339141","0.215522018","0.1591694045","","","","","","","75","K","2","","","80","main_expt"
"329","","bandit","159","523880","0.0-120.0-0.0","42240460","wem/bandit_either","A2RRC5B4M80XXO","either","3","","","","","","","0","1","0","","0.1661146317","0.2","0.6","0.8","0.4","0.2563236188","0.4256341571","0.2655955182","0.1661146317","","","","","","","","","","","76","L","3","","","81","main_expt"
"430","","bandit","160","525850","0.0-121.0-0.0","42240460","wem/bandit_either","A2RRC5B4M80XXO","either","3","","","","","","","0","0","1","","0.2249160828","0.2","0.6","0.8","0.4","0.2474856626","0.4153375647","0.2642342948","0.2249160828","","","","","","","","","","","76","L","3","","","82","main_expt"
"389","","bandit","161","527776","0.0-122.0-0.0","42240460","wem/bandit_either","A2RRC5B4M80XXO","either","3","","","","","","","0","0","1","0.4239102097","","0.2","0.6","0.8","0.4","","","","","0.2338037125","0.4239102097","0.2615040017","0.2194800234","","","","","","","74","J","1","","","83","main_expt"
"520","","bandit","162","529829","0.0-123.0-0.0","42240460","wem/bandit_either","A2RRC5B4M80XXO","either","3","","","","","","","0","0","1","0.4021041833","","0.2","0.6","0.8","0.4","","","","","0.2929655049","0.4021041833","0.3136368113","0.2020024956","","","","","","","74","J","1","","","84","main_expt"
"469","","bandit","163","531842","0.0-124.0-0.0","42240460","wem/bandit_either","A2RRC5B4M80XXO","either","3","","","","","","","0","0","1","","0.1639230135","0.2","0.6","0.8","0.4","0.2755572306","0.4322374594","0.2433538552","0.1639230135","","","","","","","","","","","76","L","3","","","85","main_expt"
"1980","","bandit","164","535375","0.0-125.0-0.0","42240460","wem/bandit_either","A2RRC5B4M80XXO","either","3","","","","","","","0","0","1","","0.2706615249","0.2","0.6","0.8","0.4","0.2706615249","0.4247618508","0.2583740773","0.1423092638","","","","","","","","","","","72","H","0","img/none_selected.jpg","","86","main_expt"
"364","","bandit","165","537275","0.0-126.0-0.0","42240460","wem/bandit_either","A2RRC5B4M80XXO","either","3","","","","","","","1","0","0","0.2656778135","","0.2","0.6","0.8","0.4","","","","","0.3259805539","0.4130492334","0.2656778135","0.1623313408","","","","","","","75","K","2","","","87","main_expt"
"569","","bandit","166","539392","0.0-127.0-0.0","42240460","wem/bandit_either","A2RRC5B4M80XXO","either","3","","","","","","","0","0","1","0.1459946163","","0.2","0.6","0.8","0.4","","","","","0.3471137027","0.3883747858","0.2565525481","0.1459946163","","","","","","","76","L","3","","","88","main_expt"
"876","","bandit","167","541809","0.0-128.0-0.0","42240460","wem/bandit_either","A2RRC5B4M80XXO","either","3","","","","","","","0","0","1","0.3950807547","","0.2","0.6","0.8","0.4","","","","","0.3715311126","0.3950807547","0.2471999074","0.1684807643","","","","","","","74","J","1","","","89","main_expt"
"816","","bandit","168","544174","0.0-129.0-0.0","42240460","wem/bandit_either","A2RRC5B4M80XXO","either","3","","","","","","","0","0","1","","0.2204199549","0.2","0.6","0.8","0.4","0.3571728809","0.420982679","0.2204199549","0.1937692241","","","","","","","","","","","75","K","2","","","90","main_expt"
"335","","bandit","169","546049","0.0-130.0-0.0","42240460","wem/bandit_either","A2RRC5B4M80XXO","either","3","","","","","","","0","0","1","","0.1670397906","0.2","0.6","0.8","0.4","0.3348642023","0.4012606491","0.2013548925","0.1670397906","","","","","","","","","","","76","L","3","","","91","main_expt"
"340","","bandit","170","547940","0.0-131.0-0.0","42240460","wem/bandit_either","A2RRC5B4M80XXO","either","3","","","","","","","0","0","1","0.174921714","","0.2","0.6","0.8","0.4","","","","","0.3551195155","0.3950870333","0.174921714","0.1936095216","","","","","","","75","K","2","","","92","main_expt"
"298","","bandit","171","549794","0.0-132.0-0.0","42240460","wem/bandit_either","A2RRC5B4M80XXO","either","3","","","","","","","0","0","1","0.2399824117","","0.2","0.6","0.8","0.4","","","","","0.3494458231","0.3797372222","0.1972058505","0.2399824117","","","","","","","76","L","3","","","93","main_expt"
"441","","bandit","172","551763","0.0-133.0-0.0","42240460","wem/bandit_either","A2RRC5B4M80XXO","either","3","","","","","","","0","0","1","0.2144007407","","0.2","0.6","0.8","0.4","","","","","0.3759818745","0.3346339076","0.2144007407","0.242536602","","","","","","","75","K","2","","","94","main_expt"
"705","","bandit","173","554001","0.0-134.0-0.0","42240460","wem/bandit_either","A2RRC5B4M80XXO","either","3","","","","","","","0","1","0","","0.3467088588","0.2","0.6","0.8","0.4","0.3467088588","0.3433005441","0.2025691914","0.3081296623","","","","","","","","","","","72","H","0","img/none_selected.jpg","","95","main_expt"
"757","","bandit","174","556291","0.0-135.0-0.0","42240460","wem/bandit_either","A2RRC5B4M80XXO","either","3","","","","","","","0","0","1","0.1750118246","","0.2","0.6","0.8","0.4","","","","","0.3520186383","0.2900415689","0.1750118246","0.371766452","","","","","","","75","K","2","","","96","main_expt"
"2871","","bandit","175","560723","0.0-136.0-0.0","42240460","wem/bandit_either","A2RRC5B4M80XXO","either","3","","","","","","","0","0","1","0.3136050561","","0.2","0.6","0.8","0.4","","","","","0.342216001","0.3136050561","0.2433812568","0.3737721809","","","","","","","74","J","1","","","97","main_expt"
"560","","bandit","176","562824","0.0-137.0-0.0","42240460","wem/bandit_either","A2RRC5B4M80XXO","either","3","","","","","","","0","0","1","0.3775958225","","0.2","0.6","0.8","0.4","","","","","0.3775958225","0.3236610102","0.1834100281","0.3662625892","","","","","","","72","H","0","img/none_selected.jpg","","98","main_expt"
"380","","bandit","177","564747","0.0-138.0-0.0","42240460","wem/bandit_either","A2RRC5B4M80XXO","either","3","","","","","","","0","0","1","","0.3912879072","0.2","0.6","0.8","0.4","0.3490624926","0.3116662608","0.146161558","0.3912879072","","","","","","","","","","","76","L","3","","","99","main_expt"
"373","","bandit","178","566661","0.0-139.0-0.0","42240460","wem/bandit_either","A2RRC5B4M80XXO","either","3","","","","","","","0","0","1","","0.1186266926","0.2","0.6","0.8","0.4","0.3418910903","0.3806420769","0.1186266926","0.3916888764","","","","","","","","","","","75","K","2","","","100","main_expt"
"298","","bandit","179","568501","0.0-140.0-0.0","42240460","wem/bandit_either","A2RRC5B4M80XXO","either","3","","","","","","","0","0","1","","0.3825052475","0.2","0.6","0.8","0.4","0.3544055354","0.3825052475","0.1467879228","0.3803758031","","","","","","","","","","","74","J","1","","","101","main_expt"
"350","","bandit","180","570378","0.0-141.0-0.0","42240460","wem/bandit_either","A2RRC5B4M80XXO","either","3","","","","","","","0","1","0","","0.3799327693","0.2","0.6","0.8","0.4","0.3580864163","0.3799327693","0.1336514036","0.3685266224","","","","","","","","","","","74","J","1","","","102","main_expt"
"679","","bandit","181","572576","0.0-142.0-0.0","42240460","wem/bandit_either","A2RRC5B4M80XXO","either","3","","","","","","","0","0","1","","0.336528594","0.2","0.6","0.8","0.4","0.336528594","0.3502018886","0.1325092095","0.3754978655","","","","","","","","","","","72","H","0","img/none_selected.jpg","","103","main_expt"
"2228","","bandit","182","576350","0.0-143.0-0.0","42240460","wem/bandit_either","A2RRC5B4M80XXO","either","3","","","","","","","1","0","0","0.1162839287","","0.2","0.6","0.8","0.4","","","","","0.3190078166","0.3443431466","0.1162839287","0.4033056484","","","","","","","75","K","2","","","104","main_expt"
"1823","","bandit","183","579723","0.0-144.0-0.0","42240460","wem/bandit_either","A2RRC5B4M80XXO","either","3","","","","","","","0","0","1","","0.3617388181","0.2","0.6","0.8","0.4","0.3100940773","0.3551378046","0.115620258","0.3617388181","","","","","","","","","","","76","L","3","","","105","main_expt"
"410","","bandit","184","581676","0.0-145.0-0.0","42240460","wem/bandit_either","A2RRC5B4M80XXO","either","3","","","","","","","0","0","1","0.1102569517","","0.2","0.6","0.8","0.4","","","","","0.2964842485","0.3177956882","0.1102569517","0.3656875331","","","","","","","75","K","2","","","106","main_expt"
"284","","bandit","185","583489","0.0-146.0-0.0","42240460","wem/bandit_either","A2RRC5B4M80XXO","either","3","","","","","","","0","0","1","","0.3463124521","0.2","0.6","0.8","0.4","0.3224579283","0.3463124521","0.110599846","0.3478183852","","","","","","","","","","","74","J","1","","","107","main_expt"
"473","","bandit","186","585501","0.0-147.0-0.0","42240460","wem/bandit_either","A2RRC5B4M80XXO","either","3","","","","","","","1","0","0","0.1647947233","","0.2","0.6","0.8","0.4","","","","","0.3365568187","0.330790185","0.1647947233","0.3715517583","","","","","","","75","K","2","","","108","main_expt"
"292","","bandit","187","587335","0.0-148.0-0.0","42240460","wem/bandit_either","A2RRC5B4M80XXO","either","3","","","","","","","0","1","0","","0.3200824859","0.2","0.6","0.8","0.4","0.3200824859","0.3259779601","0.146095753","0.3713851569","","","","","","","","","","","72","H","0","img/none_selected.jpg","","109","main_expt"
"862","","bandit","188","589753","0.0-149.0-0.0","42240460","wem/bandit_either","A2RRC5B4M80XXO","either","3","","","","","","","0","0","1","0.1691954855","","0.2","0.6","0.8","0.4","","","","","0.3179471713","0.3169053314","0.1691954855","0.3401672382","","","","","","","75","K","2","","","110","main_expt"
"523","","bandit","189","591826","0.0-150.0-0.0","42240460","wem/bandit_either","A2RRC5B4M80XXO","either","3","","","","","","","0","0","1","","0.3168158386","0.2","0.6","0.8","0.4","0.3168158386","0.342138516","0.1690298198","0.3242328008","","","","","","","","","","","72","H","0","img/none_selected.jpg","","111","main_expt"
"344","","bandit","190","593725","0.0-151.0-0.0","42240460","wem/bandit_either","A2RRC5B4M80XXO","either","3","","","","","","","0","0","1","","0.2991119965","0.2","0.6","0.8","0.4","0.3551606626","0.3597886873","0.2196992501","0.2991119965","","","","","","","","","","","76","L","3","","","112","main_expt"
"314","","bandit","191","595576","0.0-152.0-0.0","42240460","wem/bandit_either","A2RRC5B4M80XXO","either","3","","","","","","","0","0","1","0.3580549124","","0.2","0.6","0.8","0.4","","","","","0.3615444015","0.3580549124","0.2723467559","0.3364281798","","","","","","","74","J","1","","","113","main_expt"
"235","","bandit","192","597361","0.0-153.0-0.0","42240460","wem/bandit_either","A2RRC5B4M80XXO","either","3","","","","","","","0","1","0","","0.2470985199","0.2","0.6","0.8","0.4","0.4043222556","0.3556181037","0.2470985199","0.3495122724","","","","","","","","","","","75","K","2","","","114","main_expt"
"360","","bandit","193","599258","0.0-154.0-0.0","42240460","wem/bandit_either","A2RRC5B4M80XXO","either","3","","","","","","","0","0","1","","0.4179696435","0.2","0.6","0.8","0.4","0.4179696435","0.3489042174","0.2482590513","0.324938203","","","","","","","","","","","72","H","0","img/none_selected.jpg","","115","main_expt"
"142","","bandit","194","600940","0.0-155.0-0.0","42240460","wem/bandit_either","A2RRC5B4M80XXO","either","3","","","","","","","1","0","0","0.3466245191","","0.2","0.6","0.8","0.4","","","","","0.4324393975","0.3466245191","0.1992012358","0.3227512736","","","","","","","74","J","1","","","116","main_expt"
"376","","bandit","195","602850","0.0-156.0-0.0","42240460","wem/bandit_either","A2RRC5B4M80XXO","either","3","","","","","","","1","0","0","0.216355905","","0.2","0.6","0.8","0.4","","","","","0.4290779421","0.3581754781","0.216355905","0.2585209305","","","","","","","75","K","2","","","117","main_expt"
"384","","bandit","196","604768","0.0-157.0-0.0","42240460","wem/bandit_either","A2RRC5B4M80XXO","either","3","","","","","","","0","0","1","0.2817260076","","0.2","0.6","0.8","0.4","","","","","0.4459264202","0.283939031","0.1715453935","0.2817260076","","","","","","","76","L","3","","","118","main_expt"
"1697","","bandit","197","607999","0.0-158.0-0.0","42240460","wem/bandit_either","A2RRC5B4M80XXO","either","3","","","","","","","0","0","1","0.2992634423","","0.2","0.6","0.8","0.4","","","","","0.436995295","0.2992634423","0.1843456939","0.328214026","","","","","","","74","J","1","","","119","main_expt"
"603","","bandit","198","610125","0.0-159.0-0.0","42240460","wem/bandit_either","A2RRC5B4M80XXO","either","3","","","","","","","0","1","0","","0.4151314625","0.2","0.6","0.8","0.4","0.4151314625","0.1878150733","0.1848061615","0.3355603121","","","","","","","","","","","72","H","0","img/none_selected.jpg","","120","main_expt"
"332","","bandit","199","611991","0.0-160.0-0.0","42240460","wem/bandit_either","A2RRC5B4M80XXO","either","3","","","","","","","0","0","1","","0.1679578636","0.2","0.6","0.8","0.4","0.4384064527","0.1447458933","0.1679578636","0.3829587724","","","","","","","","","","","75","K","2","","","121","main_expt"
"690","","bandit","200","614225","0.0-161.0-0.0","42240460","wem/bandit_either","A2RRC5B4M80XXO","either","3","","","","","","","0","0","1","0.197295971","","0.2","0.6","0.8","0.4","","","","","0.4417589501","0.1176060398","0.197295971","0.3995678287","","","","","","","75","K","2","","","122","main_expt"
"345","","bandit","201","616109","0.0-162.0-0.0","42240460","wem/bandit_either","A2RRC5B4M80XXO","either","3","","","","","","","0","0","1","","0.3656739583","0.2","0.6","0.8","0.4","0.4017154396","0.1097677055","0.2184653352","0.3656739583","","","","","","","","","","","76","L","3","","","123","main_expt"
"613","","bandit","202","618268","0.0-163.0-0.0","42240460","wem/bandit_either","A2RRC5B4M80XXO","either","3","","","","","","","0","0","1","","0.08048168986","0.2","0.6","0.8","0.4","0.3619070526","0.08048168986","0.2147868977","0.3862549257","","","","","","","","","","","74","J","1","","","124","main_expt"
"920","","bandit","203","620737","0.0-164.0-0.0","42240460","wem/bandit_either","A2RRC5B4M80XXO","either","3","","","","","","","0","0","1","","0.1667936559","0.2","0.6","0.8","0.4","0.3567490645","0.07842900555","0.1667936559","0.3593796239","","","","","","","","","","","75","K","2","","","125","main_expt"
"1206","","bandit","204","623499","0.0-165.0-0.0","42240460","wem/bandit_either","A2RRC5B4M80XXO","either","3","","","","","","","0","0","1","0.1453295256","","0.2","0.6","0.8","0.4","","","","","0.3558473019","0.08318363027","0.1453295256","0.3413194209","","","","","","","75","K","2","","","126","main_expt"
"740","","bandit","205","625775","0.0-166.0-0.0","42240460","wem/bandit_either","A2RRC5B4M80XXO","either","3","","","","","","","0","0","1","","0.3369929262","0.2","0.6","0.8","0.4","0.3543069734","0.06812438963","0.1635755653","0.3369929262","","","","","","","","","","","76","L","3","","","127","main_expt"
"2718","","bandit","206","630042","0.0-167.0-0.0","42240460","wem/bandit_either","A2RRC5B4M80XXO","either","3","","","","","","","0","0","1","0.3328374851","","0.2","0.6","0.8","0.4","","","","","0.3328374851","0.08303766286","0.1872639566","0.2922989636","","","","","","","72","H","0","img/none_selected.jpg","","128","main_expt"
"915","","bandit","207","632491","0.0-168.0-0.0","42240460","wem/bandit_either","A2RRC5B4M80XXO","either","3","","","","","","","0","0","1","","0.09047360051","0.2","0.6","0.8","0.4","0.3238683282","0.09047360051","0.2032718864","0.3095146075","","","","","","","","","","","74","J","1","","","129","main_expt"
"436","","bandit","208","634458","0.0-169.0-0.0","42240460","wem/bandit_either","A2RRC5B4M80XXO","either","3","","","","","","","0","0","1","0.2025864764","","0.2","0.6","0.8","0.4","","","","","0.2750329062","0.131542256","0.2025864764","0.3068425872","","","","","","","75","K","2","","","130","main_expt"
"476","","bandit","209","636482","0.0-170.0-0.0","42240460","wem/bandit_either","A2RRC5B4M80XXO","either","3","","","","","","","0","1","0","","0.3112504131","0.2","0.6","0.8","0.4","0.2751886228","0.1492019489","0.2158584071","0.3112504131","","","","","","","","","","","76","L","3","","","131","main_expt"
"392","","bandit","210","638414","0.0-171.0-0.0","42240460","wem/bandit_either","A2RRC5B4M80XXO","either","3","","","","","","","0","0","1","","0.2105840197","0.2","0.6","0.8","0.4","0.2729729886","0.1571188116","0.2105840197","0.3595653039","","","","","","","","","","","75","K","2","","","132","main_expt"
"747","","bandit","211","640704","0.0-172.0-0.0","42240460","wem/bandit_either","A2RRC5B4M80XXO","either","3","","","","","","","0","0","1","0.2021073832","","0.2","0.6","0.8","0.4","","","","","0.3248088544","0.2021073832","0.2328486735","0.3873527377","","","","","","","74","J","1","","","133","main_expt"
"441","","bandit","212","642695","0.0-173.0-0.0","42240460","wem/bandit_either","A2RRC5B4M80XXO","either","3","","","","","","","0","0","1","0.2589092944","","0.2","0.6","0.8","0.4","","","","","0.3596446835","0.2693148074","0.2589092944","0.3973884711","","","","","","","75","K","2","","","134","main_expt"
"5984","","bandit","213","650227","0.0-174.0-0.0","42240460","wem/bandit_either","A2RRC5B4M80XXO","either","3","","","","","","","0","0","1","","0.2625780805","0.2","0.6","0.8","0.4","0.318377279","0.2625780805","0.2637326353","0.4080523157","","","","","","","","","","","74","J","1","","","135","main_expt"
"3453","","bandit","214","655221","0.0-175.0-0.0","42240460","wem/bandit_either","A2RRC5B4M80XXO","either","3","","","","","","","0","0","1","","0.2718680576","0.2","0.6","0.8","0.4","0.3160887017","0.2981707722","0.2718680576","0.4176503084","","","","","","","","","","","75","K","2","","","136","main_expt"
"343","","bandit","215","657095","0.0-176.0-0.0","42240460","wem/bandit_either","A2RRC5B4M80XXO","either","3","","","","","","","0","0","1","0.3859803947","","0.2","0.6","0.8","0.4","","","","","0.2883225013","0.3148158286","0.2919957672","0.3859803947","","","","","","","76","L","3","","","137","main_expt"
"386","","bandit","216","659035","0.0-177.0-0.0","42240460","wem/bandit_either","A2RRC5B4M80XXO","either","3","","","","","","","0","0","1","0.3193993407","","0.2","0.6","0.8","0.4","","","","","0.3009152141","0.3111523267","0.3193993407","0.358492916","","","","","","","75","K","2","","","138","main_expt"
"613","","bandit","217","661175","0.0-178.0-0.0","42240460","wem/bandit_either","A2RRC5B4M80XXO","either","3","","","","","","","0","0","1","0.293720077","","0.2","0.6","0.8","0.4","","","","","0.293720077","0.3034593298","0.3404434035","0.3608756281","","","","","","","72","H","0","img/none_selected.jpg","","139","main_expt"
"502","","bandit","218","663220","0.0-179.0-0.0","42240460","wem/bandit_either","A2RRC5B4M80XXO","either","3","","","","","","","0","0","1","0.3278052243","","0.2","0.6","0.8","0.4","","","","","0.286059761","0.2507495005","0.3278052243","0.3421836092","","","","","","","75","K","2","","","140","main_expt"
"614","","bandit","219","665389","0.0-180.0-0.0","42240460","wem/bandit_either","A2RRC5B4M80XXO","either","3","","","","","","","0","0","1","0.2220694513","","0.2","0.6","0.8","0.4","","","","","0.2931724706","0.2220694513","0.3038906839","0.3737340371","","","","","","","74","J","1","","","141","main_expt"
"96","","bandit","220","667035","0.0-181.0-0.0","42240460","wem/bandit_either","A2RRC5B4M80XXO","either","3","","","","","","","1","0","0","0.3461121542","","0.2","0.6","0.8","0.4","","","","","0.2182180164","0.2119249064","0.2924195757","0.3461121542","","","","","","","76","L","3","","","142","main_expt"
"349","","bandit","221","668934","0.0-182.0-0.0","42240460","wem/bandit_either","A2RRC5B4M80XXO","either","3","","","","","","","0","0","1","","0.2816149275","0.2","0.6","0.8","0.4","0.2015475508","0.2665135591","0.2816149275","0.3305931074","","","","","","","","","","","75","K","2","","","143","main_expt"
"347","","bandit","222","670819","0.0-183.0-0.0","42240460","wem/bandit_either","A2RRC5B4M80XXO","either","3","","","","","","","0","0","1","0.3561039987","","0.2","0.6","0.8","0.4","","","","","0.2074070562","0.2854155153","0.2355525614","0.3561039987","","","","","","","76","L","3","","","144","main_expt"
"1098","","bandit","223","673458","0.0-184.0-0.0","42240460","wem/bandit_either","A2RRC5B4M80XXO","either","3","","","","","","","1","0","0","0.1415368311","","0.2","0.6","0.8","0.4","","","","","0.1415368311","0.2521048148","0.2185662272","0.3648023512","","","","","","","72","H","0","img/none_selected.jpg","","145","main_expt"
"266","","bandit","224","675270","0.0-185.0-0.0","42240460","wem/bandit_either","A2RRC5B4M80XXO","either","3","","","","","","","0","0","1","","0.3450315","0.2","0.6","0.8","0.4","0.1549520657","0.2321266643","0.2209315791","0.3450315","","","","","","","","","","","76","L","3","","","146","main_expt"
"517","","bandit","225","677329","0.0-186.0-0.0","42240460","wem/bandit_either","A2RRC5B4M80XXO","either","3","","","","","","","1","0","0","0.2889766311","","0.2","0.6","0.8","0.4","","","","","0.1469310363","0.3159383216","0.2889766311","0.2720321141","","","","","","","75","K","2","","","147","main_expt"
"481","","bandit","226","679353","0.0-187.0-0.0","42240460","wem/bandit_either","A2RRC5B4M80XXO","either","3","","","","","","","0","0","1","0.2673485129","","0.2","0.6","0.8","0.4","","","","","0.1332828417","0.2673485129","0.2859466156","0.2598972664","","","","","","","74","J","1","","","148","main_expt"
"1921","","bandit","227","682835","0.0-188.0-0.0","42240460","wem/bandit_either","A2RRC5B4M80XXO","either","3","","","","","","","0","0","1","","0.1102010463","0.2","0.6","0.8","0.4","0.1102010463","0.3348600541","0.2588478233","0.2343157719","","","","","","","","","","","72","H","0","img/none_selected.jpg","","149","main_expt"
"973","","bandit","228","685337","0.0-189.0-0.0","42240460","wem/bandit_either","A2RRC5B4M80XXO","either","3","","","","","","","0","0","1","0.2224653457","","0.2","0.6","0.8","0.4","","","","","0.1356103494","0.3659656834","0.2224653457","0.2451363599","","","","","","","75","K","2","","","150","main_expt"
"751","","bandit","229","687631","0.0-190.0-0.0","42240460","wem/bandit_either","A2RRC5B4M80XXO","either","3","","","","","","","0","1","0","","0.2387237716","0.2","0.6","0.8","0.4","0.1621229287","0.36397653","0.2387237716","0.2053737132","","","","","","","","","","","75","K","2","","","151","main_expt"
"273","","bandit","230","689446","0.0-191.0-0.0","42240460","wem/bandit_either","A2RRC5B4M80XXO","either","3","","","","","","","0","0","1","","0.2396242378","0.2","0.6","0.8","0.4","0.1412745606","0.3710672623","0.2519133504","0.2396242378","","","","","","","","","","","76","L","3","","","152","main_expt"
"300","","bandit","231","691302","0.0-192.0-0.0","42240460","wem/bandit_either","A2RRC5B4M80XXO","either","3","","","","","","","0","0","1","","0.3828607765","0.2","0.6","0.8","0.4","0.1707580034","0.3828607765","0.3078499427","0.2923277395","","","","","","","","","","","74","J","1","","","153","main_expt"
"397","","bandit","232","693252","0.0-193.0-0.0","42240460","wem/bandit_either","A2RRC5B4M80XXO","either","3","","","","","","","0","0","1","0.1717455462","","0.2","0.6","0.8","0.4","","","","","0.1717455462","0.3526468527","0.3283820497","0.3166515581","","","","","","","72","H","0","img/none_selected.jpg","","154","main_expt"
"248","","bandit","233","695038","0.0-194.0-0.0","42240460","wem/bandit_either","A2RRC5B4M80XXO","either","3","","","","","","","0","0","1","0.3303057687","","0.2","0.6","0.8","0.4","","","","","0.1785539081","0.3865981945","0.3303057687","0.3194616596","","","","","","","75","K","2","","","155","main_expt"
"298","","bandit","234","696886","0.0-195.0-0.0","42240460","wem/bandit_either","A2RRC5B4M80XXO","either","3","","","","","","","1","0","0","0.3767011333","","0.2","0.6","0.8","0.4","","","","","0.2175815231","0.4328422877","0.3178912443","0.3767011333","","","","","","","76","L","3","","","156","main_expt"
"612","","bandit","235","699048","0.0-196.0-0.0","42240460","wem/bandit_either","A2RRC5B4M80XXO","either","3","","","","","","","1","0","0","0.3853144204","","0.2","0.6","0.8","0.4","","","","","0.216674397","0.4224906378","0.3236874272","0.3853144204","","","","","","","76","L","3","","","157","main_expt"
"716","","bandit","236","701316","0.0-197.0-0.0","42240460","wem/bandit_either","A2RRC5B4M80XXO","either","3","","","","","","","0","1","0","","0.3731337511","0.2","0.6","0.8","0.4","0.2184316938","0.4428847078","0.3731337511","0.3519128793","","","","","","","","","","","75","K","2","","","158","main_expt"
"450","","bandit","237","703313","0.0-198.0-0.0","42240460","wem/bandit_either","A2RRC5B4M80XXO","either","3","","","","","","","1","0","0","0.4498083842","","0.2","0.6","0.8","0.4","","","","","0.2603966468","0.4498083842","0.3758107074","0.3255157266","","","","","","","74","J","1","","","159","main_expt"
"433","","bandit","238","705283","0.0-199.0-0.0","42240460","wem/bandit_either","A2RRC5B4M80XXO","either","3","","","","","","","0","0","1","0.3494215766","","0.2","0.6","0.8","0.4","","","","","0.2242017374","0.4319550234","0.3494215766","0.379238532","","","","","","","75","K","2","","","160","main_expt"
"111","","bandit","239","706951","0.0-200.0-0.0","42240460","wem/bandit_either","A2RRC5B4M80XXO","either","3","","","","","","","0","0","1","","0.2014027125","0.2","0.6","0.8","0.4","0.2014027125","0.4417514389","0.3327111917","0.3776335756","","","","","","","","","","","72","H","0","img/none_selected.jpg","","161","main_expt"
"330","","bandit","240","708833","0.0-201.0-0.0","42240460","wem/bandit_either","A2RRC5B4M80XXO","either","3","","","","","","","0","1","0","","0.4081293495","0.2","0.6","0.8","0.4","0.2038621466","0.4081293495","0.3171011618","0.2955751891","","","","","","","","","","","74","J","1","","","162","main_expt"
"471","","bandit","241","710852","0.0-202.0-0.0","42240460","wem/bandit_either","A2RRC5B4M80XXO","either","3","","","","","","","0","1","0","","0.30851492","0.2","0.6","0.8","0.4","0.1238136799","0.4265776113","0.364183239","0.30851492","","","","","","","","","","","76","L","3","","","163","main_expt"
"286","","bandit","242","712679","0.0-203.0-0.0","42240460","wem/bandit_either","A2RRC5B4M80XXO","either","3","","","","","","","0","0","1","0.3917374524","","0.2","0.6","0.8","0.4","","","","","0.1104941302","0.427472809","0.3917374524","0.3074756362","","","","","","","75","K","2","","","164","main_expt"
"351","","bandit","243","714571","0.0-204.0-0.0","42240460","wem/bandit_either","A2RRC5B4M80XXO","either","3","","","","","","","0","0","1","0.4016343469","","0.2","0.6","0.8","0.4","","","","","0.1099358877","0.4016343469","0.3629360172","0.2743039079","","","","","","","74","J","1","","","165","main_expt"
"2058","","bandit","244","718170","0.0-205.0-0.0","42240460","wem/bandit_either","A2RRC5B4M80XXO","either","3","","","","","","","0","0","1","0.3578169927","","0.2","0.6","0.8","0.4","","","","","0.08082918558","0.3578169927","0.3697042915","0.2900226329","","","","","","","74","J","1","","","166","main_expt"
"829","","bandit","245","720536","0.0-206.0-0.0","42240460","wem/bandit_either","A2RRC5B4M80XXO","either","3","","","","","","","0","1","0","","0.3626443337","0.2","0.6","0.8","0.4","0.08539074978","0.3346076013","0.3626443337","0.3444017494","","","","","","","","","","","75","K","2","","","167","main_expt"
"295","","bandit","246","722375","0.0-207.0-0.0","42240460","wem/bandit_either","A2RRC5B4M80XXO","either","3","","","","","","","1","0","0","0.3934904689","","0.2","0.6","0.8","0.4","","","","","0.1307687804","0.36326211","0.3488380128","0.3934904689","","","","","","","76","L","3","","","168","main_expt"
"345","","bandit","247","724256","0.0-208.0-0.0","42240460","wem/bandit_either","A2RRC5B4M80XXO","either","3","","","","","","","1","0","0","0.3338465455","","0.2","0.6","0.8","0.4","","","","","0.09435724838","0.3389060657","0.3338465455","0.3712778229","","","","","","","75","K","2","","","169","main_expt"
"594","","bandit","248","726389","0.0-209.0-0.0","42240460","wem/bandit_either","A2RRC5B4M80XXO","either","3","","","","","","","0","0","1","0.3348119161","","0.2","0.6","0.8","0.4","","","","","0.09371103674","0.3820287301","0.3675902536","0.3348119161","","","","","","","76","L","3","","","170","main_expt"
"1137","","bandit","249","729067","0.0-210.0-0.0","42240460","wem/bandit_either","A2RRC5B4M80XXO","either","3","","","","","","","0","0","1","0.3738350687","","0.2","0.6","0.8","0.4","","","","","0.0912992704","0.3738350687","0.3663425941","0.3697689907","","","","","","","74","J","1","","","171","main_expt"
"361","","bandit","250","730978","0.0-211.0-0.0","42240460","wem/bandit_either","A2RRC5B4M80XXO","either","3","","","","","","","1","0","0","0.3571019768","","0.2","0.6","0.8","0.4","","","","","0.1053216192","0.3449486646","0.3571019768","0.3438364448","","","","","","","75","K","2","","","172","main_expt"
"381","","bandit","251","732898","0.0-212.0-0.0","42240460","wem/bandit_either","A2RRC5B4M80XXO","either","3","","","","","","","0","0","1","0.383943734","","0.2","0.6","0.8","0.4","","","","","0.1119971747","0.3754463001","0.383943734","0.4064517123","","","","","","","75","K","2","","","173","main_expt"
"624","","bandit","252","735067","0.0-213.0-0.0","42240460","wem/bandit_either","A2RRC5B4M80XXO","either","3","","","","","","","0","0","1","","0.4266345201","0.2","0.6","0.8","0.4","0.1049574405","0.3983783957","0.378453819","0.4266345201","","","","","","","","","","","76","L","3","","","174","main_expt"
"342","","bandit","253","736940","0.0-214.0-0.0","42240460","wem/bandit_either","A2RRC5B4M80XXO","either","3","","","","","","","1","0","0","0.3577460836","","0.2","0.6","0.8","0.4","","","","","0.07351671593","0.4176958341","0.3577460836","0.4413212306","","","","","","","75","K","2","","","175","main_expt"
"325","","bandit","254","738805","0.0-215.0-0.0","42240460","wem/bandit_either","A2RRC5B4M80XXO","either","3","","","","","","","0","0","1","0.438548454","","0.2","0.6","0.8","0.4","","","","","0.06097876817","0.4336280271","0.3346789668","0.438548454","","","","","","","76","L","3","","","176","main_expt"
"465","","bandit","255","740834","0.0-216.0-0.0","42240460","wem/bandit_either","A2RRC5B4M80XXO","either","3","","","","","","","0","0","1","0.3720341948","","0.2","0.6","0.8","0.4","","","","","0.05873143133","0.3863917124","0.3720341948","0.4350726265","","","","","","","75","K","2","","","177","main_expt"
"562","","bandit","256","742943","0.0-217.0-0.0","42240460","wem/bandit_either","A2RRC5B4M80XXO","either","3","","","","","","","0","0","1","","0.07829718294","0.2","0.6","0.8","0.4","0.07829718294","0.3826512014","0.4243236705","0.4029859975","","","","","","","","","","","72","H","0","img/none_selected.jpg","","178","main_expt"
"336","","bandit","257","744807","0.0-218.0-0.0","42240460","wem/bandit_either","A2RRC5B4M80XXO","either","3","","","","","","","0","0","1","0.3681046487","","0.2","0.6","0.8","0.4","","","","","0.05868413977","0.3681046487","0.4396564102","0.3738585124","","","","","","","74","J","1","","","179","main_expt"
"527","","bandit","258","746875","0.0-219.0-0.0","42240460","wem/bandit_either","A2RRC5B4M80XXO","either","3","","","","","","","0","1","0","","0.3884150149","0.2","0.6","0.8","0.4","0.04540529238","0.374340785","0.4501825932","0.3884150149","","","","","","","","","","","76","L","3","","","180","main_expt"
"351","","bandit","259","748757","0.0-220.0-0.0","42240460","wem/bandit_either","A2RRC5B4M80XXO","either","3","","","","","","","0","0","1","0.4527537228","","0.2","0.6","0.8","0.4","","","","","0.04810206047","0.3844034803","0.4527537228","0.3977335033","","","","","","","75","K","2","","","181","main_expt"
"337","","bandit","260","750631","0.0-221.0-0.0","42240460","wem/bandit_either","A2RRC5B4M80XXO","either","3","","","","","","","0","0","1","","0.4194204302","0.2","0.6","0.8","0.4","0.0564969073","0.3569363444","0.4733821952","0.4194204302","","","","","","","","","","","76","L","3","","","182","main_expt"
"332","","bandit","261","752507","0.0-222.0-0.0","42240460","wem/bandit_either","A2RRC5B4M80XXO","either","3","","","","","","","1","0","0","0.4741352064","","0.2","0.6","0.8","0.4","","","","","0.06674959941","0.3930074682","0.4741352064","0.4050300101","","","","","","","75","K","2","","","183","main_expt"
"2179","","bandit","262","756233","0.0-223.0-0.0","42240460","wem/bandit_either","A2RRC5B4M80XXO","either","3","","","","","","","1","0","0","0.4835015011","","0.2","0.6","0.8","0.4","","","","","0.05730522946","0.4105724965","0.4835015011","0.4272992256","","","","","","","75","K","2","","","184","main_expt"
"1012","","bandit","263","758789","0.0-224.0-0.0","42240460","wem/bandit_either","A2RRC5B4M80XXO","either","3","","","","","","","0","0","1","","0.4230276401","0.2","0.6","0.8","0.4","0.0759668512","0.4230276401","0.4907566516","0.4213026748","","","","","","","","","","","74","J","1","","","185","main_expt"
"1048","","bandit","264","761382","0.0-225.0-0.0","42240460","wem/bandit_either","A2RRC5B4M80XXO","either","3","","","","","","","1","0","0","0.4243078066","","0.2","0.6","0.8","0.4","","","","","0.0736669194","0.4243078066","0.4777100538","0.3729626057","","","","","","","74","J","1","","","186","main_expt"
"409","","bandit","265","763349","0.0-226.0-0.0","42240460","wem/bandit_either","A2RRC5B4M80XXO","either","3","","","","","","","1","0","0","0.4751658893","","0.2","0.6","0.8","0.4","","","","","0.1020870739","0.419104652","0.4751658893","0.4022080601","","","","","","","75","K","2","","","187","main_expt"
"435","","bandit","266","765334","0.0-227.0-0.0","42240460","wem/bandit_either","A2RRC5B4M80XXO","either","3","","","","","","","0","0","1","0.4218987807","","0.2","0.6","0.8","0.4","","","","","0.110066606","0.3917910895","0.4711403756","0.4218987807","","","","","","","76","L","3","","","188","main_expt"
"357","","bandit","267","767237","0.0-228.0-0.0","42240460","wem/bandit_either","A2RRC5B4M80XXO","either","3","","","","","","","0","0","1","0.4848283219","","0.2","0.6","0.8","0.4","","","","","0.1616324423","0.3696037293","0.4848283219","0.4284519853","","","","","","","75","K","2","","","189","main_expt"
"232","","bandit","268","769019","0.0-229.0-0.0","42240460","wem/bandit_either","A2RRC5B4M80XXO","either","3","","","","","","","0","0","1","","0.3722688899","0.2","0.6","0.8","0.4","0.1401199573","0.3722688899","0.4906713727","0.4104863902","","","","","","","","","","","74","J","1","","","190","main_expt"
"419","","bandit","269","770991","0.0-230.0-0.0","42240460","wem/bandit_either","A2RRC5B4M80XXO","either","3","","","","","","","0","0","1","","0.1782786715","0.2","0.6","0.8","0.4","0.1782786715","0.3956575009","0.4944082075","0.4071825693","","","","","","","","","","","72","H","0","img/none_selected.jpg","","191","main_expt"
"383","","bandit","270","772921","0.0-231.0-0.0","42240460","wem/bandit_either","A2RRC5B4M80XXO","either","3","","","","","","","0","0","1","0.3843500594","","0.2","0.6","0.8","0.4","","","","","0.203517815","0.3843500594","0.4922337742","0.4172763132","","","","","","","74","J","1","","","192","main_expt"
"306","","bandit","271","774765","0.0-232.0-0.0","42240460","wem/bandit_either","A2RRC5B4M80XXO","either","3","","","","","","","0","0","1","0.4887356563","","0.2","0.6","0.8","0.4","","","","","0.172030281","0.3801723293","0.4887356563","0.3965334946","","","","","","","75","K","2","","","193","main_expt"
"298","","bandit","272","776592","0.0-233.0-0.0","42240460","wem/bandit_either","A2RRC5B4M80XXO","either","3","","","","","","","0","0","1","0.383316574","","0.2","0.6","0.8","0.4","","","","","0.1813301739","0.3871645121","0.4850955297","0.383316574","","","","","","","76","L","3","","","194","main_expt"
"477","","bandit","273","778616","0.0-234.0-0.0","42240460","wem/bandit_either","A2RRC5B4M80XXO","either","3","","","","","","","1","0","0","0.4848341758","","0.2","0.6","0.8","0.4","","","","","0.2284295163","0.3633903175","0.4848341758","0.3965345796","","","","","","","75","K","2","","","195","main_expt"
"2137","","bandit","274","782294","0.0-235.0-0.0","42240460","wem/bandit_either","A2RRC5B4M80XXO","either","3","","","","","","","0","0","1","","0.490049139","0.2","0.6","0.8","0.4","0.2501246714","0.3811675741","0.490049139","0.3978469093","","","","","","","","","","","75","K","2","","","196","main_expt"
"1274","","bandit","275","785104","0.0-236.0-0.0","42240460","wem/bandit_either","A2RRC5B4M80XXO","either","3","","","","","","","1","0","0","0.4912643012","","0.2","0.6","0.8","0.4","","","","","0.3150809007","0.3487868089","0.4912643012","0.3172926233","","","","","","","75","K","2","","","197","main_expt"
"714","","bandit","276","787365","0.0-237.0-0.0","42240460","wem/bandit_either","A2RRC5B4M80XXO","either","3","","","","","","","0","1","0","","0.3113170709","0.2","0.6","0.8","0.4","0.3442077965","0.2986771554","0.4793615714","0.3113170709","","","","","","","","","","","76","L","3","","","198","main_expt"
"312","","bandit","277","789220","0.0-238.0-0.0","42240460","wem/bandit_either","A2RRC5B4M80XXO","either","3","","","","","","","0","0","1","0.4661622676","","0.2","0.6","0.8","0.4","","","","","0.3675051223","0.3481418533","0.4661622676","0.3066116159","","","","","","","75","K","2","","","199","main_expt"
"513","","bandit","278","791283","0.0-239.0-0.0","42240460","wem/bandit_either","A2RRC5B4M80XXO","either","3","","","","","","","0","0","1","0.2521122026","","0.2","0.6","0.8","0.4","","","","","0.3044821291","0.353319573","0.4479238565","0.2521122026","","","","","","","76","L","3","","","200","main_expt"
"422","","bandit","279","793264","0.0-240.0-0.0","42240460","wem/bandit_either","A2RRC5B4M80XXO","either","3","","","","","","","0","0","1","0.3013824411","","0.2","0.6","0.8","0.4","","","","","0.3013824411","0.3676338631","0.4429166455","0.2679963248","","","","","","","72","H","0","img/none_selected.jpg","","201","main_expt"
"501","","bandit","280","795301","0.0-241.0-0.0","42240460","wem/bandit_either","A2RRC5B4M80XXO","either","3","","","","","","","0","0","1","0.311657493","","0.2","0.6","0.8","0.4","","","","","0.3001954661","0.311657493","0.442820363","0.2076546236","","","","","","","74","J","1","","","202","main_expt"
"344","","bandit","281","797184","0.0-242.0-0.0","42240460","wem/bandit_either","A2RRC5B4M80XXO","either","3","","","","","","","1","0","0","0.4539008368","","0.2","0.6","0.8","0.4","","","","","0.3189156814","0.3364041998","0.4539008368","0.1881707852","","","","","","","75","K","2","","","203","main_expt"
"746","","bandit","282","799470","0.0-243.0-0.0","42240460","wem/bandit_either","A2RRC5B4M80XXO","either","3","","","","","","","0","0","1","","0.2057853427","0.2","0.6","0.8","0.4","0.3162062407","0.3148670147","0.4163307037","0.2057853427","","","","","","","","","","","76","L","3","","","204","main_expt"
"2","","bandit","283","801008","0.0-244.0-0.0","42240460","wem/bandit_either","A2RRC5B4M80XXO","either","3","","","","","","","0","0","1","0.3293187519","","0.2","0.6","0.8","0.4","","","","","0.347278619","0.3293187519","0.4045388199","0.2564451259","","","","","","","74","J","1","","","205","main_expt"
"1494","","bandit","284","804034","0.0-245.0-0.0","42240460","wem/bandit_either","A2RRC5B4M80XXO","either","3","","","","","","","0","0","1","0.2705077244","","0.2","0.6","0.8","0.4","","","","","0.2970129147","0.2705077244","0.4083422121","0.3082896296","","","","","","","74","J","1","","","206","main_expt"
"2321","","bandit","285","807889","0.0-246.0-0.0","42240460","wem/bandit_either","A2RRC5B4M80XXO","either","3","","","","","","","0","0","1","","0.4033585138","0.2","0.6","0.8","0.4","0.3331481178","0.3083591011","0.4033585138","0.3235103938","","","","","","","","","","","75","K","2","","","207","main_expt"
"288","","bandit","286","809732","0.0-247.0-0.0","42240460","wem/bandit_either","A2RRC5B4M80XXO","either","3","","","","","","","0","0","1","","0.3563539536","0.2","0.6","0.8","0.4","0.3195917859","0.2489273718","0.3753320851","0.3563539536","","","","","","","","","","","76","L","3","","","208","main_expt"
"1001","","bandit","287","812292","0.0-248.0-0.0","42240460","wem/bandit_either","A2RRC5B4M80XXO","either","3","","","","","","","0","0","1","","0.2224321457","0.2","0.6","0.8","0.4","0.3642345195","0.2224321457","0.3864970555","0.3821305916","","","","","","","","","","","74","J","1","","","209","main_expt"
"348","","bandit","288","814193","0.0-249.0-0.0","42240460","wem/bandit_either","A2RRC5B4M80XXO","either","3","","","","","","","0","0","1","0.3894881908","","0.2","0.6","0.8","0.4","","","","","0.3518797164","0.2184729634","0.3894881908","0.4067483812","","","","","","","75","K","2","","","210","main_expt"
"347","","bandit","289","816084","0.0-250.0-0.0","42240460","wem/bandit_either","A2RRC5B4M80XXO","either","3","","","","","","","0","1","0","","0.3781537602","0.2","0.6","0.8","0.4","0.3781537602","0.2178464352","0.4052823736","0.376825818","","","","","","","","","","","72","H","0","img/none_selected.jpg","","211","main_expt"
"541","","bandit","290","818174","0.0-251.0-0.0","42240460","wem/bandit_either","A2RRC5B4M80XXO","either","3","","","","","","","0","0","1","0.3481764155","","0.2","0.6","0.8","0.4","","","","","0.3773353051","0.1644702768","0.3783189977","0.3481764155","","","","","","","76","L","3","","","212","main_expt"
"1425","","bandit","291","821149","0.0-252.0-0.0","42240460","wem/bandit_either","A2RRC5B4M80XXO","either","3","","","","","","","0","0","1","0.3804187243","","0.2","0.6","0.8","0.4","","","","","0.3448860985","0.1271660564","0.3804187243","0.3239198888","","","","","","","75","K","2","","","213","main_expt"
"121","","bandit","292","822815","0.0-253.0-0.0","42240460","wem/bandit_either","A2RRC5B4M80XXO","either","3","","","","","","","0","0","1","","0.1368129038","0.2","0.6","0.8","0.4","0.3622000499","0.1368129038","0.3964056757","0.3592643085","","","","","","","","","","","74","J","1","","","214","main_expt"
"682","","bandit","293","825050","0.0-254.0-0.0","42240460","wem/bandit_either","A2RRC5B4M80XXO","either","3","","","","","","","0","0","1","0.3939862607","","0.2","0.6","0.8","0.4","","","","","0.3408682726","0.07615368859","0.3939862607","0.3482739819","","","","","","","75","K","2","","","215","main_expt"
"3","","bandit","294","826575","0.0-255.0-0.0","42240460","wem/bandit_either","A2RRC5B4M80XXO","either","3","","","","","","","0","0","1","0.07711559412","","0.2","0.6","0.8","0.4","","","","","0.328819006","0.07711559412","0.4062496234","0.2972527025","","","","","","","74","J","1","","","216","main_expt"
"1740","","bandit","295","829856","0.0-256.0-0.0","42240460","wem/bandit_either","A2RRC5B4M80XXO","either","3","","","","","","","0","0","1","0.2850944341","","0.2","0.6","0.8","0.4","","","","","0.3229374792","0.07728173513","0.3440498305","0.2850944341","","","","","","","76","L","3","","","217","main_expt"
"84","","bandit","296","831485","0.0-257.0-0.0","42240460","wem/bandit_either","A2RRC5B4M80XXO","either","3","","","","","","","0","0","1","","0.3198020565","0.2","0.6","0.8","0.4","0.3616220652","0.07919919155","0.3198020565","0.2483413171","","","","","","","","","","","75","K","2","","","218","main_expt"
"356","","bandit","297","833400","0.0-258.0-0.0","42240460","wem/bandit_either","A2RRC5B4M80XXO","either","3","","","","","","","0","0","1","","0.1270410367","0.2","0.6","0.8","0.4","0.3591176528","0.1270410367","0.3078290176","0.2680513607","","","","","","","","","","","74","J","1","","","219","main_expt"
"2095","","bandit","298","837065","0.0-259.0-0.0","42240460","wem/bandit_either","A2RRC5B4M80XXO","either","3","","","","","","","0","0","1","0.1117499599","","0.2","0.6","0.8","0.4","","","","","0.2758994579","0.1117499599","0.2961895162","0.304668496","","","","","","","74","J","1","","","220","main_expt"
"2005","","bandit","299","840599","0.0-260.0-0.0","42240460","wem/bandit_either","A2RRC5B4M80XXO","either","3","","","","","","","0","0","1","0.1186324211","","0.2","0.6","0.8","0.4","","","","","0.3119987931","0.1186324211","0.2658603678","0.2773284289","","","","","","","74","J","1","","","221","main_expt"
"2809","","bandit","300","844965","0.0-261.0-0.0","42240460","wem/bandit_either","A2RRC5B4M80XXO","either","3","","","","","","","0","0","1","","0.274695037","0.2","0.6","0.8","0.4","0.3106374463","0.1141050397","0.274695037","0.2152506718","","","","","","","","","","","75","K","2","","","222","main_expt"
"418","","bandit","301","846931","0.0-262.0-0.0","42240460","wem/bandit_either","A2RRC5B4M80XXO","either","3","","","","","","","0","0","1","0.2445797097","","0.2","0.6","0.8","0.4","","","","","0.3131570504","0.1007228699","0.2210940289","0.2445797097","","","","","","","76","L","3","","","223","main_expt"
"70","","bandit","302","848566","0.0-263.0-0.0","42240460","wem/bandit_either","A2RRC5B4M80XXO","either","3","","","","","","","0","0","1","","0.3025994915","0.2","0.6","0.8","0.4","0.3025994915","0.1380584308","0.1843933297","0.2559263424","","","","","","","","","","","72","H","0","img/none_selected.jpg","","224","main_expt"
"180","","bandit","303","850287","0.0-264.0-0.0","42240460","wem/bandit_either","A2RRC5B4M80XXO","either","3","","","","","","","0","0","1","0.212211923","","0.2","0.6","0.8","0.4","","","","","0.2994132709","0.1393521225","0.212211923","0.2702522324","","","","","","","75","K","2","","","225","main_expt"
"276","","bandit","304","852099","0.0-265.0-0.0","42240460","wem/bandit_either","A2RRC5B4M80XXO","either","3","","","","","","","0","0","1","0.2094269877","","0.2","0.6","0.8","0.4","","","","","0.2866794375","0.2094269877","0.2315036379","0.2646860425","","","","","","","74","J","1","","","226","main_expt"
"247","","bandit","305","853880","0.0-266.0-0.0","42240460","wem/bandit_either","A2RRC5B4M80XXO","either","3","","","","","","","0","0","1","","0.269556559","0.2","0.6","0.8","0.4","0.2299222882","0.2959232149","0.2646353212","0.269556559","","","","","","","","","","","76","L","3","","","227","main_expt"
"172","","bandit","306","855577","0.0-267.0-0.0","42240460","wem/bandit_either","A2RRC5B4M80XXO","either","3","","","","","","","0","0","1","0.2443517867","","0.2","0.6","0.8","0.4","","","","","0.2991813551","0.374355758","0.2443517867","0.2498152532","","","","","","","75","K","2","","","228","main_expt"
"142","","bandit","307","857279","0.0-268.0-0.0","42240460","wem/bandit_either","A2RRC5B4M80XXO","either","3","","","","","","","0","1","0","","0.3876740502","0.2","0.6","0.8","0.4","0.3295538921","0.3876740502","0.2569692975","0.2495566458","","","","","","","","","","","74","J","1","","","229","main_expt"
"291","","bandit","308","859124","0.0-269.0-0.0","42240460","wem/bandit_either","A2RRC5B4M80XXO","either","3","","","","","","","0","1","0","","0.2713593359","0.2","0.6","0.8","0.4","0.2713593359","0.3341674595","0.2490290172","0.2134382902","","","","","","","","","","","72","H","0","img/none_selected.jpg","","230","main_expt"
"350","","bandit","309","861017","0.0-270.0-0.0","42240460","wem/bandit_either","A2RRC5B4M80XXO","either","3","","","","","","","0","0","1","0.3558281537","","0.2","0.6","0.8","0.4","","","","","0.2746975787","0.3558281537","0.2368643707","0.2099205747","","","","","","","74","J","1","","","231","main_expt"
"406","","bandit","310","862972","0.0-271.0-0.0","42240460","wem/bandit_either","A2RRC5B4M80XXO","either","3","","","","","","","0","0","1","","0.3293076861","0.2","0.6","0.8","0.4","0.2817934899","0.3293076861","0.2857324616","0.1598609145","","","","","","","","","","","74","J","1","","","232","main_expt"
"1554","","bandit","311","866079","0.0-272.0-0.0","42240460","wem/bandit_either","A2RRC5B4M80XXO","either","3","","","","","","","0","1","0","","0.226619475","0.2","0.6","0.8","0.4","0.3139736629","0.3271309306","0.226619475","0.1472569172","","","","","","","","","","","75","K","2","","","233","main_expt"
"1908","","bandit","312","869532","0.0-273.0-0.0","42240460","wem/bandit_either","A2RRC5B4M80XXO","either","3","","","","","","","0","0","1","","0.3510228885","0.2","0.6","0.8","0.4","0.3332560948","0.3510228885","0.2448251662","0.1123375355","","","","","","","","","","","74","J","1","","","234","main_expt"
"6047","","bandit","313","877129","0.0-274.0-0.0","42240460","wem/bandit_either","A2RRC5B4M80XXO","either","3","","","","","","","1","0","0","0.2996798263","","0.2","0.6","0.8","0.4","","","","","0.3475281657","0.3346663699","0.2996798263","0.1562424728","","","","","","","75","K","2","","","235","main_expt"
"228","","bandit","314","878896","0.0-275.0-0.0","42240460","wem/bandit_either","A2RRC5B4M80XXO","either","3","","","","","","","0","0","1","0.1623269298","","0.2","0.6","0.8","0.4","","","","","0.3170984437","0.332043614","0.3220329496","0.1623269298","","","","","","","76","L","3","","","236","main_expt"
"372","","bandit","315","880809","0.0-276.0-0.0","42240460","wem/bandit_either","A2RRC5B4M80XXO","either","3","","","","","","","0","0","1","0.3672390457","","0.2","0.6","0.8","0.4","","","","","0.3611259067","0.2780661838","0.3672390457","0.1362759337","","","","","","","75","K","2","","","237","main_expt"
"356","","bandit","316","882726","0.0-277.0-0.0","42240460","wem/bandit_either","A2RRC5B4M80XXO","either","3","","","","","","","0","0","1","0.3071002506","","0.2","0.6","0.8","0.4","","","","","0.3449339383","0.3071002506","0.3702030288","0.1282223372","","","","","","","74","J","1","","","238","main_expt"
"499","","bandit","317","884763","0.0-278.0-0.0","42240460","wem/bandit_either","A2RRC5B4M80XXO","either","3","","","","","","","0","1","0","","0.3006984684","0.2","0.6","0.8","0.4","0.3006984684","0.3101279526","0.3486367063","0.08262393641","","","","","","","","","","","72","H","0","img/none_selected.jpg","","239","main_expt"
"225","","bandit","318","886548","0.0-279.0-0.0","42240460","wem/bandit_either","A2RRC5B4M80XXO","either","3","","","","","","","0","0","1","","0.3422639114","0.2","0.6","0.8","0.4","0.3355390738","0.3071576631","0.3422639114","0.09366491666","","","","","","","","","","","75","K","2","","","240","main_expt"
"102","","bandit","319","888193","0.0-280.0-0.0","42240460","wem/bandit_either","A2RRC5B4M80XXO","either","3","","","","","","","0","0","1","","0.09778426954","0.2","0.6","0.8","0.4","0.3513118525","0.3213727252","0.3703795114","0.09778426954","","","","","","","","","","","76","L","3","","","241","main_expt"
"327","","bandit","320","890066","0.0-281.0-0.0","42240460","wem/bandit_either","A2RRC5B4M80XXO","either","3","","","","","","","1","0","0","0.2871404103","","0.2","0.6","0.8","0.4","","","","","0.2871404103","0.3303042821","0.3362310887","0.0684580113","","","","","","","72","H","0","img/none_selected.jpg","","242","main_expt"
"291","","bandit","321","891908","0.0-282.0-0.0","42240460","wem/bandit_either","A2RRC5B4M80XXO","either","3","","","","","","","1","0","0","0.386578507","","0.2","0.6","0.8","0.4","","","","","0.2582353252","0.386578507","0.3855302341","0.05756719403","","","","","","","74","J","1","","","243","main_expt"
"328","","bandit","322","893794","0.0-283.0-0.0","42240460","wem/bandit_either","A2RRC5B4M80XXO","either","3","","","","","","","0","0","1","","0.2108553612","0.2","0.6","0.8","0.4","0.2108553612","0.3582196724","0.3504604058","0.07954378931","","","","","","","","","","","72","H","0","img/none_selected.jpg","","244","main_expt"
"1090","","bandit","323","896417","0.0-284.0-0.0","42240460","wem/bandit_either","A2RRC5B4M80XXO","either","3","","","","","","","0","0","1","0.3626170977","","0.2","0.6","0.8","0.4","","","","","0.190308294","0.3626170977","0.3586275713","0.07668718344","","","","","","","74","J","1","","","245","main_expt"
"2335","","bandit","324","900293","0.0-285.0-0.0","42240460","wem/bandit_either","A2RRC5B4M80XXO","either","3","","","","","","","1","0","0","0.3202710015","","0.2","0.6","0.8","0.4","","","","","0.2079876503","0.2778980274","0.3202710015","0.08627194322","","","","","","","75","K","2","","","246","main_expt"
"1247","","bandit","325","903082","0.0-286.0-0.0","42240460","wem/bandit_either","A2RRC5B4M80XXO","either","3","","","","","","","0","0","1","0.2874587678","","0.2","0.6","0.8","0.4","","","","","0.2053262284","0.2864864277","0.2874587678","0.1009858539","","","","","","","75","K","2","","","247","main_expt"
"17559","","bandit","326","922186","0.0-287.0-0.0","42240460","wem/bandit_either","A2RRC5B4M80XXO","either","3","","","","","","","0","0","1","","0.2703076155","0.2","0.6","0.8","0.4","0.2699327364","0.2883304048","0.2703076155","0.1044033157","","","","","","","","","","","75","K","2","","","248","main_expt"
"347","","bandit","327","924083","0.0-288.0-0.0","42240460","wem/bandit_either","A2RRC5B4M80XXO","either","3","","","","","","","0","0","1","","0.07254640656","0.2","0.6","0.8","0.4","0.2917851334","0.3034325887","0.2212833967","0.07254640656","","","","","","","","","","","76","L","3","","","249","main_expt"
"275","","bandit","328","925890","0.0-289.0-0.0","42240460","wem/bandit_either","A2RRC5B4M80XXO","either","3","","","","","","","0","0","1","0.2174917034","","0.2","0.6","0.8","0.4","","","","","0.2530543584","0.2582013927","0.2174917034","0.09512939239","","","","","","","75","K","2","","","250","main_expt"
"312","","bandit","329","927763","0.0-290.0-0.0","42240460","wem/bandit_either","A2RRC5B4M80XXO","either","3","","","","","","","0","0","1","0.2337836179","","0.2","0.6","0.8","0.4","","","","","0.2345859063","0.2337836179","0.2008338107","0.06759478125","","","","","","","74","J","1","","","251","main_expt"
"352","","bandit","330","929677","0.0-291.0-0.0","42240460","wem/bandit_either","A2RRC5B4M80XXO","either","3","","","","","","","0","0","1","0.2407419433","","0.2","0.6","0.8","0.4","","","","","0.2407419433","0.2477033955","0.2294508047","0.05682902113","","","","","","","72","H","0","img/none_selected.jpg","","252","main_expt"
"282","","bandit","331","931491","0.0-292.0-0.0","42240460","wem/bandit_either","A2RRC5B4M80XXO","either","3","","","","","","","0","0","1","0.2678406235","","0.2","0.6","0.8","0.4","","","","","0.2016139721","0.2187012899","0.2678406235","0.04662337877","","","","","","","75","K","2","","","253","main_expt"
"322","","bandit","332","933371","0.0-293.0-0.0","42240460","wem/bandit_either","A2RRC5B4M80XXO","either","3","","","","","","","0","0","1","","0.05613237953","0.2","0.6","0.8","0.4","0.2204455337","0.2247734494","0.3248943382","0.05613237953","","","","","","","","","","","76","L","3","","","254","main_expt"
"318","","bandit","333","935243","0.0-294.0-0.0","42240460","wem/bandit_either","A2RRC5B4M80XXO","either","3","","","","","","","1","0","0","0.2917783391","","0.2","0.6","0.8","0.4","","","","","0.2064376997","0.2421740144","0.2917783391","0.05644163561","","","","","","","75","K","2","","","255","main_expt"
