"rt","responses","trial_type","trial_index","time_elapsed","internal_node_id","subjID","study","MID","cond","drift","key_press","expt_phase","target","like","value","connected","gems","bombs","no_reward","GemPrChosen","BombPrChosen","GainOverPainPr_0","GainOverPainPr_1","GainOverPainPr_2","GainOverPainPr_3","LosePr_0","LosePr_1","LosePr_2","LosePr_3","WinPr_0","WinPr_1","WinPr_2","WinPr_3","Q0","Q1","Q2","gender","age","ethnicity","respCharCode","respKey","respChoiceNum","respChoice","practice","trial_counter","trial_label"
"15416","{""Q0"":""A14ADQ7RUN6TDY""}","survey-text","0","15431","0.0-0.0","42980300","wem/bandit_either","A14ADQ7RUN6TDY","either","1","","","","","","","","","","","","","","","","","","","","","","","","","","","","","","","","","","","",""
"21066","","text","1","37537","0.0-1.0","42980300","wem/bandit_either","A14ADQ7RUN6TDY","either","1","32","","","","","","","","","","","","","","","","","","","","","","","","","","","","","","","","","","",""
"6945","","text","2","44485","0.0-2.0","42980300","wem/bandit_either","A14ADQ7RUN6TDY","either","1","32","","","","","","","","","","","","","","","","","","","","","","","","","","","","","","","","","","",""
"33427","","text","3","77917","0.0-3.0","42980300","wem/bandit_either","A14ADQ7RUN6TDY","either","1","32","","","","","","","","","","","","","","","","","","","","","","","","","","","","","","","","","","",""
"26873","","text","4","104797","0.0-4.0","42980300","wem/bandit_either","A14ADQ7RUN6TDY","either","1","32","","","","","","","","","","","","","","","","","","","","","","","","","","","","","","","","","","",""
"23674","","text","5","128479","0.0-5.0","42980300","wem/bandit_either","A14ADQ7RUN6TDY","either","1","32","","","","","","","","","","","","","","","","","","","","","","","","","","","","","","","","","","",""
"9026","","text","6","137511","0.0-6.0","42980300","wem/bandit_either","A14ADQ7RUN6TDY","either","1","32","","","","","","","","","","","","","","","","","","","","","","","","","","","","","","","","","","",""
"7513","","text","7","145028","0.0-7.0","42980300","wem/bandit_either","A14ADQ7RUN6TDY","either","1","32","","","","","","","","","","","","","","","","","","","","","","","","","","","","","","","","","","",""
"17863","","identification","8","162954","0.0-8.0-0.0","42980300","wem/bandit_either","A14ADQ7RUN6TDY","either","1","","identification_pre","the village of Zur","","","","","","","","","","","","","","","","","","","","","","","","","","","","","","","","",""
"9794","","identification","9","173809","0.0-8.0-1.0","42980300","wem/bandit_either","A14ADQ7RUN6TDY","either","1","","identification_pre","the village of Nyx","","","","","","","","","","","","","","","","","","","","","","","","","","","","","","","","",""
"11738","","text","10","186553","0.0-9.0","42980300","wem/bandit_either","A14ADQ7RUN6TDY","either","1","32","","","","","","","","","","","","","","","","","","","","","","","","","","","","","","","","","","",""
"4158","","text","11","190714","0.0-10.0","42980300","wem/bandit_either","A14ADQ7RUN6TDY","either","1","32","","","","","","","","","","","","","","","","","","","","","","","","","","","","","","","","","","",""
"5227","","text","12","195947","0.0-11.0","42980300","wem/bandit_either","A14ADQ7RUN6TDY","either","1","32","","","","","","","","","","","","","","","","","","","","","","","","","","","","","","","","","","",""
"5342","","text","13","201293","0.0-12.0","42980300","wem/bandit_either","A14ADQ7RUN6TDY","either","1","32","","","","","","","","","","","","","","","","","","","","","","","","","","","","","","","","","","",""
"4690","","bandit","14","208541","0.0-13.0-0.0","42980300","wem/bandit_either","A14ADQ7RUN6TDY","either","1","","","","","","","0","0","1","0","0","","","","","0","","","","0","","","","","","","","","","74","J","0","img/none_selected_demo.jpg","true","0",""
"2041","","bandit","15","212786","0.0-14.0-0.0","42980300","wem/bandit_either","A14ADQ7RUN6TDY","either","1","","","","","","","0","0","1","0","0","","","","","0","","","","0","","","","","","","","","","75","K","0","img/none_selected_demo.jpg","true","0",""
"7420","","text","16","220210","0.0-15.0","42980300","wem/bandit_either","A14ADQ7RUN6TDY","either","1","32","","","","","","","","","","","","","","","","","","","","","","","","","","","","","","","","","","",""
"30618","","text","17","250835","0.0-16.0","42980300","wem/bandit_either","A14ADQ7RUN6TDY","either","1","32","","","","","","","","","","","","","","","","","","","","","","","","","","","","","","","","","","",""
"6739","","text","18","257581","0.0-17.0","42980300","wem/bandit_either","A14ADQ7RUN6TDY","either","1","32","","","","","","","","","","","","","","","","","","","","","","","","","","","","","","","","","","",""
"3734","","text","19","261318","0.0-18.0","42980300","wem/bandit_either","A14ADQ7RUN6TDY","either","1","32","","","","","","","","","","","","","","","","","","","","","","","","","","","","","","","","","","",""
"1503","","bandit","20","264353","0.0-19.0-0.0","42980300","wem/bandit_either","A14ADQ7RUN6TDY","either","1","","","","","","","1","0","0","0.8","","0.5","0.5","","","","","","","0.8","0.2","","","","","","","","","74","J","0","img/none_selected_demo.jpg","true","0","80_20_practice"
"1499","","bandit","21","267672","0.0-19.0-1.0","42980300","wem/bandit_either","A14ADQ7RUN6TDY","either","1","","","","","","","0","1","0","","0.8","0.5","0.5","","","0.8","0.2","","","","","","","","","","","","","74","J","0","img/none_selected_demo.jpg","true","0","80_20_practice"
"1177","","bandit","22","270431","0.0-19.0-2.0","42980300","wem/bandit_either","A14ADQ7RUN6TDY","either","1","","","","","","","0","0","1","","0.2","0.5","0.5","","","0.8","0.2","","","","","","","","","","","","","75","K","1","","true","0","80_20_practice"
"2078","","bandit","23","274173","0.0-19.0-3.0","42980300","wem/bandit_either","A14ADQ7RUN6TDY","either","1","","","","","","","1","0","0","0.8","","0.5","0.5","","","","","","","0.8","0.2","","","","","","","","","74","J","0","img/none_selected_demo.jpg","true","0","80_20_practice"
"1314","","bandit","24","277587","0.0-19.0-4.0","42980300","wem/bandit_either","A14ADQ7RUN6TDY","either","1","","","","","","","1","0","0","0.8","","0.5","0.5","","","","","","","0.8","0.2","","","","","","","","","74","J","0","img/none_selected_demo.jpg","true","0","80_20_practice"
"729","","bandit","25","279840","0.0-19.0-5.0","42980300","wem/bandit_either","A14ADQ7RUN6TDY","either","1","","","","","","","1","0","0","0.8","","0.5","0.5","","","","","","","0.8","0.2","","","","","","","","","74","J","0","img/none_selected_demo.jpg","true","0","80_20_practice"
"715","","bandit","26","282556","0.0-19.0-6.0","42980300","wem/bandit_either","A14ADQ7RUN6TDY","either","1","","","","","","","0","0","1","","0.8","0.5","0.5","","","0.8","0.2","","","","","","","","","","","","","74","J","0","img/none_selected_demo.jpg","true","0","80_20_practice"
"590","","bandit","27","284691","0.0-19.0-7.0","42980300","wem/bandit_either","A14ADQ7RUN6TDY","either","1","","","","","","","0","1","0","","0.8","0.5","0.5","","","0.8","0.2","","","","","","","","","","","","","74","J","0","img/none_selected_demo.jpg","true","0","80_20_practice"
"508","","bandit","28","286730","0.0-19.0-8.0","42980300","wem/bandit_either","A14ADQ7RUN6TDY","either","1","","","","","","","0","0","1","","0.8","0.5","0.5","","","0.8","0.2","","","","","","","","","","","","","74","J","0","img/none_selected_demo.jpg","true","0","80_20_practice"
"1070","","bandit","29","289357","0.0-19.0-9.0","42980300","wem/bandit_either","A14ADQ7RUN6TDY","either","1","","","","","","","1","0","0","0.8","","0.5","0.5","","","","","","","0.8","0.2","","","","","","","","","74","J","0","img/none_selected_demo.jpg","true","0","80_20_practice"
"540","","bandit","30","291430","0.0-19.0-10.0","42980300","wem/bandit_either","A14ADQ7RUN6TDY","either","1","","","","","","","0","1","0","","0.8","0.5","0.5","","","0.8","0.2","","","","","","","","","","","","","74","J","0","img/none_selected_demo.jpg","true","0","80_20_practice"
"1750","","bandit","31","294753","0.0-19.0-11.0","42980300","wem/bandit_either","A14ADQ7RUN6TDY","either","1","","","","","","","0","0","1","0.8","","0.5","0.5","","","","","","","0.8","0.2","","","","","","","","","74","J","0","img/none_selected_demo.jpg","true","0","80_20_practice"
"3018","","bandit","32","299363","0.0-19.0-12.0","42980300","wem/bandit_either","A14ADQ7RUN6TDY","either","1","","","","","","","0","0","1","0.8","","0.5","0.5","","","","","","","0.8","0.2","","","","","","","","","74","J","0","img/none_selected_demo.jpg","true","0","80_20_practice"
"772","","bandit","33","302431","0.0-19.0-13.0","42980300","wem/bandit_either","A14ADQ7RUN6TDY","either","1","","","","","","","1","0","0","0.8","","0.5","0.5","","","","","","","0.8","0.2","","","","","","","","","74","J","0","img/none_selected_demo.jpg","true","0","80_20_practice"
"563","","bandit","34","304555","0.0-19.0-14.0","42980300","wem/bandit_either","A14ADQ7RUN6TDY","either","1","","","","","","","0","1","0","","0.8","0.5","0.5","","","0.8","0.2","","","","","","","","","","","","","74","J","0","img/none_selected_demo.jpg","true","0","80_20_practice"
"622","","bandit","35","306714","0.0-19.0-15.0","42980300","wem/bandit_either","A14ADQ7RUN6TDY","either","1","","","","","","","1","0","0","0.2","","0.5","0.5","","","","","","","0.8","0.2","","","","","","","","","75","K","1","","true","0","80_20_practice"
"1087","","bandit","36","309454","0.0-19.0-16.0","42980300","wem/bandit_either","A14ADQ7RUN6TDY","either","1","","","","","","","0","0","1","","0.2","0.5","0.5","","","0.8","0.2","","","","","","","","","","","","","75","K","1","","true","0","80_20_practice"
"553","","bandit","37","312500","0.0-19.0-17.0","42980300","wem/bandit_either","A14ADQ7RUN6TDY","either","1","","","","","","","0","0","1","0.2","","0.5","0.5","","","","","","","0.8","0.2","","","","","","","","","75","K","1","","true","0","80_20_practice"
"558","","bandit","38","314614","0.0-19.0-18.0","42980300","wem/bandit_either","A14ADQ7RUN6TDY","either","1","","","","","","","0","0","1","0.2","","0.5","0.5","","","","","","","0.8","0.2","","","","","","","","","75","K","1","","true","0","80_20_practice"
"560","","bandit","39","317479","0.0-19.0-19.0","42980300","wem/bandit_either","A14ADQ7RUN6TDY","either","1","","","","","","","0","1","0","","0.2","0.5","0.5","","","0.8","0.2","","","","","","","","","","","","","75","K","1","","true","0","80_20_practice"
"7024","","text","40","324507","0.0-20.0","42980300","wem/bandit_either","A14ADQ7RUN6TDY","either","1","32","","","","","","","","","","","","","","","","","","","","","","","","","","","","","","","","","","",""
"2862","","bandit","41","328899","0.0-21.0-0.0","42980300","wem/bandit_either","A14ADQ7RUN6TDY","either","1","","","","","","","1","0","0","1","0","","","","","0","1","","","1","0","","","","","","","","","74","J","0","img/none_selected_demo.jpg","true","0",""
"6724","","text","42","335632","0.0-22.0","42980300","wem/bandit_either","A14ADQ7RUN6TDY","either","1","32","","","","","","","","","","","","","","","","","","","","","","","","","","","","","","","","","","",""
"5251","","text","43","340890","0.0-23.0","42980300","wem/bandit_either","A14ADQ7RUN6TDY","either","1","32","","","","","","","","","","","","","","","","","","","","","","","","","","","","","","","","","","",""
"3077","","text","44","343976","0.0-24.0","42980300","wem/bandit_either","A14ADQ7RUN6TDY","either","1","32","","","","","","","","","","","","","","","","","","","","","","","","","","","","","","","","","","",""
"7071","","text","45","351057","0.0-25.0","42980300","wem/bandit_either","A14ADQ7RUN6TDY","either","1","32","","","","","","","","","","","","","","","","","","","","","","","","","","","","","","","","","","",""
"9862","","text","46","360929","0.0-26.0","42980300","wem/bandit_either","A14ADQ7RUN6TDY","either","1","32","","","","","","","","","","","","","","","","","","","","","","","","","","","","","","","","","","",""
"3773","","text","47","364714","0.0-27.0","42980300","wem/bandit_either","A14ADQ7RUN6TDY","either","1","32","","","","","","","","","","","","","","","","","","","","","","","","","","","","","","","","","","",""
"3317","","text","48","368040","0.0-28.0","42980300","wem/bandit_either","A14ADQ7RUN6TDY","either","1","32","","","","","","","","","","","","","","","","","","","","","","","","","","","","","","","","","","",""
"3352","","text","49","371399","0.0-29.0","42980300","wem/bandit_either","A14ADQ7RUN6TDY","either","1","32","","","","","","","","","","","","","","","","","","","","","","","","","","","","","","","","","","",""
"7355","","text","50","378761","0.0-30.0","42980300","wem/bandit_either","A14ADQ7RUN6TDY","either","1","32","","","","","","","","","","","","","","","","","","","","","","","","","","","","","","","","","","",""
"2162","","text","51","380927","0.0-31.0","42980300","wem/bandit_either","A14ADQ7RUN6TDY","either","1","32","","","","","","","","","","","","","","","","","","","","","","","","","","","","","","","","","","",""
"4744","","text","52","385678","0.0-32.0","42980300","wem/bandit_either","A14ADQ7RUN6TDY","either","1","32","","","","","","","","","","","","","","","","","","","","","","","","","","","","","","","","","","",""
"4754","","bandit","53","392978","0.0-33.0-0.0","42980300","wem/bandit_either","A14ADQ7RUN6TDY","either","1","","","","","","","0","0","1","","0.8","0.5","0.5","0.5","0.5","0.8","0.2","0.6","0.2","","","","","","","","","","","72","H","0","img/none_selected.jpg","true","0","full_practice"
"1201","","bandit","54","395715","0.0-33.0-1.0","42980300","wem/bandit_either","A14ADQ7RUN6TDY","either","1","","","","","","","0","1","0","","0.8","0.5","0.5","0.5","0.5","0.8","0.2","0.6","0.2","","","","","","","","","","","72","H","0","img/none_selected.jpg","true","0","full_practice"
"548","","bandit","55","398758","0.0-33.0-2.0","42980300","wem/bandit_either","A14ADQ7RUN6TDY","either","1","","","","","","","0","0","1","","0.8","0.5","0.5","0.5","0.5","0.8","0.2","0.6","0.2","","","","","","","","","","","72","H","0","img/none_selected.jpg","true","0","full_practice"
"533","","bandit","56","400879","0.0-33.0-3.0","42980300","wem/bandit_either","A14ADQ7RUN6TDY","either","1","","","","","","","0","0","1","0.2","","0.5","0.5","0.5","0.5","","","","","0.8","0.2","0.6","0.2","","","","","","","74","J","1","","true","0","full_practice"
"551","","bandit","57","403521","0.0-33.0-4.0","42980300","wem/bandit_either","A14ADQ7RUN6TDY","either","1","","","","","","","0","1","0","","0.6","0.5","0.5","0.5","0.5","0.8","0.2","0.6","0.2","","","","","","","","","","","75","K","2","","true","0","full_practice"
"448","","bandit","58","405542","0.0-33.0-5.0","42980300","wem/bandit_either","A14ADQ7RUN6TDY","either","1","","","","","","","0","1","0","","0.6","0.5","0.5","0.5","0.5","0.8","0.2","0.6","0.2","","","","","","","","","","","75","K","2","","true","0","full_practice"
"428","","bandit","59","407757","0.0-33.0-6.0","42980300","wem/bandit_either","A14ADQ7RUN6TDY","either","1","","","","","","","0","1","0","","0.6","0.5","0.5","0.5","0.5","0.8","0.2","0.6","0.2","","","","","","","","","","","75","K","2","","true","0","full_practice"
"1097","","bandit","60","410382","0.0-33.0-7.0","42980300","wem/bandit_either","A14ADQ7RUN6TDY","either","1","","","","","","","0","0","1","","0.6","0.5","0.5","0.5","0.5","0.8","0.2","0.6","0.2","","","","","","","","","","","75","K","2","","true","0","full_practice"
"511","","bandit","61","412548","0.0-33.0-8.0","42980300","wem/bandit_either","A14ADQ7RUN6TDY","either","1","","","","","","","0","0","1","0.2","","0.5","0.5","0.5","0.5","","","","","0.8","0.2","0.6","0.2","","","","","","","76","L","3","","true","0","full_practice"
"480","","bandit","62","414548","0.0-33.0-9.0","42980300","wem/bandit_either","A14ADQ7RUN6TDY","either","1","","","","","","","0","0","1","","0.2","0.5","0.5","0.5","0.5","0.8","0.2","0.6","0.2","","","","","","","","","","","76","L","3","","true","0","full_practice"
"413","","bandit","63","417394","0.0-33.0-10.0","42980300","wem/bandit_either","A14ADQ7RUN6TDY","either","1","","","","","","","0","0","1","","0.2","0.5","0.5","0.5","0.5","0.8","0.2","0.6","0.2","","","","","","","","","","","76","L","3","","true","0","full_practice"
"1547","","bandit","64","420463","0.0-33.0-11.0","42980300","wem/bandit_either","A14ADQ7RUN6TDY","either","1","","","","","","","1","0","0","0.2","","0.5","0.5","0.5","0.5","","","","","0.8","0.2","0.6","0.2","","","","","","","74","J","1","","true","0","full_practice"
"799","","bandit","65","423419","0.0-33.0-12.0","42980300","wem/bandit_either","A14ADQ7RUN6TDY","either","1","","","","","","","0","0","1","0.2","","0.5","0.5","0.5","0.5","","","","","0.8","0.2","0.6","0.2","","","","","","","74","J","1","","true","0","full_practice"
"2130","","bandit","66","427760","0.0-33.0-13.0","42980300","wem/bandit_either","A14ADQ7RUN6TDY","either","1","","","","","","","0","1","0","","0.8","0.5","0.5","0.5","0.5","0.8","0.2","0.6","0.2","","","","","","","","","","","72","H","0","img/none_selected.jpg","true","0","full_practice"
"3465","","bandit","67","433606","0.0-33.0-14.0","42980300","wem/bandit_either","A14ADQ7RUN6TDY","either","1","","","","","","","0","0","1","0.2","","0.5","0.5","0.5","0.5","","","","","0.8","0.2","0.6","0.2","","","","","","","74","J","1","","true","0","full_practice"
"633","","bandit","68","435796","0.0-33.0-15.0","42980300","wem/bandit_either","A14ADQ7RUN6TDY","either","1","","","","","","","0","0","1","","0.2","0.5","0.5","0.5","0.5","0.8","0.2","0.6","0.2","","","","","","","","","","","74","J","1","","true","0","full_practice"
"1585","","bandit","69","439251","0.0-33.0-16.0","42980300","wem/bandit_either","A14ADQ7RUN6TDY","either","1","","","","","","","0","1","0","","0.8","0.5","0.5","0.5","0.5","0.8","0.2","0.6","0.2","","","","","","","","","","","72","H","0","img/none_selected.jpg","true","0","full_practice"
"691","","bandit","70","441495","0.0-33.0-17.0","42980300","wem/bandit_either","A14ADQ7RUN6TDY","either","1","","","","","","","1","0","0","0.6","","0.5","0.5","0.5","0.5","","","","","0.8","0.2","0.6","0.2","","","","","","","75","K","2","","true","0","full_practice"
"1298","","bandit","71","444340","0.0-33.0-18.0","42980300","wem/bandit_either","A14ADQ7RUN6TDY","either","1","","","","","","","0","1","0","","0.6","0.5","0.5","0.5","0.5","0.8","0.2","0.6","0.2","","","","","","","","","","","75","K","2","","true","0","full_practice"
"55","","bandit","72","446011","0.0-33.0-19.0","42980300","wem/bandit_either","A14ADQ7RUN6TDY","either","1","","","","","","","0","0","1","","0.6","0.5","0.5","0.5","0.5","0.8","0.2","0.6","0.2","","","","","","","","","","","75","K","2","","true","0","full_practice"
"3671","","text","73","449694","0.0-34.0","42980300","wem/bandit_either","A14ADQ7RUN6TDY","either","1","32","","","","","","","","","","","","","","","","","","","","","","","","","","","","","","","","","","",""
"14717","","text","74","465426","0.0-35.0","42980300","wem/bandit_either","A14ADQ7RUN6TDY","either","1","32","","","","","","","","","","","","","","","","","","","","","","","","","","","","","","","","","","",""
"15280","","text","75","480720","0.0-36.0","42980300","wem/bandit_either","A14ADQ7RUN6TDY","either","1","32","","","","","","","","","","","","","","","","","","","","","","","","","","","","","","","","","","",""
"6858","","text","76","487586","0.0-37.0","42980300","wem/bandit_either","A14ADQ7RUN6TDY","either","1","32","","","","","","","","","","","","","","","","","","","","","","","","","","","","","","","","","","",""
"6610","","text","77","494203","0.0-38.0","42980300","wem/bandit_either","A14ADQ7RUN6TDY","either","1","32","","","","","","","","","","","","","","","","","","","","","","","","","","","","","","","","","","",""
"6043","","text","78","500254","0.0-39.0","42980300","wem/bandit_either","A14ADQ7RUN6TDY","either","1","32","","","","","","","","","","","","","","","","","","","","","","","","","","","","","","","","","","",""
"996","","bandit","79","503349","0.0-40.0-0.0","42980300","wem/bandit_either","A14ADQ7RUN6TDY","either","1","","","","","","","0","0","1","0.0798457429","","0.4","0.8","0.6","0.2","","","","","0.3592836462","0.0798457429","0.4269289603","0.02943109976","","","","","","","74","J","1","","","1","main_expt"
"683","","bandit","80","505621","0.0-41.0-0.0","42980300","wem/bandit_either","A14ADQ7RUN6TDY","either","1","","","","","","","0","1","0","","0.4660243271","0.4","0.8","0.6","0.2","0.3454903542","0.07621336767","0.4660243271","0.06336112212","","","","","","","","","","","75","K","2","","","2","main_expt"
"646","","bandit","81","508447","0.0-42.0-0.0","42980300","wem/bandit_either","A14ADQ7RUN6TDY","either","1","","","","","","","0","1","0","","0.4738503749","0.4","0.8","0.6","0.2","0.2941512374","0.07476295528","0.4738503749","0.07335687118","","","","","","","","","","","75","K","2","","","3","main_expt"
"760","","bandit","82","510837","0.0-43.0-0.0","42980300","wem/bandit_either","A14ADQ7RUN6TDY","either","1","","","","","","","1","0","0","0.4618500418","","0.4","0.8","0.6","0.2","","","","","0.2851241965","0.06526985361","0.4618500418","0.06156305515","","","","","","","75","K","2","","","4","main_expt"
"1863","","bandit","83","514241","0.0-44.0-0.0","42980300","wem/bandit_either","A14ADQ7RUN6TDY","either","1","","","","","","","0","0","1","","0.4488935273","0.4","0.8","0.6","0.2","0.3172925843","0.05487735528","0.4488935273","0.08141194251","","","","","","","","","","","75","K","2","","","5","main_expt"
"1520","","bandit","84","517511","0.0-45.0-0.0","42980300","wem/bandit_either","A14ADQ7RUN6TDY","either","1","","","","","","","0","0","1","","0.4437832297","0.4","0.8","0.6","0.2","0.3319153021","0.04340015571","0.4437832297","0.1104821702","","","","","","","","","","","75","K","2","","","6","main_expt"
"660","","bandit","85","519699","0.0-46.0-0.0","42980300","wem/bandit_either","A14ADQ7RUN6TDY","either","1","","","","","","","0","0","1","","0.1191408541","0.4","0.8","0.6","0.2","0.3553039772","0.04575060371","0.4310077805","0.1191408541","","","","","","","","","","","76","L","3","","","7","main_expt"
"1229","","bandit","86","523455","0.0-47.0-0.0","42980300","wem/bandit_either","A14ADQ7RUN6TDY","either","1","","","","","","","0","0","1","","0.3868093767","0.4","0.8","0.6","0.2","0.3868093767","0.06112087539","0.4480386191","0.1517570037","","","","","","","","","","","72","H","0","img/none_selected.jpg","","8","main_expt"
"870","","bandit","87","525872","0.0-48.0-0.0","42980300","wem/bandit_either","A14ADQ7RUN6TDY","either","1","","","","","","","0","0","1","0.07854191076","","0.4","0.8","0.6","0.2","","","","","0.3754406694","0.07854191076","0.4460224538","0.1738087075","","","","","","","74","J","1","","","9","main_expt"
"409","","bandit","88","528726","0.0-49.0-0.0","42980300","wem/bandit_either","A14ADQ7RUN6TDY","either","1","","","","","","","0","0","1","0.3954493452","","0.4","0.8","0.6","0.2","","","","","0.3537433427","0.06865483858","0.3954493452","0.2033535465","","","","","","","75","K","2","","","10","main_expt"
"527","","bandit","89","530804","0.0-50.0-0.0","42980300","wem/bandit_either","A14ADQ7RUN6TDY","either","1","","","","","","","0","1","0","","0.4064238371","0.4","0.8","0.6","0.2","0.3793358735","0.05083805298","0.4064238371","0.1751631116","","","","","","","","","","","75","K","2","","","11","main_expt"
"1630","","bandit","90","534000","0.0-51.0-0.0","42980300","wem/bandit_either","A14ADQ7RUN6TDY","either","1","","","","","","","0","0","1","0.3800839449","","0.4","0.8","0.6","0.2","","","","","0.3800428212","0.1038792476","0.3800839449","0.1787487179","","","","","","","75","K","2","","","12","main_expt"
"1547","","bandit","91","537599","0.0-52.0-0.0","42980300","wem/bandit_either","A14ADQ7RUN6TDY","either","1","","","","","","","0","0","1","","0.3647981021","0.4","0.8","0.6","0.2","0.3647981021","0.1197284353","0.3866628193","0.1794712961","","","","","","","","","","","72","H","0","img/none_selected.jpg","","13","main_expt"
"621","","bandit","92","539761","0.0-53.0-0.0","42980300","wem/bandit_either","A14ADQ7RUN6TDY","either","1","","","","","","","0","0","1","","0.3646471907","0.4","0.8","0.6","0.2","0.3646471907","0.135681701","0.326509825","0.2482140722","","","","","","","","","","","72","H","0","img/none_selected.jpg","","14","main_expt"
"469","","bandit","93","541982","0.0-54.0-0.0","42980300","wem/bandit_either","A14ADQ7RUN6TDY","either","1","","","","","","","0","0","1","0.125153919","","0.4","0.8","0.6","0.2","","","","","0.3549291363","0.125153919","0.2428529647","0.2859415589","","","","","","","74","J","1","","","15","main_expt"
"1456","","bandit","94","544988","0.0-55.0-0.0","42980300","wem/bandit_either","A14ADQ7RUN6TDY","either","1","","","","","","","0","0","1","","0.2332962783","0.4","0.8","0.6","0.2","0.3727350689","0.1096891688","0.2332962783","0.26587149","","","","","","","","","","","75","K","2","","","16","main_expt"
"617","","bandit","95","547638","0.0-56.0-0.0","42980300","wem/bandit_either","A14ADQ7RUN6TDY","either","1","","","","","","","0","0","1","0.2271032234","","0.4","0.8","0.6","0.2","","","","","0.3112083829","0.1051581447","0.2271032234","0.2776265896","","","","","","","75","K","2","","","17","main_expt"
"489","","bandit","96","549716","0.0-57.0-0.0","42980300","wem/bandit_either","A14ADQ7RUN6TDY","either","1","","","","","","","0","0","1","","0.3223387563","0.4","0.8","0.6","0.2","0.2403081055","0.1437943492","0.1701710303","0.3223387563","","","","","","","","","","","76","L","3","","","18","main_expt"
"927","","bandit","97","552591","0.0-58.0-0.0","42980300","wem/bandit_either","A14ADQ7RUN6TDY","either","1","","","","","","","0","0","1","0.3192918255","","0.4","0.8","0.6","0.2","","","","","0.2377482675","0.1405615485","0.2070198111","0.3192918255","","","","","","","76","L","3","","","19","main_expt"
"1323","","bandit","98","555492","0.0-59.0-0.0","42980300","wem/bandit_either","A14ADQ7RUN6TDY","either","1","","","","","","","0","0","1","0.2412547966","","0.4","0.8","0.6","0.2","","","","","0.2607530295","0.1063334751","0.2412547966","0.2739159796","","","","","","","75","K","2","","","20","main_expt"
"849","","bandit","99","558478","0.0-60.0-0.0","42980300","wem/bandit_either","A14ADQ7RUN6TDY","either","1","","","","","","","0","0","1","","0.2184758186","0.4","0.8","0.6","0.2","0.2919400674","0.07848250716","0.2184758186","0.2454385858","","","","","","","","","","","75","K","2","","","21","main_expt"
"388","","bandit","100","560435","0.0-61.0-0.0","42980300","wem/bandit_either","A14ADQ7RUN6TDY","either","1","","","","","","","0","0","1","0.1005082742","","0.4","0.8","0.6","0.2","","","","","0.2995681058","0.1005082742","0.1849325376","0.2340842041","","","","","","","74","J","1","","","22","main_expt"
"530","","bandit","101","563603","0.0-62.0-0.0","42980300","wem/bandit_either","A14ADQ7RUN6TDY","either","1","","","","","","","0","0","1","0.0792694407","","0.4","0.8","0.6","0.2","","","","","0.292554742","0.0792694407","0.1521197653","0.1840173947","","","","","","","74","J","1","","","23","main_expt"
"1247","","bandit","102","566398","0.0-63.0-0.0","42980300","wem/bandit_either","A14ADQ7RUN6TDY","either","1","","","","","","","0","0","1","0.07358699385","","0.4","0.8","0.6","0.2","","","","","0.3616894364","0.07358699385","0.1759403195","0.1745529383","","","","","","","74","J","1","","","24","main_expt"
"1384","","bandit","103","569357","0.0-64.0-0.0","42980300","wem/bandit_either","A14ADQ7RUN6TDY","either","1","","","","","","","0","0","1","0.09479311865","","0.4","0.8","0.6","0.2","","","","","0.3575757263","0.142208116","0.09479311865","0.1756582033","","","","","","","75","K","2","","","25","main_expt"
"491","","bandit","104","571437","0.0-65.0-0.0","42980300","wem/bandit_either","A14ADQ7RUN6TDY","either","1","","","","","","","0","0","1","","0.3635346368","0.4","0.8","0.6","0.2","0.3635346368","0.1245113583","0.08156123497","0.2086365416","","","","","","","","","","","72","H","0","img/none_selected.jpg","","26","main_expt"
"1149","","bandit","105","574234","0.0-66.0-0.0","42980300","wem/bandit_either","A14ADQ7RUN6TDY","either","1","","","","","","","0","0","1","","0.4109801844","0.4","0.8","0.6","0.2","0.4109801844","0.118364605","0.1102307873","0.2139763749","","","","","","","","","","","72","H","0","img/none_selected.jpg","","27","main_expt"
"1119","","bandit","106","577545","0.0-67.0-0.0","42980300","wem/bandit_either","A14ADQ7RUN6TDY","either","1","","","","","","","0","0","1","","0.3772962545","0.4","0.8","0.6","0.2","0.3772962545","0.1105930361","0.08274430796","0.1613483267","","","","","","","","","","","72","H","0","img/none_selected.jpg","","28","main_expt"
"772","","bandit","107","579927","0.0-68.0-0.0","42980300","wem/bandit_either","A14ADQ7RUN6TDY","either","1","","","","","","","0","1","0","","0.3875745016","0.4","0.8","0.6","0.2","0.3875745016","0.1118713044","0.1086911099","0.1712488152","","","","","","","","","","","72","H","0","img/none_selected.jpg","","29","main_expt"
"724","","bandit","108","583006","0.0-69.0-0.0","42980300","wem/bandit_either","A14ADQ7RUN6TDY","either","1","","","","","","","1","0","0","0.3780019893","","0.4","0.8","0.6","0.2","","","","","0.3780019893","0.1914750456","0.1116575632","0.1675524316","","","","","","","72","H","0","img/none_selected.jpg","","30","main_expt"
"954","","bandit","109","585500","0.0-70.0-0.0","42980300","wem/bandit_either","A14ADQ7RUN6TDY","either","1","","","","","","","0","0","1","0.416860241","","0.4","0.8","0.6","0.2","","","","","0.416860241","0.2367730164","0.07828091442","0.140325158","","","","","","","72","H","0","img/none_selected.jpg","","31","main_expt"
"858","","bandit","110","588611","0.0-71.0-0.0","42980300","wem/bandit_either","A14ADQ7RUN6TDY","either","1","","","","","","","1","0","0","0.4242573056","","0.4","0.8","0.6","0.2","","","","","0.4242573056","0.2109574779","0.07550395781","0.1553940025","","","","","","","72","H","0","img/none_selected.jpg","","32","main_expt"
"474","","bandit","111","590621","0.0-72.0-0.0","42980300","wem/bandit_either","A14ADQ7RUN6TDY","either","1","","","","","","","0","0","1","","0.4185546122","0.4","0.8","0.6","0.2","0.4185546122","0.2005542758","0.1445529326","0.1925614924","","","","","","","","","","","72","H","0","img/none_selected.jpg","","33","main_expt"
"783","","bandit","112","593501","0.0-73.0-0.0","42980300","wem/bandit_either","A14ADQ7RUN6TDY","either","1","","","","","","","0","1","0","","0.4268308419","0.4","0.8","0.6","0.2","0.4268308419","0.180377021","0.1091775744","0.2150530123","","","","","","","","","","","72","H","0","img/none_selected.jpg","","34","main_expt"
"520","","bandit","113","595561","0.0-74.0-0.0","42980300","wem/bandit_either","A14ADQ7RUN6TDY","either","1","","","","","","","0","0","1","","0.4265642185","0.4","0.8","0.6","0.2","0.4265642185","0.2111187229","0.1297995116","0.2688968874","","","","","","","","","","","72","H","0","img/none_selected.jpg","","35","main_expt"
"793","","bandit","114","598906","0.0-75.0-0.0","42980300","wem/bandit_either","A14ADQ7RUN6TDY","either","1","","","","","","","0","0","1","0.4066287969","","0.4","0.8","0.6","0.2","","","","","0.4066287969","0.2119332756","0.09468550628","0.2977459964","","","","","","","72","H","0","img/none_selected.jpg","","36","main_expt"
"492","","bandit","115","600933","0.0-76.0-0.0","42980300","wem/bandit_either","A14ADQ7RUN6TDY","either","1","","","","","","","0","0","1","0.4611471687","","0.4","0.8","0.6","0.2","","","","","0.4611471687","0.2256131965","0.09396978408","0.2684429955","","","","","","","72","H","0","img/none_selected.jpg","","37","main_expt"
"1403","","bandit","116","603975","0.0-77.0-0.0","42980300","wem/bandit_either","A14ADQ7RUN6TDY","either","1","","","","","","","0","0","1","","0.4482708269","0.4","0.8","0.6","0.2","0.4482708269","0.1975147253","0.1062257399","0.2490186117","","","","","","","","","","","72","H","0","img/none_selected.jpg","","38","main_expt"
"1016","","bandit","117","606551","0.0-78.0-0.0","42980300","wem/bandit_either","A14ADQ7RUN6TDY","either","1","","","","","","","0","0","1","0.09676453159","","0.4","0.8","0.6","0.2","","","","","0.4402774387","0.1595648847","0.09676453159","0.2548033483","","","","","","","75","K","2","","","39","main_expt"
"1288","","bandit","118","609430","0.0-79.0-0.0","42980300","wem/bandit_either","A14ADQ7RUN6TDY","either","1","","","","","","","0","0","1","","0.08197179495","0.4","0.8","0.6","0.2","0.4385128538","0.1626610004","0.08197179495","0.2688720753","","","","","","","","","","","75","K","2","","","40","main_expt"
"624","","bandit","119","612579","0.0-80.0-0.0","42980300","wem/bandit_either","A14ADQ7RUN6TDY","either","1","","","","","","","0","0","1","","0.14416382","0.4","0.8","0.6","0.2","0.4380640779","0.1982402655","0.14416382","0.297778532","","","","","","","","","","","75","K","2","","","41","main_expt"
"583","","bandit","120","614701","0.0-81.0-0.0","42980300","wem/bandit_either","A14ADQ7RUN6TDY","either","1","","","","","","","0","0","1","","0.2449207522","0.4","0.8","0.6","0.2","0.4265224768","0.1863610343","0.1070927036","0.2449207522","","","","","","","","","","","76","L","3","","","42","main_expt"
"734","","bandit","121","617805","0.0-82.0-0.0","42980300","wem/bandit_either","A14ADQ7RUN6TDY","either","1","","","","","","","0","0","1","","0.2457567503","0.4","0.8","0.6","0.2","0.435880106","0.2418389683","0.1214526226","0.2457567503","","","","","","","","","","","76","L","3","","","43","main_expt"
"852","","bandit","122","620227","0.0-83.0-0.0","42980300","wem/bandit_either","A14ADQ7RUN6TDY","either","1","","","","","","","0","0","1","0.2432732657","","0.4","0.8","0.6","0.2","","","","","0.4450576882","0.1943491227","0.1450738833","0.2432732657","","","","","","","76","L","3","","","44","main_expt"
"2265","","bandit","123","624036","0.0-84.0-0.0","42980300","wem/bandit_either","A14ADQ7RUN6TDY","either","1","","","","","","","1","0","0","0.1543250971","","0.4","0.8","0.6","0.2","","","","","0.4382030275","0.1543250971","0.09632230927","0.2656772236","","","","","","","74","J","1","","","45","main_expt"
"1094","","bandit","124","626662","0.0-85.0-0.0","42980300","wem/bandit_either","A14ADQ7RUN6TDY","either","1","","","","","","","0","0","1","0.09719433791","","0.4","0.8","0.6","0.2","","","","","0.4412369426","0.09719433791","0.103211431","0.2432112423","","","","","","","74","J","1","","","46","main_expt"
"1107","","bandit","125","629317","0.0-86.0-0.0","42980300","wem/bandit_either","A14ADQ7RUN6TDY","either","1","","","","","","","0","0","1","0.1228880329","","0.4","0.8","0.6","0.2","","","","","0.4588863431","0.1228880329","0.09916324924","0.2992745976","","","","","","","74","J","1","","","47","main_expt"
"622","","bandit","126","632350","0.0-87.0-0.0","42980300","wem/bandit_either","A14ADQ7RUN6TDY","either","1","","","","","","","0","0","1","","0.1068532567","0.4","0.8","0.6","0.2","0.4408788818","0.1068532567","0.1090242341","0.2594611615","","","","","","","","","","","74","J","1","","","48","main_expt"
"574","","bandit","127","634491","0.0-88.0-0.0","42980300","wem/bandit_either","A14ADQ7RUN6TDY","either","1","","","","","","","0","0","1","0.1044048509","","0.4","0.8","0.6","0.2","","","","","0.4232064109","0.1044048509","0.1265186769","0.2767916858","","","","","","","74","J","1","","","49","main_expt"
"1784","","bandit","128","638613","0.0-89.0-0.0","42980300","wem/bandit_either","A14ADQ7RUN6TDY","either","1","","","","","","","0","1","0","","0.1072026782","0.4","0.8","0.6","0.2","0.4210883962","0.1072026782","0.1397440907","0.2762534014","","","","","","","","","","","74","J","1","","","50","main_expt"
"448","","bandit","129","640604","0.0-90.0-0.0","42980300","wem/bandit_either","A14ADQ7RUN6TDY","either","1","","","","","","","0","0","1","0.1287882573","","0.4","0.8","0.6","0.2","","","","","0.4225635581","0.1287882573","0.153600331","0.3379376541","","","","","","","74","J","1","","","51","main_expt"
"820","","bandit","130","643872","0.0-91.0-0.0","42980300","wem/bandit_either","A14ADQ7RUN6TDY","either","1","","","","","","","0","0","1","0.1298059469","","0.4","0.8","0.6","0.2","","","","","0.4146237098","0.1298059469","0.1718407591","0.3395267946","","","","","","","74","J","1","","","52","main_expt"
"587","","bandit","131","645999","0.0-92.0-0.0","42980300","wem/bandit_either","A14ADQ7RUN6TDY","either","1","","","","","","","0","0","1","0.1945727614","","0.4","0.8","0.6","0.2","","","","","0.3763623321","0.07423060895","0.1945727614","0.29674647","","","","","","","75","K","2","","","53","main_expt"
"613","","bandit","132","648861","0.0-93.0-0.0","42980300","wem/bandit_either","A14ADQ7RUN6TDY","either","1","","","","","","","0","0","1","","0.2450542523","0.4","0.8","0.6","0.2","0.3289081181","0.08562383645","0.2450542523","0.3372955831","","","","","","","","","","","75","K","2","","","54","main_expt"
"528","","bandit","133","650928","0.0-94.0-0.0","42980300","wem/bandit_either","A14ADQ7RUN6TDY","either","1","","","","","","","0","0","1","","0.2547241938","0.4","0.8","0.6","0.2","0.3025984711","0.0757818623","0.2547241938","0.3506099842","","","","","","","","","","","75","K","2","","","55","main_expt"
"1605","","bandit","134","654062","0.0-95.0-0.0","42980300","wem/bandit_either","A14ADQ7RUN6TDY","either","1","","","","","","","0","0","1","","0.2595112895","0.4","0.8","0.6","0.2","0.2921333137","0.09897923035","0.2595112895","0.3418029788","","","","","","","","","","","75","K","2","","","56","main_expt"
"930","","bandit","135","657578","0.0-96.0-0.0","42980300","wem/bandit_either","A14ADQ7RUN6TDY","either","1","","","","","","","0","1","0","","0.3162475816","0.4","0.8","0.6","0.2","0.3317177772","0.1160875525","0.2610276213","0.3162475816","","","","","","","","","","","76","L","3","","","57","main_expt"
"627","","bandit","136","659809","0.0-97.0-0.0","42980300","wem/bandit_either","A14ADQ7RUN6TDY","either","1","","","","","","","0","0","1","0.3269881105","","0.4","0.8","0.6","0.2","","","","","0.3240244649","0.1134641846","0.2354201416","0.3269881105","","","","","","","76","L","3","","","58","main_expt"
"698","","bandit","137","662548","0.0-98.0-0.0","42980300","wem/bandit_either","A14ADQ7RUN6TDY","either","1","","","","","","","0","1","0","","0.2901324944","0.4","0.8","0.6","0.2","0.2988076671","0.1177083384","0.2346370837","0.2901324944","","","","","","","","","","","76","L","3","","","59","main_expt"
"738","","bandit","138","664882","0.0-99.0-0.0","42980300","wem/bandit_either","A14ADQ7RUN6TDY","either","1","","","","","","","0","0","1","","0.289588464","0.4","0.8","0.6","0.2","0.3096792726","0.1125723432","0.2315637733","0.289588464","","","","","","","","","","","76","L","3","","","60","main_expt"
"780","","bandit","139","667401","0.0-100.0-0.0","42980300","wem/bandit_either","A14ADQ7RUN6TDY","either","1","","","","","","","0","0","1","","0.2782845563","0.4","0.8","0.6","0.2","0.2821336973","0.09911093426","0.2599537756","0.2782845563","","","","","","","","","","","76","L","3","","","61","main_expt"
"976","","bandit","140","669917","0.0-101.0-0.0","42980300","wem/bandit_either","A14ADQ7RUN6TDY","either","1","","","","","","","0","0","1","","0.3165490401","0.4","0.8","0.6","0.2","0.2414244345","0.09440438105","0.2594941563","0.3165490401","","","","","","","","","","","76","L","3","","","62","main_expt"
"387","","bandit","141","672925","0.0-102.0-0.0","42980300","wem/bandit_either","A14ADQ7RUN6TDY","either","1","","","","","","","0","0","1","0.213639373","","0.4","0.8","0.6","0.2","","","","","0.213639373","0.1015409351","0.2660839385","0.3034564924","","","","","","","72","H","0","img/none_selected.jpg","","63","main_expt"
"547","","bandit","142","674998","0.0-103.0-0.0","42980300","wem/bandit_either","A14ADQ7RUN6TDY","either","1","","","","","","","0","0","1","0.1876308072","","0.4","0.8","0.6","0.2","","","","","0.1876308072","0.07049798599","0.2426585031","0.2506654962","","","","","","","72","H","0","img/none_selected.jpg","","64","main_expt"
"844","","bandit","143","677472","0.0-104.0-0.0","42980300","wem/bandit_either","A14ADQ7RUN6TDY","either","1","","","","","","","0","0","1","0.1841803182","","0.4","0.8","0.6","0.2","","","","","0.1841803182","0.05735603507","0.2581047566","0.253414466","","","","","","","72","H","0","img/none_selected.jpg","","65","main_expt"
"456","","bandit","144","679452","0.0-105.0-0.0","42980300","wem/bandit_either","A14ADQ7RUN6TDY","either","1","","","","","","","0","0","1","0.0621258055","","0.4","0.8","0.6","0.2","","","","","0.187417598","0.0621258055","0.2872127433","0.2836500186","","","","","","","74","J","1","","","66","main_expt"
"536","","bandit","145","682379","0.0-106.0-0.0","42980300","wem/bandit_either","A14ADQ7RUN6TDY","either","1","","","","","","","1","0","0","0.06966106928","","0.4","0.8","0.6","0.2","","","","","0.1395950637","0.06966106928","0.3232337643","0.3217852231","","","","","","","74","J","1","","","67","main_expt"
"486","","bandit","146","684405","0.0-107.0-0.0","42980300","wem/bandit_either","A14ADQ7RUN6TDY","either","1","","","","","","","0","0","1","0.09965709916","","0.4","0.8","0.6","0.2","","","","","0.1363519197","0.09965709916","0.3376006622","0.3574581916","","","","","","","74","J","1","","","68","main_expt"
"486","","bandit","147","686489","0.0-108.0-0.0","42980300","wem/bandit_either","A14ADQ7RUN6TDY","either","1","","","","","","","0","0","1","","0.1428217854","0.4","0.8","0.6","0.2","0.1117144852","0.1428217854","0.2917609244","0.3884563005","","","","","","","","","","","74","J","1","","","69","main_expt"
"1441","","bandit","148","689497","0.0-109.0-0.0","42980300","wem/bandit_either","A14ADQ7RUN6TDY","either","1","","","","","","","0","0","1","0.1866845388","","0.4","0.8","0.6","0.2","","","","","0.09667493602","0.1866845388","0.2218665627","0.3920047773","","","","","","","74","J","1","","","70","main_expt"
"531","","bandit","149","692386","0.0-110.0-0.0","42980300","wem/bandit_either","A14ADQ7RUN6TDY","either","1","","","","","","","0","0","1","0.1702545286","","0.4","0.8","0.6","0.2","","","","","0.09186933139","0.1702545286","0.2409383839","0.4066376731","","","","","","","74","J","1","","","71","main_expt"
"445","","bandit","150","697473","0.0-111.0-0.0","42980300","wem/bandit_either","A14ADQ7RUN6TDY","either","1","","","","","","","1","0","0","0.1920783453","","0.4","0.8","0.6","0.2","","","","","0.09472009463","0.1836279043","0.1920783453","0.3443789926","","","","","","","75","K","2","","","72","main_expt"
"1383","","bandit","151","700411","0.0-112.0-0.0","42980300","wem/bandit_either","A14ADQ7RUN6TDY","either","1","","","","","","","0","0","1","0.1905254877","","0.4","0.8","0.6","0.2","","","","","0.1167805336","0.1644348242","0.1905254877","0.3227553012","","","","","","","75","K","2","","","73","main_expt"
"848","","bandit","152","703581","0.0-113.0-0.0","42980300","wem/bandit_either","A14ADQ7RUN6TDY","either","1","","","","","","","0","0","1","0.184198213","","0.4","0.8","0.6","0.2","","","","","0.1465151254","0.1833421201","0.184198213","0.3336652139","","","","","","","75","K","2","","","74","main_expt"
"892","","bandit","153","706401","0.0-114.0-0.0","42980300","wem/bandit_either","A14ADQ7RUN6TDY","either","1","","","","","","","0","0","1","0.1881920243","","0.4","0.8","0.6","0.2","","","","","0.123285719","0.1519653276","0.1881920243","0.2890150868","","","","","","","75","K","2","","","75","main_expt"
"1266","","bandit","154","709196","0.0-115.0-0.0","42980300","wem/bandit_either","A14ADQ7RUN6TDY","either","1","","","","","","","1","0","0","0.1988930589","","0.4","0.8","0.6","0.2","","","","","0.1392606081","0.1506622639","0.1988930589","0.2673490463","","","","","","","75","K","2","","","76","main_expt"
"1028","","bandit","155","712551","0.0-116.0-0.0","42980300","wem/bandit_either","A14ADQ7RUN6TDY","either","1","","","","","","","0","0","1","","0.2255968657","0.4","0.8","0.6","0.2","0.099337717","0.1860897766","0.2255968657","0.2858541315","","","","","","","","","","","75","K","2","","","77","main_expt"
"843","","bandit","156","714936","0.0-117.0-0.0","42980300","wem/bandit_either","A14ADQ7RUN6TDY","either","1","","","","","","","0","0","1","0.1917014014","","0.4","0.8","0.6","0.2","","","","","0.09666605973","0.1618556875","0.1917014014","0.2639968829","","","","","","","75","K","2","","","78","main_expt"
"1155","","bandit","157","718580","0.0-118.0-0.0","42980300","wem/bandit_either","A14ADQ7RUN6TDY","either","1","","","","","","","1","0","0","0.2092129429","","0.4","0.8","0.6","0.2","","","","","0.09639353985","0.1976853889","0.2092129429","0.2304888896","","","","","","","75","K","2","","","79","main_expt"
"621","","bandit","158","720819","0.0-119.0-0.0","42980300","wem/bandit_either","A14ADQ7RUN6TDY","either","1","","","","","","","0","0","1","0.1974306726","","0.4","0.8","0.6","0.2","","","","","0.09566996791","0.2198838985","0.1974306726","0.1991809665","","","","","","","75","K","2","","","80","main_expt"
"1526","","bandit","159","723884","0.0-120.0-0.0","42980300","wem/bandit_either","A14ADQ7RUN6TDY","either","1","","","","","","","0","1","0","","0.1414754506","0.4","0.8","0.6","0.2","0.07958501382","0.2167005254","0.1414754506","0.1627434897","","","","","","","","","","","75","K","2","","","81","main_expt"
"445","","bandit","160","725867","0.0-121.0-0.0","42980300","wem/bandit_either","A14ADQ7RUN6TDY","either","1","","","","","","","0","0","1","0.1422587364","","0.4","0.8","0.6","0.2","","","","","0.08833774835","0.2527486409","0.1422587364","0.1624637972","","","","","","","75","K","2","","","82","main_expt"
"1407","","bandit","161","728869","0.0-122.0-0.0","42980300","wem/bandit_either","A14ADQ7RUN6TDY","either","1","","","","","","","0","0","1","","0.1079415531","0.4","0.8","0.6","0.2","0.09109006352","0.2569721607","0.1079415531","0.1900332","","","","","","","","","","","75","K","2","","","83","main_expt"
"382","","bandit","162","730780","0.0-123.0-0.0","42980300","wem/bandit_either","A14ADQ7RUN6TDY","either","1","","","","","","","0","0","1","","0.2535394321","0.4","0.8","0.6","0.2","0.05321730921","0.2535394321","0.07696487024","0.1705646391","","","","","","","","","","","74","J","1","","","84","main_expt"
"1513","","bandit","163","733925","0.0-124.0-0.0","42980300","wem/bandit_either","A14ADQ7RUN6TDY","either","1","","","","","","","0","0","1","0.2255799186","","0.4","0.8","0.6","0.2","","","","","0.03321009489","0.2255799186","0.08313016423","0.2053302659","","","","","","","74","J","1","","","85","main_expt"
"513","","bandit","164","736017","0.0-125.0-0.0","42980300","wem/bandit_either","A14ADQ7RUN6TDY","either","1","","","","","","","0","1","0","","0.2197080914","0.4","0.8","0.6","0.2","0.04864990798","0.2197080914","0.102083396","0.2128685413","","","","","","","","","","","74","J","1","","","86","main_expt"
"632","","bandit","165","738887","0.0-126.0-0.0","42980300","wem/bandit_either","A14ADQ7RUN6TDY","either","1","","","","","","","0","0","1","0.2230338057","","0.4","0.8","0.6","0.2","","","","","0.07919268752","0.2230338057","0.09067070718","0.213778815","","","","","","","74","J","1","","","87","main_expt"
"445","","bandit","166","740888","0.0-127.0-0.0","42980300","wem/bandit_either","A14ADQ7RUN6TDY","either","1","","","","","","","1","0","0","0.2484269739","","0.4","0.8","0.6","0.2","","","","","0.05835116993","0.2484269739","0.1421970704","0.2102340809","","","","","","","74","J","1","","","88","main_expt"
"606","","bandit","167","744105","0.0-128.0-0.0","42980300","wem/bandit_either","A14ADQ7RUN6TDY","either","1","","","","","","","1","0","0","0.2733562597","","0.4","0.8","0.6","0.2","","","","","0.05115519592","0.2733562597","0.219142046","0.1809358483","","","","","","","74","J","1","","","89","main_expt"
"537","","bandit","168","746257","0.0-129.0-0.0","42980300","wem/bandit_either","A14ADQ7RUN6TDY","either","1","","","","","","","0","0","1","0.2973868449","","0.4","0.8","0.6","0.2","","","","","0.07819273649","0.2973868449","0.2806923657","0.1293356972","","","","","","","74","J","1","","","90","main_expt"
"540","","bandit","169","748974","0.0-130.0-0.0","42980300","wem/bandit_either","A14ADQ7RUN6TDY","either","1","","","","","","","1","0","0","0.3067689268","","0.4","0.8","0.6","0.2","","","","","0.05564661524","0.3067689268","0.2819660137","0.1136224352","","","","","","","74","J","1","","","91","main_expt"
"517","","bandit","170","751360","0.0-131.0-0.0","42980300","wem/bandit_either","A14ADQ7RUN6TDY","either","1","","","","","","","0","0","1","0.2719776188","","0.4","0.8","0.6","0.2","","","","","0.05914103421","0.2719776188","0.3370305887","0.07539152519","","","","","","","74","J","1","","","92","main_expt"
"1135","","bandit","171","754032","0.0-132.0-0.0","42980300","wem/bandit_either","A14ADQ7RUN6TDY","either","1","","","","","","","0","0","1","0.3081791896","","0.4","0.8","0.6","0.2","","","","","0.03944324463","0.3081791896","0.3722719914","0.08243558305","","","","","","","74","J","1","","","93","main_expt"
"425","","bandit","172","755991","0.0-133.0-0.0","42980300","wem/bandit_either","A14ADQ7RUN6TDY","either","1","","","","","","","1","0","0","0.356667856","","0.4","0.8","0.6","0.2","","","","","0.05023017475","0.356667856","0.3840030774","0.09807673793","","","","","","","74","J","1","","","94","main_expt"
"1514","","bandit","173","759053","0.0-134.0-0.0","42980300","wem/bandit_either","A14ADQ7RUN6TDY","either","1","","","","","","","0","0","1","0.3300765204","","0.4","0.8","0.6","0.2","","","","","0.07311956304","0.3300765204","0.4050844552","0.09746204728","","","","","","","74","J","1","","","95","main_expt"
"528","","bandit","174","761298","0.0-135.0-0.0","42980300","wem/bandit_either","A14ADQ7RUN6TDY","either","1","","","","","","","1","0","0","0.3642735905","","0.4","0.8","0.6","0.2","","","","","0.09573717159","0.3642735905","0.4081076376","0.08559835745","","","","","","","74","J","1","","","96","main_expt"
"1601","","bandit","175","764439","0.0-136.0-0.0","42980300","wem/bandit_either","A14ADQ7RUN6TDY","either","1","","","","","","","0","0","1","0.3885664579","","0.4","0.8","0.6","0.2","","","","","0.1235519285","0.3885664579","0.4142780263","0.0732645996","","","","","","","74","J","1","","","97","main_expt"
"651","","bandit","176","767527","0.0-137.0-0.0","42980300","wem/bandit_either","A14ADQ7RUN6TDY","either","1","","","","","","","0","0","1","0.4162912028","","0.4","0.8","0.6","0.2","","","","","0.1274282425","0.4162912028","0.4131193208","0.05343209845","","","","","","","74","J","1","","","98","main_expt"
"505","","bandit","177","769600","0.0-138.0-0.0","42980300","wem/bandit_either","A14ADQ7RUN6TDY","either","1","","","","","","","0","0","1","0.4074153657","","0.4","0.8","0.6","0.2","","","","","0.1457321849","0.4074153657","0.428944851","0.05144299931","","","","","","","74","J","1","","","99","main_expt"
"1149","","bandit","178","773559","0.0-139.0-0.0","42980300","wem/bandit_either","A14ADQ7RUN6TDY","either","1","","","","","","","1","0","0","0.3349137267","","0.4","0.8","0.6","0.2","","","","","0.1492128348","0.3349137267","0.4279797645","0.03934302155","","","","","","","74","J","1","","","100","main_expt"
"681","","bandit","179","775771","0.0-140.0-0.0","42980300","wem/bandit_either","A14ADQ7RUN6TDY","either","1","","","","","","","0","0","1","","0.2732947861","0.4","0.8","0.6","0.2","0.125019219","0.2732947861","0.4189249443","0.05783306622","","","","","","","","","","","74","J","1","","","101","main_expt"
"1717","","bandit","180","779026","0.0-141.0-0.0","42980300","wem/bandit_either","A14ADQ7RUN6TDY","either","1","","","","","","","0","0","1","0.1008510245","","0.4","0.8","0.6","0.2","","","","","0.1008510245","0.2584454073","0.4279241466","0.06484492547","","","","","","","72","H","0","img/none_selected.jpg","","102","main_expt"
"659","","bandit","181","781415","0.0-142.0-0.0","42980300","wem/bandit_either","A14ADQ7RUN6TDY","either","1","","","","","","","0","0","1","","0.1087281004","0.4","0.8","0.6","0.2","0.1087281004","0.2143891894","0.419390052","0.0701259157","","","","","","","","","","","72","H","0","img/none_selected.jpg","","103","main_expt"
"1395","","bandit","182","784358","0.0-143.0-0.0","42980300","wem/bandit_either","A14ADQ7RUN6TDY","either","1","","","","","","","0","0","1","0.1354346047","","0.4","0.8","0.6","0.2","","","","","0.143855427","0.1354346047","0.3761202226","0.06922647753","","","","","","","74","J","1","","","104","main_expt"
"428","","bandit","183","786493","0.0-144.0-0.0","42980300","wem/bandit_either","A14ADQ7RUN6TDY","either","1","","","","","","","0","0","1","0.1615963473","","0.4","0.8","0.6","0.2","","","","","0.1606853024","0.1615963473","0.4229881466","0.07802312096","","","","","","","74","J","1","","","105","main_expt"
"1066","","bandit","184","789088","0.0-145.0-0.0","42980300","wem/bandit_either","A14ADQ7RUN6TDY","either","1","","","","","","","0","0","1","0.1738621023","","0.4","0.8","0.6","0.2","","","","","0.1612939645","0.1738621023","0.4110558218","0.08930313369","","","","","","","74","J","1","","","106","main_expt"
"439","","bandit","185","791332","0.0-146.0-0.0","42980300","wem/bandit_either","A14ADQ7RUN6TDY","either","1","","","","","","","0","0","1","0.1799671425","","0.4","0.8","0.6","0.2","","","","","0.1778053335","0.1799671425","0.4176599015","0.1397733654","","","","","","","74","J","1","","","107","main_expt"
"1201","","bandit","186","794073","0.0-147.0-0.0","42980300","wem/bandit_either","A14ADQ7RUN6TDY","either","1","","","","","","","0","0","1","0.4210396584","","0.4","0.8","0.6","0.2","","","","","0.1826465361","0.1844274074","0.4210396584","0.1505899732","","","","","","","75","K","2","","","108","main_expt"
"425","","bandit","187","796045","0.0-148.0-0.0","42980300","wem/bandit_either","A14ADQ7RUN6TDY","either","1","","","","","","","0","0","1","","0.4328015469","0.4","0.8","0.6","0.2","0.1737022726","0.1702708828","0.4328015469","0.1162436109","","","","","","","","","","","75","K","2","","","109","main_expt"
"1707","","bandit","188","799307","0.0-149.0-0.0","42980300","wem/bandit_either","A14ADQ7RUN6TDY","either","1","","","","","","","0","0","1","0.4495585744","","0.4","0.8","0.6","0.2","","","","","0.1658344406","0.1964407335","0.4495585744","0.08267976014","","","","","","","75","K","2","","","110","main_expt"
"455","","bandit","189","801371","0.0-150.0-0.0","42980300","wem/bandit_either","A14ADQ7RUN6TDY","either","1","","","","","","","0","0","1","0.4237631325","","0.4","0.8","0.6","0.2","","","","","0.240619448","0.1777579569","0.4237631325","0.09389793805","","","","","","","75","K","2","","","111","main_expt"
"1055","","bandit","190","803957","0.0-151.0-0.0","42980300","wem/bandit_either","A14ADQ7RUN6TDY","either","1","","","","","","","1","0","0","0.4521571561","","0.4","0.8","0.6","0.2","","","","","0.1927397719","0.1395994444","0.4521571561","0.07903418564","","","","","","","75","K","2","","","112","main_expt"
"630","","bandit","191","806306","0.0-152.0-0.0","42980300","wem/bandit_either","A14ADQ7RUN6TDY","either","1","","","","","","","0","0","1","0.4350762846","","0.4","0.8","0.6","0.2","","","","","0.234725565","0.1205999431","0.4350762846","0.05501139052","","","","","","","75","K","2","","","113","main_expt"
"1116","","bandit","192","808965","0.0-153.0-0.0","42980300","wem/bandit_either","A14ADQ7RUN6TDY","either","1","","","","","","","1","0","0","0.4315824664","","0.4","0.8","0.6","0.2","","","","","0.1950215869","0.09123355482","0.4315824664","0.07627702456","","","","","","","75","K","2","","","114","main_expt"
"428","","bandit","193","810928","0.0-154.0-0.0","42980300","wem/bandit_either","A14ADQ7RUN6TDY","either","1","","","","","","","0","0","1","","0.4127349624","0.4","0.8","0.6","0.2","0.2575833325","0.09554471192","0.4127349624","0.03985247356","","","","","","","","","","","75","K","2","","","115","main_expt"
"460","","bandit","194","813748","0.0-155.0-0.0","42980300","wem/bandit_either","A14ADQ7RUN6TDY","either","1","","","","","","","0","1","0","","0.4468356006","0.4","0.8","0.6","0.2","0.2296468005","0.1942182492","0.4468356006","0.0683792979","","","","","","","","","","","75","K","2","","","116","main_expt"
"407","","bandit","195","815702","0.0-156.0-0.0","42980300","wem/bandit_either","A14ADQ7RUN6TDY","either","1","","","","","","","0","0","1","0.4458703805","","0.4","0.8","0.6","0.2","","","","","0.2816483341","0.2208250117","0.4458703805","0.03956212276","","","","","","","75","K","2","","","117","main_expt"
"568","","bandit","196","818548","0.0-157.0-0.0","42980300","wem/bandit_either","A14ADQ7RUN6TDY","either","1","","","","","","","0","1","0","","0.4500370674","0.4","0.8","0.6","0.2","0.2626769985","0.1687975443","0.4500370674","0.04459229253","","","","","","","","","","","75","K","2","","","118","main_expt"
"356","","bandit","197","820441","0.0-158.0-0.0","42980300","wem/bandit_either","A14ADQ7RUN6TDY","either","1","","","","","","","0","0","1","0.4704359259","","0.4","0.8","0.6","0.2","","","","","0.2418090277","0.1546105485","0.4704359259","0.03386957434","","","","","","","75","K","2","","","119","main_expt"
"520","","bandit","198","822941","0.0-159.0-0.0","42980300","wem/bandit_either","A14ADQ7RUN6TDY","either","1","","","","","","","0","1","0","","0.4578798539","0.4","0.8","0.6","0.2","0.2603236095","0.143668411","0.4578798539","0.03305427522","","","","","","","","","","","75","K","2","","","120","main_expt"
"658","","bandit","199","825184","0.0-160.0-0.0","42980300","wem/bandit_either","A14ADQ7RUN6TDY","either","1","","","","","","","0","0","1","","0.4591190262","0.4","0.8","0.6","0.2","0.2381785671","0.1098317425","0.4591190262","0.03146098963","","","","","","","","","","","75","K","2","","","121","main_expt"
"537","","bandit","200","827796","0.0-161.0-0.0","42980300","wem/bandit_either","A14ADQ7RUN6TDY","either","1","","","","","","","1","0","0","0.4643737298","","0.4","0.8","0.6","0.2","","","","","0.2388462554","0.1097832873","0.4643737298","0.02311797033","","","","","","","75","K","2","","","122","main_expt"
"453","","bandit","201","829789","0.0-162.0-0.0","42980300","wem/bandit_either","A14ADQ7RUN6TDY","either","1","","","","","","","0","0","1","","0.451586091","0.4","0.8","0.6","0.2","0.2079929623","0.1145900252","0.451586091","0.0171261738","","","","","","","","","","","75","K","2","","","123","main_expt"
"558","","bandit","202","832596","0.0-163.0-0.0","42980300","wem/bandit_either","A14ADQ7RUN6TDY","either","1","","","","","","","0","0","1","0.4456906556","","0.4","0.8","0.6","0.2","","","","","0.2148400852","0.1137783892","0.4456906556","0.03468299263","","","","","","","75","K","2","","","124","main_expt"
"651","","bandit","203","834781","0.0-164.0-0.0","42980300","wem/bandit_either","A14ADQ7RUN6TDY","either","1","","","","","","","0","0","1","0.4240876494","","0.4","0.8","0.6","0.2","","","","","0.2185056602","0.145605256","0.4240876494","0.02544516396","","","","","","","75","K","2","","","125","main_expt"
"654","","bandit","204","837650","0.0-165.0-0.0","42980300","wem/bandit_either","A14ADQ7RUN6TDY","either","1","","","","","","","0","0","1","","0.03059506073","0.4","0.8","0.6","0.2","0.2152323899","0.1443839055","0.4008501573","0.03059506073","","","","","","","","","","","76","L","3","","","126","main_expt"
"435","","bandit","205","839654","0.0-166.0-0.0","42980300","wem/bandit_either","A14ADQ7RUN6TDY","either","1","","","","","","","0","0","1","","0.0339638967","0.4","0.8","0.6","0.2","0.1699446714","0.1434222382","0.4066073101","0.0339638967","","","","","","","","","","","76","L","3","","","127","main_expt"
"708","","bandit","206","842456","0.0-167.0-0.0","42980300","wem/bandit_either","A14ADQ7RUN6TDY","either","1","","","","","","","0","1","0","","0.02632978063","0.4","0.8","0.6","0.2","0.1299446217","0.1412168693","0.4270302575","0.02632978063","","","","","","","","","","","76","L","3","","","128","main_expt"
"635","","bandit","207","844747","0.0-168.0-0.0","42980300","wem/bandit_either","A14ADQ7RUN6TDY","either","1","","","","","","","0","0","1","","0.02640977482","0.4","0.8","0.6","0.2","0.1299487573","0.1086871361","0.4401824822","0.02640977482","","","","","","","","","","","76","L","3","","","129","main_expt"
"637","","bandit","208","847614","0.0-169.0-0.0","42980300","wem/bandit_either","A14ADQ7RUN6TDY","either","1","","","","","","","0","0","1","","0.03646961518","0.4","0.8","0.6","0.2","0.1172580566","0.1672766288","0.4160959849","0.03646961518","","","","","","","","","","","76","L","3","","","130","main_expt"
"595","","bandit","209","849739","0.0-170.0-0.0","42980300","wem/bandit_either","A14ADQ7RUN6TDY","either","1","","","","","","","0","0","1","","0.02171712127","0.4","0.8","0.6","0.2","0.1289979545","0.157110596","0.4374535298","0.02171712127","","","","","","","","","","","76","L","3","","","131","main_expt"
"1256","","bandit","210","853403","0.0-171.0-0.0","42980300","wem/bandit_either","A14ADQ7RUN6TDY","either","1","","","","","","","0","0","1","0.01004766493","","0.4","0.8","0.6","0.2","","","","","0.1243754988","0.1338697581","0.4382483821","0.01004766493","","","","","","","76","L","3","","","132","main_expt"
"1144","","bandit","211","856292","0.0-172.0-0.0","42980300","wem/bandit_either","A14ADQ7RUN6TDY","either","1","","","","","","","0","0","1","0.1101669797","","0.4","0.8","0.6","0.2","","","","","0.1189203389","0.1101669797","0.3913946914","0.005153708139","","","","","","","74","J","1","","","133","main_expt"
"1154","","bandit","212","858979","0.0-173.0-0.0","42980300","wem/bandit_either","A14ADQ7RUN6TDY","either","1","","","","","","","0","0","1","0.060775537","","0.4","0.8","0.6","0.2","","","","","0.07075860378","0.060775537","0.4280120537","0.01308543257","","","","","","","74","J","1","","","134","main_expt"
"669","","bandit","213","861399","0.0-174.0-0.0","42980300","wem/bandit_either","A14ADQ7RUN6TDY","either","1","","","","","","","0","0","1","","0.1073185777","0.4","0.8","0.6","0.2","0.1073185777","0.0714416082","0.4385213509","0.02634180281","","","","","","","","","","","72","H","0","img/none_selected.jpg","","135","main_expt"
"1024","","bandit","214","863967","0.0-175.0-0.0","42980300","wem/bandit_either","A14ADQ7RUN6TDY","either","1","","","","","","","0","0","1","","0.1001442491","0.4","0.8","0.6","0.2","0.1001442491","0.1115096907","0.4605212521","0.04122629063","","","","","","","","","","","72","H","0","img/none_selected.jpg","","136","main_expt"
"731","","bandit","215","866355","0.0-176.0-0.0","42980300","wem/bandit_either","A14ADQ7RUN6TDY","either","1","","","","","","","0","0","1","0.1736681681","","0.4","0.8","0.6","0.2","","","","","0.1736681681","0.1307091067","0.4729500637","0.05517648788","","","","","","","72","H","0","img/none_selected.jpg","","137","main_expt"
"1130","","bandit","216","869085","0.0-177.0-0.0","42980300","wem/bandit_either","A14ADQ7RUN6TDY","either","1","","","","","","","0","0","1","","0.1839908368","0.4","0.8","0.6","0.2","0.1839908368","0.1289533412","0.4705425907","0.05929415862","","","","","","","","","","","72","H","0","img/none_selected.jpg","","138","main_expt"
"530","","bandit","217","871374","0.0-178.0-0.0","42980300","wem/bandit_either","A14ADQ7RUN6TDY","either","1","","","","","","","0","0","1","","0.1500833973","0.4","0.8","0.6","0.2","0.1500833973","0.1215972271","0.465423541","0.05470710098","","","","","","","","","","","72","H","0","img/none_selected.jpg","","139","main_expt"
"1035","","bandit","218","873975","0.0-179.0-0.0","42980300","wem/bandit_either","A14ADQ7RUN6TDY","either","1","","","","","","","0","0","1","0.06062538604","","0.4","0.8","0.6","0.2","","","","","0.1718879457","0.1158179575","0.4486857012","0.06062538604","","","","","","","76","L","3","","","140","main_expt"
"337","","bandit","219","875890","0.0-180.0-0.0","42980300","wem/bandit_either","A14ADQ7RUN6TDY","either","1","","","","","","","0","0","1","0.05819772386","","0.4","0.8","0.6","0.2","","","","","0.2025036279","0.08691297649","0.4053061298","0.05819772386","","","","","","","76","L","3","","","141","main_expt"
"1543","","bandit","220","878965","0.0-181.0-0.0","42980300","wem/bandit_either","A14ADQ7RUN6TDY","either","1","","","","","","","0","0","1","","0.05329701838","0.4","0.8","0.6","0.2","0.1872564568","0.1425267255","0.3989731656","0.05329701838","","","","","","","","","","","76","L","3","","","142","main_expt"
"482","","bandit","221","881001","0.0-182.0-0.0","42980300","wem/bandit_either","A14ADQ7RUN6TDY","either","1","","","","","","","0","0","1","0.06209903385","","0.4","0.8","0.6","0.2","","","","","0.1676641842","0.1425141192","0.3783570596","0.06209903385","","","","","","","76","L","3","","","143","main_expt"
"1511","","bandit","222","884171","0.0-183.0-0.0","42980300","wem/bandit_either","A14ADQ7RUN6TDY","either","1","","","","","","","0","0","1","0.3485663762","","0.4","0.8","0.6","0.2","","","","","0.1502987652","0.1362652721","0.3485663762","0.06954729647","","","","","","","75","K","2","","","144","main_expt"
"811","","bandit","223","886697","0.0-184.0-0.0","42980300","wem/bandit_either","A14ADQ7RUN6TDY","either","1","","","","","","","0","0","1","0.3534190037","","0.4","0.8","0.6","0.2","","","","","0.1050568962","0.1335650053","0.3534190037","0.062760129","","","","","","","75","K","2","","","145","main_expt"
"1102","","bandit","224","889339","0.0-185.0-0.0","42980300","wem/bandit_either","A14ADQ7RUN6TDY","either","1","","","","","","","0","0","1","0.1392461982","","0.4","0.8","0.6","0.2","","","","","0.1266784727","0.1392461982","0.342282706","0.05014677947","","","","","","","74","J","1","","","146","main_expt"
"474","","bandit","225","891437","0.0-186.0-0.0","42980300","wem/bandit_either","A14ADQ7RUN6TDY","either","1","","","","","","","0","0","1","0.1060810453","","0.4","0.8","0.6","0.2","","","","","0.1121887101","0.1060810453","0.3497384939","0.04801868921","","","","","","","74","J","1","","","147","main_expt"
"1104","","bandit","226","894071","0.0-187.0-0.0","42980300","wem/bandit_either","A14ADQ7RUN6TDY","either","1","","","","","","","0","0","1","0.1076054289","","0.4","0.8","0.6","0.2","","","","","0.1050077765","0.1076054289","0.3507348305","0.05298179562","","","","","","","74","J","1","","","148","main_expt"
"1687","","bandit","227","897576","0.0-188.0-0.0","42980300","wem/bandit_either","A14ADQ7RUN6TDY","either","1","","","","","","","0","0","1","0.09143227578","","0.4","0.8","0.6","0.2","","","","","0.08725679698","0.09143227578","0.306786392","0.05271587927","","","","","","","74","J","1","","","149","main_expt"
"1078","","bandit","228","900354","0.0-189.0-0.0","42980300","wem/bandit_either","A14ADQ7RUN6TDY","either","1","","","","","","","0","0","1","","0.3289077467","0.4","0.8","0.6","0.2","0.04813781364","0.08361181256","0.3289077467","0.06153260368","","","","","","","","","","","75","K","2","","","150","main_expt"
"667","","bandit","229","902919","0.0-190.0-0.0","42980300","wem/bandit_either","A14ADQ7RUN6TDY","either","1","","","","","","","0","0","1","","0.07716317934","0.4","0.8","0.6","0.2","0.04690393958","0.1038450747","0.2844912386","0.07716317934","","","","","","","","","","","76","L","3","","","151","main_expt"
"1521","","bandit","230","905980","0.0-191.0-0.0","42980300","wem/bandit_either","A14ADQ7RUN6TDY","either","1","","","","","","","0","0","1","0.3221551402","","0.4","0.8","0.6","0.2","","","","","0.05051779207","0.1311897928","0.3221551402","0.08370894892","","","","","","","75","K","2","","","152","main_expt"
"1442","","bandit","231","909031","0.0-192.0-0.0","42980300","wem/bandit_either","A14ADQ7RUN6TDY","either","1","","","","","","","0","0","1","","0.0417019452","0.4","0.8","0.6","0.2","0.0417019452","0.1106636196","0.288581716","0.06235129306","","","","","","","","","","","72","H","0","img/none_selected.jpg","","153","main_expt"
"540","","bandit","232","911364","0.0-193.0-0.0","42980300","wem/bandit_either","A14ADQ7RUN6TDY","either","1","","","","","","","0","0","1","0.04565059468","","0.4","0.8","0.6","0.2","","","","","0.04565059468","0.08044616817","0.3674714493","0.08808261531","","","","","","","72","H","0","img/none_selected.jpg","","154","main_expt"
"1101","","bandit","233","914125","0.0-194.0-0.0","42980300","wem/bandit_either","A14ADQ7RUN6TDY","either","1","","","","","","","0","0","1","","0.0249337719","0.4","0.8","0.6","0.2","0.0249337719","0.09849608375","0.3836765626","0.08415746701","","","","","","","","","","","72","H","0","img/none_selected.jpg","","155","main_expt"
"465","","bandit","234","916350","0.0-195.0-0.0","42980300","wem/bandit_either","A14ADQ7RUN6TDY","either","1","","","","","","","0","0","1","0.0207568711","","0.4","0.8","0.6","0.2","","","","","0.0207568711","0.0679626842","0.3499766022","0.1363215429","","","","","","","72","H","0","img/none_selected.jpg","","156","main_expt"
"473","","bandit","235","918889","0.0-196.0-0.0","42980300","wem/bandit_either","A14ADQ7RUN6TDY","either","1","","","","","","","0","0","1","0.01044871803","","0.4","0.8","0.6","0.2","","","","","0.01044871803","0.06316877849","0.3083455354","0.176329139","","","","","","","72","H","0","img/none_selected.jpg","","157","main_expt"
"467","","bandit","236","920899","0.0-197.0-0.0","42980300","wem/bandit_either","A14ADQ7RUN6TDY","either","1","","","","","","","0","0","1","0.008486032171","","0.4","0.8","0.6","0.2","","","","","0.008486032171","0.06381796224","0.2780985587","0.2239815039","","","","","","","72","H","0","img/none_selected.jpg","","158","main_expt"
"389","","bandit","237","923626","0.0-198.0-0.0","42980300","wem/bandit_either","A14ADQ7RUN6TDY","either","1","","","","","","","0","0","1","0.09986374221","","0.4","0.8","0.6","0.2","","","","","0.006770001311","0.09986374221","0.2721424699","0.1754735631","","","","","","","74","J","1","","","159","main_expt"
"455","","bandit","238","925616","0.0-199.0-0.0","42980300","wem/bandit_either","A14ADQ7RUN6TDY","either","1","","","","","","","0","0","1","0.08334790929","","0.4","0.8","0.6","0.2","","","","","0.005009972043","0.08334790929","0.3005636977","0.1820859676","","","","","","","74","J","1","","","160","main_expt"
"662","","bandit","239","928570","0.0-200.0-0.0","42980300","wem/bandit_either","A14ADQ7RUN6TDY","either","1","","","","","","","0","0","1","0.1094566723","","0.4","0.8","0.6","0.2","","","","","0.003825417776","0.1094566723","0.2481613967","0.1771527669","","","","","","","74","J","1","","","161","main_expt"
"358","","bandit","240","930523","0.0-201.0-0.0","42980300","wem/bandit_either","A14ADQ7RUN6TDY","either","1","","","","","","","0","0","1","0.1287108975","","0.4","0.8","0.6","0.2","","","","","0.006458278423","0.1287108975","0.2040880477","0.209245514","","","","","","","74","J","1","","","162","main_expt"
"737","","bandit","241","933454","0.0-202.0-0.0","42980300","wem/bandit_either","A14ADQ7RUN6TDY","either","1","","","","","","","0","0","1","0.1811808859","","0.4","0.8","0.6","0.2","","","","","0.01344146107","0.1811808859","0.256608811","0.1864252411","","","","","","","74","J","1","","","163","main_expt"
"2777","","bandit","242","937877","0.0-203.0-0.0","42980300","wem/bandit_either","A14ADQ7RUN6TDY","either","1","","","","","","","0","0","1","","0.1662237337","0.4","0.8","0.6","0.2","0.004940614731","0.1374611454","0.2798468236","0.1662237337","","","","","","","","","","","76","L","3","","","164","main_expt"
"752","","bandit","243","940256","0.0-204.0-0.0","42980300","wem/bandit_either","A14ADQ7RUN6TDY","either","1","","","","","","","0","0","1","0.1375661656","","0.4","0.8","0.6","0.2","","","","","0.007349038951","0.1640313333","0.2689568899","0.1375661656","","","","","","","76","L","3","","","165","main_expt"
"1086","","bandit","244","943582","0.0-205.0-0.0","42980300","wem/bandit_either","A14ADQ7RUN6TDY","either","1","","","","","","","0","0","1","0.1416727521","","0.4","0.8","0.6","0.2","","","","","0.005679103294","0.20052236","0.2786045926","0.1416727521","","","","","","","76","L","3","","","166","main_expt"
"431","","bandit","245","945566","0.0-206.0-0.0","42980300","wem/bandit_either","A14ADQ7RUN6TDY","either","1","","","","","","","0","0","1","","0.1497541138","0.4","0.8","0.6","0.2","0.004037182679","0.1945206589","0.2507583434","0.1497541138","","","","","","","","","","","76","L","3","","","167","main_expt"
"1714","","bandit","246","948855","0.0-207.0-0.0","42980300","wem/bandit_either","A14ADQ7RUN6TDY","either","1","","","","","","","0","0","1","0.1761460581","","0.4","0.8","0.6","0.2","","","","","0.007111326723","0.1902154162","0.1827624484","0.1761460581","","","","","","","76","L","3","","","168","main_expt"
"468","","bandit","247","950884","0.0-208.0-0.0","42980300","wem/bandit_either","A14ADQ7RUN6TDY","either","1","","","","","","","0","0","1","","0.2248215173","0.4","0.8","0.6","0.2","0.01708305062","0.1931964682","0.1558723634","0.2248215173","","","","","","","","","","","76","L","3","","","169","main_expt"
"1928","","bandit","248","954348","0.0-209.0-0.0","42980300","wem/bandit_either","A14ADQ7RUN6TDY","either","1","","","","","","","0","0","1","0.2503105048","","0.4","0.8","0.6","0.2","","","","","0.02105388628","0.236179436","0.1757164868","0.2503105048","","","","","","","76","L","3","","","170","main_expt"
"436","","bandit","249","956411","0.0-210.0-0.0","42980300","wem/bandit_either","A14ADQ7RUN6TDY","either","1","","","","","","","0","0","1","0.1985597056","","0.4","0.8","0.6","0.2","","","","","0.01477187034","0.2229285478","0.1985597056","0.2515708499","","","","","","","75","K","2","","","171","main_expt"
"979","","bandit","250","958921","0.0-211.0-0.0","42980300","wem/bandit_either","A14ADQ7RUN6TDY","either","1","","","","","","","0","0","1","","0.1725269859","0.4","0.8","0.6","0.2","0.00639283578","0.1805811295","0.1725269859","0.2601117771","","","","","","","","","","","75","K","2","","","172","main_expt"
"894","","bandit","251","961346","0.0-212.0-0.0","42980300","wem/bandit_either","A14ADQ7RUN6TDY","either","1","","","","","","","1","0","0","0.1955807132","","0.4","0.8","0.6","0.2","","","","","0.008503536177","0.2203049146","0.1955807132","0.2277859889","","","","","","","75","K","2","","","173","main_expt"
"973","","bandit","252","963922","0.0-213.0-0.0","42980300","wem/bandit_either","A14ADQ7RUN6TDY","either","1","","","","","","","0","0","1","","0.1712969398","0.4","0.8","0.6","0.2","0.01512836446","0.2079245196","0.1712969398","0.204090619","","","","","","","","","","","75","K","2","","","174","main_expt"
"541","","bandit","253","966308","0.0-214.0-0.0","42980300","wem/bandit_either","A14ADQ7RUN6TDY","either","1","","","","","","","1","0","0","0.2145566876","","0.4","0.8","0.6","0.2","","","","","0.034550241","0.1904909119","0.2145566876","0.2264282848","","","","","","","75","K","2","","","175","main_expt"
"1479","","bandit","254","969321","0.0-215.0-0.0","42980300","wem/bandit_either","A14ADQ7RUN6TDY","either","1","","","","","","","0","0","1","0.1987050603","","0.4","0.8","0.6","0.2","","","","","0.01969997198","0.1611975006","0.1987050603","0.2263436383","","","","","","","75","K","2","","","176","main_expt"
"469","","bandit","255","971448","0.0-216.0-0.0","42980300","wem/bandit_either","A14ADQ7RUN6TDY","either","1","","","","","","","0","0","1","0.2161967517","","0.4","0.8","0.6","0.2","","","","","0.02558747067","0.1747210449","0.2161967517","0.2449632337","","","","","","","75","K","2","","","177","main_expt"
"1080","","bandit","256","974121","0.0-217.0-0.0","42980300","wem/bandit_either","A14ADQ7RUN6TDY","either","1","","","","","","","0","0","1","","0.1790488899","0.4","0.8","0.6","0.2","0.02865462312","0.1667690144","0.1790488899","0.1923885174","","","","","","","","","","","75","K","2","","","178","main_expt"
"411","","bandit","257","976377","0.0-218.0-0.0","42980300","wem/bandit_either","A14ADQ7RUN6TDY","either","1","","","","","","","0","0","1","0.1254539317","","0.4","0.8","0.6","0.2","","","","","0.05873937836","0.248539666","0.1254539317","0.1791230597","","","","","","","75","K","2","","","179","main_expt"
"1008","","bandit","258","978925","0.0-219.0-0.0","42980300","wem/bandit_either","A14ADQ7RUN6TDY","either","1","","","","","","","0","0","1","0.1761702366","","0.4","0.8","0.6","0.2","","","","","0.04996702027","0.2393284063","0.1761702366","0.1641305094","","","","","","","75","K","2","","","180","main_expt"
"523","","bandit","259","981020","0.0-220.0-0.0","42980300","wem/bandit_either","A14ADQ7RUN6TDY","either","1","","","","","","","0","0","1","0.2450765022","","0.4","0.8","0.6","0.2","","","","","0.06192223509","0.2450765022","0.2307221343","0.1567194189","","","","","","","74","J","1","","","181","main_expt"
"1479","","bandit","260","984057","0.0-221.0-0.0","42980300","wem/bandit_either","A14ADQ7RUN6TDY","either","1","","","","","","","0","0","1","0.2898963007","","0.4","0.8","0.6","0.2","","","","","0.07865608963","0.2898963007","0.1656926355","0.1805899487","","","","","","","74","J","1","","","182","main_expt"
"539","","bandit","261","986394","0.0-222.0-0.0","42980300","wem/bandit_either","A14ADQ7RUN6TDY","either","1","","","","","","","0","0","1","0.337419987","","0.4","0.8","0.6","0.2","","","","","0.0695036973","0.337419987","0.1997223474","0.1381226487","","","","","","","74","J","1","","","183","main_expt"
"419","","bandit","262","988948","0.0-223.0-0.0","42980300","wem/bandit_either","A14ADQ7RUN6TDY","either","1","","","","","","","0","0","1","0.1157029232","","0.4","0.8","0.6","0.2","","","","","0.09883674892","0.3334404967","0.1936006223","0.1157029232","","","","","","","76","L","3","","","184","main_expt"
"735","","bandit","263","991402","0.0-224.0-0.0","42980300","wem/bandit_either","A14ADQ7RUN6TDY","either","1","","","","","","","0","0","1","","0.09007466759","0.4","0.8","0.6","0.2","0.1344132801","0.3049781316","0.1794548994","0.09007466759","","","","","","","","","","","76","L","3","","","185","main_expt"
"1063","","bandit","264","994047","0.0-225.0-0.0","42980300","wem/bandit_either","A14ADQ7RUN6TDY","either","1","","","","","","","0","0","1","0.1194183803","","0.4","0.8","0.6","0.2","","","","","0.1194183803","0.322039184","0.1679588243","0.07784091677","","","","","","","72","H","0","img/none_selected.jpg","","186","main_expt"
"588","","bandit","265","996361","0.0-226.0-0.0","42980300","wem/bandit_either","A14ADQ7RUN6TDY","either","1","","","","","","","0","0","1","","0.1456002269","0.4","0.8","0.6","0.2","0.1456002269","0.2898485093","0.1692259204","0.1332261693","","","","","","","","","","","72","H","0","img/none_selected.jpg","","187","main_expt"
"1047","","bandit","266","998958","0.0-227.0-0.0","42980300","wem/bandit_either","A14ADQ7RUN6TDY","either","1","","","","","","","0","0","1","","0.1008589119","0.4","0.8","0.6","0.2","0.1008589119","0.3046836684","0.1796926114","0.1302169342","","","","","","","","","","","72","H","0","img/none_selected.jpg","","188","main_expt"
"554","","bandit","267","1001053","0.0-228.0-0.0","42980300","wem/bandit_either","A14ADQ7RUN6TDY","either","1","","","","","","","0","0","1","","0.09109327247","0.4","0.8","0.6","0.2","0.09109327247","0.3437642557","0.1463090895","0.1459867673","","","","","","","","","","","72","H","0","img/none_selected.jpg","","189","main_expt"
"1488","","bandit","268","1004096","0.0-229.0-0.0","42980300","wem/bandit_either","A14ADQ7RUN6TDY","either","1","","","","","","","0","0","1","","0.133333279","0.4","0.8","0.6","0.2","0.133333279","0.3685715368","0.1670442817","0.1930387326","","","","","","","","","","","72","H","0","img/none_selected.jpg","","190","main_expt"
"454","","bandit","269","1006358","0.0-230.0-0.0","42980300","wem/bandit_either","A14ADQ7RUN6TDY","either","1","","","","","","","0","0","1","0.1253338948","","0.4","0.8","0.6","0.2","","","","","0.1253338948","0.4063368095","0.2148667481","0.1447045196","","","","","","","72","H","0","img/none_selected.jpg","","191","main_expt"
"563","","bandit","270","1008972","0.0-231.0-0.0","42980300","wem/bandit_either","A14ADQ7RUN6TDY","either","1","","","","","","","0","0","1","0.4194789623","","0.4","0.8","0.6","0.2","","","","","0.1371372983","0.4194789623","0.1891029698","0.1521301445","","","","","","","74","J","1","","","192","main_expt"
"412","","bandit","271","1010928","0.0-232.0-0.0","42980300","wem/bandit_either","A14ADQ7RUN6TDY","either","1","","","","","","","0","0","1","0.1818436489","","0.4","0.8","0.6","0.2","","","","","0.1269519223","0.3914453041","0.1818436489","0.1216552598","","","","","","","75","K","2","","","193","main_expt"
"1545","","bandit","272","1014018","0.0-233.0-0.0","42980300","wem/bandit_either","A14ADQ7RUN6TDY","either","1","","","","","","","0","0","1","","0.07681554104","0.4","0.8","0.6","0.2","0.1253972088","0.3988429791","0.2036833838","0.07681554104","","","","","","","","","","","76","L","3","","","194","main_expt"
"465","","bandit","273","1016028","0.0-234.0-0.0","42980300","wem/bandit_either","A14ADQ7RUN6TDY","either","1","","","","","","","0","0","1","0.2189502041","","0.4","0.8","0.6","0.2","","","","","0.1231557279","0.4212514022","0.2189502041","0.07468822185","","","","","","","75","K","2","","","195","main_expt"
"737","","bandit","274","1018933","0.0-235.0-0.0","42980300","wem/bandit_either","A14ADQ7RUN6TDY","either","1","","","","","","","0","0","1","","0.4128950903","0.4","0.8","0.6","0.2","0.2304226507","0.4128950903","0.2011136523","0.07634526252","","","","","","","","","","","74","J","1","","","196","main_expt"
"468","","bandit","275","1021032","0.0-236.0-0.0","42980300","wem/bandit_either","A14ADQ7RUN6TDY","either","1","","","","","","","1","0","0","0.3102822931","","0.4","0.8","0.6","0.2","","","","","0.3102822931","0.3979973083","0.2295646827","0.06680697181","","","","","","","72","H","0","img/none_selected.jpg","","197","main_expt"
"1334","","bandit","276","1024223","0.0-237.0-0.0","42980300","wem/bandit_either","A14ADQ7RUN6TDY","either","1","","","","","","","0","0","1","0.3222054514","","0.4","0.8","0.6","0.2","","","","","0.3222054514","0.3153467244","0.2570874699","0.05107679344","","","","","","","72","H","0","img/none_selected.jpg","","198","main_expt"
"372","","bandit","277","1026307","0.0-238.0-0.0","42980300","wem/bandit_either","A14ADQ7RUN6TDY","either","1","","","","","","","0","1","0","","0.3416159467","0.4","0.8","0.6","0.2","0.3416159467","0.3121882746","0.2215013189","0.06140804873","","","","","","","","","","","72","H","0","img/none_selected.jpg","","199","main_expt"
"1157","","bandit","278","1029044","0.0-239.0-0.0","42980300","wem/bandit_either","A14ADQ7RUN6TDY","either","1","","","","","","","1","0","0","0.3826655938","","0.4","0.8","0.6","0.2","","","","","0.3826655938","0.3789620948","0.1681318695","0.05697288244","","","","","","","72","H","0","img/none_selected.jpg","","200","main_expt"
"524","","bandit","279","1031346","0.0-240.0-0.0","42980300","wem/bandit_either","A14ADQ7RUN6TDY","either","1","","","","","","","0","0","1","0.4117435103","","0.4","0.8","0.6","0.2","","","","","0.4117435103","0.3575696279","0.1787039029","0.04802221103","","","","","","","72","H","0","img/none_selected.jpg","","201","main_expt"
"1055","","bandit","280","1033938","0.0-241.0-0.0","42980300","wem/bandit_either","A14ADQ7RUN6TDY","either","1","","","","","","","0","0","1","","0.4023622846","0.4","0.8","0.6","0.2","0.4023622846","0.3937046418","0.2180442152","0.04583536071","","","","","","","","","","","72","H","0","img/none_selected.jpg","","202","main_expt"
"347","","bandit","281","1035829","0.0-242.0-0.0","42980300","wem/bandit_either","A14ADQ7RUN6TDY","either","1","","","","","","","0","0","1","0.4225273878","","0.4","0.8","0.6","0.2","","","","","0.4225273878","0.3901943722","0.262784421","0.03655969434","","","","","","","72","H","0","img/none_selected.jpg","","203","main_expt"
"828","","bandit","282","1039071","0.0-243.0-0.0","42980300","wem/bandit_either","A14ADQ7RUN6TDY","either","1","","","","","","","0","0","1","0.4151046429","","0.4","0.8","0.6","0.2","","","","","0.4151046429","0.4099131859","0.2843732649","0.05773518339","","","","","","","72","H","0","img/none_selected.jpg","","204","main_expt"
"450","","bandit","283","1041344","0.0-244.0-0.0","42980300","wem/bandit_either","A14ADQ7RUN6TDY","either","1","","","","","","","0","0","1","","0.4288165897","0.4","0.8","0.6","0.2","0.4288165897","0.4238238901","0.2549063301","0.06616346658","","","","","","","","","","","72","H","0","img/none_selected.jpg","","205","main_expt"
"1433","","bandit","284","1044361","0.0-245.0-0.0","42980300","wem/bandit_either","A14ADQ7RUN6TDY","either","1","","","","","","","0","0","1","0.436745712","","0.4","0.8","0.6","0.2","","","","","0.436745712","0.4139837541","0.2982701688","0.09055598832","","","","","","","72","H","0","img/none_selected.jpg","","206","main_expt"
"495","","bandit","285","1046449","0.0-246.0-0.0","42980300","wem/bandit_either","A14ADQ7RUN6TDY","either","1","","","","","","","0","1","0","","0.4484652972","0.4","0.8","0.6","0.2","0.4484652972","0.3544894801","0.3423773839","0.07583085731","","","","","","","","","","","72","H","0","img/none_selected.jpg","","207","main_expt"
"1336","","bandit","286","1049396","0.0-247.0-0.0","42980300","wem/bandit_either","A14ADQ7RUN6TDY","either","1","","","","","","","1","0","0","0.4516947584","","0.4","0.8","0.6","0.2","","","","","0.4516947584","0.3703609936","0.3321535101","0.09768014643","","","","","","","72","H","0","img/none_selected.jpg","","208","main_expt"
"595","","bandit","287","1051556","0.0-248.0-0.0","42980300","wem/bandit_either","A14ADQ7RUN6TDY","either","1","","","","","","","0","0","1","0.4590139285","","0.4","0.8","0.6","0.2","","","","","0.4590139285","0.3590511704","0.3467721984","0.08389795445","","","","","","","72","H","0","img/none_selected.jpg","","209","main_expt"
"1201","","bandit","288","1054290","0.0-249.0-0.0","42980300","wem/bandit_either","A14ADQ7RUN6TDY","either","1","","","","","","","0","0","1","0.4378910613","","0.4","0.8","0.6","0.2","","","","","0.4378910613","0.3781523972","0.3513447539","0.07846525543","","","","","","","72","H","0","img/none_selected.jpg","","210","main_expt"
"534","","bandit","289","1056432","0.0-250.0-0.0","42980300","wem/bandit_either","A14ADQ7RUN6TDY","either","1","","","","","","","0","1","0","","0.4139384991","0.4","0.8","0.6","0.2","0.4139384991","0.3895188655","0.4003692624","0.05906932722","","","","","","","","","","","72","H","0","img/none_selected.jpg","","211","main_expt"
"1076","","bandit","290","1059057","0.0-251.0-0.0","42980300","wem/bandit_either","A14ADQ7RUN6TDY","either","1","","","","","","","0","1","0","","0.3659234609","0.4","0.8","0.6","0.2","0.3659234609","0.4075098947","0.3949660502","0.04754192311","","","","","","","","","","","72","H","0","img/none_selected.jpg","","212","main_expt"
"462","","bandit","291","1061336","0.0-252.0-0.0","42980300","wem/bandit_either","A14ADQ7RUN6TDY","either","1","","","","","","","1","0","0","0.3180572988","","0.4","0.8","0.6","0.2","","","","","0.3180572988","0.4191075236","0.4233479157","0.05481920189","","","","","","","72","H","0","img/none_selected.jpg","","213","main_expt"
"1065","","bandit","292","1063993","0.0-253.0-0.0","42980300","wem/bandit_either","A14ADQ7RUN6TDY","either","1","","","","","","","0","1","0","","0.2611162072","0.4","0.8","0.6","0.2","0.2611162072","0.3799529118","0.4182751871","0.07954578011","","","","","","","","","","","72","H","0","img/none_selected.jpg","","214","main_expt"
"410","","bandit","293","1066020","0.0-254.0-0.0","42980300","wem/bandit_either","A14ADQ7RUN6TDY","either","1","","","","","","","0","1","0","","0.2331309726","0.4","0.8","0.6","0.2","0.2331309726","0.3924699069","0.3745823719","0.1078137614","","","","","","","","","","","72","H","0","img/none_selected.jpg","","215","main_expt"
"625","","bandit","294","1069028","0.0-255.0-0.0","42980300","wem/bandit_either","A14ADQ7RUN6TDY","either","1","","","","","","","0","0","1","0.2428402293","","0.4","0.8","0.6","0.2","","","","","0.2428402293","0.3556657658","0.3809837923","0.1269525553","","","","","","","72","H","0","img/none_selected.jpg","","216","main_expt"
"610","","bandit","295","1071333","0.0-256.0-0.0","42980300","wem/bandit_either","A14ADQ7RUN6TDY","either","1","","","","","","","0","0","1","","0.2317762644","0.4","0.8","0.6","0.2","0.2317762644","0.3870416945","0.4144294186","0.1849794572","","","","","","","","","","","72","H","0","img/none_selected.jpg","","217","main_expt"
"1101","","bandit","296","1074020","0.0-257.0-0.0","42980300","wem/bandit_either","A14ADQ7RUN6TDY","either","1","","","","","","","0","0","1","","0.204309912","0.4","0.8","0.6","0.2","0.204309912","0.3944581396","0.4090742927","0.1903787706","","","","","","","","","","","72","H","0","img/none_selected.jpg","","218","main_expt"
"724","","bandit","297","1076336","0.0-258.0-0.0","42980300","wem/bandit_either","A14ADQ7RUN6TDY","either","1","","","","","","","0","0","1","0.1685596251","","0.4","0.8","0.6","0.2","","","","","0.1685596251","0.4256173987","0.3869695378","0.1768508397","","","","","","","72","H","0","img/none_selected.jpg","","219","main_expt"
"1048","","bandit","298","1078948","0.0-259.0-0.0","42980300","wem/bandit_either","A14ADQ7RUN6TDY","either","1","","","","","","","0","1","0","","0.2488487331","0.4","0.8","0.6","0.2","0.2488487331","0.4240862242","0.3814250035","0.2176561852","","","","","","","","","","","72","H","0","img/none_selected.jpg","","220","main_expt"
"613","","bandit","299","1081340","0.0-260.0-0.0","42980300","wem/bandit_either","A14ADQ7RUN6TDY","either","1","","","","","","","0","0","1","","0.2789816034","0.4","0.8","0.6","0.2","0.2789816034","0.4364702466","0.3560431311","0.2075488201","","","","","","","","","","","72","H","0","img/none_selected.jpg","","221","main_expt"
"1360","","bandit","300","1084235","0.0-261.0-0.0","42980300","wem/bandit_either","A14ADQ7RUN6TDY","either","1","","","","","","","0","0","1","","0.242729834","0.4","0.8","0.6","0.2","0.242729834","0.4512924842","0.3424215647","0.2260831429","","","","","","","","","","","72","H","0","img/none_selected.jpg","","222","main_expt"
"552","","bandit","301","1086375","0.0-262.0-0.0","42980300","wem/bandit_either","A14ADQ7RUN6TDY","either","1","","","","","","","1","0","0","0.196538567","","0.4","0.8","0.6","0.2","","","","","0.196538567","0.4649948574","0.3118962833","0.2512075751","","","","","","","72","H","0","img/none_selected.jpg","","223","main_expt"
"1077","","bandit","302","1089038","0.0-263.0-0.0","42980300","wem/bandit_either","A14ADQ7RUN6TDY","either","1","","","","","","","0","0","1","0.2189223785","","0.4","0.8","0.6","0.2","","","","","0.2189223785","0.4692106987","0.261290028","0.3072691987","","","","","","","72","H","0","img/none_selected.jpg","","224","main_expt"
"449","","bandit","303","1091023","0.0-264.0-0.0","42980300","wem/bandit_either","A14ADQ7RUN6TDY","either","1","","","","","","","0","0","1","","0.2131207899","0.4","0.8","0.6","0.2","0.2131207899","0.4772226815","0.2748104332","0.3358063032","","","","","","","","","","","72","H","0","img/none_selected.jpg","","225","main_expt"
"1667","","bandit","304","1094242","0.0-265.0-0.0","42980300","wem/bandit_either","A14ADQ7RUN6TDY","either","1","","","","","","","0","0","1","","0.187439681","0.4","0.8","0.6","0.2","0.187439681","0.4828013869","0.2112523614","0.2994610032","","","","","","","","","","","72","H","0","img/none_selected.jpg","","226","main_expt"
"1144","","bandit","305","1097723","0.0-266.0-0.0","42980300","wem/bandit_either","A14ADQ7RUN6TDY","either","1","","","","","","","0","0","1","0.1522087394","","0.4","0.8","0.6","0.2","","","","","0.1522087394","0.4805292857","0.1879164098","0.2719992041","","","","","","","72","H","0","img/none_selected.jpg","","227","main_expt"
"535","","bandit","306","1099882","0.0-267.0-0.0","42980300","wem/bandit_either","A14ADQ7RUN6TDY","either","1","","","","","","","1","0","0","0.4770879938","","0.4","0.8","0.6","0.2","","","","","0.1975586059","0.4770879938","0.1857646906","0.2601066631","","","","","","","74","J","1","","","228","main_expt"
"685","","bandit","307","1102610","0.0-268.0-0.0","42980300","wem/bandit_either","A14ADQ7RUN6TDY","either","1","","","","","","","0","1","0","","0.4830225504","0.4","0.8","0.6","0.2","0.2280604414","0.4830225504","0.1608888173","0.2333982712","","","","","","","","","","","74","J","1","","","229","main_expt"
"529","","bandit","308","1104798","0.0-269.0-0.0","42980300","wem/bandit_either","A14ADQ7RUN6TDY","either","1","","","","","","","0","0","1","0.4827210916","","0.4","0.8","0.6","0.2","","","","","0.2120359748","0.4827210916","0.1139945837","0.2179366985","","","","","","","74","J","1","","","230","main_expt"
"768","","bandit","309","1107887","0.0-270.0-0.0","42980300","wem/bandit_either","A14ADQ7RUN6TDY","either","1","","","","","","","0","0","1","","0.4764813513","0.4","0.8","0.6","0.2","0.2260377558","0.4764813513","0.1071229599","0.210335649","","","","","","","","","","","74","J","1","","","231","main_expt"
"545","","bandit","310","1109974","0.0-271.0-0.0","42980300","wem/bandit_either","A14ADQ7RUN6TDY","either","1","","","","","","","0","0","1","0.4794978353","","0.4","0.8","0.6","0.2","","","","","0.2810037348","0.4794978353","0.1250262501","0.2154905401","","","","","","","74","J","1","","","232","main_expt"
"907","","bandit","311","1112636","0.0-272.0-0.0","42980300","wem/bandit_either","A14ADQ7RUN6TDY","either","1","","","","","","","1","0","0","0.4717583679","","0.4","0.8","0.6","0.2","","","","","0.3371590923","0.4717583679","0.1262657767","0.2199054097","","","","","","","74","J","1","","","233","main_expt"
"642","","bandit","312","1114814","0.0-273.0-0.0","42980300","wem/bandit_either","A14ADQ7RUN6TDY","either","1","","","","","","","0","0","1","","0.4801470087","0.4","0.8","0.6","0.2","0.2614597929","0.4801470087","0.1436583916","0.2116885818","","","","","","","","","","","74","J","1","","","234","main_expt"
"472","","bandit","313","1117499","0.0-274.0-0.0","42980300","wem/bandit_either","A14ADQ7RUN6TDY","either","1","","","","","","","0","0","1","0.4698449305","","0.4","0.8","0.6","0.2","","","","","0.2855471023","0.4698449305","0.1776605917","0.2037112673","","","","","","","74","J","1","","","235","main_expt"
"450","","bandit","314","1119494","0.0-275.0-0.0","42980300","wem/bandit_either","A14ADQ7RUN6TDY","either","1","","","","","","","0","0","1","0.4750890902","","0.4","0.8","0.6","0.2","","","","","0.2806831757","0.4750890902","0.2039581082","0.2295670059","","","","","","","74","J","1","","","236","main_expt"
"638","","bandit","315","1122771","0.0-276.0-0.0","42980300","wem/bandit_either","A14ADQ7RUN6TDY","either","1","","","","","","","0","0","1","","0.490873849","0.4","0.8","0.6","0.2","0.3314479917","0.490873849","0.1898025468","0.2602584061","","","","","","","","","","","74","J","1","","","237","main_expt"
"504","","bandit","316","1124814","0.0-277.0-0.0","42980300","wem/bandit_either","A14ADQ7RUN6TDY","either","1","","","","","","","1","0","0","0.4658125052","","0.4","0.8","0.6","0.2","","","","","0.3495093658","0.4658125052","0.20274426","0.2505035884","","","","","","","74","J","1","","","238","main_expt"
"667","","bandit","317","1127672","0.0-278.0-0.0","42980300","wem/bandit_either","A14ADQ7RUN6TDY","either","1","","","","","","","0","1","0","","0.4717810478","0.4","0.8","0.6","0.2","0.3413466471","0.4717810478","0.2051086292","0.209031891","","","","","","","","","","","74","J","1","","","239","main_expt"
"430","","bandit","318","1129678","0.0-279.0-0.0","42980300","wem/bandit_either","A14ADQ7RUN6TDY","either","1","","","","","","","1","0","0","0.4751676635","","0.4","0.8","0.6","0.2","","","","","0.3848911707","0.4751676635","0.1823871945","0.2203826704","","","","","","","74","J","1","","","240","main_expt"
"665","","bandit","319","1132596","0.0-280.0-0.0","42980300","wem/bandit_either","A14ADQ7RUN6TDY","either","1","","","","","","","1","0","0","0.4782176083","","0.4","0.8","0.6","0.2","","","","","0.3352713547","0.4782176083","0.2206124516","0.2502218434","","","","","","","74","J","1","","","241","main_expt"
"436","","bandit","320","1134582","0.0-281.0-0.0","42980300","wem/bandit_either","A14ADQ7RUN6TDY","either","1","","","","","","","0","0","1","0.4842593171","","0.4","0.8","0.6","0.2","","","","","0.3898112853","0.4842593171","0.1822231347","0.2465850657","","","","","","","74","J","1","","","242","main_expt"
"664","","bandit","321","1137523","0.0-282.0-0.0","42980300","wem/bandit_either","A14ADQ7RUN6TDY","either","1","","","","","","","0","0","1","0.4877308522","","0.4","0.8","0.6","0.2","","","","","0.3746092993","0.4877308522","0.1782216913","0.2768687636","","","","","","","74","J","1","","","243","main_expt"
"483","","bandit","322","1139552","0.0-283.0-0.0","42980300","wem/bandit_either","A14ADQ7RUN6TDY","either","1","","","","","","","0","0","1","","0.4867000748","0.4","0.8","0.6","0.2","0.3551642001","0.4867000748","0.1683297066","0.3318130554","","","","","","","","","","","74","J","1","","","244","main_expt"
"924","","bandit","323","1142582","0.0-284.0-0.0","42980300","wem/bandit_either","A14ADQ7RUN6TDY","either","1","","","","","","","1","0","0","0.4779689664","","0.4","0.8","0.6","0.2","","","","","0.3556023966","0.4779689664","0.2394915997","0.3549389872","","","","","","","74","J","1","","","245","main_expt"
"528","","bandit","324","1144647","0.0-285.0-0.0","42980300","wem/bandit_either","A14ADQ7RUN6TDY","either","1","","","","","","","1","0","0","0.4691428495","","0.4","0.8","0.6","0.2","","","","","0.3265039954","0.4691428495","0.2279590519","0.333301522","","","","","","","74","J","1","","","246","main_expt"
"606","","bandit","325","1147425","0.0-286.0-0.0","42980300","wem/bandit_either","A14ADQ7RUN6TDY","either","1","","","","","","","0","0","1","0.4726686318","","0.4","0.8","0.6","0.2","","","","","0.2868106963","0.4726686318","0.2464238951","0.3514606933","","","","","","","74","J","1","","","247","main_expt"
"543","","bandit","326","1149512","0.0-287.0-0.0","42980300","wem/bandit_either","A14ADQ7RUN6TDY","either","1","","","","","","","0","0","1","0.4803067915","","0.4","0.8","0.6","0.2","","","","","0.3185934195","0.4803067915","0.2743013104","0.3714826816","","","","","","","74","J","1","","","248","main_expt"
"793","","bandit","327","1152858","0.0-288.0-0.0","42980300","wem/bandit_either","A14ADQ7RUN6TDY","either","1","","","","","","","1","0","0","0.4711679289","","0.4","0.8","0.6","0.2","","","","","0.358181829","0.4711679289","0.265015958","0.386783615","","","","","","","74","J","1","","","249","main_expt"
"509","","bandit","328","1154925","0.0-289.0-0.0","42980300","wem/bandit_either","A14ADQ7RUN6TDY","either","1","","","","","","","0","1","0","","0.4353456883","0.4","0.8","0.6","0.2","0.3548152509","0.4353456883","0.2414596854","0.401921917","","","","","","","","","","","74","J","1","","","250","main_expt"
"963","","bandit","329","1157647","0.0-290.0-0.0","42980300","wem/bandit_either","A14ADQ7RUN6TDY","either","1","","","","","","","0","0","1","0.4224206017","","0.4","0.8","0.6","0.2","","","","","0.3481631732","0.4224206017","0.2747351927","0.4214807698","","","","","","","74","J","1","","","251","main_expt"
"496","","bandit","330","1159681","0.0-291.0-0.0","42980300","wem/bandit_either","A14ADQ7RUN6TDY","either","1","","","","","","","1","0","0","0.4171240554","","0.4","0.8","0.6","0.2","","","","","0.3357984296","0.4171240554","0.2814651432","0.3562017588","","","","","","","74","J","1","","","252","main_expt"
