"rt","responses","trial_type","trial_index","time_elapsed","internal_node_id","subjID","study","MID","cond","drift","key_press","expt_phase","target","like","value","connected","gems","bombs","no_reward","GemPrChosen","BombPrChosen","GainOverPainPr_0","GainOverPainPr_1","GainOverPainPr_2","GainOverPainPr_3","LosePr_0","LosePr_1","LosePr_2","LosePr_3","WinPr_0","WinPr_1","WinPr_2","WinPr_3","Q0","Q1","Q2","gender","age","ethnicity","respCharCode","respKey","respChoiceNum","respChoice","practice","trial_counter","trial_label"
"7139","{""Q0"":""A6JKKANO7F4KD""}","survey-text","0","7155","0.0-0.0","43429066","wem/bandit_either","A6JKKANO7F4KD","either","2","","","","","","","","","","","","","","","","","","","","","","","","","","","","","","","","","","","",""
"16619","","text","1","24782","0.0-1.0","43429066","wem/bandit_either","A6JKKANO7F4KD","either","2","32","","","","","","","","","","","","","","","","","","","","","","","","","","","","","","","","","","",""
"9146","","text","2","33931","0.0-2.0","43429066","wem/bandit_either","A6JKKANO7F4KD","either","2","32","","","","","","","","","","","","","","","","","","","","","","","","","","","","","","","","","","",""
"28412","","text","3","62348","0.0-3.0","43429066","wem/bandit_either","A6JKKANO7F4KD","either","2","32","","","","","","","","","","","","","","","","","","","","","","","","","","","","","","","","","","",""
"12994","","text","4","75344","0.0-4.0","43429066","wem/bandit_either","A6JKKANO7F4KD","either","2","32","","","","","","","","","","","","","","","","","","","","","","","","","","","","","","","","","","",""
"25967","","text","5","101314","0.0-5.0","43429066","wem/bandit_either","A6JKKANO7F4KD","either","2","32","","","","","","","","","","","","","","","","","","","","","","","","","","","","","","","","","","",""
"6452","","text","6","107768","0.0-6.0","43429066","wem/bandit_either","A6JKKANO7F4KD","either","2","32","","","","","","","","","","","","","","","","","","","","","","","","","","","","","","","","","","",""
"5302","","text","7","113073","0.0-7.0","43429066","wem/bandit_either","A6JKKANO7F4KD","either","2","32","","","","","","","","","","","","","","","","","","","","","","","","","","","","","","","","","","",""
"16639","","identification","8","129745","0.0-8.0-0.0","43429066","wem/bandit_either","A6JKKANO7F4KD","either","2","","identification_pre","the village of Zur","","","","","","","","","","","","","","","","","","","","","","","","","","","","","","","","",""
"13714","","identification","9","144482","0.0-8.0-1.0","43429066","wem/bandit_either","A6JKKANO7F4KD","either","2","","identification_pre","the village of Nyx","","","","","","","","","","","","","","","","","","","","","","","","","","","","","","","","",""
"11346","","text","10","156834","0.0-9.0","43429066","wem/bandit_either","A6JKKANO7F4KD","either","2","32","","","","","","","","","","","","","","","","","","","","","","","","","","","","","","","","","","",""
"6362","","text","11","163199","0.0-10.0","43429066","wem/bandit_either","A6JKKANO7F4KD","either","2","32","","","","","","","","","","","","","","","","","","","","","","","","","","","","","","","","","","",""
"3494","","text","12","166695","0.0-11.0","43429066","wem/bandit_either","A6JKKANO7F4KD","either","2","32","","","","","","","","","","","","","","","","","","","","","","","","","","","","","","","","","","",""
"6323","","text","13","173072","0.0-12.0","43429066","wem/bandit_either","A6JKKANO7F4KD","either","2","32","","","","","","","","","","","","","","","","","","","","","","","","","","","","","","","","","","",""
"2499","","bandit","14","177099","0.0-13.0-0.0","43429066","wem/bandit_either","A6JKKANO7F4KD","either","2","","","","","","","0","0","1","0","0","","","","","0","","","","0","","","","","","","","","","74","J","0","img/none_selected_demo.jpg","true","0",""
"1136","","bandit","15","179745","0.0-14.0-0.0","43429066","wem/bandit_either","A6JKKANO7F4KD","either","2","","","","","","","0","0","1","0","0","","","","","0","","","","0","","","","","","","","","","75","K","0","img/none_selected_demo.jpg","true","0",""
"7474","","text","16","187226","0.0-15.0","43429066","wem/bandit_either","A6JKKANO7F4KD","either","2","32","","","","","","","","","","","","","","","","","","","","","","","","","","","","","","","","","","",""
"7340","","text","17","194568","0.0-16.0","43429066","wem/bandit_either","A6JKKANO7F4KD","either","2","32","","","","","","","","","","","","","","","","","","","","","","","","","","","","","","","","","","",""
"8029","","text","18","202601","0.0-17.0","43429066","wem/bandit_either","A6JKKANO7F4KD","either","2","32","","","","","","","","","","","","","","","","","","","","","","","","","","","","","","","","","","",""
"6949","","text","19","209553","0.0-18.0","43429066","wem/bandit_either","A6JKKANO7F4KD","either","2","32","","","","","","","","","","","","","","","","","","","","","","","","","","","","","","","","","","",""
"1151","","bandit","20","212216","0.0-19.0-0.0","43429066","wem/bandit_either","A6JKKANO7F4KD","either","2","","","","","","","0","1","0","","0.8","0.5","0.5","","","0.8","0.2","","","","","","","","","","","","","74","J","0","img/none_selected_demo.jpg","true","0","80_20_practice"
"859","","bandit","21","214585","0.0-19.0-1.0","43429066","wem/bandit_either","A6JKKANO7F4KD","either","2","","","","","","","0","0","1","","0.2","0.5","0.5","","","0.8","0.2","","","","","","","","","","","","","75","K","1","","true","0","80_20_practice"
"466","","bandit","22","216560","0.0-19.0-2.0","43429066","wem/bandit_either","A6JKKANO7F4KD","either","2","","","","","","","1","0","0","0.8","","0.5","0.5","","","","","","","0.8","0.2","","","","","","","","","74","J","0","img/none_selected_demo.jpg","true","0","80_20_practice"
"559","","bandit","23","218633","0.0-19.0-3.0","43429066","wem/bandit_either","A6JKKANO7F4KD","either","2","","","","","","","0","0","1","0.8","","0.5","0.5","","","","","","","0.8","0.2","","","","","","","","","74","J","0","img/none_selected_demo.jpg","true","0","80_20_practice"
"408","","bandit","24","220551","0.0-19.0-4.0","43429066","wem/bandit_either","A6JKKANO7F4KD","either","2","","","","","","","0","1","0","","0.8","0.5","0.5","","","0.8","0.2","","","","","","","","","","","","","74","J","0","img/none_selected_demo.jpg","true","0","80_20_practice"
"621","","bandit","25","222683","0.0-19.0-5.0","43429066","wem/bandit_either","A6JKKANO7F4KD","either","2","","","","","","","1","0","0","0.8","","0.5","0.5","","","","","","","0.8","0.2","","","","","","","","","74","J","0","img/none_selected_demo.jpg","true","0","80_20_practice"
"631","","bandit","26","224824","0.0-19.0-6.0","43429066","wem/bandit_either","A6JKKANO7F4KD","either","2","","","","","","","0","0","1","0.8","","0.5","0.5","","","","","","","0.8","0.2","","","","","","","","","74","J","0","img/none_selected_demo.jpg","true","0","80_20_practice"
"499","","bandit","27","226834","0.0-19.0-7.0","43429066","wem/bandit_either","A6JKKANO7F4KD","either","2","","","","","","","0","1","0","","0.8","0.5","0.5","","","0.8","0.2","","","","","","","","","","","","","74","J","0","img/none_selected_demo.jpg","true","0","80_20_practice"
"552","","bandit","28","228907","0.0-19.0-8.0","43429066","wem/bandit_either","A6JKKANO7F4KD","either","2","","","","","","","1","0","0","0.8","","0.5","0.5","","","","","","","0.8","0.2","","","","","","","","","74","J","0","img/none_selected_demo.jpg","true","0","80_20_practice"
"383","","bandit","29","230804","0.0-19.0-9.0","43429066","wem/bandit_either","A6JKKANO7F4KD","either","2","","","","","","","1","0","0","0.8","","0.5","0.5","","","","","","","0.8","0.2","","","","","","","","","74","J","0","img/none_selected_demo.jpg","true","0","80_20_practice"
"560","","bandit","30","232873","0.0-19.0-10.0","43429066","wem/bandit_either","A6JKKANO7F4KD","either","2","","","","","","","0","1","0","","0.8","0.5","0.5","","","0.8","0.2","","","","","","","","","","","","","74","J","0","img/none_selected_demo.jpg","true","0","80_20_practice"
"406","","bandit","31","234794","0.0-19.0-11.0","43429066","wem/bandit_either","A6JKKANO7F4KD","either","2","","","","","","","1","0","0","0.8","","0.5","0.5","","","","","","","0.8","0.2","","","","","","","","","74","J","0","img/none_selected_demo.jpg","true","0","80_20_practice"
"429","","bandit","32","236736","0.0-19.0-12.0","43429066","wem/bandit_either","A6JKKANO7F4KD","either","2","","","","","","","0","1","0","","0.8","0.5","0.5","","","0.8","0.2","","","","","","","","","","","","","74","J","0","img/none_selected_demo.jpg","true","0","80_20_practice"
"583","","bandit","33","238833","0.0-19.0-13.0","43429066","wem/bandit_either","A6JKKANO7F4KD","either","2","","","","","","","1","0","0","0.8","","0.5","0.5","","","","","","","0.8","0.2","","","","","","","","","74","J","0","img/none_selected_demo.jpg","true","0","80_20_practice"
"345","","bandit","34","240707","0.0-19.0-14.0","43429066","wem/bandit_either","A6JKKANO7F4KD","either","2","","","","","","","0","1","0","","0.8","0.5","0.5","","","0.8","0.2","","","","","","","","","","","","","74","J","0","img/none_selected_demo.jpg","true","0","80_20_practice"
"415","","bandit","35","242632","0.0-19.0-15.0","43429066","wem/bandit_either","A6JKKANO7F4KD","either","2","","","","","","","0","0","1","0.8","","0.5","0.5","","","","","","","0.8","0.2","","","","","","","","","74","J","0","img/none_selected_demo.jpg","true","0","80_20_practice"
"208","","bandit","36","244367","0.0-19.0-16.0","43429066","wem/bandit_either","A6JKKANO7F4KD","either","2","","","","","","","0","0","1","","0.8","0.5","0.5","","","0.8","0.2","","","","","","","","","","","","","74","J","0","img/none_selected_demo.jpg","true","0","80_20_practice"
"314","","bandit","37","246192","0.0-19.0-17.0","43429066","wem/bandit_either","A6JKKANO7F4KD","either","2","","","","","","","0","0","1","0.8","","0.5","0.5","","","","","","","0.8","0.2","","","","","","","","","74","J","0","img/none_selected_demo.jpg","true","0","80_20_practice"
"627","","bandit","38","248328","0.0-19.0-18.0","43429066","wem/bandit_either","A6JKKANO7F4KD","either","2","","","","","","","0","0","1","0.8","","0.5","0.5","","","","","","","0.8","0.2","","","","","","","","","74","J","0","img/none_selected_demo.jpg","true","0","80_20_practice"
"328","","bandit","39","250169","0.0-19.0-19.0","43429066","wem/bandit_either","A6JKKANO7F4KD","either","2","","","","","","","0","0","1","0.2","","0.5","0.5","","","","","","","0.8","0.2","","","","","","","","","75","K","1","","true","0","80_20_practice"
"5969","","text","40","256144","0.0-20.0","43429066","wem/bandit_either","A6JKKANO7F4KD","either","2","32","","","","","","","","","","","","","","","","","","","","","","","","","","","","","","","","","","",""
"1346","","bandit","41","259019","0.0-21.0-0.0","43429066","wem/bandit_either","A6JKKANO7F4KD","either","2","","","","","","","1","0","0","1","0","","","","","0","1","","","1","0","","","","","","","","","74","J","0","img/none_selected_demo.jpg","true","0",""
"4567","","text","42","263592","0.0-22.0","43429066","wem/bandit_either","A6JKKANO7F4KD","either","2","32","","","","","","","","","","","","","","","","","","","","","","","","","","","","","","","","","","",""
"3715","","text","43","267360","0.0-23.0","43429066","wem/bandit_either","A6JKKANO7F4KD","either","2","32","","","","","","","","","","","","","","","","","","","","","","","","","","","","","","","","","","",""
"2789","","text","44","270152","0.0-24.0","43429066","wem/bandit_either","A6JKKANO7F4KD","either","2","32","","","","","","","","","","","","","","","","","","","","","","","","","","","","","","","","","","",""
"4628","","text","45","274783","0.0-25.0","43429066","wem/bandit_either","A6JKKANO7F4KD","either","2","32","","","","","","","","","","","","","","","","","","","","","","","","","","","","","","","","","","",""
"9999","","text","46","284785","0.0-26.0","43429066","wem/bandit_either","A6JKKANO7F4KD","either","2","32","","","","","","","","","","","","","","","","","","","","","","","","","","","","","","","","","","",""
"2682","","text","47","287471","0.0-27.0","43429066","wem/bandit_either","A6JKKANO7F4KD","either","2","32","","","","","","","","","","","","","","","","","","","","","","","","","","","","","","","","","","",""
"3772","","text","48","291247","0.0-28.0","43429066","wem/bandit_either","A6JKKANO7F4KD","either","2","32","","","","","","","","","","","","","","","","","","","","","","","","","","","","","","","","","","",""
"2965","","text","49","294230","0.0-29.0","43429066","wem/bandit_either","A6JKKANO7F4KD","either","2","32","","","","","","","","","","","","","","","","","","","","","","","","","","","","","","","","","","",""
"4437","","text","50","298672","0.0-30.0","43429066","wem/bandit_either","A6JKKANO7F4KD","either","2","32","","","","","","","","","","","","","","","","","","","","","","","","","","","","","","","","","","",""
"2308","","text","51","300983","0.0-31.0","43429066","wem/bandit_either","A6JKKANO7F4KD","either","2","32","","","","","","","","","","","","","","","","","","","","","","","","","","","","","","","","","","",""
"3460","","text","52","304448","0.0-32.0","43429066","wem/bandit_either","A6JKKANO7F4KD","either","2","32","","","","","","","","","","","","","","","","","","","","","","","","","","","","","","","","","","",""
"1311","","bandit","53","307311","0.0-33.0-0.0","43429066","wem/bandit_either","A6JKKANO7F4KD","either","2","","","","","","","1","0","0","0.8","","0.5","0.5","0.5","0.5","","","","","0.8","0.2","0.6","0.2","","","","","","","72","H","0","img/none_selected.jpg","true","0","full_practice"
"1069","","bandit","54","309899","0.0-33.0-1.0","43429066","wem/bandit_either","A6JKKANO7F4KD","either","2","","","","","","","1","0","0","0.8","","0.5","0.5","0.5","0.5","","","","","0.8","0.2","0.6","0.2","","","","","","","72","H","0","img/none_selected.jpg","true","0","full_practice"
"812","","bandit","55","312229","0.0-33.0-2.0","43429066","wem/bandit_either","A6JKKANO7F4KD","either","2","","","","","","","0","0","1","0.8","","0.5","0.5","0.5","0.5","","","","","0.8","0.2","0.6","0.2","","","","","","","72","H","0","img/none_selected.jpg","true","0","full_practice"
"708","","bandit","56","314489","0.0-33.0-3.0","43429066","wem/bandit_either","A6JKKANO7F4KD","either","2","","","","","","","0","0","1","0.8","","0.5","0.5","0.5","0.5","","","","","0.8","0.2","0.6","0.2","","","","","","","72","H","0","img/none_selected.jpg","true","0","full_practice"
"1816","","bandit","57","317816","0.0-33.0-4.0","43429066","wem/bandit_either","A6JKKANO7F4KD","either","2","","","","","","","0","0","1","","0.2","0.5","0.5","0.5","0.5","0.8","0.2","0.6","0.2","","","","","","","","","","","74","J","1","","true","0","full_practice"
"169","","bandit","58","319502","0.0-33.0-5.0","43429066","wem/bandit_either","A6JKKANO7F4KD","either","2","","","","","","","0","0","1","0.6","","0.5","0.5","0.5","0.5","","","","","0.8","0.2","0.6","0.2","","","","","","","75","K","2","","true","0","full_practice"
"979","","bandit","59","321995","0.0-33.0-6.0","43429066","wem/bandit_either","A6JKKANO7F4KD","either","2","","","","","","","0","1","0","","0.2","0.5","0.5","0.5","0.5","0.8","0.2","0.6","0.2","","","","","","","","","","","76","L","3","","true","0","full_practice"
"342","","bandit","60","323849","0.0-33.0-7.0","43429066","wem/bandit_either","A6JKKANO7F4KD","either","2","","","","","","","0","1","0","","0.2","0.5","0.5","0.5","0.5","0.8","0.2","0.6","0.2","","","","","","","","","","","76","L","3","","true","0","full_practice"
"316","","bandit","61","325697","0.0-33.0-8.0","43429066","wem/bandit_either","A6JKKANO7F4KD","either","2","","","","","","","0","0","1","0.2","","0.5","0.5","0.5","0.5","","","","","0.8","0.2","0.6","0.2","","","","","","","76","L","3","","true","0","full_practice"
"335","","bandit","62","327551","0.0-33.0-9.0","43429066","wem/bandit_either","A6JKKANO7F4KD","either","2","","","","","","","0","1","0","","0.2","0.5","0.5","0.5","0.5","0.8","0.2","0.6","0.2","","","","","","","","","","","76","L","3","","true","0","full_practice"
"298","","bandit","63","329358","0.0-33.0-10.0","43429066","wem/bandit_either","A6JKKANO7F4KD","either","2","","","","","","","1","0","0","0.2","","0.5","0.5","0.5","0.5","","","","","0.8","0.2","0.6","0.2","","","","","","","76","L","3","","true","0","full_practice"
"245","","bandit","64","331123","0.0-33.0-11.0","43429066","wem/bandit_either","A6JKKANO7F4KD","either","2","","","","","","","0","0","1","","0.2","0.5","0.5","0.5","0.5","0.8","0.2","0.6","0.2","","","","","","","","","","","76","L","3","","true","0","full_practice"
"300","","bandit","65","332935","0.0-33.0-12.0","43429066","wem/bandit_either","A6JKKANO7F4KD","either","2","","","","","","","0","0","1","","0.2","0.5","0.5","0.5","0.5","0.8","0.2","0.6","0.2","","","","","","","","","","","76","L","3","","true","0","full_practice"
"386","","bandit","66","334833","0.0-33.0-13.0","43429066","wem/bandit_either","A6JKKANO7F4KD","either","2","","","","","","","0","0","1","0.2","","0.5","0.5","0.5","0.5","","","","","0.8","0.2","0.6","0.2","","","","","","","76","L","3","","true","0","full_practice"
"1615","","bandit","67","337965","0.0-33.0-14.0","43429066","wem/bandit_either","A6JKKANO7F4KD","either","2","","","","","","","0","1","0","","0.6","0.5","0.5","0.5","0.5","0.8","0.2","0.6","0.2","","","","","","","","","","","75","K","2","","true","0","full_practice"
"1264","","bandit","68","340743","0.0-33.0-15.0","43429066","wem/bandit_either","A6JKKANO7F4KD","either","2","","","","","","","0","0","1","0.6","","0.5","0.5","0.5","0.5","","","","","0.8","0.2","0.6","0.2","","","","","","","75","K","2","","true","0","full_practice"
"809","","bandit","69","343064","0.0-33.0-16.0","43429066","wem/bandit_either","A6JKKANO7F4KD","either","2","","","","","","","1","0","0","0.6","","0.5","0.5","0.5","0.5","","","","","0.8","0.2","0.6","0.2","","","","","","","75","K","2","","true","0","full_practice"
"308","","bandit","70","344890","0.0-33.0-17.0","43429066","wem/bandit_either","A6JKKANO7F4KD","either","2","","","","","","","0","1","0","","0.6","0.5","0.5","0.5","0.5","0.8","0.2","0.6","0.2","","","","","","","","","","","75","K","2","","true","0","full_practice"
"309","","bandit","71","346721","0.0-33.0-18.0","43429066","wem/bandit_either","A6JKKANO7F4KD","either","2","","","","","","","0","0","1","","0.6","0.5","0.5","0.5","0.5","0.8","0.2","0.6","0.2","","","","","","","","","","","75","K","2","","true","0","full_practice"
"405","","bandit","72","348640","0.0-33.0-19.0","43429066","wem/bandit_either","A6JKKANO7F4KD","either","2","","","","","","","0","1","0","","0.6","0.5","0.5","0.5","0.5","0.8","0.2","0.6","0.2","","","","","","","","","","","75","K","2","","true","0","full_practice"
"3983","","text","73","352631","0.0-34.0","43429066","wem/bandit_either","A6JKKANO7F4KD","either","2","32","","","","","","","","","","","","","","","","","","","","","","","","","","","","","","","","","","",""
"15730","","text","74","369367","0.0-35.0","43429066","wem/bandit_either","A6JKKANO7F4KD","either","2","32","","","","","","","","","","","","","","","","","","","","","","","","","","","","","","","","","","",""
"15626","","text","75","384999","0.0-36.0","43429066","wem/bandit_either","A6JKKANO7F4KD","either","2","32","","","","","","","","","","","","","","","","","","","","","","","","","","","","","","","","","","",""
"9524","","text","76","394526","0.0-37.0","43429066","wem/bandit_either","A6JKKANO7F4KD","either","2","32","","","","","","","","","","","","","","","","","","","","","","","","","","","","","","","","","","",""
"5425","","text","77","399958","0.0-38.0","43429066","wem/bandit_either","A6JKKANO7F4KD","either","2","32","","","","","","","","","","","","","","","","","","","","","","","","","","","","","","","","","","",""
"5975","","text","78","405935","0.0-39.0","43429066","wem/bandit_either","A6JKKANO7F4KD","either","2","32","","","","","","","","","","","","","","","","","","","","","","","","","","","","","","","","","","",""
"1911","","bandit","79","409363","0.0-40.0-0.0","43429066","wem/bandit_either","A6JKKANO7F4KD","either","2","","","","","","","0","0","1","0.3653736811","","0.8","0.6","0.2","0.4","","","","","0.3653736811","0.4781977867","0.326135308","0.362799796","","","","","","","72","H","0","img/none_selected.jpg","","1","main_expt"
"1662","","bandit","80","412535","0.0-41.0-0.0","43429066","wem/bandit_either","A6JKKANO7F4KD","either","2","","","","","","","0","1","0","","0.3999069229","0.8","0.6","0.2","0.4","0.3999069229","0.4765481994","0.3564958201","0.3891507205","","","","","","","","","","","72","H","0","img/none_selected.jpg","","2","main_expt"
"990","","bandit","81","415057","0.0-42.0-0.0","43429066","wem/bandit_either","A6JKKANO7F4KD","either","2","","","","","","","0","0","1","0.4363582421","","0.8","0.6","0.2","0.4","","","","","0.4363582421","0.4722158263","0.3309056029","0.3151339382","","","","","","","72","H","0","img/none_selected.jpg","","3","main_expt"
"821","","bandit","82","417391","0.0-43.0-0.0","43429066","wem/bandit_either","A6JKKANO7F4KD","either","2","","","","","","","0","0","1","0.4300921111","","0.8","0.6","0.2","0.4","","","","","0.4300921111","0.4609570051","0.308467875","0.250648122","","","","","","","72","H","0","img/none_selected.jpg","","4","main_expt"
"807","","bandit","83","419711","0.0-44.0-0.0","43429066","wem/bandit_either","A6JKKANO7F4KD","either","2","","","","","","","0","1","0","","0.4707799186","0.8","0.6","0.2","0.4","0.3863220662","0.4707799186","0.3349995635","0.2382585344","","","","","","","","","","","74","J","1","","","5","main_expt"
"768","","bandit","84","421992","0.0-45.0-0.0","43429066","wem/bandit_either","A6JKKANO7F4KD","either","2","","","","","","","0","0","1","0.4676743975","","0.8","0.6","0.2","0.4","","","","","0.4192648028","0.4676743975","0.3743101545","0.2088101903","","","","","","","74","J","1","","","6","main_expt"
"867","","bandit","85","424374","0.0-46.0-0.0","43429066","wem/bandit_either","A6JKKANO7F4KD","either","2","","","","","","","0","1","0","","0.377506125","0.8","0.6","0.2","0.4","0.4218548145","0.4767364015","0.377506125","0.1884279889","","","","","","","","","","","75","K","2","","","7","main_expt"
"745","","bandit","86","426637","0.0-47.0-0.0","43429066","wem/bandit_either","A6JKKANO7F4KD","either","2","","","","","","","0","0","1","0.3452849142","","0.8","0.6","0.2","0.4","","","","","0.4298914749","0.4837409877","0.3452849142","0.2297930851","","","","","","","75","K","2","","","8","main_expt"
"410","","bandit","87","428559","0.0-48.0-0.0","43429066","wem/bandit_either","A6JKKANO7F4KD","either","2","","","","","","","0","0","1","0.2219539873","","0.8","0.6","0.2","0.4","","","","","0.4215440671","0.4825212187","0.2713567333","0.2219539873","","","","","","","76","L","3","","","9","main_expt"
"480","","bandit","88","430549","0.0-49.0-0.0","43429066","wem/bandit_either","A6JKKANO7F4KD","either","2","","","","","","","0","0","1","0.2712708503","","0.8","0.6","0.2","0.4","","","","","0.3991616263","0.4791264729","0.2712708503","0.2398128751","","","","","","","75","K","2","","","10","main_expt"
"451","","bandit","89","432511","0.0-50.0-0.0","43429066","wem/bandit_either","A6JKKANO7F4KD","either","2","","","","","","","1","0","0","0.4762013833","","0.8","0.6","0.2","0.4","","","","","0.4002673883","0.4762013833","0.2635531688","0.2551733424","","","","","","","74","J","1","","","11","main_expt"
"672","","bandit","90","434700","0.0-51.0-0.0","43429066","wem/bandit_either","A6JKKANO7F4KD","either","2","","","","","","","0","0","1","0.4729837645","","0.8","0.6","0.2","0.4","","","","","0.368629831","0.4729837645","0.2669056975","0.2593424883","","","","","","","74","J","1","","","12","main_expt"
"535","","bandit","91","436750","0.0-52.0-0.0","43429066","wem/bandit_either","A6JKKANO7F4KD","either","2","","","","","","","1","0","0","0.4749786695","","0.8","0.6","0.2","0.4","","","","","0.4189726289","0.4749786695","0.3204456557","0.2493591627","","","","","","","74","J","1","","","13","main_expt"
"890","","bandit","92","439153","0.0-53.0-0.0","43429066","wem/bandit_either","A6JKKANO7F4KD","either","2","","","","","","","0","0","1","","0.4810115094","0.8","0.6","0.2","0.4","0.4352425359","0.4810115094","0.3466526728","0.2686446846","","","","","","","","","","","74","J","1","","","14","main_expt"
"536","","bandit","93","441203","0.0-54.0-0.0","43429066","wem/bandit_either","A6JKKANO7F4KD","either","2","","","","","","","0","0","1","","0.4705329286","0.8","0.6","0.2","0.4","0.3819090161","0.4705329286","0.3736671224","0.2690169042","","","","","","","","","","","74","J","1","","","15","main_expt"
"771","","bandit","94","443486","0.0-55.0-0.0","43429066","wem/bandit_either","A6JKKANO7F4KD","either","2","","","","","","","0","0","1","0.3737760256","","0.8","0.6","0.2","0.4","","","","","0.3737760256","0.4687419894","0.3778143907","0.2518303543","","","","","","","72","H","0","img/none_selected.jpg","","16","main_expt"
"1416","","bandit","95","446415","0.0-56.0-0.0","43429066","wem/bandit_either","A6JKKANO7F4KD","either","2","","","","","","","0","0","1","","0.3845750066","0.8","0.6","0.2","0.4","0.4151791473","0.4594180265","0.3845750066","0.2406549936","","","","","","","","","","","75","K","2","","","17","main_expt"
"438","","bandit","96","448365","0.0-57.0-0.0","43429066","wem/bandit_either","A6JKKANO7F4KD","either","2","","","","","","","1","0","0","0.2670149403","","0.8","0.6","0.2","0.4","","","","","0.4137363134","0.425397146","0.4041286345","0.2670149403","","","","","","","76","L","3","","","18","main_expt"
"568","","bandit","97","450449","0.0-58.0-0.0","43429066","wem/bandit_either","A6JKKANO7F4KD","either","2","","","","","","","0","0","1","0.2658482338","","0.8","0.6","0.2","0.4","","","","","0.4084056464","0.4201246927","0.4127350431","0.2658482338","","","","","","","76","L","3","","","19","main_expt"
"518","","bandit","98","452480","0.0-59.0-0.0","43429066","wem/bandit_either","A6JKKANO7F4KD","either","2","","","","","","","0","1","0","","0.2452433766","0.8","0.6","0.2","0.4","0.4129175496","0.3954271328","0.4107359536","0.2452433766","","","","","","","","","","","76","L","3","","","20","main_expt"
"735","","bandit","99","454726","0.0-60.0-0.0","43429066","wem/bandit_either","A6JKKANO7F4KD","either","2","","","","","","","0","0","1","","0.2298761452","0.8","0.6","0.2","0.4","0.3888488162","0.4196431029","0.3954861765","0.2298761452","","","","","","","","","","","76","L","3","","","21","main_expt"
"592","","bandit","100","456861","0.0-61.0-0.0","43429066","wem/bandit_either","A6JKKANO7F4KD","either","2","","","","","","","0","0","1","0.266827693","","0.8","0.6","0.2","0.4","","","","","0.3873149631","0.3843335182","0.3805979297","0.266827693","","","","","","","76","L","3","","","22","main_expt"
"647","","bandit","101","459023","0.0-62.0-0.0","43429066","wem/bandit_either","A6JKKANO7F4KD","either","2","","","","","","","0","0","1","0.2519769849","","0.8","0.6","0.2","0.4","","","","","0.3659772031","0.3839977458","0.425451992","0.2519769849","","","","","","","76","L","3","","","23","main_expt"
"199","","bandit","102","460733","0.0-63.0-0.0","43429066","wem/bandit_either","A6JKKANO7F4KD","either","2","","","","","","","0","0","1","","0.4699447661","0.8","0.6","0.2","0.4","0.3594327093","0.3338939571","0.4699447661","0.2447613107","","","","","","","","","","","75","K","2","","","24","main_expt"
"469","","bandit","103","462723","0.0-64.0-0.0","43429066","wem/bandit_either","A6JKKANO7F4KD","either","2","","","","","","","0","0","1","0.324486952","","0.8","0.6","0.2","0.4","","","","","0.3719143394","0.324486952","0.4484050393","0.2350413847","","","","","","","74","J","1","","","25","main_expt"
"471","","bandit","104","464721","0.0-65.0-0.0","43429066","wem/bandit_either","A6JKKANO7F4KD","either","2","","","","","","","0","0","1","0.3690014044","","0.8","0.6","0.2","0.4","","","","","0.3690014044","0.3095710384","0.4190234423","0.207774486","","","","","","","72","H","0","img/none_selected.jpg","","26","main_expt"
"204","","bandit","105","466438","0.0-66.0-0.0","43429066","wem/bandit_either","A6JKKANO7F4KD","either","2","","","","","","","0","0","1","0.3355629191","","0.8","0.6","0.2","0.4","","","","","0.3940030818","0.3355629191","0.4251478254","0.2164182795","","","","","","","74","J","1","","","27","main_expt"
"690","","bandit","106","468639","0.0-67.0-0.0","43429066","wem/bandit_either","A6JKKANO7F4KD","either","2","","","","","","","0","0","1","0.3668681485","","0.8","0.6","0.2","0.4","","","","","0.4111080327","0.3668681485","0.4287328697","0.2164031865","","","","","","","74","J","1","","","28","main_expt"
"411","","bandit","107","470565","0.0-68.0-0.0","43429066","wem/bandit_either","A6JKKANO7F4KD","either","2","","","","","","","0","1","0","","0.4106025245","0.8","0.6","0.2","0.4","0.41290056","0.343198694","0.4106025245","0.2770000278","","","","","","","","","","","75","K","2","","","29","main_expt"
"626","","bandit","108","472705","0.0-69.0-0.0","43429066","wem/bandit_either","A6JKKANO7F4KD","either","2","","","","","","","0","1","0","","0.3942494676","0.8","0.6","0.2","0.4","0.3937480262","0.326069126","0.3942494676","0.2354797847","","","","","","","","","","","75","K","2","","","30","main_expt"
"870","","bandit","109","475097","0.0-70.0-0.0","43429066","wem/bandit_either","A6JKKANO7F4KD","either","2","","","","","","","0","1","0","","0.4285056211","0.8","0.6","0.2","0.4","0.3997016236","0.3390127419","0.4285056211","0.2692030882","","","","","","","","","","","75","K","2","","","31","main_expt"
"855","","bandit","110","477471","0.0-71.0-0.0","43429066","wem/bandit_either","A6JKKANO7F4KD","either","2","","","","","","","0","1","0","","0.4249454459","0.8","0.6","0.2","0.4","0.3574295763","0.3360649894","0.4249454459","0.2471118655","","","","","","","","","","","75","K","2","","","32","main_expt"
"893","","bandit","111","479880","0.0-72.0-0.0","43429066","wem/bandit_either","A6JKKANO7F4KD","either","2","","","","","","","0","0","1","0.416417765","","0.8","0.6","0.2","0.4","","","","","0.3877818659","0.3052602024","0.416417765","0.2879199001","","","","","","","75","K","2","","","33","main_expt"
"551","","bandit","112","481944","0.0-73.0-0.0","43429066","wem/bandit_either","A6JKKANO7F4KD","either","2","","","","","","","0","0","1","0.3594788954","","0.8","0.6","0.2","0.4","","","","","0.3799496232","0.3594788954","0.4623714429","0.3180115212","","","","","","","74","J","1","","","34","main_expt"
"598","","bandit","113","484055","0.0-74.0-0.0","43429066","wem/bandit_either","A6JKKANO7F4KD","either","2","","","","","","","1","0","0","0.4591977302","","0.8","0.6","0.2","0.4","","","","","0.3577573403","0.380235832","0.4591977302","0.2524306687","","","","","","","75","K","2","","","35","main_expt"
"900","","bandit","114","486470","0.0-75.0-0.0","43429066","wem/bandit_either","A6JKKANO7F4KD","either","2","","","","","","","0","0","1","0.4686235256","","0.8","0.6","0.2","0.4","","","","","0.3895375856","0.3459989602","0.4686235256","0.2351869563","","","","","","","75","K","2","","","36","main_expt"
"643","","bandit","115","488631","0.0-76.0-0.0","43429066","wem/bandit_either","A6JKKANO7F4KD","either","2","","","","","","","0","1","0","","0.4571547709","0.8","0.6","0.2","0.4","0.3783527007","0.3320905149","0.4571547709","0.2629170466","","","","","","","","","","","75","K","2","","","37","main_expt"
"890","","bandit","116","491035","0.0-77.0-0.0","43429066","wem/bandit_either","A6JKKANO7F4KD","either","2","","","","","","","0","1","0","","0.4688430709","0.8","0.6","0.2","0.4","0.284076782","0.3471020919","0.4688430709","0.3090194305","","","","","","","","","","","75","K","2","","","38","main_expt"
"899","","bandit","117","493446","0.0-78.0-0.0","43429066","wem/bandit_either","A6JKKANO7F4KD","either","2","","","","","","","0","1","0","","0.4612923778","0.8","0.6","0.2","0.4","0.3388972186","0.3401763967","0.4612923778","0.2845371228","","","","","","","","","","","75","K","2","","","39","main_expt"
"539","","bandit","118","495508","0.0-79.0-0.0","43429066","wem/bandit_either","A6JKKANO7F4KD","either","2","","","","","","","0","0","1","","0.4576194683","0.8","0.6","0.2","0.4","0.2663655232","0.3260487483","0.4576194683","0.3076259244","","","","","","","","","","","75","K","2","","","40","main_expt"
"651","","bandit","119","497671","0.0-80.0-0.0","43429066","wem/bandit_either","A6JKKANO7F4KD","either","2","","","","","","","0","0","1","","0.4473921051","0.8","0.6","0.2","0.4","0.2608266697","0.3390218734","0.4473921051","0.2888769276","","","","","","","","","","","75","K","2","","","41","main_expt"
"459","","bandit","120","499646","0.0-81.0-0.0","43429066","wem/bandit_either","A6JKKANO7F4KD","either","2","","","","","","","0","0","1","0.2639198141","","0.8","0.6","0.2","0.4","","","","","0.2287676803","0.2889680017","0.425470286","0.2639198141","","","","","","","76","L","3","","","42","main_expt"
"606","","bandit","121","501767","0.0-82.0-0.0","43429066","wem/bandit_either","A6JKKANO7F4KD","either","2","","","","","","","0","0","1","","0.2255441472","0.8","0.6","0.2","0.4","0.2043112358","0.2784828801","0.4030522017","0.2255441472","","","","","","","","","","","76","L","3","","","43","main_expt"
"726","","bandit","122","504004","0.0-83.0-0.0","43429066","wem/bandit_either","A6JKKANO7F4KD","either","2","","","","","","","0","0","1","0.2805729819","","0.8","0.6","0.2","0.4","","","","","0.1957049551","0.2805729819","0.4106315797","0.2050272072","","","","","","","74","J","1","","","44","main_expt"
"449","","bandit","123","506016","0.0-84.0-0.0","43429066","wem/bandit_either","A6JKKANO7F4KD","either","2","","","","","","","0","0","1","0.2195119073","","0.8","0.6","0.2","0.4","","","","","0.2207366272","0.2195119073","0.4258527362","0.239455925","","","","","","","74","J","1","","","45","main_expt"
"27","","bandit","124","507567","0.0-85.0-0.0","43429066","wem/bandit_either","A6JKKANO7F4KD","either","2","","","","","","","1","0","0","0.1727988076","","0.8","0.6","0.2","0.4","","","","","0.1727988076","0.2657932304","0.4425966235","0.2414778298","","","","","","","72","H","0","img/none_selected.jpg","","46","main_expt"
"521","","bandit","125","509606","0.0-86.0-0.0","43429066","wem/bandit_either","A6JKKANO7F4KD","either","2","","","","","","","0","0","1","","0.1446735631","0.8","0.6","0.2","0.4","0.1446735631","0.2678398397","0.4428977597","0.1884211613","","","","","","","","","","","72","H","0","img/none_selected.jpg","","47","main_expt"
"531","","bandit","126","511654","0.0-87.0-0.0","43429066","wem/bandit_either","A6JKKANO7F4KD","either","2","","","","","","","1","0","0","0.1681765936","","0.8","0.6","0.2","0.4","","","","","0.1681765936","0.2866904938","0.4479964269","0.1755274282","","","","","","","72","H","0","img/none_selected.jpg","","48","main_expt"
"748","","bandit","127","513918","0.0-88.0-0.0","43429066","wem/bandit_either","A6JKKANO7F4KD","either","2","","","","","","","0","0","1","0.1473883531","","0.8","0.6","0.2","0.4","","","","","0.1473883531","0.2803848884","0.4660387519","0.1646396384","","","","","","","72","H","0","img/none_selected.jpg","","49","main_expt"
"488","","bandit","128","515920","0.0-89.0-0.0","43429066","wem/bandit_either","A6JKKANO7F4KD","either","2","","","","","","","0","0","1","0.1378170987","","0.8","0.6","0.2","0.4","","","","","0.1378170987","0.2587411269","0.4345757832","0.2024226619","","","","","","","72","H","0","img/none_selected.jpg","","50","main_expt"
"778","","bandit","129","518214","0.0-90.0-0.0","43429066","wem/bandit_either","A6JKKANO7F4KD","either","2","","","","","","","0","0","1","0.1430360168","","0.8","0.6","0.2","0.4","","","","","0.1430360168","0.2212901065","0.4450950844","0.1976760068","","","","","","","72","H","0","img/none_selected.jpg","","51","main_expt"
"697","","bandit","130","520429","0.0-91.0-0.0","43429066","wem/bandit_either","A6JKKANO7F4KD","either","2","","","","","","","0","0","1","0.1731798725","","0.8","0.6","0.2","0.4","","","","","0.1731798725","0.236006857","0.4475354499","0.1796352224","","","","","","","72","H","0","img/none_selected.jpg","","52","main_expt"
"1547","","bandit","131","523495","0.0-92.0-0.0","43429066","wem/bandit_either","A6JKKANO7F4KD","either","2","","","","","","","0","0","1","","0.2660825342","0.8","0.6","0.2","0.4","0.1312409056","0.2660825342","0.4627294295","0.2451732725","","","","","","","","","","","74","J","1","","","53","main_expt"
"579","","bandit","132","525589","0.0-93.0-0.0","43429066","wem/bandit_either","A6JKKANO7F4KD","either","2","","","","","","","1","0","0","0.2458345041","","0.8","0.6","0.2","0.4","","","","","0.1862053218","0.2458345041","0.44829207","0.2621482643","","","","","","","74","J","1","","","54","main_expt"
"738","","bandit","133","527845","0.0-94.0-0.0","43429066","wem/bandit_either","A6JKKANO7F4KD","either","2","","","","","","","0","0","1","0.2265690781","","0.8","0.6","0.2","0.4","","","","","0.1733563037","0.2265690781","0.4505537928","0.2441780383","","","","","","","74","J","1","","","55","main_expt"
"568","","bandit","134","529927","0.0-95.0-0.0","43429066","wem/bandit_either","A6JKKANO7F4KD","either","2","","","","","","","0","0","1","0.2741820357","","0.8","0.6","0.2","0.4","","","","","0.1728369204","0.2741820357","0.4686400132","0.199729785","","","","","","","74","J","1","","","56","main_expt"
"617","","bandit","135","532064","0.0-96.0-0.0","43429066","wem/bandit_either","A6JKKANO7F4KD","either","2","","","","","","","0","0","1","","0.2937641054","0.8","0.6","0.2","0.4","0.09176359954","0.2937641054","0.4572679106","0.1945085845","","","","","","","","","","","74","J","1","","","57","main_expt"
"570","","bandit","136","534150","0.0-97.0-0.0","43429066","wem/bandit_either","A6JKKANO7F4KD","either","2","","","","","","","0","0","1","","0.2614759052","0.8","0.6","0.2","0.4","0.04991422033","0.2949827607","0.4300169527","0.2614759052","","","","","","","","","","","76","L","3","","","58","main_expt"
"584","","bandit","137","536254","0.0-98.0-0.0","43429066","wem/bandit_either","A6JKKANO7F4KD","either","2","","","","","","","0","0","1","","0.2426118991","0.8","0.6","0.2","0.4","0.053239915","0.2710075273","0.4050829606","0.2426118991","","","","","","","","","","","76","L","3","","","59","main_expt"
"476","","bandit","138","538246","0.0-99.0-0.0","43429066","wem/bandit_either","A6JKKANO7F4KD","either","2","","","","","","","0","0","1","","0.4070720156","0.8","0.6","0.2","0.4","0.06994226662","0.2766623035","0.4070720156","0.2623750897","","","","","","","","","","","75","K","2","","","60","main_expt"
"437","","bandit","139","540198","0.0-100.0-0.0","43429066","wem/bandit_either","A6JKKANO7F4KD","either","2","","","","","","","0","0","1","","0.3895400789","0.8","0.6","0.2","0.4","0.07064832373","0.2574592035","0.3895400789","0.2139103784","","","","","","","","","","","75","K","2","","","61","main_expt"
"551","","bandit","140","542264","0.0-101.0-0.0","43429066","wem/bandit_either","A6JKKANO7F4KD","either","2","","","","","","","0","0","1","0.2425209234","","0.8","0.6","0.2","0.4","","","","","0.08925217872","0.2425209234","0.4050708951","0.2566580444","","","","","","","74","J","1","","","62","main_expt"
"594","","bandit","141","544379","0.0-102.0-0.0","43429066","wem/bandit_either","A6JKKANO7F4KD","either","2","","","","","","","0","0","1","0.08505035955","","0.8","0.6","0.2","0.4","","","","","0.08505035955","0.2294211584","0.3765761212","0.2393402704","","","","","","","72","H","0","img/none_selected.jpg","","63","main_expt"
"785","","bandit","142","546682","0.0-103.0-0.0","43429066","wem/bandit_either","A6JKKANO7F4KD","either","2","","","","","","","0","0","1","0.09892528285","","0.8","0.6","0.2","0.4","","","","","0.09892528285","0.2350173232","0.3859881554","0.300105392","","","","","","","72","H","0","img/none_selected.jpg","","64","main_expt"
"565","","bandit","143","548796","0.0-104.0-0.0","43429066","wem/bandit_either","A6JKKANO7F4KD","either","2","","","","","","","0","0","1","0.2775473173","","0.8","0.6","0.2","0.4","","","","","0.1428545766","0.2775473173","0.3817039273","0.2584268813","","","","","","","74","J","1","","","65","main_expt"
"586","","bandit","144","550898","0.0-105.0-0.0","43429066","wem/bandit_either","A6JKKANO7F4KD","either","2","","","","","","","1","0","0","0.298861572","","0.8","0.6","0.2","0.4","","","","","0.120440259","0.298861572","0.3622232449","0.2536378703","","","","","","","74","J","1","","","66","main_expt"
"746","","bandit","145","553160","0.0-106.0-0.0","43429066","wem/bandit_either","A6JKKANO7F4KD","either","2","","","","","","","0","0","1","","0.3043747659","0.8","0.6","0.2","0.4","0.2019700983","0.3043747659","0.3768721334","0.2548884231","","","","","","","","","","","74","J","1","","","67","main_expt"
"758","","bandit","146","555448","0.0-107.0-0.0","43429066","wem/bandit_either","A6JKKANO7F4KD","either","2","","","","","","","1","0","0","0.2533072519","","0.8","0.6","0.2","0.4","","","","","0.1467862533","0.2533072519","0.3826604183","0.2105458193","","","","","","","74","J","1","","","68","main_expt"
"737","","bandit","147","557702","0.0-108.0-0.0","43429066","wem/bandit_either","A6JKKANO7F4KD","either","2","","","","","","","0","0","1","0.2451677402","","0.8","0.6","0.2","0.4","","","","","0.09022805221","0.2451677402","0.3981811202","0.2901666962","","","","","","","74","J","1","","","69","main_expt"
"795","","bandit","148","560013","0.0-109.0-0.0","43429066","wem/bandit_either","A6JKKANO7F4KD","either","2","","","","","","","1","0","0","0.2403061491","","0.8","0.6","0.2","0.4","","","","","0.1128827508","0.2403061491","0.3936557204","0.2973761433","","","","","","","74","J","1","","","70","main_expt"
"864","","bandit","149","562390","0.0-110.0-0.0","43429066","wem/bandit_either","A6JKKANO7F4KD","either","2","","","","","","","0","1","0","","0.1917576795","0.8","0.6","0.2","0.4","0.1184182172","0.1917576795","0.3949471057","0.2737706179","","","","","","","","","","","74","J","1","","","71","main_expt"
"747","","bandit","150","564658","0.0-111.0-0.0","43429066","wem/bandit_either","A6JKKANO7F4KD","either","2","","","","","","","0","0","1","0.1894079546","","0.8","0.6","0.2","0.4","","","","","0.1038133506","0.1894079546","0.3888869603","0.3005227265","","","","","","","74","J","1","","","72","main_expt"
"583","","bandit","151","566758","0.0-112.0-0.0","43429066","wem/bandit_either","A6JKKANO7F4KD","either","2","","","","","","","0","0","1","","0.235909594","0.8","0.6","0.2","0.4","0.07830871569","0.235909594","0.4015056825","0.3205676235","","","","","","","","","","","74","J","1","","","73","main_expt"
"752","","bandit","152","569030","0.0-113.0-0.0","43429066","wem/bandit_either","A6JKKANO7F4KD","either","2","","","","","","","0","0","1","","0.2772030277","0.8","0.6","0.2","0.4","0.09226686474","0.2772030277","0.4200542591","0.3040473008","","","","","","","","","","","74","J","1","","","74","main_expt"
"608","","bandit","153","571158","0.0-114.0-0.0","43429066","wem/bandit_either","A6JKKANO7F4KD","either","2","","","","","","","0","1","0","","0.4353174817","0.8","0.6","0.2","0.4","0.07948082514","0.2237268092","0.4353174817","0.2686744794","","","","","","","","","","","75","K","2","","","75","main_expt"
"642","","bandit","154","573328","0.0-115.0-0.0","43429066","wem/bandit_either","A6JKKANO7F4KD","either","2","","","","","","","0","1","0","","0.4196821318","0.8","0.6","0.2","0.4","0.1279570505","0.1739375455","0.4196821318","0.258707356","","","","","","","","","","","75","K","2","","","76","main_expt"
"672","","bandit","155","575523","0.0-116.0-0.0","43429066","wem/bandit_either","A6JKKANO7F4KD","either","2","","","","","","","0","1","0","","0.3787369199","0.8","0.6","0.2","0.4","0.1202820049","0.1648796623","0.3787369199","0.3010070056","","","","","","","","","","","75","K","2","","","77","main_expt"
"690","","bandit","156","577728","0.0-117.0-0.0","43429066","wem/bandit_either","A6JKKANO7F4KD","either","2","","","","","","","0","1","0","","0.4314930014","0.8","0.6","0.2","0.4","0.1054071572","0.1637798684","0.4314930014","0.2648586626","","","","","","","","","","","75","K","2","","","78","main_expt"
"625","","bandit","157","579873","0.0-118.0-0.0","43429066","wem/bandit_either","A6JKKANO7F4KD","either","2","","","","","","","0","0","1","","0.4155078174","0.8","0.6","0.2","0.4","0.1403095361","0.1490076182","0.4155078174","0.1984114041","","","","","","","","","","","75","K","2","","","79","main_expt"
"776","","bandit","158","582168","0.0-119.0-0.0","43429066","wem/bandit_either","A6JKKANO7F4KD","either","2","","","","","","","0","0","1","","0.4226243671","0.8","0.6","0.2","0.4","0.1891235553","0.1093198388","0.4226243671","0.180325551","","","","","","","","","","","75","K","2","","","80","main_expt"
"720","","bandit","159","584404","0.0-120.0-0.0","43429066","wem/bandit_either","A6JKKANO7F4KD","either","2","","","","","","","0","1","0","","0.4474166549","0.8","0.6","0.2","0.4","0.1858030354","0.08868186825","0.4474166549","0.224531153","","","","","","","","","","","75","K","2","","","81","main_expt"
"610","","bandit","160","586533","0.0-121.0-0.0","43429066","wem/bandit_either","A6JKKANO7F4KD","either","2","","","","","","","0","1","0","","0.4636297045","0.8","0.6","0.2","0.4","0.2476542501","0.1073880826","0.4636297045","0.221125015","","","","","","","","","","","75","K","2","","","82","main_expt"
"760","","bandit","161","588810","0.0-122.0-0.0","43429066","wem/bandit_either","A6JKKANO7F4KD","either","2","","","","","","","0","1","0","","0.467509749","0.8","0.6","0.2","0.4","0.2188241074","0.1022587498","0.467509749","0.2143237207","","","","","","","","","","","75","K","2","","","83","main_expt"
"663","","bandit","162","590989","0.0-123.0-0.0","43429066","wem/bandit_either","A6JKKANO7F4KD","either","2","","","","","","","0","1","0","","0.4551111531","0.8","0.6","0.2","0.4","0.2754771977","0.1085807699","0.4551111531","0.2097367537","","","","","","","","","","","75","K","2","","","84","main_expt"
"788","","bandit","163","593295","0.0-124.0-0.0","43429066","wem/bandit_either","A6JKKANO7F4KD","either","2","","","","","","","0","1","0","","0.4621419017","0.8","0.6","0.2","0.4","0.2965575968","0.1263918358","0.4621419017","0.1661536269","","","","","","","","","","","75","K","2","","","85","main_expt"
"657","","bandit","164","595481","0.0-125.0-0.0","43429066","wem/bandit_either","A6JKKANO7F4KD","either","2","","","","","","","0","1","0","","0.4612050897","0.8","0.6","0.2","0.4","0.257129161","0.1481941301","0.4612050897","0.1364458955","","","","","","","","","","","75","K","2","","","86","main_expt"
"705","","bandit","165","597700","0.0-126.0-0.0","43429066","wem/bandit_either","A6JKKANO7F4KD","either","2","","","","","","","0","0","1","0.4334675206","","0.8","0.6","0.2","0.4","","","","","0.2338967043","0.1447872846","0.4334675206","0.08235553135","","","","","","","75","K","2","","","87","main_expt"
"586","","bandit","166","599810","0.0-127.0-0.0","43429066","wem/bandit_either","A6JKKANO7F4KD","either","2","","","","","","","0","1","0","","0.4397617206","0.8","0.6","0.2","0.4","0.2161535794","0.1391637727","0.4397617206","0.0754832669","","","","","","","","","","","75","K","2","","","88","main_expt"
"690","","bandit","167","602022","0.0-128.0-0.0","43429066","wem/bandit_either","A6JKKANO7F4KD","either","2","","","","","","","0","1","0","","0.4635478967","0.8","0.6","0.2","0.4","0.2043146745","0.1476089376","0.4635478967","0.109361408","","","","","","","","","","","75","K","2","","","89","main_expt"
"628","","bandit","168","604179","0.0-129.0-0.0","43429066","wem/bandit_either","A6JKKANO7F4KD","either","2","","","","","","","0","0","1","","0.4234969579","0.8","0.6","0.2","0.4","0.2346009907","0.2081489191","0.4234969579","0.07391079866","","","","","","","","","","","75","K","2","","","90","main_expt"
"694","","bandit","169","606391","0.0-130.0-0.0","43429066","wem/bandit_either","A6JKKANO7F4KD","either","2","","","","","","","0","0","1","0.4267507071","","0.8","0.6","0.2","0.4","","","","","0.2333967219","0.1834039029","0.4267507071","0.1164594673","","","","","","","75","K","2","","","91","main_expt"
"537","","bandit","170","608445","0.0-131.0-0.0","43429066","wem/bandit_either","A6JKKANO7F4KD","either","2","","","","","","","0","0","1","","0.4089505196","0.8","0.6","0.2","0.4","0.2150480475","0.2027314649","0.4089505196","0.113043345","","","","","","","","","","","75","K","2","","","92","main_expt"
"403","","bandit","171","610365","0.0-132.0-0.0","43429066","wem/bandit_either","A6JKKANO7F4KD","either","2","","","","","","","0","0","1","0.1714352716","","0.8","0.6","0.2","0.4","","","","","0.2588080464","0.1738894496","0.4112501448","0.1714352716","","","","","","","76","L","3","","","93","main_expt"
"449","","bandit","172","612333","0.0-133.0-0.0","43429066","wem/bandit_either","A6JKKANO7F4KD","either","2","","","","","","","0","0","1","","0.1253024032","0.8","0.6","0.2","0.4","0.2748849181","0.2484708832","0.452415855","0.1253024032","","","","","","","","","","","76","L","3","","","94","main_expt"
"550","","bandit","173","614398","0.0-134.0-0.0","43429066","wem/bandit_either","A6JKKANO7F4KD","either","2","","","","","","","0","0","1","0.1401284447","","0.8","0.6","0.2","0.4","","","","","0.2791739054","0.2914685715","0.4589197587","0.1401284447","","","","","","","76","L","3","","","95","main_expt"
"794","","bandit","174","616710","0.0-135.0-0.0","43429066","wem/bandit_either","A6JKKANO7F4KD","either","2","","","","","","","0","0","1","","0.3149564315","0.8","0.6","0.2","0.4","0.3149564315","0.2417524935","0.4481870348","0.1320491369","","","","","","","","","","","72","H","0","img/none_selected.jpg","","96","main_expt"
"570","","bandit","175","618798","0.0-136.0-0.0","43429066","wem/bandit_either","A6JKKANO7F4KD","either","2","","","","","","","1","0","0","0.372564007","","0.8","0.6","0.2","0.4","","","","","0.372564007","0.2492821404","0.4597072186","0.1518453759","","","","","","","72","H","0","img/none_selected.jpg","","97","main_expt"
"578","","bandit","176","620899","0.0-137.0-0.0","43429066","wem/bandit_either","A6JKKANO7F4KD","either","2","","","","","","","0","0","1","0.393328365","","0.8","0.6","0.2","0.4","","","","","0.393328365","0.3002958449","0.4705619112","0.2173959583","","","","","","","72","H","0","img/none_selected.jpg","","98","main_expt"
"500","","bandit","177","622921","0.0-138.0-0.0","43429066","wem/bandit_either","A6JKKANO7F4KD","either","2","","","","","","","1","0","0","0.421239771","","0.8","0.6","0.2","0.4","","","","","0.421239771","0.3544832656","0.4800968761","0.2618725657","","","","","","","72","H","0","img/none_selected.jpg","","99","main_expt"
"623","","bandit","178","625061","0.0-139.0-0.0","43429066","wem/bandit_either","A6JKKANO7F4KD","either","2","","","","","","","1","0","0","0.4130759476","","0.8","0.6","0.2","0.4","","","","","0.4130759476","0.3810954338","0.4780143146","0.2487788848","","","","","","","72","H","0","img/none_selected.jpg","","100","main_expt"
"586","","bandit","179","627176","0.0-140.0-0.0","43429066","wem/bandit_either","A6JKKANO7F4KD","either","2","","","","","","","0","0","1","","0.4089462913","0.8","0.6","0.2","0.4","0.4089462913","0.4042362267","0.4849002763","0.2890792313","","","","","","","","","","","72","H","0","img/none_selected.jpg","","101","main_expt"
"604","","bandit","180","629292","0.0-141.0-0.0","43429066","wem/bandit_either","A6JKKANO7F4KD","either","2","","","","","","","1","0","0","0.370330464","","0.8","0.6","0.2","0.4","","","","","0.370330464","0.4594696392","0.4886078379","0.3136369757","","","","","","","72","H","0","img/none_selected.jpg","","102","main_expt"
"526","","bandit","181","631332","0.0-142.0-0.0","43429066","wem/bandit_either","A6JKKANO7F4KD","either","2","","","","","","","0","0","1","0.3306315663","","0.8","0.6","0.2","0.4","","","","","0.3306315663","0.4588766667","0.47121906","0.2364671533","","","","","","","72","H","0","img/none_selected.jpg","","103","main_expt"
"558","","bandit","182","633408","0.0-143.0-0.0","43429066","wem/bandit_either","A6JKKANO7F4KD","either","2","","","","","","","0","0","1","0.354634178","","0.8","0.6","0.2","0.4","","","","","0.354634178","0.4372785745","0.4760763377","0.2202486688","","","","","","","72","H","0","img/none_selected.jpg","","104","main_expt"
"446","","bandit","183","635376","0.0-144.0-0.0","43429066","wem/bandit_either","A6JKKANO7F4KD","either","2","","","","","","","0","0","1","0.3896605338","","0.8","0.6","0.2","0.4","","","","","0.3896605338","0.4063887309","0.4701389446","0.1854418088","","","","","","","72","H","0","img/none_selected.jpg","","105","main_expt"
"295","","bandit","184","637189","0.0-145.0-0.0","43429066","wem/bandit_either","A6JKKANO7F4KD","either","2","","","","","","","0","0","1","0.3778019321","","0.8","0.6","0.2","0.4","","","","","0.414339711","0.3778019321","0.471324938","0.1596754559","","","","","","","74","J","1","","","106","main_expt"
"386","","bandit","185","639096","0.0-146.0-0.0","43429066","wem/bandit_either","A6JKKANO7F4KD","either","2","","","","","","","0","0","1","0.3614143111","","0.8","0.6","0.2","0.4","","","","","0.4164239898","0.3614143111","0.4786694594","0.137099288","","","","","","","74","J","1","","","107","main_expt"
"594","","bandit","186","641218","0.0-147.0-0.0","43429066","wem/bandit_either","A6JKKANO7F4KD","either","2","","","","","","","0","0","1","0.3681250399","","0.8","0.6","0.2","0.4","","","","","0.3836571442","0.3681250399","0.4810065258","0.1443984823","","","","","","","74","J","1","","","108","main_expt"
"793","","bandit","187","643525","0.0-148.0-0.0","43429066","wem/bandit_either","A6JKKANO7F4KD","either","2","","","","","","","0","0","1","","0.1409511773","0.8","0.6","0.2","0.4","0.3881214568","0.3446081275","0.4816764674","0.1409511773","","","","","","","","","","","76","L","3","","","109","main_expt"
"366","","bandit","188","645411","0.0-149.0-0.0","43429066","wem/bandit_either","A6JKKANO7F4KD","either","2","","","","","","","0","1","0","","0.1787750665","0.8","0.6","0.2","0.4","0.4266873791","0.3681270965","0.4882082215","0.1787750665","","","","","","","","","","","76","L","3","","","110","main_expt"
"585","","bandit","189","647521","0.0-150.0-0.0","43429066","wem/bandit_either","A6JKKANO7F4KD","either","2","","","","","","","0","0","1","","0.1862786225","0.8","0.6","0.2","0.4","0.4475699482","0.391379093","0.478642168","0.1862786225","","","","","","","","","","","76","L","3","","","111","main_expt"
"435","","bandit","190","649469","0.0-151.0-0.0","43429066","wem/bandit_either","A6JKKANO7F4KD","either","2","","","","","","","0","0","1","","0.1654620982","0.8","0.6","0.2","0.4","0.4190314983","0.4131544452","0.4841415165","0.1654620982","","","","","","","","","","","76","L","3","","","112","main_expt"
"526","","bandit","191","651519","0.0-152.0-0.0","43429066","wem/bandit_either","A6JKKANO7F4KD","either","2","","","","","","","0","0","1","0.1582981878","","0.8","0.6","0.2","0.4","","","","","0.3666128881","0.3963985948","0.4883212127","0.1582981878","","","","","","","76","L","3","","","113","main_expt"
"1220","","bandit","192","654262","0.0-153.0-0.0","43429066","wem/bandit_either","A6JKKANO7F4KD","either","2","","","","","","","0","1","0","","0.4883790739","0.8","0.6","0.2","0.4","0.3866259854","0.4117985871","0.4883790739","0.1922757069","","","","","","","","","","","75","K","2","","","114","main_expt"
"579","","bandit","193","656356","0.0-154.0-0.0","43429066","wem/bandit_either","A6JKKANO7F4KD","either","2","","","","","","","0","0","1","","0.4902011966","0.8","0.6","0.2","0.4","0.354161152","0.394381103","0.4902011966","0.185618385","","","","","","","","","","","75","K","2","","","115","main_expt"
"778","","bandit","194","658652","0.0-155.0-0.0","43429066","wem/bandit_either","A6JKKANO7F4KD","either","2","","","","","","","0","1","0","","0.4844723045","0.8","0.6","0.2","0.4","0.3170745426","0.3762408663","0.4844723045","0.2057277395","","","","","","","","","","","75","K","2","","","116","main_expt"
"683","","bandit","195","660854","0.0-156.0-0.0","43429066","wem/bandit_either","A6JKKANO7F4KD","either","2","","","","","","","0","0","1","","0.4895589844","0.8","0.6","0.2","0.4","0.304536318","0.3823674378","0.4895589844","0.2288411079","","","","","","","","","","","75","K","2","","","117","main_expt"
"669","","bandit","196","663038","0.0-157.0-0.0","43429066","wem/bandit_either","A6JKKANO7F4KD","either","2","","","","","","","0","0","1","0.4899729034","","0.8","0.6","0.2","0.4","","","","","0.3411026949","0.4050195855","0.4899729034","0.2207517482","","","","","","","75","K","2","","","118","main_expt"
"548","","bandit","197","665101","0.0-158.0-0.0","43429066","wem/bandit_either","A6JKKANO7F4KD","either","2","","","","","","","0","0","1","","0.4947041593","0.8","0.6","0.2","0.4","0.3447942488","0.4227562767","0.4947041593","0.1955286499","","","","","","","","","","","75","K","2","","","119","main_expt"
"672","","bandit","198","667291","0.0-159.0-0.0","43429066","wem/bandit_either","A6JKKANO7F4KD","either","2","","","","","","","1","0","0","0.4163810796","","0.8","0.6","0.2","0.4","","","","","0.3686185352","0.4163810796","0.4916865355","0.2427950695","","","","","","","74","J","1","","","120","main_expt"
"616","","bandit","199","669434","0.0-160.0-0.0","43429066","wem/bandit_either","A6JKKANO7F4KD","either","2","","","","","","","0","0","1","0.406821829","","0.8","0.6","0.2","0.4","","","","","0.3547669752","0.406821829","0.4860386064","0.2479682904","","","","","","","74","J","1","","","121","main_expt"
"597","","bandit","200","671546","0.0-161.0-0.0","43429066","wem/bandit_either","A6JKKANO7F4KD","either","2","","","","","","","0","0","1","0.3999449125","","0.8","0.6","0.2","0.4","","","","","0.365994073","0.3999449125","0.483083859","0.3081985406","","","","","","","74","J","1","","","122","main_expt"
"615","","bandit","201","673676","0.0-162.0-0.0","43429066","wem/bandit_either","A6JKKANO7F4KD","either","2","","","","","","","0","0","1","0.366626489","","0.8","0.6","0.2","0.4","","","","","0.3120596142","0.366626489","0.4791491275","0.3089359708","","","","","","","74","J","1","","","123","main_expt"
"625","","bandit","202","675820","0.0-163.0-0.0","43429066","wem/bandit_either","A6JKKANO7F4KD","either","2","","","","","","","0","0","1","","0.3706278578","0.8","0.6","0.2","0.4","0.302161917","0.3706278578","0.4776777384","0.3298338218","","","","","","","","","","","74","J","1","","","124","main_expt"
"485","","bandit","203","677829","0.0-164.0-0.0","43429066","wem/bandit_either","A6JKKANO7F4KD","either","2","","","","","","","1","0","0","0.2794370347","","0.8","0.6","0.2","0.4","","","","","0.2794370347","0.3545504723","0.478983255","0.2795250441","","","","","","","72","H","0","img/none_selected.jpg","","125","main_expt"
"611","","bandit","204","679957","0.0-165.0-0.0","43429066","wem/bandit_either","A6JKKANO7F4KD","either","2","","","","","","","0","0","1","0.2466154908","","0.8","0.6","0.2","0.4","","","","","0.2466154908","0.3106298006","0.4724726719","0.2184127205","","","","","","","72","H","0","img/none_selected.jpg","","126","main_expt"
"458","","bandit","205","681932","0.0-166.0-0.0","43429066","wem/bandit_either","A6JKKANO7F4KD","either","2","","","","","","","0","0","1","0.2712823261","","0.8","0.6","0.2","0.4","","","","","0.2712823261","0.3351405197","0.4796244369","0.2488858907","","","","","","","72","H","0","img/none_selected.jpg","","127","main_expt"
"524","","bandit","206","683976","0.0-167.0-0.0","43429066","wem/bandit_either","A6JKKANO7F4KD","either","2","","","","","","","0","0","1","0.2095517986","","0.8","0.6","0.2","0.4","","","","","0.2095517986","0.2984422464","0.4825212971","0.2850827173","","","","","","","72","H","0","img/none_selected.jpg","","128","main_expt"
"327","","bandit","207","685822","0.0-168.0-0.0","43429066","wem/bandit_either","A6JKKANO7F4KD","either","2","","","","","","","0","0","1","0.1986866195","","0.8","0.6","0.2","0.4","","","","","0.1986866195","0.2027892291","0.4877535013","0.2867242009","","","","","","","72","H","0","img/none_selected.jpg","","129","main_expt"
"487","","bandit","208","687828","0.0-169.0-0.0","43429066","wem/bandit_either","A6JKKANO7F4KD","either","2","","","","","","","1","0","0","0.13768179","","0.8","0.6","0.2","0.4","","","","","0.172959111","0.13768179","0.4833646461","0.2509552002","","","","","","","74","J","1","","","130","main_expt"
"509","","bandit","209","689858","0.0-170.0-0.0","43429066","wem/bandit_either","A6JKKANO7F4KD","either","2","","","","","","","1","0","0","0.1352832961","","0.8","0.6","0.2","0.4","","","","","0.163172462","0.1352832961","0.4790990265","0.2172434631","","","","","","","74","J","1","","","131","main_expt"
"654","","bandit","210","692029","0.0-171.0-0.0","43429066","wem/bandit_either","A6JKKANO7F4KD","either","2","","","","","","","0","0","1","0.08660982753","","0.8","0.6","0.2","0.4","","","","","0.161148659","0.08660982753","0.4882311922","0.158295755","","","","","","","74","J","1","","","132","main_expt"
"455","","bandit","211","694011","0.0-172.0-0.0","43429066","wem/bandit_either","A6JKKANO7F4KD","either","2","","","","","","","0","0","1","","0.1020907376","0.8","0.6","0.2","0.4","0.1735641072","0.1020907376","0.4889625365","0.185310911","","","","","","","","","","","74","J","1","","","133","main_expt"
"486","","bandit","212","696020","0.0-173.0-0.0","43429066","wem/bandit_either","A6JKKANO7F4KD","either","2","","","","","","","0","0","1","","0.1231499397","0.8","0.6","0.2","0.4","0.1597390633","0.1231499397","0.4916783795","0.1966535246","","","","","","","","","","","74","J","1","","","134","main_expt"
"449","","bandit","213","697994","0.0-174.0-0.0","43429066","wem/bandit_either","A6JKKANO7F4KD","either","2","","","","","","","1","0","0","0.1524236556","","0.8","0.6","0.2","0.4","","","","","0.1460070414","0.1524236556","0.4904315354","0.2290191974","","","","","","","74","J","1","","","135","main_expt"
"470","","bandit","214","699982","0.0-175.0-0.0","43429066","wem/bandit_either","A6JKKANO7F4KD","either","2","","","","","","","0","0","1","","0.1954247664","0.8","0.6","0.2","0.4","0.105474526","0.1954247664","0.491666595","0.2929229053","","","","","","","","","","","74","J","1","","","136","main_expt"
"546","","bandit","215","702047","0.0-176.0-0.0","43429066","wem/bandit_either","A6JKKANO7F4KD","either","2","","","","","","","1","0","0","0.1833989084","","0.8","0.6","0.2","0.4","","","","","0.08835118593","0.1833989084","0.4917142499","0.2780805385","","","","","","","74","J","1","","","137","main_expt"
"642","","bandit","216","704210","0.0-177.0-0.0","43429066","wem/bandit_either","A6JKKANO7F4KD","either","2","","","","","","","0","0","1","","0.1490533902","0.8","0.6","0.2","0.4","0.06418360449","0.1490533902","0.4870170403","0.217224157","","","","","","","","","","","74","J","1","","","138","main_expt"
"568","","bandit","217","706304","0.0-178.0-0.0","43429066","wem/bandit_either","A6JKKANO7F4KD","either","2","","","","","","","0","0","1","0.1318817547","","0.8","0.6","0.2","0.4","","","","","0.03554325754","0.1318817547","0.4834992155","0.2323391466","","","","","","","74","J","1","","","139","main_expt"
"83","","bandit","218","707910","0.0-179.0-0.0","43429066","wem/bandit_either","A6JKKANO7F4KD","either","2","","","","","","","0","0","1","","0.4927392517","0.8","0.6","0.2","0.4","0.04477370895","0.1877412345","0.4927392517","0.244475209","","","","","","","","","","","75","K","2","","","140","main_expt"
"400","","bandit","219","709842","0.0-180.0-0.0","43429066","wem/bandit_either","A6JKKANO7F4KD","either","2","","","","","","","0","0","1","","0.4872377518","0.8","0.6","0.2","0.4","0.03780119019","0.2363671377","0.4872377518","0.232604034","","","","","","","","","","","75","K","2","","","141","main_expt"
"78","","bandit","220","711446","0.0-181.0-0.0","43429066","wem/bandit_either","A6JKKANO7F4KD","either","2","","","","","","","0","1","0","","0.2447345556","0.8","0.6","0.2","0.4","0.03149913875","0.2546402356","0.4846254936","0.2447345556","","","","","","","","","","","76","L","3","","","142","main_expt"
"529","","bandit","221","713499","0.0-182.0-0.0","43429066","wem/bandit_either","A6JKKANO7F4KD","either","2","","","","","","","1","0","0","0.26413271","","0.8","0.6","0.2","0.4","","","","","0.04191513266","0.2825544685","0.4815328815","0.26413271","","","","","","","76","L","3","","","143","main_expt"
"604","","bandit","222","715625","0.0-183.0-0.0","43429066","wem/bandit_either","A6JKKANO7F4KD","either","2","","","","","","","0","0","1","","0.1988203511","0.8","0.6","0.2","0.4","0.05613120157","0.2731230023","0.4854048375","0.1988203511","","","","","","","","","","","76","L","3","","","144","main_expt"
"754","","bandit","223","717900","0.0-184.0-0.0","43429066","wem/bandit_either","A6JKKANO7F4KD","either","2","","","","","","","0","0","1","0.217822638","","0.8","0.6","0.2","0.4","","","","","0.03827589539","0.2943814715","0.4813029389","0.217822638","","","","","","","76","L","3","","","145","main_expt"
"466","","bandit","224","719885","0.0-185.0-0.0","43429066","wem/bandit_either","A6JKKANO7F4KD","either","2","","","","","","","0","0","1","","0.2009042904","0.8","0.6","0.2","0.4","0.02861175853","0.328634005","0.4884824202","0.2009042904","","","","","","","","","","","76","L","3","","","146","main_expt"
"515","","bandit","225","721914","0.0-186.0-0.0","43429066","wem/bandit_either","A6JKKANO7F4KD","either","2","","","","","","","0","1","0","","0.4835291327","0.8","0.6","0.2","0.4","0.02140640811","0.3511209141","0.4835291327","0.2080446297","","","","","","","","","","","75","K","2","","","147","main_expt"
"772","","bandit","226","724204","0.0-187.0-0.0","43429066","wem/bandit_either","A6JKKANO7F4KD","either","2","","","","","","","0","1","0","","0.4716003481","0.8","0.6","0.2","0.4","0.0202041473","0.3874996206","0.4716003481","0.1536700415","","","","","","","","","","","75","K","2","","","148","main_expt"
"982","","bandit","227","726707","0.0-188.0-0.0","43429066","wem/bandit_either","A6JKKANO7F4KD","either","2","","","","","","","0","1","0","","0.4341886607","0.8","0.6","0.2","0.4","0.01154190459","0.3476646045","0.4341886607","0.1593661633","","","","","","","","","","","75","K","2","","","149","main_expt"
"782","","bandit","228","729003","0.0-189.0-0.0","43429066","wem/bandit_either","A6JKKANO7F4KD","either","2","","","","","","","0","0","1","","0.4014438172","0.8","0.6","0.2","0.4","0.01291237021","0.3323010919","0.4014438172","0.144955896","","","","","","","","","","","75","K","2","","","150","main_expt"
"599","","bandit","229","731115","0.0-190.0-0.0","43429066","wem/bandit_either","A6JKKANO7F4KD","either","2","","","","","","","0","0","1","","0.3980713407","0.8","0.6","0.2","0.4","0.0137789916","0.3954477196","0.3980713407","0.2123564028","","","","","","","","","","","75","K","2","","","151","main_expt"
"278","","bandit","230","732908","0.0-191.0-0.0","43429066","wem/bandit_either","A6JKKANO7F4KD","either","2","","","","","","","0","1","0","","0.4186327087","0.8","0.6","0.2","0.4","0.01985271471","0.4186327087","0.4002357887","0.2301890466","","","","","","","","","","","74","J","1","","","152","main_expt"
"540","","bandit","231","734964","0.0-192.0-0.0","43429066","wem/bandit_either","A6JKKANO7F4KD","either","2","","","","","","","0","0","1","0.4029566754","","0.8","0.6","0.2","0.4","","","","","0.02951100453","0.4029566754","0.388677987","0.2295153641","","","","","","","74","J","1","","","153","main_expt"
"547","","bandit","232","737036","0.0-193.0-0.0","43429066","wem/bandit_either","A6JKKANO7F4KD","either","2","","","","","","","0","0","1","","0.4037751878","0.8","0.6","0.2","0.4","0.02325572033","0.4037751878","0.3817747688","0.2163321136","","","","","","","","","","","74","J","1","","","154","main_expt"
"538","","bandit","233","739091","0.0-194.0-0.0","43429066","wem/bandit_either","A6JKKANO7F4KD","either","2","","","","","","","0","0","1","","0.327727533","0.8","0.6","0.2","0.4","0.03925092562","0.4078727314","0.327727533","0.2257858177","","","","","","","","","","","75","K","2","","","155","main_expt"
"521","","bandit","234","741131","0.0-195.0-0.0","43429066","wem/bandit_either","A6JKKANO7F4KD","either","2","","","","","","","0","0","1","0.3941681487","","0.8","0.6","0.2","0.4","","","","","0.05532081832","0.3941681487","0.2821504166","0.2077891775","","","","","","","74","J","1","","","156","main_expt"
"153","","bandit","235","742802","0.0-196.0-0.0","43429066","wem/bandit_either","A6JKKANO7F4KD","either","2","","","","","","","0","0","1","0.05983660039","","0.8","0.6","0.2","0.4","","","","","0.05983660039","0.3417147062","0.2784527126","0.1742908387","","","","","","","72","H","0","img/none_selected.jpg","","157","main_expt"
"358","","bandit","236","744707","0.0-197.0-0.0","43429066","wem/bandit_either","A6JKKANO7F4KD","either","2","","","","","","","0","0","1","0.09347744845","","0.8","0.6","0.2","0.4","","","","","0.09347744845","0.2963220618","0.2857058734","0.162057643","","","","","","","72","H","0","img/none_selected.jpg","","158","main_expt"
"454","","bandit","237","746682","0.0-198.0-0.0","43429066","wem/bandit_either","A6JKKANO7F4KD","either","2","","","","","","","0","0","1","0.09649648717","","0.8","0.6","0.2","0.4","","","","","0.09649648717","0.2961528309","0.2349295223","0.1805514511","","","","","","","72","H","0","img/none_selected.jpg","","159","main_expt"
"311","","bandit","238","748507","0.0-199.0-0.0","43429066","wem/bandit_either","A6JKKANO7F4KD","either","2","","","","","","","0","0","1","0.2842772575","","0.8","0.6","0.2","0.4","","","","","0.08382429791","0.2842772575","0.2275717407","0.1724629995","","","","","","","74","J","1","","","160","main_expt"
"533","","bandit","239","750566","0.0-200.0-0.0","43429066","wem/bandit_either","A6JKKANO7F4KD","either","2","","","","","","","0","0","1","0.2747674873","","0.8","0.6","0.2","0.4","","","","","0.1466352983","0.2747674873","0.2559884592","0.1660992999","","","","","","","74","J","1","","","161","main_expt"
"104","","bandit","240","752190","0.0-201.0-0.0","43429066","wem/bandit_either","A6JKKANO7F4KD","either","2","","","","","","","0","0","1","","0.2670526618","0.8","0.6","0.2","0.4","0.1569467617","0.2993190406","0.2670526618","0.2281832109","","","","","","","","","","","75","K","2","","","162","main_expt"
"405","","bandit","241","754127","0.0-202.0-0.0","43429066","wem/bandit_either","A6JKKANO7F4KD","either","2","","","","","","","0","0","1","","0.2618894379","0.8","0.6","0.2","0.4","0.1437935099","0.3102408377","0.2618894379","0.2144285545","","","","","","","","","","","75","K","2","","","163","main_expt"
"406","","bandit","242","756052","0.0-203.0-0.0","43429066","wem/bandit_either","A6JKKANO7F4KD","either","2","","","","","","","0","0","1","0.2131293933","","0.8","0.6","0.2","0.4","","","","","0.1503677763","0.2607878409","0.2977476978","0.2131293933","","","","","","","76","L","3","","","164","main_expt"
"366","","bandit","243","757940","0.0-204.0-0.0","43429066","wem/bandit_either","A6JKKANO7F4KD","either","2","","","","","","","0","0","1","","0.251698227","0.8","0.6","0.2","0.4","0.1574825995","0.2470054868","0.3138636066","0.251698227","","","","","","","","","","","76","L","3","","","165","main_expt"
"392","","bandit","244","759847","0.0-205.0-0.0","43429066","wem/bandit_either","A6JKKANO7F4KD","either","2","","","","","","","0","0","1","","0.2831539445","0.8","0.6","0.2","0.4","0.1500633275","0.2629624785","0.3204338644","0.2831539445","","","","","","","","","","","76","L","3","","","166","main_expt"
"387","","bandit","245","761764","0.0-206.0-0.0","43429066","wem/bandit_either","A6JKKANO7F4KD","either","2","","","","","","","0","1","0","","0.3600517585","0.8","0.6","0.2","0.4","0.1137242654","0.2745713682","0.3600517585","0.2496169508","","","","","","","","","","","75","K","2","","","167","main_expt"
"518","","bandit","246","763796","0.0-207.0-0.0","43429066","wem/bandit_either","A6JKKANO7F4KD","either","2","","","","","","","0","0","1","","0.3678373827","0.8","0.6","0.2","0.4","0.145192941","0.2557249153","0.3678373827","0.2315540067","","","","","","","","","","","75","K","2","","","168","main_expt"
"452","","bandit","247","765771","0.0-208.0-0.0","43429066","wem/bandit_either","A6JKKANO7F4KD","either","2","","","","","","","1","0","0","0.3421512568","","0.8","0.6","0.2","0.4","","","","","0.1863479632","0.2016321063","0.3421512568","0.1825517174","","","","","","","75","K","2","","","169","main_expt"
"572","","bandit","248","767858","0.0-209.0-0.0","43429066","wem/bandit_either","A6JKKANO7F4KD","either","2","","","","","","","1","0","0","0.3917895485","","0.8","0.6","0.2","0.4","","","","","0.142304713","0.2210696627","0.3917895485","0.2535959064","","","","","","","75","K","2","","","170","main_expt"
"636","","bandit","249","770013","0.0-210.0-0.0","43429066","wem/bandit_either","A6JKKANO7F4KD","either","2","","","","","","","0","1","0","","0.3206692194","0.8","0.6","0.2","0.4","0.1739768979","0.1627904758","0.3206692194","0.3004284576","","","","","","","","","","","75","K","2","","","171","main_expt"
"490","","bandit","250","772020","0.0-211.0-0.0","43429066","wem/bandit_either","A6JKKANO7F4KD","either","2","","","","","","","0","0","1","","0.3198600846","0.8","0.6","0.2","0.4","0.2172659048","0.1421076649","0.3198600846","0.2716191145","","","","","","","","","","","75","K","2","","","172","main_expt"
"329","","bandit","251","773879","0.0-212.0-0.0","43429066","wem/bandit_either","A6JKKANO7F4KD","either","2","","","","","","","0","0","1","0.2641483633","","0.8","0.6","0.2","0.4","","","","","0.2419731025","0.165050165","0.2641483633","0.3253138029","","","","","","","75","K","2","","","173","main_expt"
"539","","bandit","252","775941","0.0-213.0-0.0","43429066","wem/bandit_either","A6JKKANO7F4KD","either","2","","","","","","","0","0","1","0.2248062597","","0.8","0.6","0.2","0.4","","","","","0.2239571331","0.1406738207","0.2248062597","0.3419591401","","","","","","","75","K","2","","","174","main_expt"
"586","","bandit","253","778063","0.0-214.0-0.0","43429066","wem/bandit_either","A6JKKANO7F4KD","either","2","","","","","","","0","0","1","0.2370379408","","0.8","0.6","0.2","0.4","","","","","0.2311410243","0.138310495","0.2370379408","0.3442692367","","","","","","","75","K","2","","","175","main_expt"
"432","","bandit","254","780026","0.0-215.0-0.0","43429066","wem/bandit_either","A6JKKANO7F4KD","either","2","","","","","","","0","0","1","0.1675243642","","0.8","0.6","0.2","0.4","","","","","0.2610077479","0.1675243642","0.2157433706","0.3397266539","","","","","","","74","J","1","","","176","main_expt"
"468","","bandit","255","782012","0.0-216.0-0.0","43429066","wem/bandit_either","A6JKKANO7F4KD","either","2","","","","","","","0","0","1","0.1919885971","","0.8","0.6","0.2","0.4","","","","","0.2780938204","0.1919885971","0.2014791824","0.2997078274","","","","","","","74","J","1","","","177","main_expt"
"429","","bandit","256","783963","0.0-217.0-0.0","43429066","wem/bandit_either","A6JKKANO7F4KD","either","2","","","","","","","1","0","0","0.3151752793","","0.8","0.6","0.2","0.4","","","","","0.3151752793","0.2365392944","0.1913564418","0.3064007527","","","","","","","72","H","0","img/none_selected.jpg","","178","main_expt"
"577","","bandit","257","786059","0.0-218.0-0.0","43429066","wem/bandit_either","A6JKKANO7F4KD","either","2","","","","","","","0","0","1","0.2799621139","","0.8","0.6","0.2","0.4","","","","","0.2799621139","0.2509455726","0.1980728016","0.3533432679","","","","","","","72","H","0","img/none_selected.jpg","","179","main_expt"
"579","","bandit","258","788156","0.0-219.0-0.0","43429066","wem/bandit_either","A6JKKANO7F4KD","either","2","","","","","","","0","0","1","0.3170936092","","0.8","0.6","0.2","0.4","","","","","0.3170936092","0.2767223981","0.1833491223","0.3652522579","","","","","","","72","H","0","img/none_selected.jpg","","180","main_expt"
"553","","bandit","259","790229","0.0-220.0-0.0","43429066","wem/bandit_either","A6JKKANO7F4KD","either","2","","","","","","","0","0","1","","0.28101752","0.8","0.6","0.2","0.4","0.28101752","0.314600373","0.1342686697","0.3383156657","","","","","","","","","","","72","H","0","img/none_selected.jpg","","181","main_expt"
"379","","bandit","260","792148","0.0-221.0-0.0","43429066","wem/bandit_either","A6JKKANO7F4KD","either","2","","","","","","","1","0","0","0.3943610609","","0.8","0.6","0.2","0.4","","","","","0.3043342224","0.3943610609","0.1636660304","0.2902116232","","","","","","","74","J","1","","","182","main_expt"
"382","","bandit","261","794094","0.0-222.0-0.0","43429066","wem/bandit_either","A6JKKANO7F4KD","either","2","","","","","","","0","0","1","0.3586422101","","0.8","0.6","0.2","0.4","","","","","0.3192524042","0.3586422101","0.136761637","0.3026157476","","","","","","","74","J","1","","","183","main_expt"
"394","","bandit","262","796003","0.0-223.0-0.0","43429066","wem/bandit_either","A6JKKANO7F4KD","either","2","","","","","","","0","1","0","","0.3879999062","0.8","0.6","0.2","0.4","0.3332516821","0.3879999062","0.1685989701","0.3360229169","","","","","","","","","","","74","J","1","","","184","main_expt"
"622","","bandit","263","798156","0.0-224.0-0.0","43429066","wem/bandit_either","A6JKKANO7F4KD","either","2","","","","","","","1","0","0","0.3831340227","","0.8","0.6","0.2","0.4","","","","","0.3228184693","0.3831340227","0.1663529744","0.3336456265","","","","","","","74","J","1","","","185","main_expt"
"499","","bandit","264","800171","0.0-225.0-0.0","43429066","wem/bandit_either","A6JKKANO7F4KD","either","2","","","","","","","1","0","0","0.3999004662","","0.8","0.6","0.2","0.4","","","","","0.3111703144","0.3999004662","0.1916836285","0.3308881938","","","","","","","74","J","1","","","186","main_expt"
"555","","bandit","265","802245","0.0-226.0-0.0","43429066","wem/bandit_either","A6JKKANO7F4KD","either","2","","","","","","","0","0","1","","0.3875363153","0.8","0.6","0.2","0.4","0.3353611299","0.3875363153","0.1686829448","0.325530054","","","","","","","","","","","74","J","1","","","187","main_expt"
"780","","bandit","266","804539","0.0-227.0-0.0","43429066","wem/bandit_either","A6JKKANO7F4KD","either","2","","","","","","","0","0","1","0.3875691392","","0.8","0.6","0.2","0.4","","","","","0.3646937268","0.3875691392","0.1461675531","0.3055482451","","","","","","","74","J","1","","","188","main_expt"
"435","","bandit","267","806490","0.0-228.0-0.0","43429066","wem/bandit_either","A6JKKANO7F4KD","either","2","","","","","","","1","0","0","0.4166866882","","0.8","0.6","0.2","0.4","","","","","0.3891323825","0.4166866882","0.1382971047","0.3002345065","","","","","","","74","J","1","","","189","main_expt"
"558","","bandit","268","808572","0.0-229.0-0.0","43429066","wem/bandit_either","A6JKKANO7F4KD","either","2","","","","","","","0","0","1","","0.4124474499","0.8","0.6","0.2","0.4","0.3860741766","0.4124474499","0.1898135375","0.2693931213","","","","","","","","","","","74","J","1","","","190","main_expt"
"526","","bandit","269","810626","0.0-230.0-0.0","43429066","wem/bandit_either","A6JKKANO7F4KD","either","2","","","","","","","1","0","0","0.3638199534","","0.8","0.6","0.2","0.4","","","","","0.3864243721","0.3638199534","0.1264917812","0.3009284261","","","","","","","74","J","1","","","191","main_expt"
"578","","bandit","270","812726","0.0-231.0-0.0","43429066","wem/bandit_either","A6JKKANO7F4KD","either","2","","","","","","","0","0","1","0.3711146034","","0.8","0.6","0.2","0.4","","","","","0.400448014","0.3711146034","0.1185409567","0.3157917784","","","","","","","74","J","1","","","192","main_expt"
"512","","bandit","271","814756","0.0-232.0-0.0","43429066","wem/bandit_either","A6JKKANO7F4KD","either","2","","","","","","","0","0","1","0.3654165885","","0.8","0.6","0.2","0.4","","","","","0.3895367297","0.3654165885","0.09837948322","0.2999212614","","","","","","","74","J","1","","","193","main_expt"
"413","","bandit","272","816692","0.0-233.0-0.0","43429066","wem/bandit_either","A6JKKANO7F4KD","either","2","","","","","","","0","0","1","0.3537818584","","0.8","0.6","0.2","0.4","","","","","0.4032313792","0.3537818584","0.137690802","0.3287494418","","","","","","","74","J","1","","","194","main_expt"
"374","","bandit","273","818596","0.0-234.0-0.0","43429066","wem/bandit_either","A6JKKANO7F4KD","either","2","","","","","","","0","0","1","","0.1683354775","0.8","0.6","0.2","0.4","0.337234763","0.3597494918","0.1683354775","0.3031978913","","","","","","","","","","","75","K","2","","","195","main_expt"
"396","","bandit","274","820518","0.0-235.0-0.0","43429066","wem/bandit_either","A6JKKANO7F4KD","either","2","","","","","","","0","0","1","","0.1561951964","0.8","0.6","0.2","0.4","0.3950764453","0.3479121901","0.1561951964","0.2901303692","","","","","","","","","","","75","K","2","","","196","main_expt"
"354","","bandit","275","822388","0.0-236.0-0.0","43429066","wem/bandit_either","A6JKKANO7F4KD","either","2","","","","","","","0","0","1","","0.1329868482","0.8","0.6","0.2","0.4","0.4193743727","0.3596292454","0.1329868482","0.2444781728","","","","","","","","","","","75","K","2","","","197","main_expt"
"406","","bandit","276","824315","0.0-237.0-0.0","43429066","wem/bandit_either","A6JKKANO7F4KD","either","2","","","","","","","0","0","1","","0.2140047665","0.8","0.6","0.2","0.4","0.4375347816","0.3555371828","0.1730826789","0.2140047665","","","","","","","","","","","76","L","3","","","198","main_expt"
"485","","bandit","277","826321","0.0-238.0-0.0","43429066","wem/bandit_either","A6JKKANO7F4KD","either","2","","","","","","","0","0","1","","0.2077842613","0.8","0.6","0.2","0.4","0.4315030007","0.4016486285","0.1385649096","0.2077842613","","","","","","","","","","","76","L","3","","","199","main_expt"
"333","","bandit","278","828171","0.0-239.0-0.0","43429066","wem/bandit_either","A6JKKANO7F4KD","either","2","","","","","","","0","0","1","0.180488049","","0.8","0.6","0.2","0.4","","","","","0.4340108373","0.3871107612","0.1941139053","0.180488049","","","","","","","76","L","3","","","200","main_expt"
"198","","bandit","279","829893","0.0-240.0-0.0","43429066","wem/bandit_either","A6JKKANO7F4KD","either","2","","","","","","","0","0","1","","0.2084987087","0.8","0.6","0.2","0.4","0.441078118","0.3856539452","0.1825013029","0.2084987087","","","","","","","","","","","76","L","3","","","201","main_expt"
"416","","bandit","280","831834","0.0-241.0-0.0","43429066","wem/bandit_either","A6JKKANO7F4KD","either","2","","","","","","","0","1","0","","0.4143682719","0.8","0.6","0.2","0.4","0.4143682719","0.358588673","0.162440572","0.1869669721","","","","","","","","","","","72","H","0","img/none_selected.jpg","","202","main_expt"
"356","","bandit","281","833708","0.0-242.0-0.0","43429066","wem/bandit_either","A6JKKANO7F4KD","either","2","","","","","","","1","0","0","0.4280720422","","0.8","0.6","0.2","0.4","","","","","0.4280720422","0.3460881607","0.1914238456","0.1383076553","","","","","","","72","H","0","img/none_selected.jpg","","203","main_expt"
"505","","bandit","282","835730","0.0-243.0-0.0","43429066","wem/bandit_either","A6JKKANO7F4KD","either","2","","","","","","","0","0","1","0.4113524858","","0.8","0.6","0.2","0.4","","","","","0.4113524858","0.3091432968","0.1849793247","0.1656187697","","","","","","","72","H","0","img/none_selected.jpg","","204","main_expt"
"493","","bandit","283","837739","0.0-244.0-0.0","43429066","wem/bandit_either","A6JKKANO7F4KD","either","2","","","","","","","0","1","0","","0.4151465815","0.8","0.6","0.2","0.4","0.4151465815","0.3016396897","0.1722293799","0.1699285253","","","","","","","","","","","72","H","0","img/none_selected.jpg","","205","main_expt"
"580","","bandit","284","839836","0.0-245.0-0.0","43429066","wem/bandit_either","A6JKKANO7F4KD","either","2","","","","","","","0","1","0","","0.4002359997","0.8","0.6","0.2","0.4","0.4002359997","0.3300702997","0.1625694713","0.161732949","","","","","","","","","","","72","H","0","img/none_selected.jpg","","206","main_expt"
"466","","bandit","285","841834","0.0-246.0-0.0","43429066","wem/bandit_either","A6JKKANO7F4KD","either","2","","","","","","","0","0","1","","0.3692387261","0.8","0.6","0.2","0.4","0.3692387261","0.2648848683","0.1079769143","0.1699017951","","","","","","","","","","","72","H","0","img/none_selected.jpg","","207","main_expt"
"619","","bandit","286","844001","0.0-247.0-0.0","43429066","wem/bandit_either","A6JKKANO7F4KD","either","2","","","","","","","0","0","1","","0.3283471685","0.8","0.6","0.2","0.4","0.3283471685","0.2502792914","0.1380178959","0.1592107695","","","","","","","","","","","72","H","0","img/none_selected.jpg","","208","main_expt"
"941","","bandit","287","846457","0.0-248.0-0.0","43429066","wem/bandit_either","A6JKKANO7F4KD","either","2","","","","","","","0","0","1","0.2924758898","","0.8","0.6","0.2","0.4","","","","","0.2924758898","0.2770073026","0.1538506734","0.1659907122","","","","","","","72","H","0","img/none_selected.jpg","","209","main_expt"
"398","","bandit","288","848381","0.0-249.0-0.0","43429066","wem/bandit_either","A6JKKANO7F4KD","either","2","","","","","","","0","1","0","","0.3451435735","0.8","0.6","0.2","0.4","0.2279470939","0.3451435735","0.1406222791","0.229525517","","","","","","","","","","","74","J","1","","","210","main_expt"
"376","","bandit","289","850305","0.0-250.0-0.0","43429066","wem/bandit_either","A6JKKANO7F4KD","either","2","","","","","","","0","1","0","","0.3514478275","0.8","0.6","0.2","0.4","0.2131844406","0.3514478275","0.08987887408","0.2434605193","","","","","","","","","","","74","J","1","","","211","main_expt"
"603","","bandit","290","852425","0.0-251.0-0.0","43429066","wem/bandit_either","A6JKKANO7F4KD","either","2","","","","","","","0","0","1","","0.3579324364","0.8","0.6","0.2","0.4","0.1601793481","0.3579324364","0.1277875359","0.1633214123","","","","","","","","","","","74","J","1","","","212","main_expt"
"518","","bandit","291","854469","0.0-252.0-0.0","43429066","wem/bandit_either","A6JKKANO7F4KD","either","2","","","","","","","0","1","0","","0.3231243524","0.8","0.6","0.2","0.4","0.1354109392","0.3231243524","0.134271297","0.1014835246","","","","","","","","","","","74","J","1","","","213","main_expt"
"608","","bandit","292","856601","0.0-253.0-0.0","43429066","wem/bandit_either","A6JKKANO7F4KD","either","2","","","","","","","0","0","1","","0.2798540136","0.8","0.6","0.2","0.4","0.1142105534","0.2798540136","0.1385204111","0.09587264096","","","","","","","","","","","74","J","1","","","214","main_expt"
"442","","bandit","293","858562","0.0-254.0-0.0","43429066","wem/bandit_either","A6JKKANO7F4KD","either","2","","","","","","","0","1","0","","0.2469391402","0.8","0.6","0.2","0.4","0.1031311673","0.2469391402","0.1089132689","0.08342689115","","","","","","","","","","","74","J","1","","","215","main_expt"
"691","","bandit","294","860784","0.0-255.0-0.0","43429066","wem/bandit_either","A6JKKANO7F4KD","either","2","","","","","","","0","0","1","0.3211823944","","0.8","0.6","0.2","0.4","","","","","0.1031732366","0.3211823944","0.1299508563","0.05361264496","","","","","","","74","J","1","","","216","main_expt"
"357","","bandit","295","862658","0.0-256.0-0.0","43429066","wem/bandit_either","A6JKKANO7F4KD","either","2","","","","","","","1","0","0","0.3545519007","","0.8","0.6","0.2","0.4","","","","","0.1188097379","0.3545519007","0.131109262","0.09912420903","","","","","","","74","J","1","","","217","main_expt"
"630","","bandit","296","864818","0.0-257.0-0.0","43429066","wem/bandit_either","A6JKKANO7F4KD","either","2","","","","","","","0","0","1","","0.3781539282","0.8","0.6","0.2","0.4","0.1096623481","0.3781539282","0.1039495344","0.1021137889","","","","","","","","","","","74","J","1","","","218","main_expt"
"564","","bandit","297","866904","0.0-258.0-0.0","43429066","wem/bandit_either","A6JKKANO7F4KD","either","2","","","","","","","0","0","1","0.3674409598","","0.8","0.6","0.2","0.4","","","","","0.08679630722","0.3674409598","0.09488552944","0.1025207236","","","","","","","74","J","1","","","219","main_expt"
"469","","bandit","298","868890","0.0-259.0-0.0","43429066","wem/bandit_either","A6JKKANO7F4KD","either","2","","","","","","","0","0","1","","0.1311925698","0.8","0.6","0.2","0.4","0.1482089448","0.315237632","0.1311925698","0.1049734862","","","","","","","","","","","75","K","2","","","220","main_expt"
"506","","bandit","299","870915","0.0-260.0-0.0","43429066","wem/bandit_either","A6JKKANO7F4KD","either","2","","","","","","","0","0","1","","0.08224132258","0.8","0.6","0.2","0.4","0.217172314","0.3572442142","0.08224132258","0.08244295151","","","","","","","","","","","75","K","2","","","221","main_expt"
"497","","bandit","300","872931","0.0-261.0-0.0","43429066","wem/bandit_either","A6JKKANO7F4KD","either","2","","","","","","","0","0","1","","0.06870998364","0.8","0.6","0.2","0.4","0.2227738938","0.2796125419","0.06870998364","0.09815111748","","","","","","","","","","","75","K","2","","","222","main_expt"
"194","","bandit","301","874658","0.0-262.0-0.0","43429066","wem/bandit_either","A6JKKANO7F4KD","either","2","","","","","","","0","0","1","","0.09925351505","0.8","0.6","0.2","0.4","0.2768694491","0.2265565182","0.111762886","0.09925351505","","","","","","","","","","","76","L","3","","","223","main_expt"
"428","","bandit","302","876611","0.0-263.0-0.0","43429066","wem/bandit_either","A6JKKANO7F4KD","either","2","","","","","","","0","0","1","0.07842644678","","0.8","0.6","0.2","0.4","","","","","0.2895694018","0.1727872262","0.09652303785","0.07842644678","","","","","","","76","L","3","","","224","main_expt"
"488","","bandit","303","878620","0.0-264.0-0.0","43429066","wem/bandit_either","A6JKKANO7F4KD","either","2","","","","","","","0","0","1","0.09424892582","","0.8","0.6","0.2","0.4","","","","","0.3515154126","0.1580797834","0.09424892582","0.05284632075","","","","","","","75","K","2","","","225","main_expt"
"338","","bandit","304","880478","0.0-265.0-0.0","43429066","wem/bandit_either","A6JKKANO7F4KD","either","2","","","","","","","0","0","1","0.1094697254","","0.8","0.6","0.2","0.4","","","","","0.3960872924","0.1206031336","0.1094697254","0.06788221328","","","","","","","75","K","2","","","226","main_expt"
"174","","bandit","305","882174","0.0-266.0-0.0","43429066","wem/bandit_either","A6JKKANO7F4KD","either","2","","","","","","","0","0","1","","0.1218099769","0.8","0.6","0.2","0.4","0.3301105445","0.1218099769","0.1055794081","0.04226868229","","","","","","","","","","","74","J","1","","","227","main_expt"
"424","","bandit","306","884122","0.0-267.0-0.0","43429066","wem/bandit_either","A6JKKANO7F4KD","either","2","","","","","","","0","0","1","0.08458740206","","0.8","0.6","0.2","0.4","","","","","0.3679650562","0.08458740206","0.1210232629","0.06174471126","","","","","","","74","J","1","","","228","main_expt"
"347","","bandit","307","885988","0.0-268.0-0.0","43429066","wem/bandit_either","A6JKKANO7F4KD","either","2","","","","","","","0","0","1","0.06311990622","","0.8","0.6","0.2","0.4","","","","","0.3413725311","0.06311990622","0.1249199002","0.06122033102","","","","","","","74","J","1","","","229","main_expt"
"357","","bandit","308","887875","0.0-269.0-0.0","43429066","wem/bandit_either","A6JKKANO7F4KD","either","2","","","","","","","0","0","1","0.3652503211","","0.8","0.6","0.2","0.4","","","","","0.3652503211","0.04674316758","0.1423167866","0.09369367087","","","","","","","72","H","0","img/none_selected.jpg","","230","main_expt"
"529","","bandit","309","889927","0.0-270.0-0.0","43429066","wem/bandit_either","A6JKKANO7F4KD","either","2","","","","","","","0","1","0","","0.3774172636","0.8","0.6","0.2","0.4","0.3774172636","0.06697327866","0.1441411413","0.1378364932","","","","","","","","","","","72","H","0","img/none_selected.jpg","","231","main_expt"
"374","","bandit","310","891854","0.0-271.0-0.0","43429066","wem/bandit_either","A6JKKANO7F4KD","either","2","","","","","","","0","0","1","0.3507397895","","0.8","0.6","0.2","0.4","","","","","0.3507397895","0.08617656909","0.1132866493","0.1138343256","","","","","","","72","H","0","img/none_selected.jpg","","232","main_expt"
"388","","bandit","311","893761","0.0-272.0-0.0","43429066","wem/bandit_either","A6JKKANO7F4KD","either","2","","","","","","","0","0","1","0.3228668676","","0.8","0.6","0.2","0.4","","","","","0.3228668676","0.08388286328","0.07587191469","0.1602674987","","","","","","","72","H","0","img/none_selected.jpg","","233","main_expt"
"317","","bandit","312","895617","0.0-273.0-0.0","43429066","wem/bandit_either","A6JKKANO7F4KD","either","2","","","","","","","1","0","0","0.3219168209","","0.8","0.6","0.2","0.4","","","","","0.3219168209","0.08303297831","0.08330376307","0.1399599793","","","","","","","72","H","0","img/none_selected.jpg","","234","main_expt"
"559","","bandit","313","897698","0.0-274.0-0.0","43429066","wem/bandit_either","A6JKKANO7F4KD","either","2","","","","","","","1","0","0","0.2907257894","","0.8","0.6","0.2","0.4","","","","","0.2907257894","0.08228619446","0.07960395758","0.1577883936","","","","","","","72","H","0","img/none_selected.jpg","","235","main_expt"
"540","","bandit","314","899761","0.0-275.0-0.0","43429066","wem/bandit_either","A6JKKANO7F4KD","either","2","","","","","","","0","0","1","0.2879125653","","0.8","0.6","0.2","0.4","","","","","0.2879125653","0.07856112713","0.06703487678","0.1206463377","","","","","","","72","H","0","img/none_selected.jpg","","236","main_expt"
"461","","bandit","315","901744","0.0-276.0-0.0","43429066","wem/bandit_either","A6JKKANO7F4KD","either","2","","","","","","","0","0","1","0.3055933028","","0.8","0.6","0.2","0.4","","","","","0.3055933028","0.09394336493","0.07970276757","0.1224948263","","","","","","","72","H","0","img/none_selected.jpg","","237","main_expt"
"476","","bandit","316","903738","0.0-277.0-0.0","43429066","wem/bandit_either","A6JKKANO7F4KD","either","2","","","","","","","0","0","1","0.3197806133","","0.8","0.6","0.2","0.4","","","","","0.3197806133","0.1044036833","0.05589422377","0.1163601633","","","","","","","72","H","0","img/none_selected.jpg","","238","main_expt"
"522","","bandit","317","905788","0.0-278.0-0.0","43429066","wem/bandit_either","A6JKKANO7F4KD","either","2","","","","","","","0","0","1","0.07304711058","","0.8","0.6","0.2","0.4","","","","","0.2699970134","0.1010835707","0.07304711058","0.09302868556","","","","","","","75","K","2","","","239","main_expt"
"648","","bandit","318","907963","0.0-279.0-0.0","43429066","wem/bandit_either","A6JKKANO7F4KD","either","2","","","","","","","0","0","1","","0.05193691484","0.8","0.6","0.2","0.4","0.2594796501","0.1196592177","0.05193691484","0.1142909623","","","","","","","","","","","75","K","2","","","240","main_expt"
"345","","bandit","319","909834","0.0-280.0-0.0","43429066","wem/bandit_either","A6JKKANO7F4KD","either","2","","","","","","","0","0","1","","0.1694552561","0.8","0.6","0.2","0.4","0.252227353","0.127320561","0.06844812817","0.1694552561","","","","","","","","","","","76","L","3","","","241","main_expt"
"265","","bandit","320","911619","0.0-281.0-0.0","43429066","wem/bandit_either","A6JKKANO7F4KD","either","2","","","","","","","0","0","1","0.301231011","","0.8","0.6","0.2","0.4","","","","","0.301231011","0.10641745","0.07869989264","0.1828807391","","","","","","","72","H","0","img/none_selected.jpg","","242","main_expt"
"424","","bandit","321","913565","0.0-282.0-0.0","43429066","wem/bandit_either","A6JKKANO7F4KD","either","2","","","","","","","0","0","1","","0.131785075","0.8","0.6","0.2","0.4","0.2903867436","0.131785075","0.06084245892","0.1236361748","","","","","","","","","","","74","J","1","","","243","main_expt"
"719","","bandit","322","915805","0.0-283.0-0.0","43429066","wem/bandit_either","A6JKKANO7F4KD","either","2","","","","","","","1","0","0","0.1150513838","","0.8","0.6","0.2","0.4","","","","","0.2659167858","0.1150513838","0.04982625113","0.1131162958","","","","","","","74","J","1","","","244","main_expt"
"395","","bandit","323","917724","0.0-284.0-0.0","43429066","wem/bandit_either","A6JKKANO7F4KD","either","2","","","","","","","1","0","0","0.1651966394","","0.8","0.6","0.2","0.4","","","","","0.254087564","0.1651966394","0.04708965441","0.08611006768","","","","","","","74","J","1","","","245","main_expt"
"632","","bandit","324","919921","0.0-285.0-0.0","43429066","wem/bandit_either","A6JKKANO7F4KD","either","2","","","","","","","0","0","1","","0.1555796254","0.8","0.6","0.2","0.4","0.2551799517","0.1555796254","0.0280961865","0.1123216353","","","","","","","","","","","74","J","1","","","246","main_expt"
"521","","bandit","325","921961","0.0-286.0-0.0","43429066","wem/bandit_either","A6JKKANO7F4KD","either","2","","","","","","","0","0","1","0.1703980626","","0.8","0.6","0.2","0.4","","","","","0.2629335529","0.1703980626","0.04499456282","0.09475638668","","","","","","","74","J","1","","","247","main_expt"
"432","","bandit","326","923961","0.0-287.0-0.0","43429066","wem/bandit_either","A6JKKANO7F4KD","either","2","","","","","","","0","0","1","","0.03910304398","0.8","0.6","0.2","0.4","0.2393496224","0.1502680902","0.03910304398","0.08309477664","","","","","","","","","","","75","K","2","","","248","main_expt"
"564","","bandit","327","926043","0.0-288.0-0.0","43429066","wem/bandit_either","A6JKKANO7F4KD","either","2","","","","","","","0","0","1","0.02658952892","","0.8","0.6","0.2","0.4","","","","","0.2612635012","0.1515252412","0.02658952892","0.09118761135","","","","","","","75","K","2","","","249","main_expt"
"474","","bandit","328","928042","0.0-289.0-0.0","43429066","wem/bandit_either","A6JKKANO7F4KD","either","2","","","","","","","0","1","0","","0.02715120894","0.8","0.6","0.2","0.4","0.2729339083","0.164479444","0.02715120894","0.1173751119","","","","","","","","","","","75","K","2","","","250","main_expt"
"513","","bandit","329","930073","0.0-290.0-0.0","43429066","wem/bandit_either","A6JKKANO7F4KD","either","2","","","","","","","0","0","1","0.02468122838","","0.8","0.6","0.2","0.4","","","","","0.2394547858","0.1036013708","0.02468122838","0.10167128","","","","","","","75","K","2","","","251","main_expt"
"447","","bandit","330","932042","0.0-291.0-0.0","43429066","wem/bandit_either","A6JKKANO7F4KD","either","2","","","","","","","0","0","1","","0.01934001153","0.8","0.6","0.2","0.4","0.1971678968","0.1206404305","0.01934001153","0.1297907712","","","","","","","","","","","75","K","2","","","252","main_expt"
"403","","bandit","331","933966","0.0-292.0-0.0","43429066","wem/bandit_either","A6JKKANO7F4KD","either","2","","","","","","","0","0","1","","0.01552303999","0.8","0.6","0.2","0.4","0.2194815642","0.144481093","0.01552303999","0.08555329314","","","","","","","","","","","75","K","2","","","253","main_expt"
"422","","bandit","332","935908","0.0-293.0-0.0","43429066","wem/bandit_either","A6JKKANO7F4KD","either","2","","","","","","","0","0","1","","0.05661737176","0.8","0.6","0.2","0.4","0.2365987297","0.1495858552","0.02294208798","0.05661737176","","","","","","","","","","","76","L","3","","","254","main_expt"
"421","","bandit","333","937851","0.0-294.0-0.0","43429066","wem/bandit_either","A6JKKANO7F4KD","either","2","","","","","","","0","0","1","0.04453848373","","0.8","0.6","0.2","0.4","","","","","0.2300386291","0.1670870388","0.03654195668","0.04453848373","","","","","","","76","L","3","","","255","main_expt"
