"rt","responses","trial_type","trial_index","time_elapsed","internal_node_id","subjID","study","MID","cond","drift","key_press","expt_phase","target","like","value","connected","gems","bombs","no_reward","GemPrChosen","BombPrChosen","GainOverPainPr_0","GainOverPainPr_1","GainOverPainPr_2","GainOverPainPr_3","LosePr_0","LosePr_1","LosePr_2","LosePr_3","WinPr_0","WinPr_1","WinPr_2","WinPr_3","Q0","Q1","Q2","gender","age","ethnicity","respCharCode","respKey","respChoiceNum","respChoice","practice","trial_counter","trial_label"
"8670","{""Q0"":""A111GZJ896Q9RX""}","survey-text","0","8677","0.0-0.0","44123759","wem/bandit_either","A111GZJ896Q9RX","either","5","","","","","","","","","","","","","","","","","","","","","","","","","","","","","","","","","","","",""
"7815","","text","1","17497","0.0-1.0","44123759","wem/bandit_either","A111GZJ896Q9RX","either","5","32","","","","","","","","","","","","","","","","","","","","","","","","","","","","","","","","","","",""
"6194","","text","2","23692","0.0-2.0","44123759","wem/bandit_either","A111GZJ896Q9RX","either","5","32","","","","","","","","","","","","","","","","","","","","","","","","","","","","","","","","","","",""
"26831","","text","3","50525","0.0-3.0","44123759","wem/bandit_either","A111GZJ896Q9RX","either","5","32","","","","","","","","","","","","","","","","","","","","","","","","","","","","","","","","","","",""
"15007","","text","4","65533","0.0-4.0","44123759","wem/bandit_either","A111GZJ896Q9RX","either","5","32","","","","","","","","","","","","","","","","","","","","","","","","","","","","","","","","","","",""
"10912","","text","5","76446","0.0-5.0","44123759","wem/bandit_either","A111GZJ896Q9RX","either","5","32","","","","","","","","","","","","","","","","","","","","","","","","","","","","","","","","","","",""
"8847","","text","6","85293","0.0-6.0","44123759","wem/bandit_either","A111GZJ896Q9RX","either","5","32","","","","","","","","","","","","","","","","","","","","","","","","","","","","","","","","","","",""
"3319","","text","7","88614","0.0-7.0","44123759","wem/bandit_either","A111GZJ896Q9RX","either","5","32","","","","","","","","","","","","","","","","","","","","","","","","","","","","","","","","","","",""
"11914","","identification","8","100555","0.0-8.0-0.0","44123759","wem/bandit_either","A111GZJ896Q9RX","either","5","","identification_pre","the village of Zur","","","","","","","","","","","","","","","","","","","","","","","","","","","","","","","","",""
"6723","","identification","9","108300","0.0-8.0-1.0","44123759","wem/bandit_either","A111GZJ896Q9RX","either","5","","identification_pre","the village of Nyx","","","","","","","","","","","","","","","","","","","","","","","","","","","","","","","","",""
"5663","","text","10","114967","0.0-9.0","44123759","wem/bandit_either","A111GZJ896Q9RX","either","5","32","","","","","","","","","","","","","","","","","","","","","","","","","","","","","","","","","","",""
"1559","","text","11","116527","0.0-10.0","44123759","wem/bandit_either","A111GZJ896Q9RX","either","5","32","","","","","","","","","","","","","","","","","","","","","","","","","","","","","","","","","","",""
"1710","","text","12","118238","0.0-11.0","44123759","wem/bandit_either","A111GZJ896Q9RX","either","5","32","","","","","","","","","","","","","","","","","","","","","","","","","","","","","","","","","","",""
"5303","","text","13","123543","0.0-12.0","44123759","wem/bandit_either","A111GZJ896Q9RX","either","5","32","","","","","","","","","","","","","","","","","","","","","","","","","","","","","","","","","","",""
"4323","","bandit","14","129375","0.0-13.0-0.0","44123759","wem/bandit_either","A111GZJ896Q9RX","either","5","","","","","","","0","0","1","0","0","","","","","0","","","","0","","","","","","","","","","74","J","0","img/none_selected_demo.jpg","true","0",""
"1340","","bandit","15","132222","0.0-14.0-0.0","44123759","wem/bandit_either","A111GZJ896Q9RX","either","5","","","","","","","0","0","1","0","0","","","","","0","","","","0","","","","","","","","","","75","K","0","img/none_selected_demo.jpg","true","0",""
"4447","","text","16","136671","0.0-15.0","44123759","wem/bandit_either","A111GZJ896Q9RX","either","5","32","","","","","","","","","","","","","","","","","","","","","","","","","","","","","","","","","","",""
"21712","","text","17","158384","0.0-16.0","44123759","wem/bandit_either","A111GZJ896Q9RX","either","5","32","","","","","","","","","","","","","","","","","","","","","","","","","","","","","","","","","","",""
"3982","","text","18","162368","0.0-17.0","44123759","wem/bandit_either","A111GZJ896Q9RX","either","5","32","","","","","","","","","","","","","","","","","","","","","","","","","","","","","","","","","","",""
"1614","","text","19","163984","0.0-18.0","44123759","wem/bandit_either","A111GZJ896Q9RX","either","5","32","","","","","","","","","","","","","","","","","","","","","","","","","","","","","","","","","","",""
"2063","","bandit","20","167552","0.0-19.0-0.0","44123759","wem/bandit_either","A111GZJ896Q9RX","either","5","","","","","","","0","0","1","","0.2","0.5","0.5","","","0.8","0.2","","","","","","","","","","","","","75","K","1","","true","0","80_20_practice"
"2591","","bandit","21","171650","0.0-19.0-1.0","44123759","wem/bandit_either","A111GZJ896Q9RX","either","5","","","","","","","0","1","0","","0.8","0.5","0.5","","","0.8","0.2","","","","","","","","","","","","","74","J","0","img/none_selected_demo.jpg","true","0","80_20_practice"
"2670","","bandit","22","175824","0.0-19.0-2.0","44123759","wem/bandit_either","A111GZJ896Q9RX","either","5","","","","","","","0","0","1","","0.2","0.5","0.5","","","0.8","0.2","","","","","","","","","","","","","75","K","1","","true","0","80_20_practice"
"295","","bandit","23","177624","0.0-19.0-3.0","44123759","wem/bandit_either","A111GZJ896Q9RX","either","5","","","","","","","1","0","0","0.8","","0.5","0.5","","","","","","","0.8","0.2","","","","","","","","","74","J","0","img/none_selected_demo.jpg","true","0","80_20_practice"
"414","","bandit","24","179544","0.0-19.0-4.0","44123759","wem/bandit_either","A111GZJ896Q9RX","either","5","","","","","","","1","0","0","0.8","","0.5","0.5","","","","","","","0.8","0.2","","","","","","","","","74","J","0","img/none_selected_demo.jpg","true","0","80_20_practice"
"415","","bandit","25","181465","0.0-19.0-5.0","44123759","wem/bandit_either","A111GZJ896Q9RX","either","5","","","","","","","0","0","1","0.8","","0.5","0.5","","","","","","","0.8","0.2","","","","","","","","","74","J","0","img/none_selected_demo.jpg","true","0","80_20_practice"
"62","","bandit","26","183032","0.0-19.0-6.0","44123759","wem/bandit_either","A111GZJ896Q9RX","either","5","","","","","","","1","0","0","0.2","","0.5","0.5","","","","","","","0.8","0.2","","","","","","","","","75","K","1","","true","0","80_20_practice"
"263","","bandit","27","184800","0.0-19.0-7.0","44123759","wem/bandit_either","A111GZJ896Q9RX","either","5","","","","","","","0","1","0","","0.8","0.5","0.5","","","0.8","0.2","","","","","","","","","","","","","74","J","0","img/none_selected_demo.jpg","true","0","80_20_practice"
"326","","bandit","28","186633","0.0-19.0-8.0","44123759","wem/bandit_either","A111GZJ896Q9RX","either","5","","","","","","","0","0","1","0.2","","0.5","0.5","","","","","","","0.8","0.2","","","","","","","","","75","K","1","","true","0","80_20_practice"
"366","","bandit","29","188506","0.0-19.0-9.0","44123759","wem/bandit_either","A111GZJ896Q9RX","either","5","","","","","","","1","0","0","0.8","","0.5","0.5","","","","","","","0.8","0.2","","","","","","","","","74","J","0","img/none_selected_demo.jpg","true","0","80_20_practice"
"285","","bandit","30","190297","0.0-19.0-10.0","44123759","wem/bandit_either","A111GZJ896Q9RX","either","5","","","","","","","0","1","0","","0.8","0.5","0.5","","","0.8","0.2","","","","","","","","","","","","","74","J","0","img/none_selected_demo.jpg","true","0","80_20_practice"
"278","","bandit","31","192079","0.0-19.0-11.0","44123759","wem/bandit_either","A111GZJ896Q9RX","either","5","","","","","","","0","1","0","","0.8","0.5","0.5","","","0.8","0.2","","","","","","","","","","","","","74","J","0","img/none_selected_demo.jpg","true","0","80_20_practice"
"352","","bandit","32","193937","0.0-19.0-12.0","44123759","wem/bandit_either","A111GZJ896Q9RX","either","5","","","","","","","1","0","0","0.8","","0.5","0.5","","","","","","","0.8","0.2","","","","","","","","","74","J","0","img/none_selected_demo.jpg","true","0","80_20_practice"
"109","","bandit","33","195554","0.0-19.0-13.0","44123759","wem/bandit_either","A111GZJ896Q9RX","either","5","","","","","","","0","0","1","0.2","","0.5","0.5","","","","","","","0.8","0.2","","","","","","","","","75","K","1","","true","0","80_20_practice"
"388","","bandit","34","197449","0.0-19.0-14.0","44123759","wem/bandit_either","A111GZJ896Q9RX","either","5","","","","","","","0","0","1","","0.2","0.5","0.5","","","0.8","0.2","","","","","","","","","","","","","75","K","1","","true","0","80_20_practice"
"166","","bandit","35","199122","0.0-19.0-15.0","44123759","wem/bandit_either","A111GZJ896Q9RX","either","5","","","","","","","0","1","0","","0.2","0.5","0.5","","","0.8","0.2","","","","","","","","","","","","","75","K","1","","true","0","80_20_practice"
"268","","bandit","36","200898","0.0-19.0-16.0","44123759","wem/bandit_either","A111GZJ896Q9RX","either","5","","","","","","","0","1","0","","0.8","0.5","0.5","","","0.8","0.2","","","","","","","","","","","","","74","J","0","img/none_selected_demo.jpg","true","0","80_20_practice"
"28","","bandit","37","202433","0.0-19.0-17.0","44123759","wem/bandit_either","A111GZJ896Q9RX","either","5","","","","","","","0","0","1","","0.2","0.5","0.5","","","0.8","0.2","","","","","","","","","","","","","75","K","1","","true","0","80_20_practice"
"1262","","bandit","38","205201","0.0-19.0-18.0","44123759","wem/bandit_either","A111GZJ896Q9RX","either","5","","","","","","","0","0","1","0.2","","0.5","0.5","","","","","","","0.8","0.2","","","","","","","","","75","K","1","","true","0","80_20_practice"
"1503","","bandit","39","208209","0.0-19.0-19.0","44123759","wem/bandit_either","A111GZJ896Q9RX","either","5","","","","","","","0","0","1","","0.2","0.5","0.5","","","0.8","0.2","","","","","","","","","","","","","75","K","1","","true","0","80_20_practice"
"5479","","text","40","213691","0.0-20.0","44123759","wem/bandit_either","A111GZJ896Q9RX","either","5","32","","","","","","","","","","","","","","","","","","","","","","","","","","","","","","","","","","",""
"2085","","bandit","41","217283","0.0-21.0-0.0","44123759","wem/bandit_either","A111GZJ896Q9RX","either","5","","","","","","","1","0","0","1","0","","","","","0","1","","","1","0","","","","","","","","","74","J","0","img/none_selected_demo.jpg","true","0",""
"9838","","text","42","227123","0.0-22.0","44123759","wem/bandit_either","A111GZJ896Q9RX","either","5","32","","","","","","","","","","","","","","","","","","","","","","","","","","","","","","","","","","",""
"2174","","text","43","229298","0.0-23.0","44123759","wem/bandit_either","A111GZJ896Q9RX","either","5","32","","","","","","","","","","","","","","","","","","","","","","","","","","","","","","","","","","",""
"2359","","text","44","231659","0.0-24.0","44123759","wem/bandit_either","A111GZJ896Q9RX","either","5","32","","","","","","","","","","","","","","","","","","","","","","","","","","","","","","","","","","",""
"6646","","text","45","238306","0.0-25.0","44123759","wem/bandit_either","A111GZJ896Q9RX","either","5","32","","","","","","","","","","","","","","","","","","","","","","","","","","","","","","","","","","",""
"8712","","text","46","247020","0.0-26.0","44123759","wem/bandit_either","A111GZJ896Q9RX","either","5","32","","","","","","","","","","","","","","","","","","","","","","","","","","","","","","","","","","",""
"2390","","text","47","249412","0.0-27.0","44123759","wem/bandit_either","A111GZJ896Q9RX","either","5","32","","","","","","","","","","","","","","","","","","","","","","","","","","","","","","","","","","",""
"3526","","text","48","252940","0.0-28.0","44123759","wem/bandit_either","A111GZJ896Q9RX","either","5","32","","","","","","","","","","","","","","","","","","","","","","","","","","","","","","","","","","",""
"2950","","text","49","255892","0.0-29.0","44123759","wem/bandit_either","A111GZJ896Q9RX","either","5","32","","","","","","","","","","","","","","","","","","","","","","","","","","","","","","","","","","",""
"2903","","text","50","258796","0.0-30.0","44123759","wem/bandit_either","A111GZJ896Q9RX","either","5","32","","","","","","","","","","","","","","","","","","","","","","","","","","","","","","","","","","",""
"1631","","text","51","260429","0.0-31.0","44123759","wem/bandit_either","A111GZJ896Q9RX","either","5","32","","","","","","","","","","","","","","","","","","","","","","","","","","","","","","","","","","",""
"2372","","text","52","262804","0.0-32.0","44123759","wem/bandit_either","A111GZJ896Q9RX","either","5","32","","","","","","","","","","","","","","","","","","","","","","","","","","","","","","","","","","",""
"765","","bandit","53","265077","0.0-33.0-0.0","44123759","wem/bandit_either","A111GZJ896Q9RX","either","5","","","","","","","0","1","0","","0.8","0.5","0.5","0.5","0.5","0.8","0.2","0.6","0.2","","","","","","","","","","","72","H","0","img/none_selected.jpg","true","0","full_practice"
"861","","bandit","54","267445","0.0-33.0-1.0","44123759","wem/bandit_either","A111GZJ896Q9RX","either","5","","","","","","","0","0","1","","0.2","0.5","0.5","0.5","0.5","0.8","0.2","0.6","0.2","","","","","","","","","","","74","J","1","","true","0","full_practice"
"61","","bandit","55","269012","0.0-33.0-2.0","44123759","wem/bandit_either","A111GZJ896Q9RX","either","5","","","","","","","1","0","0","0.6","","0.5","0.5","0.5","0.5","","","","","0.8","0.2","0.6","0.2","","","","","","","75","K","2","","true","0","full_practice"
"285","","bandit","56","270803","0.0-33.0-3.0","44123759","wem/bandit_either","A111GZJ896Q9RX","either","5","","","","","","","0","0","1","","0.6","0.5","0.5","0.5","0.5","0.8","0.2","0.6","0.2","","","","","","","","","","","75","K","2","","true","0","full_practice"
"463","","bandit","57","272773","0.0-33.0-4.0","44123759","wem/bandit_either","A111GZJ896Q9RX","either","5","","","","","","","0","0","1","0.2","","0.5","0.5","0.5","0.5","","","","","0.8","0.2","0.6","0.2","","","","","","","76","L","3","","true","0","full_practice"
"206","","bandit","58","274484","0.0-33.0-5.0","44123759","wem/bandit_either","A111GZJ896Q9RX","either","5","","","","","","","1","0","0","0.8","","0.5","0.5","0.5","0.5","","","","","0.8","0.2","0.6","0.2","","","","","","","72","H","0","img/none_selected.jpg","true","0","full_practice"
"157","","bandit","59","276150","0.0-33.0-6.0","44123759","wem/bandit_either","A111GZJ896Q9RX","either","5","","","","","","","0","0","1","","0.2","0.5","0.5","0.5","0.5","0.8","0.2","0.6","0.2","","","","","","","","","","","74","J","1","","true","0","full_practice"
"37","","bandit","60","277694","0.0-33.0-7.0","44123759","wem/bandit_either","A111GZJ896Q9RX","either","5","","","","","","","1","0","0","0.6","","0.5","0.5","0.5","0.5","","","","","0.8","0.2","0.6","0.2","","","","","","","75","K","2","","true","0","full_practice"
"228","","bandit","61","279426","0.0-33.0-8.0","44123759","wem/bandit_either","A111GZJ896Q9RX","either","5","","","","","","","1","0","0","0.8","","0.5","0.5","0.5","0.5","","","","","0.8","0.2","0.6","0.2","","","","","","","72","H","0","img/none_selected.jpg","true","0","full_practice"
"312","","bandit","62","281243","0.0-33.0-9.0","44123759","wem/bandit_either","A111GZJ896Q9RX","either","5","","","","","","","0","1","0","","0.6","0.5","0.5","0.5","0.5","0.8","0.2","0.6","0.2","","","","","","","","","","","75","K","2","","true","0","full_practice"
"143","","bandit","63","282891","0.0-33.0-10.0","44123759","wem/bandit_either","A111GZJ896Q9RX","either","5","","","","","","","0","0","1","0.2","","0.5","0.5","0.5","0.5","","","","","0.8","0.2","0.6","0.2","","","","","","","76","L","3","","true","0","full_practice"
"543","","bandit","64","284939","0.0-33.0-11.0","44123759","wem/bandit_either","A111GZJ896Q9RX","either","5","","","","","","","0","0","1","0.2","","0.5","0.5","0.5","0.5","","","","","0.8","0.2","0.6","0.2","","","","","","","74","J","1","","true","0","full_practice"
"454","","bandit","65","286899","0.0-33.0-12.0","44123759","wem/bandit_either","A111GZJ896Q9RX","either","5","","","","","","","1","0","0","0.8","","0.5","0.5","0.5","0.5","","","","","0.8","0.2","0.6","0.2","","","","","","","72","H","0","img/none_selected.jpg","true","0","full_practice"
"278","","bandit","66","288683","0.0-33.0-13.0","44123759","wem/bandit_either","A111GZJ896Q9RX","either","5","","","","","","","1","0","0","0.8","","0.5","0.5","0.5","0.5","","","","","0.8","0.2","0.6","0.2","","","","","","","72","H","0","img/none_selected.jpg","true","0","full_practice"
"271","","bandit","67","290460","0.0-33.0-14.0","44123759","wem/bandit_either","A111GZJ896Q9RX","either","5","","","","","","","1","0","0","0.6","","0.5","0.5","0.5","0.5","","","","","0.8","0.2","0.6","0.2","","","","","","","75","K","2","","true","0","full_practice"
"446","","bandit","68","292411","0.0-33.0-15.0","44123759","wem/bandit_either","A111GZJ896Q9RX","either","5","","","","","","","0","0","1","","0.2","0.5","0.5","0.5","0.5","0.8","0.2","0.6","0.2","","","","","","","","","","","74","J","1","","true","0","full_practice"
"1864","","bandit","69","295780","0.0-33.0-16.0","44123759","wem/bandit_either","A111GZJ896Q9RX","either","5","","","","","","","0","1","0","","0.8","0.5","0.5","0.5","0.5","0.8","0.2","0.6","0.2","","","","","","","","","","","72","H","0","img/none_selected.jpg","true","0","full_practice"
"1079","","bandit","70","298363","0.0-33.0-17.0","44123759","wem/bandit_either","A111GZJ896Q9RX","either","5","","","","","","","1","0","0","0.6","","0.5","0.5","0.5","0.5","","","","","0.8","0.2","0.6","0.2","","","","","","","75","K","2","","true","0","full_practice"
"575","","bandit","71","300443","0.0-33.0-18.0","44123759","wem/bandit_either","A111GZJ896Q9RX","either","5","","","","","","","0","0","1","","0.2","0.5","0.5","0.5","0.5","0.8","0.2","0.6","0.2","","","","","","","","","","","76","L","3","","true","0","full_practice"
"128","","bandit","72","302076","0.0-33.0-19.0","44123759","wem/bandit_either","A111GZJ896Q9RX","either","5","","","","","","","0","0","1","0.6","","0.5","0.5","0.5","0.5","","","","","0.8","0.2","0.6","0.2","","","","","","","75","K","2","","true","0","full_practice"
"2788","","text","73","304870","0.0-34.0","44123759","wem/bandit_either","A111GZJ896Q9RX","either","5","32","","","","","","","","","","","","","","","","","","","","","","","","","","","","","","","","","","",""
"11118","","text","74","316991","0.0-35.0","44123759","wem/bandit_either","A111GZJ896Q9RX","either","5","32","","","","","","","","","","","","","","","","","","","","","","","","","","","","","","","","","","",""
"7317","","text","75","324310","0.0-36.0","44123759","wem/bandit_either","A111GZJ896Q9RX","either","5","32","","","","","","","","","","","","","","","","","","","","","","","","","","","","","","","","","","",""
"2094","","text","76","326406","0.0-37.0","44123759","wem/bandit_either","A111GZJ896Q9RX","either","5","32","","","","","","","","","","","","","","","","","","","","","","","","","","","","","","","","","","",""
"2542","","text","77","328951","0.0-38.0","44123759","wem/bandit_either","A111GZJ896Q9RX","either","5","32","","","","","","","","","","","","","","","","","","","","","","","","","","","","","","","","","","",""
"1934","","text","78","330887","0.0-39.0","44123759","wem/bandit_either","A111GZJ896Q9RX","either","5","32","","","","","","","","","","","","","","","","","","","","","","","","","","","","","","","","","","",""
"1237","","bandit","79","333630","0.0-40.0-0.0","44123759","wem/bandit_either","A111GZJ896Q9RX","either","5","","","","","","","0","0","1","","0.3897275569","0.4","0.8","0.6","0.2","0.3897275569","0.4265570961","0.3340388524","0.1165465043","","","","","","","","","","","72","H","0","img/none_selected.jpg","","1","main_expt"
"477","","bandit","80","335614","0.0-41.0-0.0","44123759","wem/bandit_either","A111GZJ896Q9RX","either","5","","","","","","","0","0","1","0.4177099958","","0.4","0.8","0.6","0.2","","","","","0.3911966266","0.4177099958","0.3223834482","0.08371899021","","","","","","","74","J","1","","","2","main_expt"
"582","","bandit","81","337703","0.0-42.0-0.0","44123759","wem/bandit_either","A111GZJ896Q9RX","either","5","","","","","","","1","0","0","0.3585509001","","0.4","0.8","0.6","0.2","","","","","0.4074861021","0.4192185534","0.3585509001","0.04339790364","","","","","","","75","K","2","","","3","main_expt"
"1197","","bandit","82","340407","0.0-43.0-0.0","44123759","wem/bandit_either","A111GZJ896Q9RX","either","5","","","","","","","1","0","0","0.3416436242","","0.4","0.8","0.6","0.2","","","","","0.3965638453","0.4241610434","0.3416436242","0.04073472785","","","","","","","75","K","2","","","4","main_expt"
"725","","bandit","83","342640","0.0-44.0-0.0","44123759","wem/bandit_either","A111GZJ896Q9RX","either","5","","","","","","","0","0","1","","0.3444758892","0.4","0.8","0.6","0.2","0.3688269119","0.4284837315","0.3444758892","0.04731773769","","","","","","","","","","","75","K","2","","","5","main_expt"
"324","","bandit","84","344471","0.0-45.0-0.0","44123759","wem/bandit_either","A111GZJ896Q9RX","either","5","","","","","","","0","0","1","","0.05617088868","0.4","0.8","0.6","0.2","0.3865867917","0.4328708062","0.3574177426","0.05617088868","","","","","","","","","","","76","L","3","","","6","main_expt"
"621","","bandit","85","346598","0.0-46.0-0.0","44123759","wem/bandit_either","A111GZJ896Q9RX","either","5","","","","","","","0","0","1","0.3634052143","","0.4","0.8","0.6","0.2","","","","","0.4294719924","0.4176545671","0.3634052143","0.05606577856","","","","","","","75","K","2","","","7","main_expt"
"382","","bandit","86","348486","0.0-47.0-0.0","44123759","wem/bandit_either","A111GZJ896Q9RX","either","5","","","","","","","0","0","1","0.4210378118","","0.4","0.8","0.6","0.2","","","","","0.4210378118","0.4022395488","0.3675420607","0.09244853328","","","","","","","72","H","0","img/none_selected.jpg","","8","main_expt"
"1051","","bandit","87","351047","0.0-48.0-0.0","44123759","wem/bandit_either","A111GZJ896Q9RX","either","5","","","","","","","0","0","1","0.3929004949","","0.4","0.8","0.6","0.2","","","","","0.4502112583","0.3929004949","0.3921196104","0.1271341085","","","","","","","74","J","1","","","9","main_expt"
"339","","bandit","88","352896","0.0-49.0-0.0","44123759","wem/bandit_either","A111GZJ896Q9RX","either","5","","","","","","","0","0","1","0.1370717255","","0.4","0.8","0.6","0.2","","","","","0.4452653155","0.3863711448","0.4026182126","0.1370717255","","","","","","","76","L","3","","","10","main_expt"
"332","","bandit","89","354735","0.0-50.0-0.0","44123759","wem/bandit_either","A111GZJ896Q9RX","either","5","","","","","","","0","1","0","","0.3543069494","0.4","0.8","0.6","0.2","0.4352349267","0.4205849279","0.3543069494","0.1275050207","","","","","","","","","","","75","K","2","","","11","main_expt"
"701","","bandit","90","356944","0.0-51.0-0.0","44123759","wem/bandit_either","A111GZJ896Q9RX","either","5","","","","","","","0","0","1","0.4029030639","","0.4","0.8","0.6","0.2","","","","","0.4029030639","0.4525069231","0.3504097904","0.122317004","","","","","","","72","H","0","img/none_selected.jpg","","12","main_expt"
"572","","bandit","91","359022","0.0-52.0-0.0","44123759","wem/bandit_either","A111GZJ896Q9RX","either","5","","","","","","","0","1","0","","0.1251711411","0.4","0.8","0.6","0.2","0.4198147105","0.4485799753","0.2787441393","0.1251711411","","","","","","","","","","","76","L","3","","","13","main_expt"
"383","","bandit","92","360912","0.0-53.0-0.0","44123759","wem/bandit_either","A111GZJ896Q9RX","either","5","","","","","","","0","0","1","","0.4504049656","0.4","0.8","0.6","0.2","0.3761312174","0.4504049656","0.2723245106","0.1380641988","","","","","","","","","","","74","J","1","","","14","main_expt"
"469","","bandit","93","362887","0.0-54.0-0.0","44123759","wem/bandit_either","A111GZJ896Q9RX","either","5","","","","","","","0","0","1","0.4017507227","","0.4","0.8","0.6","0.2","","","","","0.4017507227","0.4281165459","0.3687644442","0.2010812313","","","","","","","72","H","0","img/none_selected.jpg","","15","main_expt"
"485","","bandit","94","364879","0.0-55.0-0.0","44123759","wem/bandit_either","A111GZJ896Q9RX","either","5","","","","","","","0","0","1","0.3992289848","","0.4","0.8","0.6","0.2","","","","","0.3859888637","0.4035101098","0.3992289848","0.1747275657","","","","","","","75","K","2","","","16","main_expt"
"428","","bandit","95","366815","0.0-56.0-0.0","44123759","wem/bandit_either","A111GZJ896Q9RX","either","5","","","","","","","0","1","0","","0.1816524112","0.4","0.8","0.6","0.2","0.3706978481","0.4063691663","0.4067061876","0.1816524112","","","","","","","","","","","76","L","3","","","17","main_expt"
"676","","bandit","96","368999","0.0-57.0-0.0","44123759","wem/bandit_either","A111GZJ896Q9RX","either","5","","","","","","","0","1","0","","0.3323991027","0.4","0.8","0.6","0.2","0.3323991027","0.4201618032","0.3969002131","0.1700798448","","","","","","","","","","","72","H","0","img/none_selected.jpg","","18","main_expt"
"877","","bandit","97","371384","0.0-58.0-0.0","44123759","wem/bandit_either","A111GZJ896Q9RX","either","5","","","","","","","1","0","0","0.3868389751","","0.4","0.8","0.6","0.2","","","","","0.3301718366","0.3868389751","0.3930099592","0.1998500639","","","","","","","74","J","1","","","19","main_expt"
"571","","bandit","98","373462","0.0-59.0-0.0","44123759","wem/bandit_either","A111GZJ896Q9RX","either","5","","","","","","","1","0","0","0.3868875991","","0.4","0.8","0.6","0.2","","","","","0.3714618997","0.3868875991","0.3791602553","0.2418808817","","","","","","","74","J","1","","","20","main_expt"
"799","","bandit","99","375769","0.0-60.0-0.0","44123759","wem/bandit_either","A111GZJ896Q9RX","either","5","","","","","","","0","0","1","0.4253770554","","0.4","0.8","0.6","0.2","","","","","0.3621694591","0.4253770554","0.4127515201","0.2293341009","","","","","","","74","J","1","","","21","main_expt"
"428","","bandit","100","377704","0.0-61.0-0.0","44123759","wem/bandit_either","A111GZJ896Q9RX","either","5","","","","","","","0","0","1","","0.2074184163","0.4","0.8","0.6","0.2","0.3648829928","0.4285762007","0.4164833055","0.2074184163","","","","","","","","","","","76","L","3","","","22","main_expt"
"86","","bandit","101","379297","0.0-62.0-0.0","44123759","wem/bandit_either","A111GZJ896Q9RX","either","5","","","","","","","0","0","1","0.4143027846","","0.4","0.8","0.6","0.2","","","","","0.2856994719","0.4082522222","0.4143027846","0.1832507358","","","","","","","75","K","2","","","23","main_expt"
"707","","bandit","102","381511","0.0-63.0-0.0","44123759","wem/bandit_either","A111GZJ896Q9RX","either","5","","","","","","","1","0","0","0.3152516524","","0.4","0.8","0.6","0.2","","","","","0.3152516524","0.4027270218","0.3649270698","0.1469425149","","","","","","","72","H","0","img/none_selected.jpg","","24","main_expt"
"357","","bandit","103","383377","0.0-64.0-0.0","44123759","wem/bandit_either","A111GZJ896Q9RX","either","5","","","","","","","0","1","0","","0.2778145345","0.4","0.8","0.6","0.2","0.2778145345","0.4100212433","0.392676409","0.102794739","","","","","","","","","","","72","H","0","img/none_selected.jpg","","25","main_expt"
"611","","bandit","104","385497","0.0-65.0-0.0","44123759","wem/bandit_either","A111GZJ896Q9RX","either","5","","","","","","","0","0","1","0.4190791169","","0.4","0.8","0.6","0.2","","","","","0.3170506137","0.4190791169","0.4031565401","0.1173732637","","","","","","","74","J","1","","","26","main_expt"
"387","","bandit","105","387393","0.0-66.0-0.0","44123759","wem/bandit_either","A111GZJ896Q9RX","either","5","","","","","","","0","0","1","0.4245959001","","0.4","0.8","0.6","0.2","","","","","0.3223143746","0.4527212376","0.4245959001","0.08835016803","","","","","","","75","K","2","","","27","main_expt"
"805","","bandit","106","389705","0.0-67.0-0.0","44123759","wem/bandit_either","A111GZJ896Q9RX","either","5","","","","","","","0","0","1","","0.1134440288","0.4","0.8","0.6","0.2","0.3234472479","0.4480998813","0.4232885055","0.1134440288","","","","","","","","","","","76","L","3","","","28","main_expt"
"324","","bandit","107","391537","0.0-68.0-0.0","44123759","wem/bandit_either","A111GZJ896Q9RX","either","5","","","","","","","0","0","1","","0.2881425904","0.4","0.8","0.6","0.2","0.2881425904","0.4628669208","0.4495512981","0.1982905849","","","","","","","","","","","72","H","0","img/none_selected.jpg","","29","main_expt"
"363","","bandit","108","393409","0.0-69.0-0.0","44123759","wem/bandit_either","A111GZJ896Q9RX","either","5","","","","","","","1","0","0","0.4565655028","","0.4","0.8","0.6","0.2","","","","","0.2326555855","0.4565655028","0.4485299892","0.2366655967","","","","","","","74","J","1","","","30","main_expt"
"507","","bandit","109","395423","0.0-70.0-0.0","44123759","wem/bandit_either","A111GZJ896Q9RX","either","5","","","","","","","0","1","0","","0.4686031056","0.4","0.8","0.6","0.2","0.2364604256","0.4686031056","0.4599237238","0.1622470467","","","","","","","","","","","74","J","1","","","31","main_expt"
"382","","bandit","110","397312","0.0-71.0-0.0","44123759","wem/bandit_either","A111GZJ896Q9RX","either","5","","","","","","","0","0","1","0.4508116693","","0.4","0.8","0.6","0.2","","","","","0.2451982598","0.4659582456","0.4508116693","0.1771911602","","","","","","","75","K","2","","","32","main_expt"
"382","","bandit","111","399201","0.0-72.0-0.0","44123759","wem/bandit_either","A111GZJ896Q9RX","either","5","","","","","","","0","0","1","","0.2360369815","0.4","0.8","0.6","0.2","0.2360369815","0.4810757035","0.45101727","0.1622836308","","","","","","","","","","","72","H","0","img/none_selected.jpg","","33","main_expt"
"468","","bandit","112","401176","0.0-73.0-0.0","44123759","wem/bandit_either","A111GZJ896Q9RX","either","5","","","","","","","0","0","1","","0.1655985557","0.4","0.8","0.6","0.2","0.2317763892","0.4842727378","0.4340174653","0.1655985557","","","","","","","","","","","76","L","3","","","34","main_expt"
"780","","bandit","113","403465","0.0-74.0-0.0","44123759","wem/bandit_either","A111GZJ896Q9RX","either","5","","","","","","","0","0","1","0.4040147441","","0.4","0.8","0.6","0.2","","","","","0.2527891731","0.4745470136","0.4040147441","0.1492797185","","","","","","","75","K","2","","","35","main_expt"
"250","","bandit","114","405225","0.0-75.0-0.0","44123759","wem/bandit_either","A111GZJ896Q9RX","either","5","","","","","","","0","1","0","","0.2641283143","0.4","0.8","0.6","0.2","0.2641283143","0.4440965139","0.4268829696","0.1504543003","","","","","","","","","","","72","H","0","img/none_selected.jpg","","36","main_expt"
"531","","bandit","115","407265","0.0-76.0-0.0","44123759","wem/bandit_either","A111GZJ896Q9RX","either","5","","","","","","","1","0","0","0.4544425755","","0.4","0.8","0.6","0.2","","","","","0.2309310423","0.4544425755","0.4562327564","0.1064249526","","","","","","","74","J","1","","","37","main_expt"
"331","","bandit","116","409105","0.0-77.0-0.0","44123759","wem/bandit_either","A111GZJ896Q9RX","either","5","","","","","","","0","0","1","0.4700138218","","0.4","0.8","0.6","0.2","","","","","0.2093170459","0.4700138218","0.4481627861","0.1346530267","","","","","","","74","J","1","","","38","main_expt"
"805","","bandit","117","411418","0.0-78.0-0.0","44123759","wem/bandit_either","A111GZJ896Q9RX","either","5","","","","","","","0","1","0","","0.4475890948","0.4","0.8","0.6","0.2","0.1398625959","0.466948448","0.4475890948","0.1303494481","","","","","","","","","","","75","K","2","","","39","main_expt"
"180","","bandit","118","413105","0.0-79.0-0.0","44123759","wem/bandit_either","A111GZJ896Q9RX","either","5","","","","","","","0","0","1","","0.09690087606","0.4","0.8","0.6","0.2","0.09690087606","0.4679256248","0.4501575696","0.1492074344","","","","","","","","","","","72","H","0","img/none_selected.jpg","","40","main_expt"
"132","","bandit","119","414745","0.0-80.0-0.0","44123759","wem/bandit_either","A111GZJ896Q9RX","either","5","","","","","","","0","0","1","","0.1370672299","0.4","0.8","0.6","0.2","0.1129569356","0.445537573","0.4121884666","0.1370672299","","","","","","","","","","","76","L","3","","","41","main_expt"
"437","","bandit","120","416688","0.0-81.0-0.0","44123759","wem/bandit_either","A111GZJ896Q9RX","either","5","","","","","","","0","0","1","","0.4521531226","0.4","0.8","0.6","0.2","0.1227033228","0.4521531226","0.4379939247","0.08144147181","","","","","","","","","","","74","J","1","","","42","main_expt"
"365","","bandit","121","418560","0.0-82.0-0.0","44123759","wem/bandit_either","A111GZJ896Q9RX","either","5","","","","","","","0","0","1","","0.08393287497","0.4","0.8","0.6","0.2","0.08393287497","0.4695072217","0.4271747655","0.06793865388","","","","","","","","","","","72","H","0","img/none_selected.jpg","","43","main_expt"
"852","","bandit","122","420921","0.0-83.0-0.0","44123759","wem/bandit_either","A111GZJ896Q9RX","either","5","","","","","","","1","0","0","0.4807409838","","0.4","0.8","0.6","0.2","","","","","0.06260074275","0.4807409838","0.4480494518","0.05295344446","","","","","","","74","J","1","","","44","main_expt"
"437","","bandit","123","422865","0.0-84.0-0.0","44123759","wem/bandit_either","A111GZJ896Q9RX","either","5","","","","","","","1","0","0","0.4507048108","","0.4","0.8","0.6","0.2","","","","","0.08062123592","0.4507048108","0.4269729589","0.02744239742","","","","","","","74","J","1","","","45","main_expt"
"397","","bandit","124","424768","0.0-85.0-0.0","44123759","wem/bandit_either","A111GZJ896Q9RX","either","5","","","","","","","0","1","0","","0.4382321206","0.4","0.8","0.6","0.2","0.1110847749","0.4382321206","0.4475746277","0.02347437243","","","","","","","","","","","74","J","1","","","46","main_expt"
"261","","bandit","125","426537","0.0-86.0-0.0","44123759","wem/bandit_either","A111GZJ896Q9RX","either","5","","","","","","","0","0","1","0.4295618238","","0.4","0.8","0.6","0.2","","","","","0.05346849493","0.4393937913","0.4295618238","0.02418160198","","","","","","","75","K","2","","","47","main_expt"
"355","","bandit","126","428402","0.0-87.0-0.0","44123759","wem/bandit_either","A111GZJ896Q9RX","either","5","","","","","","","0","0","1","","0.04499733497","0.4","0.8","0.6","0.2","0.04499733497","0.440318131","0.4431907244","0.01182676654","","","","","","","","","","","72","H","0","img/none_selected.jpg","","48","main_expt"
"267","","bandit","127","430179","0.0-88.0-0.0","44123759","wem/bandit_either","A111GZJ896Q9RX","either","5","","","","","","","0","0","1","","0.0186287842","0.4","0.8","0.6","0.2","0.07378534534","0.4362102412","0.4187732916","0.0186287842","","","","","","","","","","","76","L","3","","","49","main_expt"
"115","","bandit","128","431801","0.0-89.0-0.0","44123759","wem/bandit_either","A111GZJ896Q9RX","either","5","","","","","","","0","0","1","0.44488671","","0.4","0.8","0.6","0.2","","","","","0.06168845619","0.44488671","0.356579213","0.02550629551","","","","","","","74","J","1","","","50","main_expt"
"126","","bandit","129","433435","0.0-90.0-0.0","44123759","wem/bandit_either","A111GZJ896Q9RX","either","5","","","","","","","0","0","1","0.1062028567","","0.4","0.8","0.6","0.2","","","","","0.1062028567","0.4633405548","0.2629404955","0.04366809707","","","","","","","72","H","0","img/none_selected.jpg","","51","main_expt"
"30","","bandit","130","434972","0.0-91.0-0.0","44123759","wem/bandit_either","A111GZJ896Q9RX","either","5","","","","","","","0","0","1","0.2919747068","","0.4","0.8","0.6","0.2","","","","","0.1379608546","0.4528043762","0.2919747068","0.04357168116","","","","","","","75","K","2","","","52","main_expt"
"264","","bandit","131","436746","0.0-92.0-0.0","44123759","wem/bandit_either","A111GZJ896Q9RX","either","5","","","","","","","0","1","0","","0.1356826849","0.4","0.8","0.6","0.2","0.1356826849","0.4390431751","0.3809901122","0.03899227154","","","","","","","","","","","72","H","0","img/none_selected.jpg","","53","main_expt"
"187","","bandit","132","438442","0.0-93.0-0.0","44123759","wem/bandit_either","A111GZJ896Q9RX","either","5","","","","","","","0","0","1","0.04009146386","","0.4","0.8","0.6","0.2","","","","","0.1038772241","0.4549270822","0.3452518694","0.04009146386","","","","","","","76","L","3","","","54","main_expt"
"339","","bandit","133","440289","0.0-94.0-0.0","44123759","wem/bandit_either","A111GZJ896Q9RX","either","5","","","","","","","0","0","1","0.4710341864","","0.4","0.8","0.6","0.2","","","","","0.1689791829","0.4710341864","0.3263112327","0.0155768565","","","","","","","74","J","1","","","55","main_expt"
"341","","bandit","134","442138","0.0-95.0-0.0","44123759","wem/bandit_either","A111GZJ896Q9RX","either","5","","","","","","","0","0","1","","0.3308963945","0.4","0.8","0.6","0.2","0.1108888145","0.4745834276","0.3308963945","0.02112461672","","","","","","","","","","","75","K","2","","","56","main_expt"
"52","","bandit","135","443699","0.0-96.0-0.0","44123759","wem/bandit_either","A111GZJ896Q9RX","either","5","","","","","","","1","0","0","0.1206542402","","0.4","0.8","0.6","0.2","","","","","0.1206542402","0.489318572","0.3150326571","0.0126553198","","","","","","","72","H","0","img/none_selected.jpg","","57","main_expt"
"315","","bandit","136","445522","0.0-97.0-0.0","44123759","wem/bandit_either","A111GZJ896Q9RX","either","5","","","","","","","0","0","1","","0.09707343937","0.4","0.8","0.6","0.2","0.09707343937","0.480037986","0.3049116772","0.01131359515","","","","","","","","","","","72","H","0","img/none_selected.jpg","","58","main_expt"
"843","","bandit","137","447875","0.0-98.0-0.0","44123759","wem/bandit_either","A111GZJ896Q9RX","either","5","","","","","","","0","0","1","","0.01030075821","0.4","0.8","0.6","0.2","0.1044384952","0.4593461039","0.3050987947","0.01030075821","","","","","","","","","","","76","L","3","","","59","main_expt"
"252","","bandit","138","449634","0.0-99.0-0.0","44123759","wem/bandit_either","A111GZJ896Q9RX","either","5","","","","","","","0","0","1","","0.3274009355","0.4","0.8","0.6","0.2","0.08890369623","0.446051488","0.3274009355","0.005868957973","","","","","","","","","","","75","K","2","","","60","main_expt"
"27","","bandit","139","451170","0.0-100.0-0.0","44123759","wem/bandit_either","A111GZJ896Q9RX","either","5","","","","","","","1","0","0","0.4391285327","","0.4","0.8","0.6","0.2","","","","","0.08921221942","0.4391285327","0.3428943983","0.004361943215","","","","","","","74","J","1","","","61","main_expt"
"292","","bandit","140","452970","0.0-101.0-0.0","44123759","wem/bandit_either","A111GZJ896Q9RX","either","5","","","","","","","1","0","0","0.4063883723","","0.4","0.8","0.6","0.2","","","","","0.09812025034","0.4063883723","0.3549763931","0.005208412743","","","","","","","74","J","1","","","62","main_expt"
"131","","bandit","141","454611","0.0-102.0-0.0","44123759","wem/bandit_either","A111GZJ896Q9RX","either","5","","","","","","","0","0","1","0.4330387396","","0.4","0.8","0.6","0.2","","","","","0.09006279409","0.4330387396","0.3496678451","0.006461011255","","","","","","","74","J","1","","","63","main_expt"
"587","","bandit","142","456707","0.0-103.0-0.0","44123759","wem/bandit_either","A111GZJ896Q9RX","either","5","","","","","","","1","0","0","0.4207902426","","0.4","0.8","0.6","0.2","","","","","0.1118976224","0.4207902426","0.3188537263","0.01267926231","","","","","","","74","J","1","","","64","main_expt"
"340","","bandit","143","458555","0.0-104.0-0.0","44123759","wem/bandit_either","A111GZJ896Q9RX","either","5","","","","","","","0","0","1","0.3719582347","","0.4","0.8","0.6","0.2","","","","","0.1053817613","0.3719582347","0.3191795336","0.009732787917","","","","","","","74","J","1","","","65","main_expt"
"355","","bandit","144","460420","0.0-105.0-0.0","44123759","wem/bandit_either","A111GZJ896Q9RX","either","5","","","","","","","0","0","1","0.3748569955","","0.4","0.8","0.6","0.2","","","","","0.1307356695","0.3748569955","0.268616347","0.01092542651","","","","","","","74","J","1","","","66","main_expt"
"337","","bandit","145","462267","0.0-106.0-0.0","44123759","wem/bandit_either","A111GZJ896Q9RX","either","5","","","","","","","0","0","1","0.335252031","","0.4","0.8","0.6","0.2","","","","","0.1418436428","0.335252031","0.259194563","0.02125534741","","","","","","","74","J","1","","","67","main_expt"
"363","","bandit","146","464140","0.0-107.0-0.0","44123759","wem/bandit_either","A111GZJ896Q9RX","either","5","","","","","","","1","0","0","0.1459089566","","0.4","0.8","0.6","0.2","","","","","0.1459089566","0.3199157278","0.2281204868","0.02360283027","","","","","","","72","H","0","img/none_selected.jpg","","68","main_expt"
"346","","bandit","147","465995","0.0-108.0-0.0","44123759","wem/bandit_either","A111GZJ896Q9RX","either","5","","","","","","","0","1","0","","0.1809721424","0.4","0.8","0.6","0.2","0.1809721424","0.3068525281","0.2195844169","0.02539305756","","","","","","","","","","","72","H","0","img/none_selected.jpg","","69","main_expt"
"203","","bandit","148","467707","0.0-109.0-0.0","44123759","wem/bandit_either","A111GZJ896Q9RX","either","5","","","","","","","0","0","1","0.1883338509","","0.4","0.8","0.6","0.2","","","","","0.1784068974","0.3181076016","0.1883338509","0.05014388586","","","","","","","75","K","2","","","70","main_expt"
"305","","bandit","149","469523","0.0-110.0-0.0","44123759","wem/bandit_either","A111GZJ896Q9RX","either","5","","","","","","","0","0","1","","0.1639708178","0.4","0.8","0.6","0.2","0.1973023396","0.2926426422","0.1639708178","0.04209054697","","","","","","","","","","","75","K","2","","","71","main_expt"
"315","","bandit","150","471347","0.0-111.0-0.0","44123759","wem/bandit_either","A111GZJ896Q9RX","either","5","","","","","","","0","0","1","0.1312842785","","0.4","0.8","0.6","0.2","","","","","0.2436342847","0.2380263643","0.1312842785","0.05611199342","","","","","","","75","K","2","","","72","main_expt"
"347","","bandit","151","473204","0.0-112.0-0.0","44123759","wem/bandit_either","A111GZJ896Q9RX","either","5","","","","","","","0","0","1","","0.05293238473","0.4","0.8","0.6","0.2","0.1992173182","0.2407197948","0.1805041857","0.05293238473","","","","","","","","","","","76","L","3","","","73","main_expt"
"298","","bandit","152","475010","0.0-113.0-0.0","44123759","wem/bandit_either","A111GZJ896Q9RX","either","5","","","","","","","0","0","1","","0.0318456884","0.4","0.8","0.6","0.2","0.2347098304","0.2317468449","0.1739557812","0.0318456884","","","","","","","","","","","76","L","3","","","74","main_expt"
"86","","bandit","153","476602","0.0-114.0-0.0","44123759","wem/bandit_either","A111GZJ896Q9RX","either","5","","","","","","","0","0","1","","0.03873230677","0.4","0.8","0.6","0.2","0.2641442137","0.2545997551","0.2434916027","0.03873230677","","","","","","","","","","","76","L","3","","","75","main_expt"
"339","","bandit","154","478452","0.0-115.0-0.0","44123759","wem/bandit_either","A111GZJ896Q9RX","either","5","","","","","","","0","0","1","","0.03304947682","0.4","0.8","0.6","0.2","0.3192644053","0.2890845388","0.2438468568","0.03304947682","","","","","","","","","","","76","L","3","","","76","main_expt"
"307","","bandit","155","480266","0.0-116.0-0.0","44123759","wem/bandit_either","A111GZJ896Q9RX","either","5","","","","","","","0","0","1","0.2425324642","","0.4","0.8","0.6","0.2","","","","","0.3351132613","0.2386362654","0.2425324642","0.02607887458","","","","","","","75","K","2","","","77","main_expt"
"556","","bandit","156","482331","0.0-117.0-0.0","44123759","wem/bandit_either","A111GZJ896Q9RX","either","5","","","","","","","0","1","0","","0.3086784207","0.4","0.8","0.6","0.2","0.3086784207","0.2673679704","0.205588479","0.02492981692","","","","","","","","","","","72","H","0","img/none_selected.jpg","","78","main_expt"
"332","","bandit","157","484172","0.0-118.0-0.0","44123759","wem/bandit_either","A111GZJ896Q9RX","either","5","","","","","","","0","1","0","","0.3076482073","0.4","0.8","0.6","0.2","0.3076482073","0.2813811921","0.213062191","0.01824110002","","","","","","","","","","","72","H","0","img/none_selected.jpg","","79","main_expt"
"307","","bandit","158","485986","0.0-119.0-0.0","44123759","wem/bandit_either","A111GZJ896Q9RX","either","5","","","","","","","0","0","1","0.2419447949","","0.4","0.8","0.6","0.2","","","","","0.3605025214","0.2419447949","0.1852926048","0.0202176162","","","","","","","74","J","1","","","80","main_expt"
"54","","bandit","159","487548","0.0-120.0-0.0","44123759","wem/bandit_either","A111GZJ896Q9RX","either","5","","","","","","","0","0","1","0.3286166321","","0.4","0.8","0.6","0.2","","","","","0.3286166321","0.323481111","0.2332942271","0.0252752587","","","","","","","72","H","0","img/none_selected.jpg","","81","main_expt"
"314","","bandit","160","489372","0.0-121.0-0.0","44123759","wem/bandit_either","A111GZJ896Q9RX","either","5","","","","","","","0","0","1","","0.3459677762","0.4","0.8","0.6","0.2","0.3459677762","0.3097244961","0.2087797338","0.05668457717","","","","","","","","","","","72","H","0","img/none_selected.jpg","","82","main_expt"
"338","","bandit","161","491220","0.0-122.0-0.0","44123759","wem/bandit_either","A111GZJ896Q9RX","either","5","","","","","","","0","0","1","0.3092751195","","0.4","0.8","0.6","0.2","","","","","0.3092751195","0.2787498647","0.2049979043","0.07760530004","","","","","","","72","H","0","img/none_selected.jpg","","83","main_expt"
"83","","bandit","162","492811","0.0-123.0-0.0","44123759","wem/bandit_either","A111GZJ896Q9RX","either","5","","","","","","","1","0","0","0.2589524449","","0.4","0.8","0.6","0.2","","","","","0.3044630387","0.2589524449","0.2151780091","0.03696005566","","","","","","","74","J","1","","","84","main_expt"
"372","","bandit","163","494692","0.0-124.0-0.0","44123759","wem/bandit_either","A111GZJ896Q9RX","either","5","","","","","","","0","0","1","0.2769318636","","0.4","0.8","0.6","0.2","","","","","0.2812480587","0.2769318636","0.1497615914","0.04177257934","","","","","","","74","J","1","","","85","main_expt"
"322","","bandit","164","496524","0.0-125.0-0.0","44123759","wem/bandit_either","A111GZJ896Q9RX","either","5","","","","","","","0","1","0","","0.2506532223","0.4","0.8","0.6","0.2","0.2506532223","0.2849222391","0.1223687677","0.0385770192","","","","","","","","","","","72","H","0","img/none_selected.jpg","","86","main_expt"
"429","","bandit","165","498462","0.0-126.0-0.0","44123759","wem/bandit_either","A111GZJ896Q9RX","either","5","","","","","","","1","0","0","0.3131087309","","0.4","0.8","0.6","0.2","","","","","0.2269900387","0.3131087309","0.1472857413","0.03720252147","","","","","","","74","J","1","","","87","main_expt"
"138","","bandit","166","500109","0.0-127.0-0.0","44123759","wem/bandit_either","A111GZJ896Q9RX","either","5","","","","","","","1","0","0","0.3038587512","","0.4","0.8","0.6","0.2","","","","","0.1504729919","0.3038587512","0.1252586248","0.06746059371","","","","","","","74","J","1","","","88","main_expt"
"1290","","bandit","167","502909","0.0-128.0-0.0","44123759","wem/bandit_either","A111GZJ896Q9RX","either","5","","","","","","","0","0","1","","0.04069757945","0.4","0.8","0.6","0.2","0.1382070302","0.3308022157","0.1194927994","0.04069757945","","","","","","","","","","","76","L","3","","","89","main_expt"
"330","","bandit","168","504747","0.0-129.0-0.0","44123759","wem/bandit_either","A111GZJ896Q9RX","either","5","","","","","","","0","0","1","","0.1589750007","0.4","0.8","0.6","0.2","0.1364765349","0.3574922351","0.1589750007","0.07325379503","","","","","","","","","","","75","K","2","","","90","main_expt"
"388","","bandit","169","506645","0.0-130.0-0.0","44123759","wem/bandit_either","A111GZJ896Q9RX","either","5","","","","","","","0","0","1","","0.1859960426","0.4","0.8","0.6","0.2","0.09318196272","0.3729517688","0.1859960426","0.06877471811","","","","","","","","","","","75","K","2","","","91","main_expt"
"356","","bandit","170","508511","0.0-131.0-0.0","44123759","wem/bandit_either","A111GZJ896Q9RX","either","5","","","","","","","0","0","1","","0.192419488","0.4","0.8","0.6","0.2","0.06946097624","0.398352994","0.192419488","0.04115987362","","","","","","","","","","","75","K","2","","","92","main_expt"
"464","","bandit","171","510485","0.0-132.0-0.0","44123759","wem/bandit_either","A111GZJ896Q9RX","either","5","","","","","","","0","1","0","","0.4135860398","0.4","0.8","0.6","0.2","0.08102832817","0.4135860398","0.1716033463","0.07078892783","","","","","","","","","","","74","J","1","","","93","main_expt"
"627","","bandit","172","512620","0.0-133.0-0.0","44123759","wem/bandit_either","A111GZJ896Q9RX","either","5","","","","","","","0","0","1","","0.1271360848","0.4","0.8","0.6","0.2","0.1271360848","0.3786880174","0.1935897604","0.05572868433","","","","","","","","","","","72","H","0","img/none_selected.jpg","","94","main_expt"
"418","","bandit","173","514548","0.0-134.0-0.0","44123759","wem/bandit_either","A111GZJ896Q9RX","either","5","","","","","","","1","0","0","0.1097592989","","0.4","0.8","0.6","0.2","","","","","0.1097592989","0.3823424718","0.2193228015","0.05056929995","","","","","","","72","H","0","img/none_selected.jpg","","95","main_expt"
"204","","bandit","174","516261","0.0-135.0-0.0","44123759","wem/bandit_either","A111GZJ896Q9RX","either","5","","","","","","","0","0","1","","0.1085490834","0.4","0.8","0.6","0.2","0.1085490834","0.3642725552","0.3262643469","0.04159874267","","","","","","","","","","","72","H","0","img/none_selected.jpg","","96","main_expt"
"602","","bandit","175","518373","0.0-136.0-0.0","44123759","wem/bandit_either","A111GZJ896Q9RX","either","5","","","","","","","1","0","0","0.3197717944","","0.4","0.8","0.6","0.2","","","","","0.1049812554","0.3197717944","0.3207405496","0.03654451862","","","","","","","74","J","1","","","97","main_expt"
"706","","bandit","176","520589","0.0-137.0-0.0","44123759","wem/bandit_either","A111GZJ896Q9RX","either","5","","","","","","","0","0","1","0.2514424369","","0.4","0.8","0.6","0.2","","","","","0.08177978443","0.2514424369","0.3712856991","0.04190300095","","","","","","","74","J","1","","","98","main_expt"
"668","","bandit","177","522766","0.0-138.0-0.0","44123759","wem/bandit_either","A111GZJ896Q9RX","either","5","","","","","","","0","0","1","0.07574087804","","0.4","0.8","0.6","0.2","","","","","0.07574087804","0.2926772137","0.3740145378","0.08742990617","","","","","","","72","H","0","img/none_selected.jpg","","99","main_expt"
"385","","bandit","178","524660","0.0-139.0-0.0","44123759","wem/bandit_either","A111GZJ896Q9RX","either","5","","","","","","","0","0","1","0.234485335","","0.4","0.8","0.6","0.2","","","","","0.07829319678","0.234485335","0.3776295542","0.08966523481","","","","","","","74","J","1","","","100","main_expt"
"708","","bandit","179","526875","0.0-140.0-0.0","44123759","wem/bandit_either","A111GZJ896Q9RX","either","5","","","","","","","0","0","1","0.250352175","","0.4","0.8","0.6","0.2","","","","","0.07919243683","0.250352175","0.3592666398","0.07849065771","","","","","","","74","J","1","","","101","main_expt"
"875","","bandit","180","529260","0.0-141.0-0.0","44123759","wem/bandit_either","A111GZJ896Q9RX","either","5","","","","","","","0","0","1","","0.1052753188","0.4","0.8","0.6","0.2","0.1052753188","0.2139972863","0.3412191773","0.1054267613","","","","","","","","","","","72","H","0","img/none_selected.jpg","","102","main_expt"
"340","","bandit","181","531108","0.0-142.0-0.0","44123759","wem/bandit_either","A111GZJ896Q9RX","either","5","","","","","","","0","0","1","0.20092706","","0.4","0.8","0.6","0.2","","","","","0.1248526142","0.20092706","0.3133100433","0.1120981937","","","","","","","74","J","1","","","103","main_expt"
"1035","","bandit","182","533651","0.0-143.0-0.0","44123759","wem/bandit_either","A111GZJ896Q9RX","either","5","","","","","","","0","0","1","0.142969925","","0.4","0.8","0.6","0.2","","","","","0.142969925","0.2305366804","0.3219148419","0.1034740879","","","","","","","72","H","0","img/none_selected.jpg","","104","main_expt"
"573","","bandit","183","535731","0.0-144.0-0.0","44123759","wem/bandit_either","A111GZJ896Q9RX","either","5","","","","","","","1","0","0","0.2102135581","","0.4","0.8","0.6","0.2","","","","","0.13947254","0.2102135581","0.3300892518","0.07597240327","","","","","","","74","J","1","","","105","main_expt"
"606","","bandit","184","537844","0.0-145.0-0.0","44123759","wem/bandit_either","A111GZJ896Q9RX","either","5","","","","","","","0","0","1","0.2219457329","","0.4","0.8","0.6","0.2","","","","","0.1329526997","0.2219457329","0.3401839058","0.1124257427","","","","","","","74","J","1","","","106","main_expt"
"3317","","bandit","185","542669","0.0-146.0-0.0","44123759","wem/bandit_either","A111GZJ896Q9RX","either","5","","","","","","","0","1","0","","0.3784706915","0.4","0.8","0.6","0.2","0.1727290233","0.3048423019","0.3784706915","0.1133168519","","","","","","","","","","","75","K","2","","","107","main_expt"
"644","","bandit","186","544820","0.0-147.0-0.0","44123759","wem/bandit_either","A111GZJ896Q9RX","either","5","","","","","","","0","0","1","","0.1864487031","0.4","0.8","0.6","0.2","0.1864487031","0.258150515","0.3945753887","0.1752395656","","","","","","","","","","","72","H","0","img/none_selected.jpg","","108","main_expt"
"724","","bandit","187","547052","0.0-148.0-0.0","44123759","wem/bandit_either","A111GZJ896Q9RX","either","5","","","","","","","0","0","1","0.1859129148","","0.4","0.8","0.6","0.2","","","","","0.2463216238","0.1859129148","0.356827327","0.1862973424","","","","","","","74","J","1","","","109","main_expt"
"963","","bandit","188","549525","0.0-149.0-0.0","44123759","wem/bandit_either","A111GZJ896Q9RX","either","5","","","","","","","0","0","1","0.2431522628","","0.4","0.8","0.6","0.2","","","","","0.2431522628","0.1371624404","0.2344179837","0.2015845776","","","","","","","72","H","0","img/none_selected.jpg","","110","main_expt"
"1405","","bandit","189","552436","0.0-150.0-0.0","44123759","wem/bandit_either","A111GZJ896Q9RX","either","5","","","","","","","0","1","0","","0.2003651753","0.4","0.8","0.6","0.2","0.1757476643","0.1258232978","0.2644823096","0.2003651753","","","","","","","","","","","76","L","3","","","111","main_expt"
"365","","bandit","190","554309","0.0-151.0-0.0","44123759","wem/bandit_either","A111GZJ896Q9RX","either","5","","","","","","","0","0","1","","0.1529967373","0.4","0.8","0.6","0.2","0.2451518953","0.1529967373","0.28311182","0.21392293","","","","","","","","","","","74","J","1","","","112","main_expt"
"619","","bandit","191","556436","0.0-152.0-0.0","44123759","wem/bandit_either","A111GZJ896Q9RX","either","5","","","","","","","0","0","1","","0.2407836715","0.4","0.8","0.6","0.2","0.2407836715","0.148248117","0.2413269532","0.1606798039","","","","","","","","","","","72","H","0","img/none_selected.jpg","","113","main_expt"
"316","","bandit","192","558261","0.0-153.0-0.0","44123759","wem/bandit_either","A111GZJ896Q9RX","either","5","","","","","","","0","0","1","","0.1562208239","0.4","0.8","0.6","0.2","0.3099317417","0.1562208239","0.3100969134","0.2095980235","","","","","","","","","","","74","J","1","","","114","main_expt"
"613","","bandit","193","560380","0.0-154.0-0.0","44123759","wem/bandit_either","A111GZJ896Q9RX","either","5","","","","","","","0","0","1","0.3180754701","","0.4","0.8","0.6","0.2","","","","","0.3180754701","0.2138032898","0.329842252","0.2550279667","","","","","","","72","H","0","img/none_selected.jpg","","115","main_expt"
"549","","bandit","194","562436","0.0-155.0-0.0","44123759","wem/bandit_either","A111GZJ896Q9RX","either","5","","","","","","","1","0","0","0.3223706096","","0.4","0.8","0.6","0.2","","","","","0.2919742107","0.2331260325","0.3223706096","0.2471764387","","","","","","","75","K","2","","","116","main_expt"
"501","","bandit","195","564445","0.0-156.0-0.0","44123759","wem/bandit_either","A111GZJ896Q9RX","either","5","","","","","","","1","0","0","0.3098408215","","0.4","0.8","0.6","0.2","","","","","0.2799774295","0.1826309729","0.3098408215","0.2730878341","","","","","","","75","K","2","","","117","main_expt"
"315","","bandit","196","566270","0.0-157.0-0.0","44123759","wem/bandit_either","A111GZJ896Q9RX","either","5","","","","","","","1","0","0","0.2974554567","","0.4","0.8","0.6","0.2","","","","","0.2646714695","0.1511269107","0.2974554567","0.2071462199","","","","","","","75","K","2","","","118","main_expt"
"624","","bandit","197","568404","0.0-158.0-0.0","44123759","wem/bandit_either","A111GZJ896Q9RX","either","5","","","","","","","1","0","0","0.3598468986","","0.4","0.8","0.6","0.2","","","","","0.3179839519","0.1559979654","0.3598468986","0.2275232499","","","","","","","75","K","2","","","119","main_expt"
"348","","bandit","198","570262","0.0-159.0-0.0","44123759","wem/bandit_either","A111GZJ896Q9RX","either","5","","","","","","","0","0","1","","0.2984373086","0.4","0.8","0.6","0.2","0.3302262658","0.1463004055","0.2984373086","0.2767559596","","","","","","","","","","","75","K","2","","","120","main_expt"
"195","","bandit","199","571965","0.0-160.0-0.0","44123759","wem/bandit_either","A111GZJ896Q9RX","either","5","","","","","","","0","0","1","0.3448590315","","0.4","0.8","0.6","0.2","","","","","0.3500549905","0.1418195479","0.2973090059","0.3448590315","","","","","","","76","L","3","","","121","main_expt"
"637","","bandit","200","574110","0.0-161.0-0.0","44123759","wem/bandit_either","A111GZJ896Q9RX","either","5","","","","","","","1","0","0","0.1270782113","","0.4","0.8","0.6","0.2","","","","","0.2686616284","0.1270782113","0.3382791822","0.3593301016","","","","","","","74","J","1","","","122","main_expt"
"179","","bandit","201","575799","0.0-162.0-0.0","44123759","wem/bandit_either","A111GZJ896Q9RX","either","5","","","","","","","0","0","1","","0.1207154071","0.4","0.8","0.6","0.2","0.2277230314","0.1207154071","0.3154347028","0.3680529171","","","","","","","","","","","74","J","1","","","123","main_expt"
"259","","bandit","202","577567","0.0-163.0-0.0","44123759","wem/bandit_either","A111GZJ896Q9RX","either","5","","","","","","","0","1","0","","0.3287090939","0.4","0.8","0.6","0.2","0.3287090939","0.1229329119","0.2966737815","0.3476523483","","","","","","","","","","","72","H","0","img/none_selected.jpg","","124","main_expt"
"465","","bandit","203","579543","0.0-164.0-0.0","44123759","wem/bandit_either","A111GZJ896Q9RX","either","5","","","","","","","0","0","1","0.09241122996","","0.4","0.8","0.6","0.2","","","","","0.3687339586","0.09241122996","0.3094831126","0.3564603465","","","","","","","74","J","1","","","125","main_expt"
"394","","bandit","204","581447","0.0-165.0-0.0","44123759","wem/bandit_either","A111GZJ896Q9RX","either","5","","","","","","","1","0","0","0.3550684458","","0.4","0.8","0.6","0.2","","","","","0.3836195774","0.08418962236","0.2488993205","0.3550684458","","","","","","","76","L","3","","","126","main_expt"
"347","","bandit","205","583302","0.0-166.0-0.0","44123759","wem/bandit_either","A111GZJ896Q9RX","either","5","","","","","","","0","0","1","","0.3235559827","0.4","0.8","0.6","0.2","0.3617365958","0.154715772","0.1953487027","0.3235559827","","","","","","","","","","","76","L","3","","","127","main_expt"
"859","","bandit","206","585671","0.0-167.0-0.0","44123759","wem/bandit_either","A111GZJ896Q9RX","either","5","","","","","","","0","0","1","","0.1556709078","0.4","0.8","0.6","0.2","0.3235283493","0.1556709078","0.2171889907","0.312087491","","","","","","","","","","","74","J","1","","","128","main_expt"
"619","","bandit","207","587799","0.0-168.0-0.0","44123759","wem/bandit_either","A111GZJ896Q9RX","either","5","","","","","","","1","0","0","0.3453830546","","0.4","0.8","0.6","0.2","","","","","0.3453830546","0.1214200615","0.2467699801","0.2843272188","","","","","","","72","H","0","img/none_selected.jpg","","129","main_expt"
"578","","bandit","208","589887","0.0-169.0-0.0","44123759","wem/bandit_either","A111GZJ896Q9RX","either","5","","","","","","","0","0","1","0.2128416856","","0.4","0.8","0.6","0.2","","","","","0.3242747857","0.1377283829","0.2814443482","0.2128416856","","","","","","","76","L","3","","","130","main_expt"
"441","","bandit","209","591840","0.0-170.0-0.0","44123759","wem/bandit_either","A111GZJ896Q9RX","either","5","","","","","","","0","1","0","","0.3417201858","0.4","0.8","0.6","0.2","0.3417201858","0.1397421628","0.2834176508","0.2403879813","","","","","","","","","","","72","H","0","img/none_selected.jpg","","131","main_expt"
"386","","bandit","210","593735","0.0-171.0-0.0","44123759","wem/bandit_either","A111GZJ896Q9RX","either","5","","","","","","","0","0","1","","0.2811421594","0.4","0.8","0.6","0.2","0.3498614837","0.1061875113","0.2429908031","0.2811421594","","","","","","","","","","","76","L","3","","","132","main_expt"
"363","","bandit","211","595607","0.0-172.0-0.0","44123759","wem/bandit_either","A111GZJ896Q9RX","either","5","","","","","","","0","0","1","","0.3053559495","0.4","0.8","0.6","0.2","0.3134828643","0.07774811701","0.3053559495","0.3002858371","","","","","","","","","","","75","K","2","","","133","main_expt"
"138","","bandit","212","597256","0.0-173.0-0.0","44123759","wem/bandit_either","A111GZJ896Q9RX","either","5","","","","","","","0","0","1","","0.08211281178","0.4","0.8","0.6","0.2","0.3554593188","0.08211281178","0.2693478067","0.277406375","","","","","","","","","","","74","J","1","","","134","main_expt"
"833","","bandit","213","599600","0.0-174.0-0.0","44123759","wem/bandit_either","A111GZJ896Q9RX","either","5","","","","","","","0","0","1","","0.2897147582","0.4","0.8","0.6","0.2","0.3150900126","0.1123817552","0.3369166079","0.2897147582","","","","","","","","","","","76","L","3","","","135","main_expt"
"346","","bandit","214","601456","0.0-175.0-0.0","44123759","wem/bandit_either","A111GZJ896Q9RX","either","5","","","","","","","0","0","1","","0.268603144","0.4","0.8","0.6","0.2","0.3199395785","0.1478339482","0.268603144","0.3590576628","","","","","","","","","","","75","K","2","","","136","main_expt"
"458","","bandit","215","603423","0.0-176.0-0.0","44123759","wem/bandit_either","A111GZJ896Q9RX","either","5","","","","","","","1","0","0","0.3822427384","","0.4","0.8","0.6","0.2","","","","","0.33362357","0.1374936615","0.2373427956","0.3822427384","","","","","","","76","L","3","","","137","main_expt"
"298","","bandit","216","605232","0.0-177.0-0.0","44123759","wem/bandit_either","A111GZJ896Q9RX","either","5","","","","","","","0","1","0","","0.3410071165","0.4","0.8","0.6","0.2","0.3611324022","0.159761955","0.2206869265","0.3410071165","","","","","","","","","","","76","L","3","","","138","main_expt"
"258","","bandit","217","606999","0.0-178.0-0.0","44123759","wem/bandit_either","A111GZJ896Q9RX","either","5","","","","","","","0","0","1","0.2177966349","","0.4","0.8","0.6","0.2","","","","","0.3504145086","0.1363721132","0.2177966349","0.3738014659","","","","","","","75","K","2","","","139","main_expt"
"764","","bandit","218","609273","0.0-179.0-0.0","44123759","wem/bandit_either","A111GZJ896Q9RX","either","5","","","","","","","0","0","1","","0.422575493","0.4","0.8","0.6","0.2","0.309774603","0.1031445192","0.2387685432","0.422575493","","","","","","","","","","","76","L","3","","","140","main_expt"
"449","","bandit","219","611233","0.0-180.0-0.0","44123759","wem/bandit_either","A111GZJ896Q9RX","either","5","","","","","","","1","0","0","0.2575087366","","0.4","0.8","0.6","0.2","","","","","0.3506531288","0.09805286369","0.2575087366","0.4439129864","","","","","","","75","K","2","","","141","main_expt"
"352","","bandit","220","613096","0.0-181.0-0.0","44123759","wem/bandit_either","A111GZJ896Q9RX","either","5","","","","","","","1","0","0","0.2392038972","","0.4","0.8","0.6","0.2","","","","","0.2965027242","0.1149002948","0.2392038972","0.4323802182","","","","","","","75","K","2","","","142","main_expt"
"377","","bandit","221","614984","0.0-182.0-0.0","44123759","wem/bandit_either","A111GZJ896Q9RX","either","5","","","","","","","0","0","1","0.2216470548","","0.4","0.8","0.6","0.2","","","","","0.2087517366","0.1209542099","0.2216470548","0.4358412593","","","","","","","75","K","2","","","143","main_expt"
"329","","bandit","222","616824","0.0-183.0-0.0","44123759","wem/bandit_either","A111GZJ896Q9RX","either","5","","","","","","","0","0","1","0.1202521083","","0.4","0.8","0.6","0.2","","","","","0.2313605626","0.1202521083","0.2224896139","0.4407373256","","","","","","","74","J","1","","","144","main_expt"
"386","","bandit","223","618720","0.0-184.0-0.0","44123759","wem/bandit_either","A111GZJ896Q9RX","either","5","","","","","","","0","0","1","","0.1785565547","0.4","0.8","0.6","0.2","0.1785565547","0.1619743669","0.1925605464","0.4661091035","","","","","","","","","","","72","H","0","img/none_selected.jpg","","145","main_expt"
"298","","bandit","224","620529","0.0-185.0-0.0","44123759","wem/bandit_either","A111GZJ896Q9RX","either","5","","","","","","","0","0","1","0.2069800611","","0.4","0.8","0.6","0.2","","","","","0.1770660648","0.1664631043","0.2069800611","0.4637097668","","","","","","","75","K","2","","","146","main_expt"
"370","","bandit","225","622409","0.0-186.0-0.0","44123759","wem/bandit_either","A111GZJ896Q9RX","either","5","","","","","","","0","0","1","","0.4700491642","0.4","0.8","0.6","0.2","0.1063371611","0.1669241763","0.2489662189","0.4700491642","","","","","","","","","","","76","L","3","","","147","main_expt"
"601","","bandit","226","624520","0.0-187.0-0.0","44123759","wem/bandit_either","A111GZJ896Q9RX","either","5","","","","","","","0","0","1","0.1581456949","","0.4","0.8","0.6","0.2","","","","","0.1216370817","0.1581456949","0.1946464158","0.4648109734","","","","","","","74","J","1","","","148","main_expt"
"178","","bandit","227","626209","0.0-188.0-0.0","44123759","wem/bandit_either","A111GZJ896Q9RX","either","5","","","","","","","0","0","1","0.1826562491","","0.4","0.8","0.6","0.2","","","","","0.1024256959","0.1698392466","0.1826562491","0.4635511513","","","","","","","75","K","2","","","149","main_expt"
"209","","bandit","228","627927","0.0-189.0-0.0","44123759","wem/bandit_either","A111GZJ896Q9RX","either","5","","","","","","","0","1","0","","0.1371094633","0.4","0.8","0.6","0.2","0.1371094633","0.2140114634","0.1750473563","0.4445017148","","","","","","","","","","","72","H","0","img/none_selected.jpg","","150","main_expt"
"267","","bandit","229","629705","0.0-190.0-0.0","44123759","wem/bandit_either","A111GZJ896Q9RX","either","5","","","","","","","0","1","0","","0.4434799742","0.4","0.8","0.6","0.2","0.1702433702","0.2392960001","0.1109536645","0.4434799742","","","","","","","","","","","76","L","3","","","151","main_expt"
"240","","bandit","230","631457","0.0-191.0-0.0","44123759","wem/bandit_either","A111GZJ896Q9RX","either","5","","","","","","","0","0","1","0.1143086707","","0.4","0.8","0.6","0.2","","","","","0.1860489046","0.2095863317","0.1143086707","0.4451665291","","","","","","","75","K","2","","","152","main_expt"
"379","","bandit","231","633344","0.0-192.0-0.0","44123759","wem/bandit_either","A111GZJ896Q9RX","either","5","","","","","","","0","0","1","0.2543258611","","0.4","0.8","0.6","0.2","","","","","0.2117094388","0.2543258611","0.1236290712","0.4401532833","","","","","","","74","J","1","","","153","main_expt"
"362","","bandit","232","635216","0.0-193.0-0.0","44123759","wem/bandit_either","A111GZJ896Q9RX","either","5","","","","","","","1","0","0","0.1600695342","","0.4","0.8","0.6","0.2","","","","","0.2072389033","0.2602259906","0.1600695342","0.4516855879","","","","","","","75","K","2","","","154","main_expt"
"306","","bandit","233","637033","0.0-194.0-0.0","44123759","wem/bandit_either","A111GZJ896Q9RX","either","5","","","","","","","0","0","1","","0.1770288166","0.4","0.8","0.6","0.2","0.1986333914","0.2750581274","0.1770288166","0.4480264808","","","","","","","","","","","75","K","2","","","155","main_expt"
"448","","bandit","234","638992","0.0-195.0-0.0","44123759","wem/bandit_either","A111GZJ896Q9RX","either","5","","","","","","","0","0","1","0.2054640346","","0.4","0.8","0.6","0.2","","","","","0.2054640346","0.2438045727","0.1761817894","0.4260414265","","","","","","","72","H","0","img/none_selected.jpg","","156","main_expt"
"684","","bandit","235","641184","0.0-196.0-0.0","44123759","wem/bandit_either","A111GZJ896Q9RX","either","5","","","","","","","1","0","0","0.4365201507","","0.4","0.8","0.6","0.2","","","","","0.1810715383","0.2857025143","0.1998830888","0.4365201507","","","","","","","76","L","3","","","157","main_expt"
"426","","bandit","236","643121","0.0-197.0-0.0","44123759","wem/bandit_either","A111GZJ896Q9RX","either","5","","","","","","","0","0","1","","0.4076244479","0.4","0.8","0.6","0.2","0.2118906364","0.2887719476","0.2150354531","0.4076244479","","","","","","","","","","","76","L","3","","","158","main_expt"
"394","","bandit","237","645025","0.0-198.0-0.0","44123759","wem/bandit_either","A111GZJ896Q9RX","either","5","","","","","","","0","0","1","0.2293976715","","0.4","0.8","0.6","0.2","","","","","0.2293976715","0.2859462397","0.2221069796","0.403953851","","","","","","","72","H","0","img/none_selected.jpg","","159","main_expt"
"586","","bandit","238","647121","0.0-199.0-0.0","44123759","wem/bandit_either","A111GZJ896Q9RX","either","5","","","","","","","0","0","1","0.207432816","","0.4","0.8","0.6","0.2","","","","","0.2186051381","0.207432816","0.2627335039","0.4282135537","","","","","","","74","J","1","","","160","main_expt"
"433","","bandit","239","649065","0.0-200.0-0.0","44123759","wem/bandit_either","A111GZJ896Q9RX","either","5","","","","","","","0","0","1","","0.4479073124","0.4","0.8","0.6","0.2","0.2175927206","0.1611694724","0.2922457848","0.4479073124","","","","","","","","","","","76","L","3","","","161","main_expt"
"610","","bandit","240","651186","0.0-201.0-0.0","44123759","wem/bandit_either","A111GZJ896Q9RX","either","5","","","","","","","0","0","1","","0.2370404117","0.4","0.8","0.6","0.2","0.2370404117","0.14378348","0.3040212123","0.4456201243","","","","","","","","","","","72","H","0","img/none_selected.jpg","","162","main_expt"
"1290","","bandit","241","653986","0.0-202.0-0.0","44123759","wem/bandit_either","A111GZJ896Q9RX","either","5","","","","","","","0","0","1","0.1707099899","","0.4","0.8","0.6","0.2","","","","","0.2778780432","0.1707099899","0.2933359027","0.4384930657","","","","","","","74","J","1","","","163","main_expt"
"488","","bandit","242","655985","0.0-203.0-0.0","44123759","wem/bandit_either","A111GZJ896Q9RX","either","5","","","","","","","0","0","1","","0.2643388611","0.4","0.8","0.6","0.2","0.2643388611","0.1933693166","0.2388203062","0.4231568034","","","","","","","","","","","72","H","0","img/none_selected.jpg","","164","main_expt"
"352","","bandit","243","657849","0.0-204.0-0.0","44123759","wem/bandit_either","A111GZJ896Q9RX","either","5","","","","","","","0","1","0","","0.2646204916","0.4","0.8","0.6","0.2","0.1967204453","0.2406324952","0.2646204916","0.4412535734","","","","","","","","","","","75","K","2","","","165","main_expt"
"146","","bandit","244","659505","0.0-205.0-0.0","44123759","wem/bandit_either","A111GZJ896Q9RX","either","5","","","","","","","0","0","1","","0.438364003","0.4","0.8","0.6","0.2","0.1567937345","0.2650462377","0.2591758032","0.438364003","","","","","","","","","","","76","L","3","","","166","main_expt"
"411","","bandit","245","661425","0.0-206.0-0.0","44123759","wem/bandit_either","A111GZJ896Q9RX","either","5","","","","","","","0","0","1","","0.1201482918","0.4","0.8","0.6","0.2","0.1201482918","0.245875583","0.1955934818","0.4290991351","","","","","","","","","","","72","H","0","img/none_selected.jpg","","167","main_expt"
"898","","bandit","246","663833","0.0-207.0-0.0","44123759","wem/bandit_either","A111GZJ896Q9RX","either","5","","","","","","","1","0","0","0.257303599","","0.4","0.8","0.6","0.2","","","","","0.0936051119","0.257303599","0.2090603634","0.4510860662","","","","","","","74","J","1","","","168","main_expt"
"330","","bandit","247","665674","0.0-208.0-0.0","44123759","wem/bandit_either","A111GZJ896Q9RX","either","5","","","","","","","0","0","1","0.2993732043","","0.4","0.8","0.6","0.2","","","","","0.08775096918","0.2993732043","0.2678479696","0.4491424364","","","","","","","74","J","1","","","169","main_expt"
"395","","bandit","248","667578","0.0-209.0-0.0","44123759","wem/bandit_either","A111GZJ896Q9RX","either","5","","","","","","","0","0","1","","0.4332244901","0.4","0.8","0.6","0.2","0.06743429675","0.3388977639","0.2532125956","0.4332244901","","","","","","","","","","","76","L","3","","","170","main_expt"
"338","","bandit","249","669426","0.0-210.0-0.0","44123759","wem/bandit_either","A111GZJ896Q9RX","either","5","","","","","","","0","0","1","","0.2568627054","0.4","0.8","0.6","0.2","0.05979118822","0.2947926635","0.2568627054","0.4405036994","","","","","","","","","","","75","K","2","","","171","main_expt"
"280","","bandit","250","671218","0.0-211.0-0.0","44123759","wem/bandit_either","A111GZJ896Q9RX","either","5","","","","","","","0","0","1","","0.2892529657","0.4","0.8","0.6","0.2","0.03200499914","0.2892529657","0.2451563353","0.4358521759","","","","","","","","","","","74","J","1","","","172","main_expt"
"275","","bandit","251","673002","0.0-212.0-0.0","44123759","wem/bandit_either","A111GZJ896Q9RX","either","5","","","","","","","0","0","1","0.04613358223","","0.4","0.8","0.6","0.2","","","","","0.04613358223","0.2571917514","0.3003395367","0.4471617722","","","","","","","72","H","0","img/none_selected.jpg","","173","main_expt"
"305","","bandit","252","674818","0.0-213.0-0.0","44123759","wem/bandit_either","A111GZJ896Q9RX","either","5","","","","","","","0","0","1","0.244173221","","0.4","0.8","0.6","0.2","","","","","0.05969677181","0.244173221","0.2545998681","0.4560251174","","","","","","","74","J","1","","","174","main_expt"
"313","","bandit","253","676642","0.0-214.0-0.0","44123759","wem/bandit_either","A111GZJ896Q9RX","either","5","","","","","","","0","0","1","","0.4379349024","0.4","0.8","0.6","0.2","0.05930066603","0.2038098688","0.3383135611","0.4379349024","","","","","","","","","","","76","L","3","","","175","main_expt"
"329","","bandit","254","678482","0.0-215.0-0.0","44123759","wem/bandit_either","A111GZJ896Q9RX","either","5","","","","","","","0","1","0","","0.3880627729","0.4","0.8","0.6","0.2","0.08110879181","0.2053823003","0.3880627729","0.4328841116","","","","","","","","","","","75","K","2","","","176","main_expt"
"297","","bandit","255","680290","0.0-216.0-0.0","44123759","wem/bandit_either","A111GZJ896Q9RX","either","5","","","","","","","0","0","1","","0.07611568943","0.4","0.8","0.6","0.2","0.07611568943","0.2193083282","0.3920994557","0.3965365967","","","","","","","","","","","72","H","0","img/none_selected.jpg","","177","main_expt"
"298","","bandit","256","682098","0.0-217.0-0.0","44123759","wem/bandit_either","A111GZJ896Q9RX","either","5","","","","","","","0","0","1","0.1904263594","","0.4","0.8","0.6","0.2","","","","","0.1220467165","0.1904263594","0.3882277994","0.3899234309","","","","","","","74","J","1","","","178","main_expt"
"402","","bandit","257","684011","0.0-218.0-0.0","44123759","wem/bandit_either","A111GZJ896Q9RX","either","5","","","","","","","0","0","1","0.1698853315","","0.4","0.8","0.6","0.2","","","","","0.1698853315","0.2212788648","0.3939691408","0.4238443777","","","","","","","72","H","0","img/none_selected.jpg","","179","main_expt"
"352","","bandit","258","685875","0.0-219.0-0.0","44123759","wem/bandit_either","A111GZJ896Q9RX","either","5","","","","","","","0","0","1","0.4074656662","","0.4","0.8","0.6","0.2","","","","","0.1374762061","0.2640717145","0.4074656662","0.4487400994","","","","","","","75","K","2","","","180","main_expt"
"369","","bandit","259","687754","0.0-220.0-0.0","44123759","wem/bandit_either","A111GZJ896Q9RX","either","5","","","","","","","0","1","0","","0.4314573438","0.4","0.8","0.6","0.2","0.09961924189","0.2426483564","0.3724421945","0.4314573438","","","","","","","","","","","76","L","3","","","181","main_expt"
"361","","bandit","260","689626","0.0-221.0-0.0","44123759","wem/bandit_either","A111GZJ896Q9RX","either","5","","","","","","","0","0","1","","0.2998177931","0.4","0.8","0.6","0.2","0.1391043194","0.2001563476","0.2998177931","0.4458059303","","","","","","","","","","","75","K","2","","","182","main_expt"
"306","","bandit","261","691442","0.0-222.0-0.0","44123759","wem/bandit_either","A111GZJ896Q9RX","either","5","","","","","","","0","1","0","","0.4485460149","0.4","0.8","0.6","0.2","0.1336424596","0.2167094124","0.3629728763","0.4485460149","","","","","","","","","","","76","L","3","","","183","main_expt"
"355","","bandit","262","693307","0.0-223.0-0.0","44123759","wem/bandit_either","A111GZJ896Q9RX","either","5","","","","","","","0","0","1","0.2402813617","","0.4","0.8","0.6","0.2","","","","","0.115911235","0.2402813617","0.3763603645","0.4078350507","","","","","","","74","J","1","","","184","main_expt"
"393","","bandit","263","695210","0.0-224.0-0.0","44123759","wem/bandit_either","A111GZJ896Q9RX","either","5","","","","","","","0","0","1","","0.3472982705","0.4","0.8","0.6","0.2","0.1394203739","0.2745112141","0.3472982705","0.3805788675","","","","","","","","","","","75","K","2","","","185","main_expt"
"338","","bandit","264","697059","0.0-225.0-0.0","44123759","wem/bandit_either","A111GZJ896Q9RX","either","5","","","","","","","0","0","1","","0.4236809331","0.4","0.8","0.6","0.2","0.1557479742","0.2774566956","0.3095995051","0.4236809331","","","","","","","","","","","76","L","3","","","186","main_expt"
"314","","bandit","265","698883","0.0-226.0-0.0","44123759","wem/bandit_either","A111GZJ896Q9RX","either","5","","","","","","","0","0","1","0.1823611596","","0.4","0.8","0.6","0.2","","","","","0.1823611596","0.2876011691","0.2567332284","0.4058627081","","","","","","","72","H","0","img/none_selected.jpg","","187","main_expt"
"348","","bandit","266","700743","0.0-227.0-0.0","44123759","wem/bandit_either","A111GZJ896Q9RX","either","5","","","","","","","0","0","1","","0.3913346521","0.4","0.8","0.6","0.2","0.1854179297","0.2947112378","0.2555256861","0.3913346521","","","","","","","","","","","76","L","3","","","188","main_expt"
"821","","bandit","267","703075","0.0-228.0-0.0","44123759","wem/bandit_either","A111GZJ896Q9RX","either","5","","","","","","","0","0","1","0.2009875262","","0.4","0.8","0.6","0.2","","","","","0.1875645599","0.2581494","0.2009875262","0.3760164219","","","","","","","75","K","2","","","189","main_expt"
"433","","bandit","268","705019","0.0-229.0-0.0","44123759","wem/bandit_either","A111GZJ896Q9RX","either","5","","","","","","","0","0","1","0.1756323468","","0.4","0.8","0.6","0.2","","","","","0.2018323604","0.1756323468","0.2055488595","0.3327352817","","","","","","","74","J","1","","","190","main_expt"
"369","","bandit","269","706898","0.0-230.0-0.0","44123759","wem/bandit_either","A111GZJ896Q9RX","either","5","","","","","","","0","0","1","0.2521570866","","0.4","0.8","0.6","0.2","","","","","0.221094727","0.2521570866","0.1506387864","0.3015177445","","","","","","","74","J","1","","","191","main_expt"
"474","","bandit","270","708883","0.0-231.0-0.0","44123759","wem/bandit_either","A111GZJ896Q9RX","either","5","","","","","","","0","0","1","0.2320570195","","0.4","0.8","0.6","0.2","","","","","0.2320570195","0.2964739449","0.2027442266","0.2773298268","","","","","","","72","H","0","img/none_selected.jpg","","192","main_expt"
"515","","bandit","271","710908","0.0-232.0-0.0","44123759","wem/bandit_either","A111GZJ896Q9RX","either","5","","","","","","","0","1","0","","0.1969137872","0.4","0.8","0.6","0.2","0.2948950962","0.2612966838","0.1969137872","0.2836613797","","","","","","","","","","","75","K","2","","","193","main_expt"
"360","","bandit","272","712780","0.0-233.0-0.0","44123759","wem/bandit_either","A111GZJ896Q9RX","either","5","","","","","","","0","1","0","","0.2799350415","0.4","0.8","0.6","0.2","0.2602906927","0.3292914436","0.2114994946","0.2799350415","","","","","","","","","","","76","L","3","","","194","main_expt"
"209","","bandit","273","714499","0.0-234.0-0.0","44123759","wem/bandit_either","A111GZJ896Q9RX","either","5","","","","","","","0","0","1","0.4070308407","","0.4","0.8","0.6","0.2","","","","","0.1771499101","0.4070308407","0.2467939011","0.2068597772","","","","","","","74","J","1","","","195","main_expt"
"338","","bandit","274","716346","0.0-235.0-0.0","44123759","wem/bandit_either","A111GZJ896Q9RX","either","5","","","","","","","0","1","0","","0.1746274925","0.4","0.8","0.6","0.2","0.1746274925","0.3494820729","0.2731811988","0.2679469531","","","","","","","","","","","72","H","0","img/none_selected.jpg","","196","main_expt"
"330","","bandit","275","718188","0.0-236.0-0.0","44123759","wem/bandit_either","A111GZJ896Q9RX","either","5","","","","","","","0","0","1","0.3571939809","","0.4","0.8","0.6","0.2","","","","","0.193224684","0.3571939809","0.2512114903","0.2448078588","","","","","","","74","J","1","","","197","main_expt"
"409","","bandit","276","720108","0.0-237.0-0.0","44123759","wem/bandit_either","A111GZJ896Q9RX","either","5","","","","","","","0","0","1","0.382430028","","0.4","0.8","0.6","0.2","","","","","0.1771509929","0.382430028","0.190651112","0.2433987968","","","","","","","74","J","1","","","198","main_expt"
"306","","bandit","277","721925","0.0-238.0-0.0","44123759","wem/bandit_either","A111GZJ896Q9RX","either","5","","","","","","","0","0","1","","0.2653624242","0.4","0.8","0.6","0.2","0.2466668772","0.3353474301","0.1701189695","0.2653624242","","","","","","","","","","","76","L","3","","","199","main_expt"
"376","","bandit","278","723811","0.0-239.0-0.0","44123759","wem/bandit_either","A111GZJ896Q9RX","either","5","","","","","","","0","1","0","","0.1656975488","0.4","0.8","0.6","0.2","0.2477816141","0.3321976498","0.1656975488","0.2551376492","","","","","","","","","","","75","K","2","","","200","main_expt"
"187","","bandit","279","725506","0.0-240.0-0.0","44123759","wem/bandit_either","A111GZJ896Q9RX","either","5","","","","","","","0","0","1","0.3218117355","","0.4","0.8","0.6","0.2","","","","","0.2744817861","0.3218117355","0.1647298582","0.2660639347","","","","","","","74","J","1","","","201","main_expt"
"378","","bandit","280","727396","0.0-241.0-0.0","44123759","wem/bandit_either","A111GZJ896Q9RX","either","5","","","","","","","0","0","1","","0.2220900594","0.4","0.8","0.6","0.2","0.3043062986","0.2949214693","0.1242041815","0.2220900594","","","","","","","","","","","76","L","3","","","202","main_expt"
"328","","bandit","281","729237","0.0-242.0-0.0","44123759","wem/bandit_either","A111GZJ896Q9RX","either","5","","","","","","","1","0","0","0.300077299","","0.4","0.8","0.6","0.2","","","","","0.272185569","0.300077299","0.1684487429","0.1543353204","","","","","","","74","J","1","","","203","main_expt"
"257","","bandit","282","731003","0.0-243.0-0.0","44123759","wem/bandit_either","A111GZJ896Q9RX","either","5","","","","","","","0","0","1","0.2866085977","","0.4","0.8","0.6","0.2","","","","","0.2610767704","0.2866085977","0.1666409686","0.1605482003","","","","","","","74","J","1","","","204","main_expt"
"265","","bandit","283","732780","0.0-244.0-0.0","44123759","wem/bandit_either","A111GZJ896Q9RX","either","5","","","","","","","1","0","0","0.2832615928","","0.4","0.8","0.6","0.2","","","","","0.2832615928","0.2695546272","0.2197286508","0.1406914754","","","","","","","72","H","0","img/none_selected.jpg","","205","main_expt"
"299","","bandit","284","734587","0.0-245.0-0.0","44123759","wem/bandit_either","A111GZJ896Q9RX","either","5","","","","","","","0","0","1","0.300913322","","0.4","0.8","0.6","0.2","","","","","0.300913322","0.2622178416","0.2754509052","0.1138947463","","","","","","","72","H","0","img/none_selected.jpg","","206","main_expt"
"338","","bandit","285","736437","0.0-246.0-0.0","44123759","wem/bandit_either","A111GZJ896Q9RX","either","5","","","","","","","0","1","0","","0.1096702189","0.4","0.8","0.6","0.2","0.3260258847","0.2498186578","0.2664869377","0.1096702189","","","","","","","","","","","76","L","3","","","207","main_expt"
"369","","bandit","286","738316","0.0-247.0-0.0","44123759","wem/bandit_either","A111GZJ896Q9RX","either","5","","","","","","","0","1","0","","0.3173829003","0.4","0.8","0.6","0.2","0.3173829003","0.2335358635","0.2686565688","0.09922356593","","","","","","","","","","","72","H","0","img/none_selected.jpg","","208","main_expt"
"280","","bandit","287","740109","0.0-248.0-0.0","44123759","wem/bandit_either","A111GZJ896Q9RX","either","5","","","","","","","0","0","1","0.2638942681","","0.4","0.8","0.6","0.2","","","","","0.3153846937","0.2638942681","0.2380255957","0.101567507","","","","","","","74","J","1","","","209","main_expt"
"303","","bandit","288","741924","0.0-249.0-0.0","44123759","wem/bandit_either","A111GZJ896Q9RX","either","5","","","","","","","1","0","0","0.2507768727","","0.4","0.8","0.6","0.2","","","","","0.3010876552","0.2526926237","0.2507768727","0.08675379402","","","","","","","75","K","2","","","210","main_expt"
"336","","bandit","289","743773","0.0-250.0-0.0","44123759","wem/bandit_either","A111GZJ896Q9RX","either","5","","","","","","","0","0","1","0.2685142319","","0.4","0.8","0.6","0.2","","","","","0.2864900033","0.2740367769","0.2685142319","0.07512021269","","","","","","","75","K","2","","","211","main_expt"
"415","","bandit","290","745700","0.0-251.0-0.0","44123759","wem/bandit_either","A111GZJ896Q9RX","either","5","","","","","","","0","0","1","0.260511483","","0.4","0.8","0.6","0.2","","","","","0.3163372434","0.2440836191","0.260511483","0.08144254236","","","","","","","75","K","2","","","212","main_expt"
"345","","bandit","291","747556","0.0-252.0-0.0","44123759","wem/bandit_either","A111GZJ896Q9RX","either","5","","","","","","","0","0","1","0.2341903104","","0.4","0.8","0.6","0.2","","","","","0.2701305136","0.2341903104","0.2579605047","0.06585574052","","","","","","","74","J","1","","","213","main_expt"
"193","","bandit","292","749261","0.0-253.0-0.0","44123759","wem/bandit_either","A111GZJ896Q9RX","either","5","","","","","","","0","1","0","","0.2470456849","0.4","0.8","0.6","0.2","0.302599165","0.2097526345","0.2470456849","0.08686614453","","","","","","","","","","","75","K","2","","","214","main_expt"
"225","","bandit","293","750997","0.0-254.0-0.0","44123759","wem/bandit_either","A111GZJ896Q9RX","either","5","","","","","","","0","0","1","","0.1068548489","0.4","0.8","0.6","0.2","0.2968005471","0.1796882487","0.3285383036","0.1068548489","","","","","","","","","","","76","L","3","","","215","main_expt"
"344","","bandit","294","752853","0.0-255.0-0.0","44123759","wem/bandit_either","A111GZJ896Q9RX","either","5","","","","","","","0","0","1","","0.2835536598","0.4","0.8","0.6","0.2","0.2835536598","0.2237900511","0.3780044773","0.1211736082","","","","","","","","","","","72","H","0","img/none_selected.jpg","","216","main_expt"
"1409","","bandit","295","755773","0.0-256.0-0.0","44123759","wem/bandit_either","A111GZJ896Q9RX","either","5","","","","","","","0","0","1","","0.2520762718","0.4","0.8","0.6","0.2","0.2520762718","0.2265358539","0.3939228946","0.09343701815","","","","","","","","","","","72","H","0","img/none_selected.jpg","","217","main_expt"
"270","","bandit","296","757557","0.0-257.0-0.0","44123759","wem/bandit_either","A111GZJ896Q9RX","either","5","","","","","","","0","0","1","","0.1001055386","0.4","0.8","0.6","0.2","0.2562699476","0.2364013437","0.3198270803","0.1001055386","","","","","","","","","","","76","L","3","","","218","main_expt"
"1359","","bandit","297","760429","0.0-258.0-0.0","44123759","wem/bandit_either","A111GZJ896Q9RX","either","5","","","","","","","1","0","0","0.2810560361","","0.4","0.8","0.6","0.2","","","","","0.3002431464","0.2810560361","0.3502502288","0.09524874014","","","","","","","74","J","1","","","219","main_expt"
"312","","bandit","298","762253","0.0-259.0-0.0","44123759","wem/bandit_either","A111GZJ896Q9RX","either","5","","","","","","","1","0","0","0.3027429446","","0.4","0.8","0.6","0.2","","","","","0.3365413303","0.3027429446","0.3402456168","0.1304899995","","","","","","","74","J","1","","","220","main_expt"
"449","","bandit","299","764214","0.0-260.0-0.0","44123759","wem/bandit_either","A111GZJ896Q9RX","either","5","","","","","","","0","0","1","","0.3132134988","0.4","0.8","0.6","0.2","0.2946103072","0.3132134988","0.3770059732","0.1272814923","","","","","","","","","","","74","J","1","","","221","main_expt"
"344","","bandit","300","766070","0.0-261.0-0.0","44123759","wem/bandit_either","A111GZJ896Q9RX","either","5","","","","","","","0","0","1","0.3267284332","","0.4","0.8","0.6","0.2","","","","","0.3267284332","0.2424821827","0.3864421123","0.1654407056","","","","","","","72","H","0","img/none_selected.jpg","","222","main_expt"
"407","","bandit","301","767989","0.0-262.0-0.0","44123759","wem/bandit_either","A111GZJ896Q9RX","either","5","","","","","","","0","0","1","","0.1788325852","0.4","0.8","0.6","0.2","0.3175152631","0.2595367495","0.4205211408","0.1788325852","","","","","","","","","","","76","L","3","","","223","main_expt"
"311","","bandit","302","769812","0.0-263.0-0.0","44123759","wem/bandit_either","A111GZJ896Q9RX","either","5","","","","","","","0","0","1","0.328819141","","0.4","0.8","0.6","0.2","","","","","0.3192400935","0.328819141","0.4131889957","0.1736623033","","","","","","","74","J","1","","","224","main_expt"
"345","","bandit","303","771669","0.0-264.0-0.0","44123759","wem/bandit_either","A111GZJ896Q9RX","either","5","","","","","","","0","0","1","0.3096750449","","0.4","0.8","0.6","0.2","","","","","0.3096750449","0.356121412","0.4001513574","0.1721911447","","","","","","","72","H","0","img/none_selected.jpg","","225","main_expt"
"417","","bandit","304","773598","0.0-265.0-0.0","44123759","wem/bandit_either","A111GZJ896Q9RX","either","5","","","","","","","0","0","1","0.3963688582","","0.4","0.8","0.6","0.2","","","","","0.3142833063","0.3394019192","0.3963688582","0.2133818582","","","","","","","75","K","2","","","226","main_expt"
"1656","","bandit","305","776766","0.0-266.0-0.0","44123759","wem/bandit_either","A111GZJ896Q9RX","either","5","","","","","","","0","0","1","0.2860553004","","0.4","0.8","0.6","0.2","","","","","0.3096885674","0.2860553004","0.3979714495","0.2620007467","","","","","","","74","J","1","","","227","main_expt"
"367","","bandit","306","778645","0.0-267.0-0.0","44123759","wem/bandit_either","A111GZJ896Q9RX","either","5","","","","","","","0","0","1","0.3048295172","","0.4","0.8","0.6","0.2","","","","","0.3048295172","0.2967856672","0.3811043637","0.2961930455","","","","","","","72","H","0","img/none_selected.jpg","","228","main_expt"
"247","","bandit","307","780405","0.0-268.0-0.0","44123759","wem/bandit_either","A111GZJ896Q9RX","either","5","","","","","","","0","0","1","","0.3081123415","0.4","0.8","0.6","0.2","0.2553920021","0.2857745529","0.3488149186","0.3081123415","","","","","","","","","","","76","L","3","","","229","main_expt"
"648","","bandit","308","782564","0.0-269.0-0.0","44123759","wem/bandit_either","A111GZJ896Q9RX","either","5","","","","","","","0","0","1","","0.2883621188","0.4","0.8","0.6","0.2","0.2783794412","0.2589404948","0.2883621188","0.3027177586","","","","","","","","","","","75","K","2","","","230","main_expt"
"881","","bandit","309","784956","0.0-270.0-0.0","44123759","wem/bandit_either","A111GZJ896Q9RX","either","5","","","","","","","0","0","1","","0.2628441024","0.4","0.8","0.6","0.2","0.2735536708","0.2628441024","0.2444465504","0.2495346478","","","","","","","","","","","74","J","1","","","231","main_expt"
"208","","bandit","310","786676","0.0-271.0-0.0","44123759","wem/bandit_either","A111GZJ896Q9RX","either","5","","","","","","","0","0","1","0.2262440502","","0.4","0.8","0.6","0.2","","","","","0.2262440502","0.276537748","0.2996930955","0.2185872191","","","","","","","72","H","0","img/none_selected.jpg","","232","main_expt"
"723","","bandit","311","788909","0.0-272.0-0.0","44123759","wem/bandit_either","A111GZJ896Q9RX","either","5","","","","","","","0","0","1","0.2485723575","","0.4","0.8","0.6","0.2","","","","","0.2171974885","0.2485723575","0.3103031796","0.1874863907","","","","","","","74","J","1","","","233","main_expt"
"608","","bandit","312","791028","0.0-273.0-0.0","44123759","wem/bandit_either","A111GZJ896Q9RX","either","5","","","","","","","0","0","1","0.2971988612","","0.4","0.8","0.6","0.2","","","","","0.2951485073","0.2172766866","0.2971988612","0.2165838284","","","","","","","75","K","2","","","234","main_expt"
"574","","bandit","313","793116","0.0-274.0-0.0","44123759","wem/bandit_either","A111GZJ896Q9RX","either","5","","","","","","","0","0","1","0.1791302586","","0.4","0.8","0.6","0.2","","","","","0.3135740045","0.221542824","0.3266576642","0.1791302586","","","","","","","76","L","3","","","235","main_expt"
"377","","bandit","314","795004","0.0-275.0-0.0","44123759","wem/bandit_either","A111GZJ896Q9RX","either","5","","","","","","","0","0","1","0.2200573756","","0.4","0.8","0.6","0.2","","","","","0.2945285262","0.2200573756","0.3596878827","0.2463713802","","","","","","","74","J","1","","","236","main_expt"
"514","","bandit","315","797029","0.0-276.0-0.0","44123759","wem/bandit_either","A111GZJ896Q9RX","either","5","","","","","","","0","0","1","","0.2797454337","0.4","0.8","0.6","0.2","0.2797454337","0.2146478317","0.3951370387","0.2204623923","","","","","","","","","","","72","H","0","img/none_selected.jpg","","237","main_expt"
"368","","bandit","316","798908","0.0-277.0-0.0","44123759","wem/bandit_either","A111GZJ896Q9RX","either","5","","","","","","","0","0","1","","0.2316256556","0.4","0.8","0.6","0.2","0.266453507","0.2237656472","0.3863552979","0.2316256556","","","","","","","","","","","76","L","3","","","238","main_expt"
"34","","bandit","317","800454","0.0-278.0-0.0","44123759","wem/bandit_either","A111GZJ896Q9RX","either","5","","","","","","","0","0","1","0.2302611888","","0.4","0.8","0.6","0.2","","","","","0.310831157","0.2302611888","0.3962704677","0.2406304147","","","","","","","74","J","1","","","239","main_expt"
"361","","bandit","318","802325","0.0-279.0-0.0","44123759","wem/bandit_either","A111GZJ896Q9RX","either","5","","","","","","","0","1","0","","0.331950591","0.4","0.8","0.6","0.2","0.331950591","0.2253069634","0.3926977495","0.2624476398","","","","","","","","","","","72","H","0","img/none_selected.jpg","","240","main_expt"
"250","","bandit","319","804085","0.0-280.0-0.0","44123759","wem/bandit_either","A111GZJ896Q9RX","either","5","","","","","","","0","0","1","0.3223776605","","0.4","0.8","0.6","0.2","","","","","0.3223776605","0.2523404353","0.3381110468","0.2627099727","","","","","","","72","H","0","img/none_selected.jpg","","241","main_expt"
"266","","bandit","320","805862","0.0-281.0-0.0","44123759","wem/bandit_either","A111GZJ896Q9RX","either","5","","","","","","","0","0","1","0.3213381148","","0.4","0.8","0.6","0.2","","","","","0.3389272588","0.238450381","0.3213381148","0.2262339403","","","","","","","75","K","2","","","242","main_expt"
"391","","bandit","321","807764","0.0-282.0-0.0","44123759","wem/bandit_either","A111GZJ896Q9RX","either","5","","","","","","","0","0","1","0.2476478509","","0.4","0.8","0.6","0.2","","","","","0.4023830898","0.2476478509","0.3395415742","0.2511573395","","","","","","","74","J","1","","","243","main_expt"
"313","","bandit","322","809589","0.0-283.0-0.0","44123759","wem/bandit_either","A111GZJ896Q9RX","either","5","","","","","","","0","0","1","0.3112309098","","0.4","0.8","0.6","0.2","","","","","0.4072225753","0.2603762171","0.3077285799","0.3112309098","","","","","","","76","L","3","","","244","main_expt"
"133","","bandit","323","811232","0.0-284.0-0.0","44123759","wem/bandit_either","A111GZJ896Q9RX","either","5","","","","","","","0","0","1","","0.4047901721","0.4","0.8","0.6","0.2","0.4047901721","0.2778117757","0.269997398","0.3169667097","","","","","","","","","","","72","H","0","img/none_selected.jpg","","245","main_expt"
"567","","bandit","324","813310","0.0-285.0-0.0","44123759","wem/bandit_either","A111GZJ896Q9RX","either","5","","","","","","","0","0","1","0.2571702875","","0.4","0.8","0.6","0.2","","","","","0.4245844383","0.2571702875","0.2896792764","0.3774934029","","","","","","","74","J","1","","","246","main_expt"
"654","","bandit","325","815478","0.0-286.0-0.0","44123759","wem/bandit_either","A111GZJ896Q9RX","either","5","","","","","","","0","0","1","0.2790325972","","0.4","0.8","0.6","0.2","","","","","0.4425022826","0.2790325972","0.3079745892","0.3592590195","","","","","","","74","J","1","","","247","main_expt"
"431","","bandit","326","817421","0.0-287.0-0.0","44123759","wem/bandit_either","A111GZJ896Q9RX","either","5","","","","","","","0","0","1","0.4454461089","","0.4","0.8","0.6","0.2","","","","","0.4454461089","0.2665328125","0.2306801962","0.3659800935","","","","","","","72","H","0","img/none_selected.jpg","","248","main_expt"
"377","","bandit","327","819310","0.0-288.0-0.0","44123759","wem/bandit_either","A111GZJ896Q9RX","either","5","","","","","","","0","1","0","","0.3940863056","0.4","0.8","0.6","0.2","0.4565985803","0.2666328085","0.2363838343","0.3940863056","","","","","","","","","","","76","L","3","","","249","main_expt"
"193","","bandit","328","821013","0.0-289.0-0.0","44123759","wem/bandit_either","A111GZJ896Q9RX","either","5","","","","","","","0","0","1","0.2865845142","","0.4","0.8","0.6","0.2","","","","","0.4666950096","0.2637425143","0.2865845142","0.3652193683","","","","","","","75","K","2","","","250","main_expt"
"377","","bandit","329","822902","0.0-290.0-0.0","44123759","wem/bandit_either","A111GZJ896Q9RX","either","5","","","","","","","0","0","1","","0.3041279159","0.4","0.8","0.6","0.2","0.4491167865","0.3041279159","0.3527425442","0.3118516898","","","","","","","","","","","74","J","1","","","251","main_expt"
"361","","bandit","330","824773","0.0-291.0-0.0","44123759","wem/bandit_either","A111GZJ896Q9RX","either","5","","","","","","","0","1","0","","0.4512042396","0.4","0.8","0.6","0.2","0.4512042396","0.3054217384","0.3236638898","0.3291033061","","","","","","","","","","","72","H","0","img/none_selected.jpg","","252","main_expt"
"268","","bandit","331","826553","0.0-292.0-0.0","44123759","wem/bandit_either","A111GZJ896Q9RX","either","5","","","","","","","1","0","0","0.3241125582","","0.4","0.8","0.6","0.2","","","","","0.4572977034","0.3241125582","0.2905162115","0.35413613","","","","","","","74","J","1","","","253","main_expt"
