"rt","responses","trial_type","trial_index","time_elapsed","internal_node_id","subjID","study","MID","cond","drift","key_press","expt_phase","target","like","value","connected","gems","bombs","no_reward","GemPrChosen","BombPrChosen","GainOverPainPr_0","GainOverPainPr_1","GainOverPainPr_2","GainOverPainPr_3","LosePr_0","LosePr_1","LosePr_2","LosePr_3","WinPr_0","WinPr_1","WinPr_2","WinPr_3","Q0","Q1","Q2","gender","age","ethnicity","respCharCode","respKey","respChoiceNum","respChoice","practice","trial_counter","trial_label"
"7286","{""Q0"":""A16ANYLVNPKCVG""}","survey-text","0","7292","0.0-0.0","44245712","wem/bandit_either","A16ANYLVNPKCVG","either","7","","","","","","","","","","","","","","","","","","","","","","","","","","","","","","","","","","","",""
"53971","","text","1","62266","0.0-1.0","44245712","wem/bandit_either","A16ANYLVNPKCVG","either","7","32","","","","","","","","","","","","","","","","","","","","","","","","","","","","","","","","","","",""
"80593","","text","2","142860","0.0-2.0","44245712","wem/bandit_either","A16ANYLVNPKCVG","either","7","32","","","","","","","","","","","","","","","","","","","","","","","","","","","","","","","","","","",""
"32006","","text","3","174867","0.0-3.0","44245712","wem/bandit_either","A16ANYLVNPKCVG","either","7","32","","","","","","","","","","","","","","","","","","","","","","","","","","","","","","","","","","",""
"19307","","text","4","194174","0.0-4.0","44245712","wem/bandit_either","A16ANYLVNPKCVG","either","7","32","","","","","","","","","","","","","","","","","","","","","","","","","","","","","","","","","","",""
"15296","","text","5","209471","0.0-5.0","44245712","wem/bandit_either","A16ANYLVNPKCVG","either","7","32","","","","","","","","","","","","","","","","","","","","","","","","","","","","","","","","","","",""
"6944","","text","6","216416","0.0-6.0","44245712","wem/bandit_either","A16ANYLVNPKCVG","either","7","32","","","","","","","","","","","","","","","","","","","","","","","","","","","","","","","","","","",""
"9251","","text","7","225668","0.0-7.0","44245712","wem/bandit_either","A16ANYLVNPKCVG","either","7","32","","","","","","","","","","","","","","","","","","","","","","","","","","","","","","","","","","",""
"10060","","identification","8","235740","0.0-8.0-0.0","44245712","wem/bandit_either","A16ANYLVNPKCVG","either","7","","identification_pre","the village of Zur","","","","","","","","","","","","","","","","","","","","","","","","","","","","","","","","",""
"5914","","identification","9","242665","0.0-8.0-1.0","44245712","wem/bandit_either","A16ANYLVNPKCVG","either","7","","identification_pre","the village of Nyx","","","","","","","","","","","","","","","","","","","","","","","","","","","","","","","","",""
"7582","","text","10","251249","0.0-9.0","44245712","wem/bandit_either","A16ANYLVNPKCVG","either","7","32","","","","","","","","","","","","","","","","","","","","","","","","","","","","","","","","","","",""
"4401","","text","11","255652","0.0-10.0","44245712","wem/bandit_either","A16ANYLVNPKCVG","either","7","32","","","","","","","","","","","","","","","","","","","","","","","","","","","","","","","","","","",""
"2594","","text","12","258247","0.0-11.0","44245712","wem/bandit_either","A16ANYLVNPKCVG","either","7","32","","","","","","","","","","","","","","","","","","","","","","","","","","","","","","","","","","",""
"3605","","text","13","261853","0.0-12.0","44245712","wem/bandit_either","A16ANYLVNPKCVG","either","7","32","","","","","","","","","","","","","","","","","","","","","","","","","","","","","","","","","","",""
"2544","","bandit","14","265902","0.0-13.0-0.0","44245712","wem/bandit_either","A16ANYLVNPKCVG","either","7","","","","","","","0","0","1","0","0","","","","","0","","","","0","","","","","","","","","","74","J","0","img/none_selected_demo.jpg","true","0",""
"1708","","bandit","15","269115","0.0-14.0-0.0","44245712","wem/bandit_either","A16ANYLVNPKCVG","either","7","","","","","","","0","0","1","0","0","","","","","0","","","","0","","","","","","","","","","75","K","0","img/none_selected_demo.jpg","true","0",""
"8027","","text","16","277144","0.0-15.0","44245712","wem/bandit_either","A16ANYLVNPKCVG","either","7","32","","","","","","","","","","","","","","","","","","","","","","","","","","","","","","","","","","",""
"12068","","text","17","289213","0.0-16.0","44245712","wem/bandit_either","A16ANYLVNPKCVG","either","7","32","","","","","","","","","","","","","","","","","","","","","","","","","","","","","","","","","","",""
"7183","","text","18","296397","0.0-17.0","44245712","wem/bandit_either","A16ANYLVNPKCVG","either","7","32","","","","","","","","","","","","","","","","","","","","","","","","","","","","","","","","","","",""
"3635","","text","19","300034","0.0-18.0","44245712","wem/bandit_either","A16ANYLVNPKCVG","either","7","32","","","","","","","","","","","","","","","","","","","","","","","","","","","","","","","","","","",""
"874","","bandit","20","302412","0.0-19.0-0.0","44245712","wem/bandit_either","A16ANYLVNPKCVG","either","7","","","","","","","0","0","1","","0.2","0.5","0.5","","","0.8","0.2","","","","","","","","","","","","","75","K","1","","true","0","80_20_practice"
"749","","bandit","21","304666","0.0-19.0-1.0","44245712","wem/bandit_either","A16ANYLVNPKCVG","either","7","","","","","","","0","0","1","0.8","","0.5","0.5","","","","","","","0.8","0.2","","","","","","","","","74","J","0","img/none_selected_demo.jpg","true","0","80_20_practice"
"293","","bandit","22","306464","0.0-19.0-2.0","44245712","wem/bandit_either","A16ANYLVNPKCVG","either","7","","","","","","","0","1","0","","0.8","0.5","0.5","","","0.8","0.2","","","","","","","","","","","","","74","J","0","img/none_selected_demo.jpg","true","0","80_20_practice"
"669","","bandit","23","308638","0.0-19.0-3.0","44245712","wem/bandit_either","A16ANYLVNPKCVG","either","7","","","","","","","1","0","0","0.8","","0.5","0.5","","","","","","","0.8","0.2","","","","","","","","","74","J","0","img/none_selected_demo.jpg","true","0","80_20_practice"
"301","","bandit","24","310443","0.0-19.0-4.0","44245712","wem/bandit_either","A16ANYLVNPKCVG","either","7","","","","","","","0","1","0","","0.8","0.5","0.5","","","0.8","0.2","","","","","","","","","","","","","74","J","0","img/none_selected_demo.jpg","true","0","80_20_practice"
"313","","bandit","25","312261","0.0-19.0-5.0","44245712","wem/bandit_either","A16ANYLVNPKCVG","either","7","","","","","","","1","0","0","0.8","","0.5","0.5","","","","","","","0.8","0.2","","","","","","","","","74","J","0","img/none_selected_demo.jpg","true","0","80_20_practice"
"300","","bandit","26","314065","0.0-19.0-6.0","44245712","wem/bandit_either","A16ANYLVNPKCVG","either","7","","","","","","","0","0","1","","0.8","0.5","0.5","","","0.8","0.2","","","","","","","","","","","","","74","J","0","img/none_selected_demo.jpg","true","0","80_20_practice"
"923","","bandit","27","316493","0.0-19.0-7.0","44245712","wem/bandit_either","A16ANYLVNPKCVG","either","7","","","","","","","0","0","1","","0.8","0.5","0.5","","","0.8","0.2","","","","","","","","","","","","","74","J","0","img/none_selected_demo.jpg","true","0","80_20_practice"
"56","","bandit","28","318053","0.0-19.0-8.0","44245712","wem/bandit_either","A16ANYLVNPKCVG","either","7","","","","","","","0","0","1","0.2","","0.5","0.5","","","","","","","0.8","0.2","","","","","","","","","75","K","1","","true","0","80_20_practice"
"118","","bandit","29","319676","0.0-19.0-9.0","44245712","wem/bandit_either","A16ANYLVNPKCVG","either","7","","","","","","","1","0","0","0.2","","0.5","0.5","","","","","","","0.8","0.2","","","","","","","","","75","K","1","","true","0","80_20_practice"
"172","","bandit","30","321353","0.0-19.0-10.0","44245712","wem/bandit_either","A16ANYLVNPKCVG","either","7","","","","","","","0","0","1","","0.2","0.5","0.5","","","0.8","0.2","","","","","","","","","","","","","75","K","1","","true","0","80_20_practice"
"166","","bandit","31","323023","0.0-19.0-11.0","44245712","wem/bandit_either","A16ANYLVNPKCVG","either","7","","","","","","","1","0","0","0.2","","0.5","0.5","","","","","","","0.8","0.2","","","","","","","","","75","K","1","","true","0","80_20_practice"
"196","","bandit","32","324724","0.0-19.0-12.0","44245712","wem/bandit_either","A16ANYLVNPKCVG","either","7","","","","","","","0","1","0","","0.2","0.5","0.5","","","0.8","0.2","","","","","","","","","","","","","75","K","1","","true","0","80_20_practice"
"126","","bandit","33","326354","0.0-19.0-13.0","44245712","wem/bandit_either","A16ANYLVNPKCVG","either","7","","","","","","","0","0","1","","0.2","0.5","0.5","","","0.8","0.2","","","","","","","","","","","","","75","K","1","","true","0","80_20_practice"
"117","","bandit","34","327975","0.0-19.0-14.0","44245712","wem/bandit_either","A16ANYLVNPKCVG","either","7","","","","","","","0","0","1","0.2","","0.5","0.5","","","","","","","0.8","0.2","","","","","","","","","75","K","1","","true","0","80_20_practice"
"186","","bandit","35","329665","0.0-19.0-15.0","44245712","wem/bandit_either","A16ANYLVNPKCVG","either","7","","","","","","","1","0","0","0.8","","0.5","0.5","","","","","","","0.8","0.2","","","","","","","","","74","J","0","img/none_selected_demo.jpg","true","0","80_20_practice"
"213","","bandit","36","331384","0.0-19.0-16.0","44245712","wem/bandit_either","A16ANYLVNPKCVG","either","7","","","","","","","1","0","0","0.8","","0.5","0.5","","","","","","","0.8","0.2","","","","","","","","","74","J","0","img/none_selected_demo.jpg","true","0","80_20_practice"
"176","","bandit","37","333065","0.0-19.0-17.0","44245712","wem/bandit_either","A16ANYLVNPKCVG","either","7","","","","","","","0","0","1","","0.8","0.5","0.5","","","0.8","0.2","","","","","","","","","","","","","74","J","0","img/none_selected_demo.jpg","true","0","80_20_practice"
"109","","bandit","38","334679","0.0-19.0-18.0","44245712","wem/bandit_either","A16ANYLVNPKCVG","either","7","","","","","","","0","1","0","","0.8","0.5","0.5","","","0.8","0.2","","","","","","","","","","","","","74","J","0","img/none_selected_demo.jpg","true","0","80_20_practice"
"180","","bandit","39","336363","0.0-19.0-19.0","44245712","wem/bandit_either","A16ANYLVNPKCVG","either","7","","","","","","","0","1","0","","0.8","0.5","0.5","","","0.8","0.2","","","","","","","","","","","","","74","J","0","img/none_selected_demo.jpg","true","0","80_20_practice"
"2904","","text","40","339268","0.0-20.0","44245712","wem/bandit_either","A16ANYLVNPKCVG","either","7","32","","","","","","","","","","","","","","","","","","","","","","","","","","","","","","","","","","",""
"1056","","bandit","41","341828","0.0-21.0-0.0","44245712","wem/bandit_either","A16ANYLVNPKCVG","either","7","","","","","","","1","0","0","1","0","","","","","0","1","","","1","0","","","","","","","","","74","J","0","img/none_selected_demo.jpg","true","0",""
"4947","","text","42","346776","0.0-22.0","44245712","wem/bandit_either","A16ANYLVNPKCVG","either","7","32","","","","","","","","","","","","","","","","","","","","","","","","","","","","","","","","","","",""
"2190","","text","43","348968","0.0-23.0","44245712","wem/bandit_either","A16ANYLVNPKCVG","either","7","32","","","","","","","","","","","","","","","","","","","","","","","","","","","","","","","","","","",""
"3473","","text","44","352443","0.0-24.0","44245712","wem/bandit_either","A16ANYLVNPKCVG","either","7","32","","","","","","","","","","","","","","","","","","","","","","","","","","","","","","","","","","",""
"4400","","text","45","356844","0.0-25.0","44245712","wem/bandit_either","A16ANYLVNPKCVG","either","7","32","","","","","","","","","","","","","","","","","","","","","","","","","","","","","","","","","","",""
"9293","","text","46","366139","0.0-26.0","44245712","wem/bandit_either","A16ANYLVNPKCVG","either","7","32","","","","","","","","","","","","","","","","","","","","","","","","","","","","","","","","","","",""
"4225","","text","47","370365","0.0-27.0","44245712","wem/bandit_either","A16ANYLVNPKCVG","either","7","32","","","","","","","","","","","","","","","","","","","","","","","","","","","","","","","","","","",""
"7505","","text","48","377872","0.0-28.0","44245712","wem/bandit_either","A16ANYLVNPKCVG","either","7","32","","","","","","","","","","","","","","","","","","","","","","","","","","","","","","","","","","",""
"3583","","text","49","381456","0.0-29.0","44245712","wem/bandit_either","A16ANYLVNPKCVG","either","7","32","","","","","","","","","","","","","","","","","","","","","","","","","","","","","","","","","","",""
"6036","","text","50","387493","0.0-30.0","44245712","wem/bandit_either","A16ANYLVNPKCVG","either","7","32","","","","","","","","","","","","","","","","","","","","","","","","","","","","","","","","","","",""
"2170","","text","51","389665","0.0-31.0","44245712","wem/bandit_either","A16ANYLVNPKCVG","either","7","32","","","","","","","","","","","","","","","","","","","","","","","","","","","","","","","","","","",""
"4349","","text","52","394016","0.0-32.0","44245712","wem/bandit_either","A16ANYLVNPKCVG","either","7","32","","","","","","","","","","","","","","","","","","","","","","","","","","","","","","","","","","",""
"1597","","bandit","53","397117","0.0-33.0-0.0","44245712","wem/bandit_either","A16ANYLVNPKCVG","either","7","","","","","","","1","0","0","0.8","","0.5","0.5","0.5","0.5","","","","","0.8","0.2","0.6","0.2","","","","","","","72","H","0","img/none_selected.jpg","true","0","full_practice"
"268","","bandit","54","398891","0.0-33.0-1.0","44245712","wem/bandit_either","A16ANYLVNPKCVG","either","7","","","","","","","1","0","0","0.8","","0.5","0.5","0.5","0.5","","","","","0.8","0.2","0.6","0.2","","","","","","","72","H","0","img/none_selected.jpg","true","0","full_practice"
"277","","bandit","55","400672","0.0-33.0-2.0","44245712","wem/bandit_either","A16ANYLVNPKCVG","either","7","","","","","","","0","1","0","","0.8","0.5","0.5","0.5","0.5","0.8","0.2","0.6","0.2","","","","","","","","","","","72","H","0","img/none_selected.jpg","true","0","full_practice"
"270","","bandit","56","402447","0.0-33.0-3.0","44245712","wem/bandit_either","A16ANYLVNPKCVG","either","7","","","","","","","1","0","0","0.8","","0.5","0.5","0.5","0.5","","","","","0.8","0.2","0.6","0.2","","","","","","","72","H","0","img/none_selected.jpg","true","0","full_practice"
"246","","bandit","57","404198","0.0-33.0-4.0","44245712","wem/bandit_either","A16ANYLVNPKCVG","either","7","","","","","","","0","1","0","","0.8","0.5","0.5","0.5","0.5","0.8","0.2","0.6","0.2","","","","","","","","","","","72","H","0","img/none_selected.jpg","true","0","full_practice"
"517","","bandit","58","406219","0.0-33.0-5.0","44245712","wem/bandit_either","A16ANYLVNPKCVG","either","7","","","","","","","0","1","0","","0.8","0.5","0.5","0.5","0.5","0.8","0.2","0.6","0.2","","","","","","","","","","","72","H","0","img/none_selected.jpg","true","0","full_practice"
"330","","bandit","59","408055","0.0-33.0-6.0","44245712","wem/bandit_either","A16ANYLVNPKCVG","either","7","","","","","","","0","1","0","","0.8","0.5","0.5","0.5","0.5","0.8","0.2","0.6","0.2","","","","","","","","","","","72","H","0","img/none_selected.jpg","true","0","full_practice"
"334","","bandit","60","409894","0.0-33.0-7.0","44245712","wem/bandit_either","A16ANYLVNPKCVG","either","7","","","","","","","1","0","0","0.8","","0.5","0.5","0.5","0.5","","","","","0.8","0.2","0.6","0.2","","","","","","","72","H","0","img/none_selected.jpg","true","0","full_practice"
"329","","bandit","61","411728","0.0-33.0-8.0","44245712","wem/bandit_either","A16ANYLVNPKCVG","either","7","","","","","","","1","0","0","0.8","","0.5","0.5","0.5","0.5","","","","","0.8","0.2","0.6","0.2","","","","","","","72","H","0","img/none_selected.jpg","true","0","full_practice"
"337","","bandit","62","413570","0.0-33.0-9.0","44245712","wem/bandit_either","A16ANYLVNPKCVG","either","7","","","","","","","1","0","0","0.2","","0.5","0.5","0.5","0.5","","","","","0.8","0.2","0.6","0.2","","","","","","","74","J","1","","true","0","full_practice"
"274","","bandit","63","415348","0.0-33.0-10.0","44245712","wem/bandit_either","A16ANYLVNPKCVG","either","7","","","","","","","0","0","1","","0.2","0.5","0.5","0.5","0.5","0.8","0.2","0.6","0.2","","","","","","","","","","","74","J","1","","true","0","full_practice"
"160","","bandit","64","417013","0.0-33.0-11.0","44245712","wem/bandit_either","A16ANYLVNPKCVG","either","7","","","","","","","0","1","0","","0.6","0.5","0.5","0.5","0.5","0.8","0.2","0.6","0.2","","","","","","","","","","","75","K","2","","true","0","full_practice"
"257","","bandit","65","418774","0.0-33.0-12.0","44245712","wem/bandit_either","A16ANYLVNPKCVG","either","7","","","","","","","0","0","1","","0.6","0.5","0.5","0.5","0.5","0.8","0.2","0.6","0.2","","","","","","","","","","","75","K","2","","true","0","full_practice"
"246","","bandit","66","420525","0.0-33.0-13.0","44245712","wem/bandit_either","A16ANYLVNPKCVG","either","7","","","","","","","1","0","0","0.6","","0.5","0.5","0.5","0.5","","","","","0.8","0.2","0.6","0.2","","","","","","","75","K","2","","true","0","full_practice"
"212","","bandit","67","422243","0.0-33.0-14.0","44245712","wem/bandit_either","A16ANYLVNPKCVG","either","7","","","","","","","0","0","1","0.6","","0.5","0.5","0.5","0.5","","","","","0.8","0.2","0.6","0.2","","","","","","","75","K","2","","true","0","full_practice"
"87","","bandit","68","423835","0.0-33.0-15.0","44245712","wem/bandit_either","A16ANYLVNPKCVG","either","7","","","","","","","0","0","1","0.2","","0.5","0.5","0.5","0.5","","","","","0.8","0.2","0.6","0.2","","","","","","","76","L","3","","true","0","full_practice"
"218","","bandit","69","425558","0.0-33.0-16.0","44245712","wem/bandit_either","A16ANYLVNPKCVG","either","7","","","","","","","0","0","1","0.2","","0.5","0.5","0.5","0.5","","","","","0.8","0.2","0.6","0.2","","","","","","","76","L","3","","true","0","full_practice"
"74","","bandit","70","427136","0.0-33.0-17.0","44245712","wem/bandit_either","A16ANYLVNPKCVG","either","7","","","","","","","0","0","1","","0.2","0.5","0.5","0.5","0.5","0.8","0.2","0.6","0.2","","","","","","","","","","","76","L","3","","true","0","full_practice"
"463","","bandit","71","429105","0.0-33.0-18.0","44245712","wem/bandit_either","A16ANYLVNPKCVG","either","7","","","","","","","0","0","1","","0.8","0.5","0.5","0.5","0.5","0.8","0.2","0.6","0.2","","","","","","","","","","","72","H","0","img/none_selected.jpg","true","0","full_practice"
"161","","bandit","72","430771","0.0-33.0-19.0","44245712","wem/bandit_either","A16ANYLVNPKCVG","either","7","","","","","","","0","0","1","","0.8","0.5","0.5","0.5","0.5","0.8","0.2","0.6","0.2","","","","","","","","","","","72","H","0","img/none_selected.jpg","true","0","full_practice"
"2814","","text","73","433589","0.0-34.0","44245712","wem/bandit_either","A16ANYLVNPKCVG","either","7","32","","","","","","","","","","","","","","","","","","","","","","","","","","","","","","","","","","",""
"14161","","text","74","448755","0.0-35.0","44245712","wem/bandit_either","A16ANYLVNPKCVG","either","7","32","","","","","","","","","","","","","","","","","","","","","","","","","","","","","","","","","","",""
"16377","","text","75","465134","0.0-36.0","44245712","wem/bandit_either","A16ANYLVNPKCVG","either","7","32","","","","","","","","","","","","","","","","","","","","","","","","","","","","","","","","","","",""
"9264","","text","76","474400","0.0-37.0","44245712","wem/bandit_either","A16ANYLVNPKCVG","either","7","32","","","","","","","","","","","","","","","","","","","","","","","","","","","","","","","","","","",""
"6119","","text","77","480521","0.0-38.0","44245712","wem/bandit_either","A16ANYLVNPKCVG","either","7","32","","","","","","","","","","","","","","","","","","","","","","","","","","","","","","","","","","",""
"5536","","text","78","486060","0.0-39.0","44245712","wem/bandit_either","A16ANYLVNPKCVG","either","7","32","","","","","","","","","","","","","","","","","","","","","","","","","","","","","","","","","","",""
"2141","","bandit","79","489707","0.0-40.0-0.0","44245712","wem/bandit_either","A16ANYLVNPKCVG","either","7","","","","","","","0","0","1","0.06530018083","","0.6","0.2","0.4","0.8","","","","","0.06530018083","0.1480066451","0.1952616071","0.01738065524","","","","","","","72","H","0","img/none_selected.jpg","","1","main_expt"
"2431","","bandit","80","493644","0.0-41.0-0.0","44245712","wem/bandit_either","A16ANYLVNPKCVG","either","7","","","","","","","1","0","0","0.1053714073","","0.6","0.2","0.4","0.8","","","","","0.1011701763","0.1053714073","0.1652234336","0.0196943787","","","","","","","74","J","1","","","2","main_expt"
"304","","bandit","81","495452","0.0-42.0-0.0","44245712","wem/bandit_either","A16ANYLVNPKCVG","either","7","","","","","","","0","0","1","0.1460078221","","0.6","0.2","0.4","0.8","","","","","0.09486719381","0.1460078221","0.1347382479","0.01678573497","","","","","","","74","J","1","","","3","main_expt"
"333","","bandit","82","497289","0.0-43.0-0.0","44245712","wem/bandit_either","A16ANYLVNPKCVG","either","7","","","","","","","0","1","0","","0.1684625442","0.6","0.2","0.4","0.8","0.06705802814","0.1866138214","0.1684625442","0.02981965743","","","","","","","","","","","75","K","2","","","4","main_expt"
"268","","bandit","83","499062","0.0-44.0-0.0","44245712","wem/bandit_either","A16ANYLVNPKCVG","either","7","","","","","","","0","1","0","","0.1792029032","0.6","0.2","0.4","0.8","0.0822298525","0.2445348717","0.1792029032","0.02600208211","","","","","","","","","","","75","K","2","","","5","main_expt"
"292","","bandit","84","500860","0.0-45.0-0.0","44245712","wem/bandit_either","A16ANYLVNPKCVG","either","7","","","","","","","0","0","1","","0.2153873139","0.6","0.2","0.4","0.8","0.09162209411","0.2546962146","0.2153873139","0.02332436933","","","","","","","","","","","75","K","2","","","6","main_expt"
"442","","bandit","85","502808","0.0-46.0-0.0","44245712","wem/bandit_either","A16ANYLVNPKCVG","either","7","","","","","","","0","0","1","","0.1757762721","0.6","0.2","0.4","0.8","0.1028820098","0.2344841702","0.1757762721","0.02864040813","","","","","","","","","","","75","K","2","","","7","main_expt"
"355","","bandit","86","504667","0.0-47.0-0.0","44245712","wem/bandit_either","A16ANYLVNPKCVG","either","7","","","","","","","0","0","1","0.02951264166","","0.6","0.2","0.4","0.8","","","","","0.1532270122","0.2473344203","0.2241229746","0.02951264166","","","","","","","76","L","3","","","8","main_expt"
"954","","bandit","87","507128","0.0-48.0-0.0","44245712","wem/bandit_either","A16ANYLVNPKCVG","either","7","","","","","","","0","1","0","","0.02997011939","0.6","0.2","0.4","0.8","0.2131450397","0.2642160399","0.2199426203","0.02997011939","","","","","","","","","","","76","L","3","","","9","main_expt"
"292","","bandit","88","508925","0.0-49.0-0.0","44245712","wem/bandit_either","A16ANYLVNPKCVG","either","7","","","","","","","0","0","1","","0.02489651457","0.6","0.2","0.4","0.8","0.2985754635","0.2104627424","0.1520686932","0.02489651457","","","","","","","","","","","76","L","3","","","10","main_expt"
"975","","bandit","89","511404","0.0-50.0-0.0","44245712","wem/bandit_either","A16ANYLVNPKCVG","either","7","","","","","","","0","1","0","","0.2924640086","0.6","0.2","0.4","0.8","0.2924640086","0.219372878","0.2013349999","0.01651058827","","","","","","","","","","","72","H","0","img/none_selected.jpg","","11","main_expt"
"351","","bandit","90","513260","0.0-51.0-0.0","44245712","wem/bandit_either","A16ANYLVNPKCVG","either","7","","","","","","","1","0","0","0.3264291113","","0.6","0.2","0.4","0.8","","","","","0.3264291113","0.2105839871","0.2156800105","0.02341729431","","","","","","","72","H","0","img/none_selected.jpg","","12","main_expt"
"345","","bandit","91","515110","0.0-52.0-0.0","44245712","wem/bandit_either","A16ANYLVNPKCVG","either","7","","","","","","","0","0","1","0.3254913314","","0.6","0.2","0.4","0.8","","","","","0.3254913314","0.2511698571","0.1833947696","0.0257410372","","","","","","","72","H","0","img/none_selected.jpg","","13","main_expt"
"351","","bandit","92","516966","0.0-53.0-0.0","44245712","wem/bandit_either","A16ANYLVNPKCVG","either","7","","","","","","","0","0","1","","0.3428504842","0.6","0.2","0.4","0.8","0.3428504842","0.2158977649","0.243643366","0.02570014082","","","","","","","","","","","72","H","0","img/none_selected.jpg","","14","main_expt"
"1214","","bandit","93","519685","0.0-54.0-0.0","44245712","wem/bandit_either","A16ANYLVNPKCVG","either","7","","","","","","","0","0","1","","0.2762480727","0.6","0.2","0.4","0.8","0.3244047679","0.2762480727","0.2265365198","0.04268316416","","","","","","","","","","","74","J","1","","","15","main_expt"
"448","","bandit","94","521639","0.0-55.0-0.0","44245712","wem/bandit_either","A16ANYLVNPKCVG","either","7","","","","","","","0","0","1","","0.2484951132","0.6","0.2","0.4","0.8","0.3025313629","0.3202890724","0.2484951132","0.04667408308","","","","","","","","","","","75","K","2","","","16","main_expt"
"357","","bandit","95","523501","0.0-56.0-0.0","44245712","wem/bandit_either","A16ANYLVNPKCVG","either","7","","","","","","","0","1","0","","0.2570267238","0.6","0.2","0.4","0.8","0.3291216938","0.3680552247","0.2570267238","0.0506688767","","","","","","","","","","","75","K","2","","","17","main_expt"
"368","","bandit","96","525377","0.0-57.0-0.0","44245712","wem/bandit_either","A16ANYLVNPKCVG","either","7","","","","","","","0","0","1","0.287418789","","0.6","0.2","0.4","0.8","","","","","0.2987881532","0.3968593921","0.287418789","0.02988526167","","","","","","","75","K","2","","","18","main_expt"
"319","","bandit","97","527200","0.0-58.0-0.0","44245712","wem/bandit_either","A16ANYLVNPKCVG","either","7","","","","","","","0","0","1","0.03476350355","","0.6","0.2","0.4","0.8","","","","","0.281207523","0.4192996399","0.2338710899","0.03476350355","","","","","","","76","L","3","","","19","main_expt"
"267","","bandit","98","528971","0.0-59.0-0.0","44245712","wem/bandit_either","A16ANYLVNPKCVG","either","7","","","","","","","1","0","0","0.291129981","","0.6","0.2","0.4","0.8","","","","","0.291129981","0.4362768361","0.2335293464","0.0233687216","","","","","","","72","H","0","img/none_selected.jpg","","20","main_expt"
"355","","bandit","99","530832","0.0-60.0-0.0","44245712","wem/bandit_either","A16ANYLVNPKCVG","either","7","","","","","","","1","0","0","0.2729578326","","0.6","0.2","0.4","0.8","","","","","0.2729578326","0.4599691003","0.2434826965","0.01272547494","","","","","","","72","H","0","img/none_selected.jpg","","21","main_expt"
"396","","bandit","100","532733","0.0-61.0-0.0","44245712","wem/bandit_either","A16ANYLVNPKCVG","either","7","","","","","","","0","0","1","","0.2805141014","0.6","0.2","0.4","0.8","0.2805141014","0.44353765","0.2702300591","0.01739491555","","","","","","","","","","","72","H","0","img/none_selected.jpg","","22","main_expt"
"312","","bandit","101","534550","0.0-62.0-0.0","44245712","wem/bandit_either","A16ANYLVNPKCVG","either","7","","","","","","","0","0","1","0.3016389313","","0.6","0.2","0.4","0.8","","","","","0.3016389313","0.4105594395","0.2424740502","0.006692102231","","","","","","","72","H","0","img/none_selected.jpg","","23","main_expt"
"1279","","bandit","102","537334","0.0-63.0-0.0","44245712","wem/bandit_either","A16ANYLVNPKCVG","either","7","","","","","","","0","0","1","0.2475621169","","0.6","0.2","0.4","0.8","","","","","0.2475621169","0.4243351486","0.1754503809","0.01209419849","","","","","","","72","H","0","img/none_selected.jpg","","24","main_expt"
"359","","bandit","103","539198","0.0-64.0-0.0","44245712","wem/bandit_either","A16ANYLVNPKCVG","either","7","","","","","","","0","0","1","","0.4172780312","0.6","0.2","0.4","0.8","0.2607476102","0.4172780312","0.2023019753","0.009734580702","","","","","","","","","","","74","J","1","","","25","main_expt"
"621","","bandit","104","541323","0.0-65.0-0.0","44245712","wem/bandit_either","A16ANYLVNPKCVG","either","7","","","","","","","0","0","1","","0.3981062588","0.6","0.2","0.4","0.8","0.292589008","0.3981062588","0.1887270612","0.008596148908","","","","","","","","","","","74","J","1","","","26","main_expt"
"560","","bandit","105","543388","0.0-66.0-0.0","44245712","wem/bandit_either","A16ANYLVNPKCVG","either","7","","","","","","","0","0","1","","0.2526986378","0.6","0.2","0.4","0.8","0.2978950393","0.3889188119","0.2526986378","0.01380650739","","","","","","","","","","","75","K","2","","","27","main_expt"
"331","","bandit","106","545224","0.0-67.0-0.0","44245712","wem/bandit_either","A16ANYLVNPKCVG","either","7","","","","","","","0","0","1","","0.2536033627","0.6","0.2","0.4","0.8","0.337392419","0.3699095679","0.2536033627","0.01160852189","","","","","","","","","","","75","K","2","","","28","main_expt"
"314","","bandit","107","547043","0.0-68.0-0.0","44245712","wem/bandit_either","A16ANYLVNPKCVG","either","7","","","","","","","0","0","1","","0.02858314752","0.6","0.2","0.4","0.8","0.3830759015","0.4087832773","0.258258936","0.02858314752","","","","","","","","","","","76","L","3","","","29","main_expt"
"292","","bandit","108","548840","0.0-69.0-0.0","44245712","wem/bandit_either","A16ANYLVNPKCVG","either","7","","","","","","","0","0","1","0.0265596094","","0.6","0.2","0.4","0.8","","","","","0.3778881599","0.4162513677","0.3152574144","0.0265596094","","","","","","","76","L","3","","","30","main_expt"
"318","","bandit","109","550664","0.0-70.0-0.0","44245712","wem/bandit_either","A16ANYLVNPKCVG","either","7","","","","","","","0","0","1","0.3585458117","","0.6","0.2","0.4","0.8","","","","","0.3585458117","0.43337534","0.3508579725","0.02828816112","","","","","","","72","H","0","img/none_selected.jpg","","31","main_expt"
"347","","bandit","110","552516","0.0-71.0-0.0","44245712","wem/bandit_either","A16ANYLVNPKCVG","either","7","","","","","","","0","1","0","","0.3511664436","0.6","0.2","0.4","0.8","0.3511664436","0.4399105216","0.3902021543","0.03857304495","","","","","","","","","","","72","H","0","img/none_selected.jpg","","32","main_expt"
"305","","bandit","111","554325","0.0-72.0-0.0","44245712","wem/bandit_either","A16ANYLVNPKCVG","either","7","","","","","","","0","1","0","","0.3924960189","0.6","0.2","0.4","0.8","0.3924960189","0.3859623535","0.4112626521","0.02642959278","","","","","","","","","","","72","H","0","img/none_selected.jpg","","33","main_expt"
"320","","bandit","112","556150","0.0-73.0-0.0","44245712","wem/bandit_either","A16ANYLVNPKCVG","either","7","","","","","","","0","0","1","0.3713907517","","0.6","0.2","0.4","0.8","","","","","0.3713907517","0.4231921331","0.3912589523","0.06800028167","","","","","","","72","H","0","img/none_selected.jpg","","34","main_expt"
"297","","bandit","113","557951","0.0-74.0-0.0","44245712","wem/bandit_either","A16ANYLVNPKCVG","either","7","","","","","","","0","0","1","","0.3929004689","0.6","0.2","0.4","0.8","0.3929004689","0.3950458867","0.3663646496","0.05710280771","","","","","","","","","","","72","H","0","img/none_selected.jpg","","35","main_expt"
"307","","bandit","114","559764","0.0-75.0-0.0","44245712","wem/bandit_either","A16ANYLVNPKCVG","either","7","","","","","","","0","0","1","0.3820467604","","0.6","0.2","0.4","0.8","","","","","0.3820467604","0.4005306787","0.3045225128","0.07756943076","","","","","","","72","H","0","img/none_selected.jpg","","36","main_expt"
"272","","bandit","115","561541","0.0-76.0-0.0","44245712","wem/bandit_either","A16ANYLVNPKCVG","either","7","","","","","","","0","1","0","","0.3972735937","0.6","0.2","0.4","0.8","0.3948022939","0.3972735937","0.2806474599","0.06074629621","","","","","","","","","","","74","J","1","","","37","main_expt"
"272","","bandit","116","563319","0.0-77.0-0.0","44245712","wem/bandit_either","A16ANYLVNPKCVG","either","7","","","","","","","0","0","1","","0.38339591","0.6","0.2","0.4","0.8","0.3769579019","0.38339591","0.3558759705","0.07063042774","","","","","","","","","","","74","J","1","","","38","main_expt"
"237","","bandit","117","565062","0.0-78.0-0.0","44245712","wem/bandit_either","A16ANYLVNPKCVG","either","7","","","","","","","0","1","0","","0.3906354184","0.6","0.2","0.4","0.8","0.4030344636","0.3906354184","0.3194138052","0.06209293178","","","","","","","","","","","74","J","1","","","39","main_expt"
"269","","bandit","118","566837","0.0-79.0-0.0","44245712","wem/bandit_either","A16ANYLVNPKCVG","either","7","","","","","","","1","0","0","0.3623676206","","0.6","0.2","0.4","0.8","","","","","0.3622335218","0.3623676206","0.3549086085","0.06952578958","","","","","","","74","J","1","","","40","main_expt"
"246","","bandit","119","568589","0.0-80.0-0.0","44245712","wem/bandit_either","A16ANYLVNPKCVG","either","7","","","","","","","0","0","1","0.3873704927","","0.6","0.2","0.4","0.8","","","","","0.3911596719","0.3873704927","0.3452113815","0.1291245709","","","","","","","74","J","1","","","41","main_expt"
"234","","bandit","120","570328","0.0-81.0-0.0","44245712","wem/bandit_either","A16ANYLVNPKCVG","either","7","","","","","","","0","0","1","","0.359823116","0.6","0.2","0.4","0.8","0.3921858285","0.359823116","0.3522960267","0.1174523948","","","","","","","","","","","74","J","1","","","42","main_expt"
"270","","bandit","121","572103","0.0-82.0-0.0","44245712","wem/bandit_either","A16ANYLVNPKCVG","either","7","","","","","","","0","0","1","","0.3710191411","0.6","0.2","0.4","0.8","0.3831213528","0.3710191411","0.3093122096","0.1201484523","","","","","","","","","","","74","J","1","","","43","main_expt"
"369","","bandit","122","573977","0.0-83.0-0.0","44245712","wem/bandit_either","A16ANYLVNPKCVG","either","7","","","","","","","0","0","1","","0.3026159556","0.6","0.2","0.4","0.8","0.3518708159","0.3874065465","0.3026159556","0.09958360536","","","","","","","","","","","75","K","2","","","44","main_expt"
"693","","bandit","123","576175","0.0-84.0-0.0","44245712","wem/bandit_either","A16ANYLVNPKCVG","either","7","","","","","","","0","0","1","","0.3336294247","0.6","0.2","0.4","0.8","0.3122870636","0.3851533971","0.3336294247","0.05173655998","","","","","","","","","","","75","K","2","","","45","main_expt"
"310","","bandit","124","577991","0.0-85.0-0.0","44245712","wem/bandit_either","A16ANYLVNPKCVG","either","7","","","","","","","0","0","1","0.3400222736","","0.6","0.2","0.4","0.8","","","","","0.2635721956","0.4055883719","0.3400222736","0.05945041096","","","","","","","75","K","2","","","46","main_expt"
"76","","bandit","125","579573","0.0-86.0-0.0","44245712","wem/bandit_either","A16ANYLVNPKCVG","either","7","","","","","","","0","1","0","","0.3671593179","0.6","0.2","0.4","0.8","0.2856785865","0.3671593179","0.328707825","0.04375763727","","","","","","","","","","","74","J","1","","","47","main_expt"
"366","","bandit","126","581444","0.0-87.0-0.0","44245712","wem/bandit_either","A16ANYLVNPKCVG","either","7","","","","","","","0","0","1","","0.3198203038","0.6","0.2","0.4","0.8","0.2649087478","0.3198203038","0.3307690822","0.0666370861","","","","","","","","","","","74","J","1","","","48","main_expt"
"488","","bandit","127","583438","0.0-88.0-0.0","44245712","wem/bandit_either","A16ANYLVNPKCVG","either","7","","","","","","","0","1","0","","0.3111357295","0.6","0.2","0.4","0.8","0.2462979357","0.3111357295","0.3438067684","0.08266213623","","","","","","","","","","","74","J","1","","","49","main_expt"
"415","","bandit","128","585359","0.0-89.0-0.0","44245712","wem/bandit_either","A16ANYLVNPKCVG","either","7","","","","","","","1","0","0","0.3196682981","","0.6","0.2","0.4","0.8","","","","","0.2490076798","0.3196682981","0.4037002216","0.08795051988","","","","","","","74","J","1","","","50","main_expt"
"288","","bandit","129","587152","0.0-90.0-0.0","44245712","wem/bandit_either","A16ANYLVNPKCVG","either","7","","","","","","","0","1","0","","0.3088596379","0.6","0.2","0.4","0.8","0.305209751","0.3088596379","0.3557518394","0.07533366945","","","","","","","","","","","74","J","1","","","51","main_expt"
"234","","bandit","130","588891","0.0-91.0-0.0","44245712","wem/bandit_either","A16ANYLVNPKCVG","either","7","","","","","","","0","1","0","","0.3060924957","0.6","0.2","0.4","0.8","0.3087204988","0.3060924957","0.3254324358","0.06506638851","","","","","","","","","","","74","J","1","","","52","main_expt"
"351","","bandit","131","590747","0.0-92.0-0.0","44245712","wem/bandit_either","A16ANYLVNPKCVG","either","7","","","","","","","0","0","1","","0.3229319808","0.6","0.2","0.4","0.8","0.2984188648","0.3229319808","0.2952150256","0.06562792832","","","","","","","","","","","74","J","1","","","53","main_expt"
"349","","bandit","132","592603","0.0-93.0-0.0","44245712","wem/bandit_either","A16ANYLVNPKCVG","either","7","","","","","","","0","0","1","","0.3280138586","0.6","0.2","0.4","0.8","0.3353917468","0.3280138586","0.300320608","0.04630081711","","","","","","","","","","","74","J","1","","","54","main_expt"
"531","","bandit","133","594641","0.0-94.0-0.0","44245712","wem/bandit_either","A16ANYLVNPKCVG","either","7","","","","","","","0","0","1","","0.2777260571","0.6","0.2","0.4","0.8","0.3259144651","0.2777260571","0.2985084879","0.03868373719","","","","","","","","","","","74","J","1","","","55","main_expt"
"587","","bandit","134","596734","0.0-95.0-0.0","44245712","wem/bandit_either","A16ANYLVNPKCVG","either","7","","","","","","","0","1","0","","0.1791004868","0.6","0.2","0.4","0.8","0.3259049121","0.1791004868","0.2607009345","0.06235362297","","","","","","","","","","","74","J","1","","","56","main_expt"
"426","","bandit","135","598666","0.0-96.0-0.0","44245712","wem/bandit_either","A16ANYLVNPKCVG","either","7","","","","","","","0","0","1","","0.2182265394","0.6","0.2","0.4","0.8","0.3687904078","0.2182265394","0.2565854794","0.04639461243","","","","","","","","","","","74","J","1","","","57","main_expt"
"545","","bandit","136","600717","0.0-97.0-0.0","44245712","wem/bandit_either","A16ANYLVNPKCVG","either","7","","","","","","","0","0","1","","0.2970860181","0.6","0.2","0.4","0.8","0.3422038875","0.2970860181","0.319121847","0.08954448139","","","","","","","","","","","74","J","1","","","58","main_expt"
"398","","bandit","137","602621","0.0-98.0-0.0","44245712","wem/bandit_either","A16ANYLVNPKCVG","either","7","","","","","","","0","0","1","","0.07390342289","0.6","0.2","0.4","0.8","0.3771421139","0.3249685468","0.3269923399","0.07390342289","","","","","","","","","","","76","L","3","","","59","main_expt"
"995","","bandit","138","605121","0.0-99.0-0.0","44245712","wem/bandit_either","A16ANYLVNPKCVG","either","7","","","","","","","0","0","1","0.05801548519","","0.6","0.2","0.4","0.8","","","","","0.3620124399","0.2931470039","0.3150968823","0.05801548519","","","","","","","76","L","3","","","60","main_expt"
"619","","bandit","139","607245","0.0-100.0-0.0","44245712","wem/bandit_either","A16ANYLVNPKCVG","either","7","","","","","","","0","0","1","","0.3958116198","0.6","0.2","0.4","0.8","0.3958116198","0.2646536279","0.324539239","0.07333263924","","","","","","","","","","","72","H","0","img/none_selected.jpg","","61","main_expt"
"515","","bandit","140","609265","0.0-101.0-0.0","44245712","wem/bandit_either","A16ANYLVNPKCVG","either","7","","","","","","","0","1","0","","0.3615218546","0.6","0.2","0.4","0.8","0.3615218546","0.242461968","0.3066306166","0.07563430262","","","","","","","","","","","72","H","0","img/none_selected.jpg","","62","main_expt"
"347","","bandit","141","611118","0.0-102.0-0.0","44245712","wem/bandit_either","A16ANYLVNPKCVG","either","7","","","","","","","1","0","0","0.3574266064","","0.6","0.2","0.4","0.8","","","","","0.3574266064","0.2206683029","0.3068900116","0.06826526778","","","","","","","72","H","0","img/none_selected.jpg","","63","main_expt"
"394","","bandit","142","613018","0.0-103.0-0.0","44245712","wem/bandit_either","A16ANYLVNPKCVG","either","7","","","","","","","1","0","0","0.3541915859","","0.6","0.2","0.4","0.8","","","","","0.3541915859","0.2288959862","0.2936494982","0.1175271989","","","","","","","72","H","0","img/none_selected.jpg","","64","main_expt"
"341","","bandit","143","614865","0.0-104.0-0.0","44245712","wem/bandit_either","A16ANYLVNPKCVG","either","7","","","","","","","0","0","1","0.3339820985","","0.6","0.2","0.4","0.8","","","","","0.3339820985","0.2346523549","0.290236101","0.1273865191","","","","","","","72","H","0","img/none_selected.jpg","","65","main_expt"
"339","","bandit","144","616711","0.0-105.0-0.0","44245712","wem/bandit_either","A16ANYLVNPKCVG","either","7","","","","","","","1","0","0","0.3195467083","","0.6","0.2","0.4","0.8","","","","","0.3195467083","0.1881688105","0.2512036594","0.09075088943","","","","","","","72","H","0","img/none_selected.jpg","","66","main_expt"
"447","","bandit","145","618663","0.0-106.0-0.0","44245712","wem/bandit_either","A16ANYLVNPKCVG","either","7","","","","","","","0","0","1","0.3477383846","","0.6","0.2","0.4","0.8","","","","","0.3477383846","0.231043846","0.263747572","0.08077075725","","","","","","","72","H","0","img/none_selected.jpg","","67","main_expt"
"411","","bandit","146","620579","0.0-107.0-0.0","44245712","wem/bandit_either","A16ANYLVNPKCVG","either","7","","","","","","","0","0","1","","0.3365352069","0.6","0.2","0.4","0.8","0.3365352069","0.2576664243","0.2892519303","0.08810311296","","","","","","","","","","","72","H","0","img/none_selected.jpg","","68","main_expt"
"335","","bandit","147","622419","0.0-108.0-0.0","44245712","wem/bandit_either","A16ANYLVNPKCVG","either","7","","","","","","","0","1","0","","0.3148812039","0.6","0.2","0.4","0.8","0.3148812039","0.2183283259","0.2383664846","0.1260156682","","","","","","","","","","","72","H","0","img/none_selected.jpg","","69","main_expt"
"534","","bandit","148","624458","0.0-109.0-0.0","44245712","wem/bandit_either","A16ANYLVNPKCVG","either","7","","","","","","","0","0","1","0.3154014692","","0.6","0.2","0.4","0.8","","","","","0.3154014692","0.2260484764","0.2497111545","0.08773951932","","","","","","","72","H","0","img/none_selected.jpg","","70","main_expt"
"860","","bandit","149","626824","0.0-110.0-0.0","44245712","wem/bandit_either","A16ANYLVNPKCVG","either","7","","","","","","","0","0","1","","0.3196469567","0.6","0.2","0.4","0.8","0.219815459","0.3196469567","0.2095843002","0.1154304285","","","","","","","","","","","74","J","1","","","71","main_expt"
"438","","bandit","150","628768","0.0-111.0-0.0","44245712","wem/bandit_either","A16ANYLVNPKCVG","either","7","","","","","","","0","1","0","","0.1972488467","0.6","0.2","0.4","0.8","0.2623730272","0.3644141189","0.1972488467","0.10097247","","","","","","","","","","","75","K","2","","","72","main_expt"
"386","","bandit","151","630661","0.0-112.0-0.0","44245712","wem/bandit_either","A16ANYLVNPKCVG","either","7","","","","","","","0","0","1","0.15494396","","0.6","0.2","0.4","0.8","","","","","0.2639805735","0.4081842109","0.15494396","0.0746930591","","","","","","","75","K","2","","","73","main_expt"
"322","","bandit","152","632489","0.0-113.0-0.0","44245712","wem/bandit_either","A16ANYLVNPKCVG","either","7","","","","","","","0","0","1","","0.1324790415","0.6","0.2","0.4","0.8","0.2770925356","0.4506698749","0.1324790415","0.1124392477","","","","","","","","","","","75","K","2","","","74","main_expt"
"511","","bandit","153","634506","0.0-114.0-0.0","44245712","wem/bandit_either","A16ANYLVNPKCVG","either","7","","","","","","","0","0","1","","0.179195356","0.6","0.2","0.4","0.8","0.2796652475","0.454520075","0.179195356","0.113494578","","","","","","","","","","","75","K","2","","","75","main_expt"
"357","","bandit","154","636368","0.0-115.0-0.0","44245712","wem/bandit_either","A16ANYLVNPKCVG","either","7","","","","","","","0","1","0","","0.466199952","0.6","0.2","0.4","0.8","0.3153427244","0.466199952","0.215808919","0.1469344428","","","","","","","","","","","74","J","1","","","76","main_expt"
"351","","bandit","155","638225","0.0-116.0-0.0","44245712","wem/bandit_either","A16ANYLVNPKCVG","either","7","","","","","","","0","1","0","","0.4402141775","0.6","0.2","0.4","0.8","0.3676911864","0.4402141775","0.2312347408","0.2152215887","","","","","","","","","","","74","J","1","","","77","main_expt"
"394","","bandit","156","640124","0.0-117.0-0.0","44245712","wem/bandit_either","A16ANYLVNPKCVG","either","7","","","","","","","0","0","1","","0.4525957793","0.6","0.2","0.4","0.8","0.3434277392","0.4525957793","0.2197025874","0.2055177618","","","","","","","","","","","74","J","1","","","78","main_expt"
"393","","bandit","157","642023","0.0-118.0-0.0","44245712","wem/bandit_either","A16ANYLVNPKCVG","either","7","","","","","","","1","0","0","0.4630799716","","0.6","0.2","0.4","0.8","","","","","0.3758616161","0.4630799716","0.2227420924","0.222262525","","","","","","","74","J","1","","","79","main_expt"
"367","","bandit","158","643897","0.0-119.0-0.0","44245712","wem/bandit_either","A16ANYLVNPKCVG","either","7","","","","","","","0","0","1","","0.423693353","0.6","0.2","0.4","0.8","0.3862393514","0.423693353","0.2283057493","0.2700860438","","","","","","","","","","","74","J","1","","","80","main_expt"
"345","","bandit","159","645747","0.0-120.0-0.0","44245712","wem/bandit_either","A16ANYLVNPKCVG","either","7","","","","","","","0","0","1","","0.4319112677","0.6","0.2","0.4","0.8","0.3593770893","0.4319112677","0.2721525977","0.2642688004","","","","","","","","","","","74","J","1","","","81","main_expt"
"388","","bandit","160","647641","0.0-121.0-0.0","44245712","wem/bandit_either","A16ANYLVNPKCVG","either","7","","","","","","","0","1","0","","0.441827487","0.6","0.2","0.4","0.8","0.4035110645","0.441827487","0.2850237184","0.2824164754","","","","","","","","","","","74","J","1","","","82","main_expt"
"301","","bandit","161","649448","0.0-122.0-0.0","44245712","wem/bandit_either","A16ANYLVNPKCVG","either","7","","","","","","","1","0","0","0.4288861504","","0.6","0.2","0.4","0.8","","","","","0.3719627038","0.4288861504","0.3236436683","0.2819095575","","","","","","","74","J","1","","","83","main_expt"
"349","","bandit","162","651302","0.0-123.0-0.0","44245712","wem/bandit_either","A16ANYLVNPKCVG","either","7","","","","","","","0","0","1","","0.4350385517","0.6","0.2","0.4","0.8","0.3349288927","0.4350385517","0.3339638593","0.2589745902","","","","","","","","","","","74","J","1","","","84","main_expt"
"285","","bandit","163","653092","0.0-124.0-0.0","44245712","wem/bandit_either","A16ANYLVNPKCVG","either","7","","","","","","","0","1","0","","0.4255505645","0.6","0.2","0.4","0.8","0.3247899262","0.4255505645","0.3795022601","0.3626504113","","","","","","","","","","","74","J","1","","","85","main_expt"
"325","","bandit","164","654924","0.0-125.0-0.0","44245712","wem/bandit_either","A16ANYLVNPKCVG","either","7","","","","","","","0","0","1","","0.4330938692","0.6","0.2","0.4","0.8","0.3443557019","0.4330938692","0.3835523064","0.3598915268","","","","","","","","","","","74","J","1","","","86","main_expt"
"286","","bandit","165","656715","0.0-126.0-0.0","44245712","wem/bandit_either","A16ANYLVNPKCVG","either","7","","","","","","","0","0","1","","0.4548398529","0.6","0.2","0.4","0.8","0.3648776167","0.4548398529","0.3772514457","0.3433052933","","","","","","","","","","","74","J","1","","","87","main_expt"
"339","","bandit","166","658559","0.0-127.0-0.0","44245712","wem/bandit_either","A16ANYLVNPKCVG","either","7","","","","","","","0","0","1","","0.4493124031","0.6","0.2","0.4","0.8","0.3609631839","0.4493124031","0.3766830519","0.4022938878","","","","","","","","","","","74","J","1","","","88","main_expt"
"311","","bandit","167","660379","0.0-128.0-0.0","44245712","wem/bandit_either","A16ANYLVNPKCVG","either","7","","","","","","","0","1","0","","0.4161110063","0.6","0.2","0.4","0.8","0.3636167192","0.4161110063","0.3537755119","0.4141493151","","","","","","","","","","","74","J","1","","","89","main_expt"
"297","","bandit","168","662181","0.0-129.0-0.0","44245712","wem/bandit_either","A16ANYLVNPKCVG","either","7","","","","","","","0","1","0","","0.405260856","0.6","0.2","0.4","0.8","0.3563441379","0.405260856","0.3014761449","0.4136124289","","","","","","","","","","","74","J","1","","","90","main_expt"
"306","","bandit","169","663992","0.0-130.0-0.0","44245712","wem/bandit_either","A16ANYLVNPKCVG","either","7","","","","","","","0","0","1","","0.3827048226","0.6","0.2","0.4","0.8","0.3389138503","0.3827048226","0.2694038268","0.4184852842","","","","","","","","","","","74","J","1","","","91","main_expt"
"257","","bandit","170","665755","0.0-131.0-0.0","44245712","wem/bandit_either","A16ANYLVNPKCVG","either","7","","","","","","","0","1","0","","0.3552182969","0.6","0.2","0.4","0.8","0.3263360165","0.3552182969","0.2651536323","0.4456808576","","","","","","","","","","","74","J","1","","","92","main_expt"
"330","","bandit","171","667592","0.0-132.0-0.0","44245712","wem/bandit_either","A16ANYLVNPKCVG","either","7","","","","","","","0","0","1","","0.3286897504","0.6","0.2","0.4","0.8","0.2844131911","0.3286897504","0.1997208586","0.4355219805","","","","","","","","","","","74","J","1","","","93","main_expt"
"325","","bandit","172","669423","0.0-133.0-0.0","44245712","wem/bandit_either","A16ANYLVNPKCVG","either","7","","","","","","","0","0","1","","0.3422490236","0.6","0.2","0.4","0.8","0.2978465223","0.3422490236","0.2442555344","0.4609821192","","","","","","","","","","","74","J","1","","","94","main_expt"
"319","","bandit","173","671248","0.0-134.0-0.0","44245712","wem/bandit_either","A16ANYLVNPKCVG","either","7","","","","","","","0","0","1","","0.3160161054","0.6","0.2","0.4","0.8","0.2638723705","0.3160161054","0.2638839348","0.4419374505","","","","","","","","","","","74","J","1","","","95","main_expt"
"602","","bandit","174","673357","0.0-135.0-0.0","44245712","wem/bandit_either","A16ANYLVNPKCVG","either","7","","","","","","","0","1","0","","0.2945538732","0.6","0.2","0.4","0.8","0.2276010735","0.2945538732","0.2265245807","0.39438674","","","","","","","","","","","74","J","1","","","96","main_expt"
"374","","bandit","175","675236","0.0-136.0-0.0","44245712","wem/bandit_either","A16ANYLVNPKCVG","either","7","","","","","","","0","1","0","","0.393563827","0.6","0.2","0.4","0.8","0.2045446072","0.393563827","0.1969189177","0.3617668419","","","","","","","","","","","74","J","1","","","97","main_expt"
"434","","bandit","176","677177","0.0-137.0-0.0","44245712","wem/bandit_either","A16ANYLVNPKCVG","either","7","","","","","","","0","0","1","","0.4046254927","0.6","0.2","0.4","0.8","0.2436418828","0.4046254927","0.1761144245","0.3737913853","","","","","","","","","","","74","J","1","","","98","main_expt"
"389","","bandit","177","679072","0.0-138.0-0.0","44245712","wem/bandit_either","A16ANYLVNPKCVG","either","7","","","","","","","0","0","1","","0.3659012549","0.6","0.2","0.4","0.8","0.2473144087","0.3659012549","0.1211630765","0.4221129479","","","","","","","","","","","74","J","1","","","99","main_expt"
"245","","bandit","178","680822","0.0-139.0-0.0","44245712","wem/bandit_either","A16ANYLVNPKCVG","either","7","","","","","","","0","0","1","0.2707360286","","0.6","0.2","0.4","0.8","","","","","0.2707360286","0.400368336","0.1257326749","0.3857893684","","","","","","","72","H","0","img/none_selected.jpg","","100","main_expt"
"359","","bandit","179","682688","0.0-140.0-0.0","44245712","wem/bandit_either","A16ANYLVNPKCVG","either","7","","","","","","","0","0","1","0.3250409822","","0.6","0.2","0.4","0.8","","","","","0.3250409822","0.4367931528","0.09975532208","0.3635527264","","","","","","","72","H","0","img/none_selected.jpg","","101","main_expt"
"373","","bandit","180","684566","0.0-141.0-0.0","44245712","wem/bandit_either","A16ANYLVNPKCVG","either","7","","","","","","","0","0","1","0.3088580598","","0.6","0.2","0.4","0.8","","","","","0.3088580598","0.4371155326","0.1127414424","0.3738375489","","","","","","","72","H","0","img/none_selected.jpg","","102","main_expt"
"1255","","bandit","181","687328","0.0-142.0-0.0","44245712","wem/bandit_either","A16ANYLVNPKCVG","either","7","","","","","","","0","0","1","0.1232600734","","0.6","0.2","0.4","0.8","","","","","0.2901001995","0.388648264","0.1232600734","0.3860163181","","","","","","","75","K","2","","","103","main_expt"
"342","","bandit","182","689176","0.0-143.0-0.0","44245712","wem/bandit_either","A16ANYLVNPKCVG","either","7","","","","","","","0","0","1","0.08156843846","","0.6","0.2","0.4","0.8","","","","","0.309645936","0.3718469433","0.08156843846","0.390692362","","","","","","","75","K","2","","","104","main_expt"
"352","","bandit","183","691036","0.0-144.0-0.0","44245712","wem/bandit_either","A16ANYLVNPKCVG","either","7","","","","","","","0","0","1","0.08245659199","","0.6","0.2","0.4","0.8","","","","","0.3386062745","0.3920304628","0.08245659199","0.4139082553","","","","","","","75","K","2","","","105","main_expt"
"291","","bandit","184","692833","0.0-145.0-0.0","44245712","wem/bandit_either","A16ANYLVNPKCVG","either","7","","","","","","","0","0","1","0.3295275825","","0.6","0.2","0.4","0.8","","","","","0.3827539061","0.3733497125","0.1276639339","0.3295275825","","","","","","","76","L","3","","","106","main_expt"
"319","","bandit","185","694658","0.0-146.0-0.0","44245712","wem/bandit_either","A16ANYLVNPKCVG","either","7","","","","","","","0","0","1","0.3499712774","","0.6","0.2","0.4","0.8","","","","","0.3401355396","0.3878439861","0.1812689745","0.3499712774","","","","","","","76","L","3","","","107","main_expt"
"261","","bandit","186","696425","0.0-147.0-0.0","44245712","wem/bandit_either","A16ANYLVNPKCVG","either","7","","","","","","","0","0","1","0.2666891207","","0.6","0.2","0.4","0.8","","","","","0.3258039352","0.3529013302","0.2187982558","0.2666891207","","","","","","","76","L","3","","","108","main_expt"
"181","","bandit","187","698112","0.0-148.0-0.0","44245712","wem/bandit_either","A16ANYLVNPKCVG","either","7","","","","","","","0","1","0","","0.3457683734","0.6","0.2","0.4","0.8","0.374919859","0.3457683734","0.2201216928","0.2575067634","","","","","","","","","","","74","J","1","","","109","main_expt"
"323","","bandit","188","699943","0.0-149.0-0.0","44245712","wem/bandit_either","A16ANYLVNPKCVG","either","7","","","","","","","0","0","1","","0.3316873257","0.6","0.2","0.4","0.8","0.3656186065","0.3316873257","0.1789817232","0.2664913793","","","","","","","","","","","74","J","1","","","110","main_expt"
"380","","bandit","189","701830","0.0-150.0-0.0","44245712","wem/bandit_either","A16ANYLVNPKCVG","either","7","","","","","","","0","0","1","","0.3434945318","0.6","0.2","0.4","0.8","0.3649701027","0.3434945318","0.2404947452","0.2233446911","","","","","","","","","","","74","J","1","","","111","main_expt"
"432","","bandit","190","703768","0.0-151.0-0.0","44245712","wem/bandit_either","A16ANYLVNPKCVG","either","7","","","","","","","0","0","1","0.2729480053","","0.6","0.2","0.4","0.8","","","","","0.3371716456","0.2729480053","0.2959558532","0.2170082082","","","","","","","74","J","1","","","112","main_expt"
"354","","bandit","191","705629","0.0-152.0-0.0","44245712","wem/bandit_either","A16ANYLVNPKCVG","either","7","","","","","","","0","0","1","0.2579672073","","0.6","0.2","0.4","0.8","","","","","0.2587224119","0.2579672073","0.2966985553","0.1912277411","","","","","","","74","J","1","","","113","main_expt"
"440","","bandit","192","707576","0.0-153.0-0.0","44245712","wem/bandit_either","A16ANYLVNPKCVG","either","7","","","","","","","0","0","1","","0.24654084","0.6","0.2","0.4","0.8","0.2384324947","0.24654084","0.3289730608","0.1691995451","","","","","","","","","","","74","J","1","","","114","main_expt"
"299","","bandit","193","709382","0.0-154.0-0.0","44245712","wem/bandit_either","A16ANYLVNPKCVG","either","7","","","","","","","0","0","1","","0.2705755989","0.6","0.2","0.4","0.8","0.2705755989","0.246649757","0.2783705844","0.1263730162","","","","","","","","","","","72","H","0","img/none_selected.jpg","","115","main_expt"
"395","","bandit","194","711283","0.0-155.0-0.0","44245712","wem/bandit_either","A16ANYLVNPKCVG","either","7","","","","","","","1","0","0","0.2666822","","0.6","0.2","0.4","0.8","","","","","0.2666822","0.2190482835","0.2990421824","0.1130092975","","","","","","","72","H","0","img/none_selected.jpg","","116","main_expt"
"312","","bandit","195","713101","0.0-156.0-0.0","44245712","wem/bandit_either","A16ANYLVNPKCVG","either","7","","","","","","","0","0","1","0.2664749026","","0.6","0.2","0.4","0.8","","","","","0.2664749026","0.1860086181","0.3214730448","0.1317362661","","","","","","","72","H","0","img/none_selected.jpg","","117","main_expt"
"295","","bandit","196","714902","0.0-157.0-0.0","44245712","wem/bandit_either","A16ANYLVNPKCVG","either","7","","","","","","","1","0","0","0.285497096","","0.6","0.2","0.4","0.8","","","","","0.285497096","0.1765749983","0.3996160597","0.08460291254","","","","","","","72","H","0","img/none_selected.jpg","","118","main_expt"
"274","","bandit","197","716684","0.0-158.0-0.0","44245712","wem/bandit_either","A16ANYLVNPKCVG","either","7","","","","","","","0","1","0","","0.3004427434","0.6","0.2","0.4","0.8","0.3004427434","0.1840588368","0.4143362638","0.09168363065","","","","","","","","","","","72","H","0","img/none_selected.jpg","","119","main_expt"
"377","","bandit","198","718568","0.0-159.0-0.0","44245712","wem/bandit_either","A16ANYLVNPKCVG","either","7","","","","","","","0","0","1","0.2419855731","","0.6","0.2","0.4","0.8","","","","","0.2419855731","0.1988357929","0.372340151","0.06729372802","","","","","","","72","H","0","img/none_selected.jpg","","120","main_expt"
"269","","bandit","199","720344","0.0-160.0-0.0","44245712","wem/bandit_either","A16ANYLVNPKCVG","either","7","","","","","","","0","0","1","0.3054132847","","0.6","0.2","0.4","0.8","","","","","0.3054132847","0.2315674","0.3910424524","0.08346408207","","","","","","","72","H","0","img/none_selected.jpg","","121","main_expt"
"318","","bandit","200","722168","0.0-161.0-0.0","44245712","wem/bandit_either","A16ANYLVNPKCVG","either","7","","","","","","","0","0","1","0.2473202095","","0.6","0.2","0.4","0.8","","","","","0.2473202095","0.2041322171","0.3813410711","0.05632743158","","","","","","","72","H","0","img/none_selected.jpg","","122","main_expt"
"317","","bandit","201","723991","0.0-162.0-0.0","44245712","wem/bandit_either","A16ANYLVNPKCVG","either","7","","","","","","","1","0","0","0.2909195989","","0.6","0.2","0.4","0.8","","","","","0.2909195989","0.1945268209","0.4247291795","0.05516745574","","","","","","","72","H","0","img/none_selected.jpg","","123","main_expt"
"355","","bandit","202","725852","0.0-163.0-0.0","44245712","wem/bandit_either","A16ANYLVNPKCVG","either","7","","","","","","","0","0","1","0.3493750294","","0.6","0.2","0.4","0.8","","","","","0.3493750294","0.2206749142","0.4311179713","0.05528311039","","","","","","","72","H","0","img/none_selected.jpg","","124","main_expt"
"263","","bandit","203","727622","0.0-164.0-0.0","44245712","wem/bandit_either","A16ANYLVNPKCVG","either","7","","","","","","","0","0","1","","0.3883668019","0.6","0.2","0.4","0.8","0.3883668019","0.212012295","0.4085782939","0.07149807259","","","","","","","","","","","72","H","0","img/none_selected.jpg","","125","main_expt"
"295","","bandit","204","729424","0.0-165.0-0.0","44245712","wem/bandit_either","A16ANYLVNPKCVG","either","7","","","","","","","0","0","1","0.3888129637","","0.6","0.2","0.4","0.8","","","","","0.3888129637","0.1656684785","0.4110861309","0.1137803622","","","","","","","72","H","0","img/none_selected.jpg","","126","main_expt"
"1210","","bandit","205","732140","0.0-166.0-0.0","44245712","wem/bandit_either","A16ANYLVNPKCVG","either","7","","","","","","","0","0","1","","0.4214671818","0.6","0.2","0.4","0.8","0.3659195129","0.1685301808","0.4214671818","0.1003054442","","","","","","","","","","","75","K","2","","","127","main_expt"
"288","","bandit","206","733935","0.0-167.0-0.0","44245712","wem/bandit_either","A16ANYLVNPKCVG","either","7","","","","","","","0","0","1","0.36889317","","0.6","0.2","0.4","0.8","","","","","0.3689954399","0.1703551811","0.36889317","0.1378169536","","","","","","","75","K","2","","","128","main_expt"
"1010","","bandit","207","736452","0.0-168.0-0.0","44245712","wem/bandit_either","A16ANYLVNPKCVG","either","7","","","","","","","0","0","1","","0.3840267129","0.6","0.2","0.4","0.8","0.3600340942","0.1624753709","0.3840267129","0.1333081235","","","","","","","","","","","75","K","2","","","129","main_expt"
"218","","bandit","208","738177","0.0-169.0-0.0","44245712","wem/bandit_either","A16ANYLVNPKCVG","either","7","","","","","","","0","0","1","","0.1682212827","0.6","0.2","0.4","0.8","0.3580797835","0.2335662737","0.3809677701","0.1682212827","","","","","","","","","","","76","L","3","","","130","main_expt"
"325","","bandit","209","740011","0.0-170.0-0.0","44245712","wem/bandit_either","A16ANYLVNPKCVG","either","7","","","","","","","0","0","1","0.2193829955","","0.6","0.2","0.4","0.8","","","","","0.3785893338","0.240441026","0.3681933818","0.2193829955","","","","","","","76","L","3","","","131","main_expt"
"278","","bandit","210","741796","0.0-171.0-0.0","44245712","wem/bandit_either","A16ANYLVNPKCVG","either","7","","","","","","","1","0","0","0.2693349046","","0.6","0.2","0.4","0.8","","","","","0.3764735404","0.2266699971","0.3664045944","0.2693349046","","","","","","","76","L","3","","","132","main_expt"
"410","","bandit","211","743712","0.0-172.0-0.0","44245712","wem/bandit_either","A16ANYLVNPKCVG","either","7","","","","","","","0","0","1","0.2576546077","","0.6","0.2","0.4","0.8","","","","","0.3433534211","0.1994193025","0.4046437197","0.2576546077","","","","","","","76","L","3","","","133","main_expt"
"290","","bandit","212","745508","0.0-173.0-0.0","44245712","wem/bandit_either","A16ANYLVNPKCVG","either","7","","","","","","","0","0","1","","0.1891464922","0.6","0.2","0.4","0.8","0.3606247271","0.1891464922","0.364490756","0.2412372273","","","","","","","","","","","74","J","1","","","134","main_expt"
"456","","bandit","213","747470","0.0-174.0-0.0","44245712","wem/bandit_either","A16ANYLVNPKCVG","either","7","","","","","","","0","0","1","","0.1614798668","0.6","0.2","0.4","0.8","0.3268624306","0.1614798668","0.311914316","0.2198641054","","","","","","","","","","","74","J","1","","","135","main_expt"
"247","","bandit","214","749224","0.0-175.0-0.0","44245712","wem/bandit_either","A16ANYLVNPKCVG","either","7","","","","","","","0","0","1","0.2854606769","","0.6","0.2","0.4","0.8","","","","","0.2854606769","0.1880386222","0.2653901568","0.2504132697","","","","","","","72","H","0","img/none_selected.jpg","","136","main_expt"
"329","","bandit","215","751060","0.0-176.0-0.0","44245712","wem/bandit_either","A16ANYLVNPKCVG","either","7","","","","","","","0","0","1","","0.3311747399","0.6","0.2","0.4","0.8","0.3311747399","0.1961818793","0.2413295316","0.1912230989","","","","","","","","","","","72","H","0","img/none_selected.jpg","","137","main_expt"
"302","","bandit","216","752871","0.0-177.0-0.0","44245712","wem/bandit_either","A16ANYLVNPKCVG","either","7","","","","","","","0","0","1","0.2570785188","","0.6","0.2","0.4","0.8","","","","","0.2570785188","0.2857678963","0.2060295423","0.1576256809","","","","","","","72","H","0","img/none_selected.jpg","","138","main_expt"
"355","","bandit","217","754733","0.0-178.0-0.0","44245712","wem/bandit_either","A16ANYLVNPKCVG","either","7","","","","","","","1","0","0","0.2858060749","","0.6","0.2","0.4","0.8","","","","","0.2858060749","0.3449131854","0.1809645164","0.1019788138","","","","","","","72","H","0","img/none_selected.jpg","","139","main_expt"
"311","","bandit","218","756551","0.0-179.0-0.0","44245712","wem/bandit_either","A16ANYLVNPKCVG","either","7","","","","","","","0","1","0","","0.2975559752","0.6","0.2","0.4","0.8","0.2975559752","0.2537716732","0.1843216893","0.07754087054","","","","","","","","","","","72","H","0","img/none_selected.jpg","","140","main_expt"
"330","","bandit","219","758387","0.0-180.0-0.0","44245712","wem/bandit_either","A16ANYLVNPKCVG","either","7","","","","","","","1","0","0","0.2802168405","","0.6","0.2","0.4","0.8","","","","","0.2802168405","0.2858111263","0.1651876155","0.09489610577","","","","","","","72","H","0","img/none_selected.jpg","","141","main_expt"
"287","","bandit","220","760181","0.0-181.0-0.0","44245712","wem/bandit_either","A16ANYLVNPKCVG","either","7","","","","","","","0","0","1","","0.2231986748","0.6","0.2","0.4","0.8","0.2231986748","0.303049367","0.1536427928","0.09601428546","","","","","","","","","","","72","H","0","img/none_selected.jpg","","142","main_expt"
"341","","bandit","221","762029","0.0-182.0-0.0","44245712","wem/bandit_either","A16ANYLVNPKCVG","either","7","","","","","","","0","0","1","0.2032880393","","0.6","0.2","0.4","0.8","","","","","0.2032880393","0.2969419413","0.1546140226","0.08301142993","","","","","","","72","H","0","img/none_selected.jpg","","143","main_expt"
"270","","bandit","222","763805","0.0-183.0-0.0","44245712","wem/bandit_either","A16ANYLVNPKCVG","either","7","","","","","","","0","0","1","0.1967741464","","0.6","0.2","0.4","0.8","","","","","0.1967741464","0.3128690494","0.1746031107","0.09599686985","","","","","","","72","H","0","img/none_selected.jpg","","144","main_expt"
"261","","bandit","223","765574","0.0-184.0-0.0","44245712","wem/bandit_either","A16ANYLVNPKCVG","either","7","","","","","","","0","0","1","","0.2283154954","0.6","0.2","0.4","0.8","0.2283154954","0.2991796355","0.2021387556","0.07499383622","","","","","","","","","","","72","H","0","img/none_selected.jpg","","145","main_expt"
"331","","bandit","224","767413","0.0-185.0-0.0","44245712","wem/bandit_either","A16ANYLVNPKCVG","either","7","","","","","","","0","0","1","","0.2118700154","0.6","0.2","0.4","0.8","0.2118700154","0.3163763193","0.2504344391","0.09566861","","","","","","","","","","","72","H","0","img/none_selected.jpg","","146","main_expt"
"228","","bandit","225","769149","0.0-186.0-0.0","44245712","wem/bandit_either","A16ANYLVNPKCVG","either","7","","","","","","","0","0","1","","0.2437718569","0.6","0.2","0.4","0.8","0.210437557","0.3198025905","0.2437718569","0.08578591382","","","","","","","","","","","75","K","2","","","147","main_expt"
"254","","bandit","226","770909","0.0-187.0-0.0","44245712","wem/bandit_either","A16ANYLVNPKCVG","either","7","","","","","","","1","0","0","0.2446677265","","0.6","0.2","0.4","0.8","","","","","0.2370661354","0.2588245921","0.2446677265","0.1147887709","","","","","","","75","K","2","","","148","main_expt"
"271","","bandit","227","772687","0.0-188.0-0.0","44245712","wem/bandit_either","A16ANYLVNPKCVG","either","7","","","","","","","0","0","1","","0.2911002833","0.6","0.2","0.4","0.8","0.2430363771","0.248712437","0.2911002833","0.1378203382","","","","","","","","","","","75","K","2","","","149","main_expt"
"292","","bandit","228","774485","0.0-189.0-0.0","44245712","wem/bandit_either","A16ANYLVNPKCVG","either","7","","","","","","","0","0","1","","0.3529655025","0.6","0.2","0.4","0.8","0.2242182381","0.179144869","0.3529655025","0.1414499273","","","","","","","","","","","75","K","2","","","150","main_expt"
"207","","bandit","229","776199","0.0-190.0-0.0","44245712","wem/bandit_either","A16ANYLVNPKCVG","either","7","","","","","","","0","1","0","","0.3885741111","0.6","0.2","0.4","0.8","0.1997145133","0.1545669956","0.3885741111","0.07852348772","","","","","","","","","","","75","K","2","","","151","main_expt"
"252","","bandit","230","777957","0.0-191.0-0.0","44245712","wem/bandit_either","A16ANYLVNPKCVG","either","7","","","","","","","1","0","0","0.3690499696","","0.6","0.2","0.4","0.8","","","","","0.2195927633","0.1651714415","0.3690499696","0.08485793113","","","","","","","75","K","2","","","152","main_expt"
"227","","bandit","231","779693","0.0-192.0-0.0","44245712","wem/bandit_either","A16ANYLVNPKCVG","either","7","","","","","","","0","0","1","0.3710492515","","0.6","0.2","0.4","0.8","","","","","0.2121816628","0.2396245514","0.3710492515","0.1083789561","","","","","","","75","K","2","","","153","main_expt"
"287","","bandit","232","781488","0.0-193.0-0.0","44245712","wem/bandit_either","A16ANYLVNPKCVG","either","7","","","","","","","1","0","0","0.3483335413","","0.6","0.2","0.4","0.8","","","","","0.1830588608","0.2085838567","0.3483335413","0.109098481","","","","","","","75","K","2","","","154","main_expt"
"279","","bandit","233","783275","0.0-194.0-0.0","44245712","wem/bandit_either","A16ANYLVNPKCVG","either","7","","","","","","","0","0","1","","0.3343760247","0.6","0.2","0.4","0.8","0.2031423662","0.1864274254","0.3343760247","0.1758262092","","","","","","","","","","","75","K","2","","","155","main_expt"
"280","","bandit","234","785062","0.0-195.0-0.0","44245712","wem/bandit_either","A16ANYLVNPKCVG","either","7","","","","","","","0","0","1","","0.3742013553","0.6","0.2","0.4","0.8","0.2022731065","0.1750870897","0.3742013553","0.2046597001","","","","","","","","","","","75","K","2","","","156","main_expt"
"266","","bandit","235","786837","0.0-196.0-0.0","44245712","wem/bandit_either","A16ANYLVNPKCVG","either","7","","","","","","","0","1","0","","0.3620366094","0.6","0.2","0.4","0.8","0.1826661219","0.1321985386","0.3620366094","0.1774751899","","","","","","","","","","","75","K","2","","","157","main_expt"
"327","","bandit","236","788670","0.0-197.0-0.0","44245712","wem/bandit_either","A16ANYLVNPKCVG","either","7","","","","","","","1","0","0","0.3671714071","","0.6","0.2","0.4","0.8","","","","","0.1658993888","0.1341899746","0.3671714071","0.1612033886","","","","","","","75","K","2","","","158","main_expt"
"302","","bandit","237","790479","0.0-198.0-0.0","44245712","wem/bandit_either","A16ANYLVNPKCVG","either","7","","","","","","","0","0","1","","0.4015988616","0.6","0.2","0.4","0.8","0.1620079643","0.1567784951","0.4015988616","0.1586838935","","","","","","","","","","","75","K","2","","","159","main_expt"
"338","","bandit","238","792323","0.0-199.0-0.0","44245712","wem/bandit_either","A16ANYLVNPKCVG","either","7","","","","","","","0","0","1","0.4004877553","","0.6","0.2","0.4","0.8","","","","","0.2453635642","0.1615549635","0.4004877553","0.2159944071","","","","","","","75","K","2","","","160","main_expt"
"618","","bandit","239","794448","0.0-200.0-0.0","44245712","wem/bandit_either","A16ANYLVNPKCVG","either","7","","","","","","","1","0","0","0.4095849454","","0.6","0.2","0.4","0.8","","","","","0.2456373749","0.1854631015","0.4095849454","0.2105769377","","","","","","","75","K","2","","","161","main_expt"
"271","","bandit","240","796226","0.0-201.0-0.0","44245712","wem/bandit_either","A16ANYLVNPKCVG","either","7","","","","","","","0","0","1","","0.3978002783","0.6","0.2","0.4","0.8","0.2460125232","0.21229469","0.3978002783","0.2006925765","","","","","","","","","","","75","K","2","","","162","main_expt"
"276","","bandit","241","798010","0.0-202.0-0.0","44245712","wem/bandit_either","A16ANYLVNPKCVG","either","7","","","","","","","1","0","0","0.4180552148","","0.6","0.2","0.4","0.8","","","","","0.2013568893","0.162194177","0.4180552148","0.2365124807","","","","","","","75","K","2","","","163","main_expt"
"235","","bandit","242","799752","0.0-203.0-0.0","44245712","wem/bandit_either","A16ANYLVNPKCVG","either","7","","","","","","","0","0","1","","0.4407560021","0.6","0.2","0.4","0.8","0.1933595846","0.1535707797","0.4407560021","0.2157370886","","","","","","","","","","","75","K","2","","","164","main_expt"
"263","","bandit","243","801523","0.0-204.0-0.0","44245712","wem/bandit_either","A16ANYLVNPKCVG","either","7","","","","","","","0","1","0","","0.4582960521","0.6","0.2","0.4","0.8","0.167552211","0.2315934193","0.4582960521","0.2166787898","","","","","","","","","","","75","K","2","","","165","main_expt"
"196","","bandit","244","803226","0.0-205.0-0.0","44245712","wem/bandit_either","A16ANYLVNPKCVG","either","7","","","","","","","0","1","0","","0.4337500892","0.6","0.2","0.4","0.8","0.1311237951","0.2579087381","0.4337500892","0.1846262972","","","","","","","","","","","75","K","2","","","166","main_expt"
"220","","bandit","245","804954","0.0-206.0-0.0","44245712","wem/bandit_either","A16ANYLVNPKCVG","either","7","","","","","","","0","0","1","","0.4537582576","0.6","0.2","0.4","0.8","0.1714029316","0.2496457694","0.4537582576","0.1888750078","","","","","","","","","","","75","K","2","","","167","main_expt"
"224","","bandit","246","806685","0.0-207.0-0.0","44245712","wem/bandit_either","A16ANYLVNPKCVG","either","7","","","","","","","0","0","1","","0.4473485534","0.6","0.2","0.4","0.8","0.1494402723","0.234558796","0.4473485534","0.2315683769","","","","","","","","","","","75","K","2","","","168","main_expt"
"232","","bandit","247","808426","0.0-208.0-0.0","44245712","wem/bandit_either","A16ANYLVNPKCVG","either","7","","","","","","","0","1","0","","0.4471591033","0.6","0.2","0.4","0.8","0.1819888556","0.2458600006","0.4471591033","0.2018123945","","","","","","","","","","","75","K","2","","","169","main_expt"
"230","","bandit","248","810164","0.0-209.0-0.0","44245712","wem/bandit_either","A16ANYLVNPKCVG","either","7","","","","","","","0","0","1","","0.4581839475","0.6","0.2","0.4","0.8","0.2329206984","0.2214583157","0.4581839475","0.139238222","","","","","","","","","","","75","K","2","","","170","main_expt"
"296","","bandit","249","811969","0.0-210.0-0.0","44245712","wem/bandit_either","A16ANYLVNPKCVG","either","7","","","","","","","0","0","1","0.4674995421","","0.6","0.2","0.4","0.8","","","","","0.2000607923","0.296208115","0.4674995421","0.1466511374","","","","","","","75","K","2","","","171","main_expt"
"267","","bandit","250","813743","0.0-211.0-0.0","44245712","wem/bandit_either","A16ANYLVNPKCVG","either","7","","","","","","","1","0","0","0.4455620345","","0.6","0.2","0.4","0.8","","","","","0.2342957318","0.3062379281","0.4455620345","0.1348290388","","","","","","","75","K","2","","","172","main_expt"
"315","","bandit","251","815567","0.0-212.0-0.0","44245712","wem/bandit_either","A16ANYLVNPKCVG","either","7","","","","","","","1","0","0","0.4471610379","","0.6","0.2","0.4","0.8","","","","","0.2189308077","0.2498067723","0.4471610379","0.1521691919","","","","","","","75","K","2","","","173","main_expt"
"295","","bandit","252","817368","0.0-213.0-0.0","44245712","wem/bandit_either","A16ANYLVNPKCVG","either","7","","","","","","","0","0","1","","0.4496576915","0.6","0.2","0.4","0.8","0.2373932689","0.1803522277","0.4496576915","0.2191935525","","","","","","","","","","","75","K","2","","","174","main_expt"
"229","","bandit","253","819105","0.0-214.0-0.0","44245712","wem/bandit_either","A16ANYLVNPKCVG","either","7","","","","","","","0","0","1","","0.4715297358","0.6","0.2","0.4","0.8","0.2160264752","0.2014319342","0.4715297358","0.219961305","","","","","","","","","","","75","K","2","","","175","main_expt"
"236","","bandit","254","820847","0.0-215.0-0.0","44245712","wem/bandit_either","A16ANYLVNPKCVG","either","7","","","","","","","0","0","1","","0.477956151","0.6","0.2","0.4","0.8","0.1990604306","0.2122003168","0.477956151","0.1882485239","","","","","","","","","","","75","K","2","","","176","main_expt"
"221","","bandit","255","822576","0.0-216.0-0.0","44245712","wem/bandit_either","A16ANYLVNPKCVG","either","7","","","","","","","1","0","0","0.4563721206","","0.6","0.2","0.4","0.8","","","","","0.1729978196","0.2629069455","0.4563721206","0.1644902553","","","","","","","75","K","2","","","177","main_expt"
"252","","bandit","256","824335","0.0-217.0-0.0","44245712","wem/bandit_either","A16ANYLVNPKCVG","either","7","","","","","","","0","1","0","","0.4409869931","0.6","0.2","0.4","0.8","0.1633080779","0.2336104206","0.4409869931","0.1713669852","","","","","","","","","","","75","K","2","","","178","main_expt"
"238","","bandit","257","826080","0.0-218.0-0.0","44245712","wem/bandit_either","A16ANYLVNPKCVG","either","7","","","","","","","0","0","1","","0.4243126063","0.6","0.2","0.4","0.8","0.1243251356","0.1887504226","0.4243126063","0.2263400462","","","","","","","","","","","75","K","2","","","179","main_expt"
"213","","bandit","258","827800","0.0-219.0-0.0","44245712","wem/bandit_either","A16ANYLVNPKCVG","either","7","","","","","","","0","0","1","","0.4312830743","0.6","0.2","0.4","0.8","0.1150149055","0.138376641","0.4312830743","0.2036870175","","","","","","","","","","","75","K","2","","","180","main_expt"
"147","","bandit","259","829455","0.0-220.0-0.0","44245712","wem/bandit_either","A16ANYLVNPKCVG","either","7","","","","","","","1","0","0","0.1934599198","","0.6","0.2","0.4","0.8","","","","","0.1407924877","0.1883992559","0.4433127893","0.1934599198","","","","","","","76","L","3","","","181","main_expt"
"281","","bandit","260","831242","0.0-221.0-0.0","44245712","wem/bandit_either","A16ANYLVNPKCVG","either","7","","","","","","","0","0","1","0.2424515525","","0.6","0.2","0.4","0.8","","","","","0.09672650852","0.128889003","0.440136403","0.2424515525","","","","","","","76","L","3","","","182","main_expt"
"231","","bandit","261","832980","0.0-222.0-0.0","44245712","wem/bandit_either","A16ANYLVNPKCVG","either","7","","","","","","","0","0","1","","0.1961777535","0.6","0.2","0.4","0.8","0.09888002855","0.1748769843","0.4347693449","0.1961777535","","","","","","","","","","","76","L","3","","","183","main_expt"
"277","","bandit","262","834765","0.0-223.0-0.0","44245712","wem/bandit_either","A16ANYLVNPKCVG","either","7","","","","","","","0","0","1","0.1489283113","","0.6","0.2","0.4","0.8","","","","","0.07200145298","0.1945994373","0.4277130926","0.1489283113","","","","","","","76","L","3","","","184","main_expt"
"140","","bandit","263","836412","0.0-224.0-0.0","44245712","wem/bandit_either","A16ANYLVNPKCVG","either","7","","","","","","","0","1","0","","0.1644748654","0.6","0.2","0.4","0.8","0.09476413333","0.1644748654","0.3956248437","0.1499965078","","","","","","","","","","","74","J","1","","","185","main_expt"
"260","","bandit","264","838179","0.0-225.0-0.0","44245712","wem/bandit_either","A16ANYLVNPKCVG","either","7","","","","","","","0","0","1","","0.1504635592","0.6","0.2","0.4","0.8","0.06556422103","0.1504635592","0.3748928266","0.2169832988","","","","","","","","","","","74","J","1","","","186","main_expt"
"235","","bandit","265","839924","0.0-226.0-0.0","44245712","wem/bandit_either","A16ANYLVNPKCVG","either","7","","","","","","","0","1","0","","0.1760039214","0.6","0.2","0.4","0.8","0.08901149072","0.1760039214","0.3848139325","0.2655186329","","","","","","","","","","","74","J","1","","","187","main_expt"
"385","","bandit","266","841816","0.0-227.0-0.0","44245712","wem/bandit_either","A16ANYLVNPKCVG","either","7","","","","","","","0","1","0","","0.1203267588","0.6","0.2","0.4","0.8","0.09471428588","0.1203267588","0.3990176401","0.2738785118","","","","","","","","","","","74","J","1","","","188","main_expt"
"307","","bandit","267","843630","0.0-228.0-0.0","44245712","wem/bandit_either","A16ANYLVNPKCVG","either","7","","","","","","","0","1","0","","0.1171540391","0.6","0.2","0.4","0.8","0.05118235823","0.1171540391","0.3581396838","0.3041874674","","","","","","","","","","","74","J","1","","","189","main_expt"
"399","","bandit","268","845538","0.0-229.0-0.0","44245712","wem/bandit_either","A16ANYLVNPKCVG","either","7","","","","","","","0","0","1","","0.1535230761","0.6","0.2","0.4","0.8","0.05788318751","0.1535230761","0.2882972244","0.3229453735","","","","","","","","","","","74","J","1","","","190","main_expt"
"329","","bandit","269","847375","0.0-230.0-0.0","44245712","wem/bandit_either","A16ANYLVNPKCVG","either","7","","","","","","","0","0","1","","0.1372750947","0.6","0.2","0.4","0.8","0.08736915481","0.1372750947","0.3145326233","0.3818249757","","","","","","","","","","","74","J","1","","","191","main_expt"
"292","","bandit","270","849175","0.0-231.0-0.0","44245712","wem/bandit_either","A16ANYLVNPKCVG","either","7","","","","","","","0","0","1","","0.1047771501","0.6","0.2","0.4","0.8","0.08251019118","0.1047771501","0.3270603702","0.4157726243","","","","","","","","","","","74","J","1","","","192","main_expt"
"508","","bandit","271","851191","0.0-232.0-0.0","44245712","wem/bandit_either","A16ANYLVNPKCVG","either","7","","","","","","","0","0","1","","0.1100845432","0.6","0.2","0.4","0.8","0.06897628064","0.1100845432","0.3604030797","0.4611608212","","","","","","","","","","","74","J","1","","","193","main_expt"
"739","","bandit","272","853437","0.0-233.0-0.0","44245712","wem/bandit_either","A16ANYLVNPKCVG","either","7","","","","","","","0","0","1","","0.1468163818","0.6","0.2","0.4","0.8","0.06801266305","0.1468163818","0.357423186","0.4508818777","","","","","","","","","","","74","J","1","","","194","main_expt"
"224","","bandit","273","855168","0.0-234.0-0.0","44245712","wem/bandit_either","A16ANYLVNPKCVG","either","7","","","","","","","0","0","1","","0.3697779856","0.6","0.2","0.4","0.8","0.09923709358","0.1495594621","0.3697779856","0.4278921451","","","","","","","","","","","75","K","2","","","195","main_expt"
"320","","bandit","274","856997","0.0-235.0-0.0","44245712","wem/bandit_either","A16ANYLVNPKCVG","either","7","","","","","","","1","0","0","0.3617177512","","0.6","0.2","0.4","0.8","","","","","0.1103063831","0.2263220537","0.3617177512","0.4256293003","","","","","","","75","K","2","","","196","main_expt"
"340","","bandit","275","858844","0.0-236.0-0.0","44245712","wem/bandit_either","A16ANYLVNPKCVG","either","7","","","","","","","0","0","1","0.3775990084","","0.6","0.2","0.4","0.8","","","","","0.07377144043","0.2204718804","0.3775990084","0.4476975038","","","","","","","75","K","2","","","197","main_expt"
"366","","bandit","276","860718","0.0-237.0-0.0","44245712","wem/bandit_either","A16ANYLVNPKCVG","either","7","","","","","","","0","1","0","","0.4144042571","0.6","0.2","0.4","0.8","0.08863448313","0.2401118457","0.4144042571","0.4434357272","","","","","","","","","","","75","K","2","","","198","main_expt"
"274","","bandit","277","862500","0.0-238.0-0.0","44245712","wem/bandit_either","A16ANYLVNPKCVG","either","7","","","","","","","0","1","0","","0.4081775392","0.6","0.2","0.4","0.8","0.1082179128","0.2673724497","0.4081775392","0.4245114622","","","","","","","","","","","75","K","2","","","199","main_expt"
"321","","bandit","278","864328","0.0-239.0-0.0","44245712","wem/bandit_either","A16ANYLVNPKCVG","either","7","","","","","","","0","0","1","","0.4166156547","0.6","0.2","0.4","0.8","0.09350688576","0.3125307902","0.4166156547","0.4087100315","","","","","","","","","","","75","K","2","","","200","main_expt"
"489","","bandit","279","866324","0.0-240.0-0.0","44245712","wem/bandit_either","A16ANYLVNPKCVG","either","7","","","","","","","0","0","1","0.4306537176","","0.6","0.2","0.4","0.8","","","","","0.1036625099","0.2914574258","0.4306537176","0.4361521275","","","","","","","75","K","2","","","201","main_expt"
"272","","bandit","280","868103","0.0-241.0-0.0","44245712","wem/bandit_either","A16ANYLVNPKCVG","either","7","","","","","","","0","0","1","0.449382563","","0.6","0.2","0.4","0.8","","","","","0.1216733889","0.2550600684","0.449382563","0.3332596158","","","","","","","75","K","2","","","202","main_expt"
"228","","bandit","281","869838","0.0-242.0-0.0","44245712","wem/bandit_either","A16ANYLVNPKCVG","either","7","","","","","","","0","0","1","","0.120655788","0.6","0.2","0.4","0.8","0.120655788","0.2769745997","0.4506576586","0.3581848779","","","","","","","","","","","72","H","0","img/none_selected.jpg","","203","main_expt"
"261","","bandit","282","871607","0.0-243.0-0.0","44245712","wem/bandit_either","A16ANYLVNPKCVG","either","7","","","","","","","0","0","1","","0.1082970726","0.6","0.2","0.4","0.8","0.1082970726","0.2752990059","0.454839243","0.3597133043","","","","","","","","","","","72","H","0","img/none_selected.jpg","","204","main_expt"
"265","","bandit","283","873380","0.0-244.0-0.0","44245712","wem/bandit_either","A16ANYLVNPKCVG","either","7","","","","","","","0","0","1","0.09143681274","","0.6","0.2","0.4","0.8","","","","","0.09143681274","0.2901512169","0.4512889682","0.3630183988","","","","","","","72","H","0","img/none_selected.jpg","","205","main_expt"
"163","","bandit","284","875052","0.0-245.0-0.0","44245712","wem/bandit_either","A16ANYLVNPKCVG","either","7","","","","","","","0","0","1","","0.2823763913","0.6","0.2","0.4","0.8","0.08377413986","0.2823763913","0.4591490044","0.3737494834","","","","","","","","","","","74","J","1","","","206","main_expt"
"329","","bandit","285","876889","0.0-246.0-0.0","44245712","wem/bandit_either","A16ANYLVNPKCVG","either","7","","","","","","","0","0","1","","0.2708062506","0.6","0.2","0.4","0.8","0.1585073664","0.2708062506","0.4650593633","0.3668784438","","","","","","","","","","","74","J","1","","","207","main_expt"
"275","","bandit","286","878672","0.0-247.0-0.0","44245712","wem/bandit_either","A16ANYLVNPKCVG","either","7","","","","","","","1","0","0","0.2641553663","","0.6","0.2","0.4","0.8","","","","","0.162299901","0.2641553663","0.4641513068","0.4045351895","","","","","","","74","J","1","","","208","main_expt"
"237","","bandit","287","880417","0.0-248.0-0.0","44245712","wem/bandit_either","A16ANYLVNPKCVG","either","7","","","","","","","0","0","1","","0.2704675845","0.6","0.2","0.4","0.8","0.1542266077","0.2704675845","0.4567807332","0.4402386934","","","","","","","","","","","74","J","1","","","209","main_expt"
"144","","bandit","288","882070","0.0-249.0-0.0","44245712","wem/bandit_either","A16ANYLVNPKCVG","either","7","","","","","","","0","0","1","","0.3420868926","0.6","0.2","0.4","0.8","0.1890415559","0.3420868926","0.428253188","0.4483623408","","","","","","","","","","","74","J","1","","","210","main_expt"
"232","","bandit","289","883809","0.0-250.0-0.0","44245712","wem/bandit_either","A16ANYLVNPKCVG","either","7","","","","","","","0","1","0","","0.3069688952","0.6","0.2","0.4","0.8","0.1818133019","0.3069688952","0.410271385","0.4471415093","","","","","","","","","","","74","J","1","","","211","main_expt"
"214","","bandit","290","885531","0.0-251.0-0.0","44245712","wem/bandit_either","A16ANYLVNPKCVG","either","7","","","","","","","0","1","0","","0.3005379093","0.6","0.2","0.4","0.8","0.1782747956","0.3005379093","0.4065587724","0.4374655127","","","","","","","","","","","74","J","1","","","212","main_expt"
"323","","bandit","291","887362","0.0-252.0-0.0","44245712","wem/bandit_either","A16ANYLVNPKCVG","either","7","","","","","","","0","0","1","","0.213882915","0.6","0.2","0.4","0.8","0.1935195711","0.213882915","0.4007116542","0.4381457257","","","","","","","","","","","74","J","1","","","213","main_expt"
"294","","bandit","292","889164","0.0-253.0-0.0","44245712","wem/bandit_either","A16ANYLVNPKCVG","either","7","","","","","","","0","0","1","","0.2138557204","0.6","0.2","0.4","0.8","0.2421176173","0.2138557204","0.4246209323","0.4643769008","","","","","","","","","","","74","J","1","","","214","main_expt"
"88","","bandit","293","890760","0.0-254.0-0.0","44245712","wem/bandit_either","A16ANYLVNPKCVG","either","7","","","","","","","0","0","1","","0.3993057066","0.6","0.2","0.4","0.8","0.2629876012","0.2142566612","0.3993057066","0.4328812357","","","","","","","","","","","75","K","2","","","215","main_expt"
"291","","bandit","294","892561","0.0-255.0-0.0","44245712","wem/bandit_either","A16ANYLVNPKCVG","either","7","","","","","","","0","1","0","","0.3987772474","0.6","0.2","0.4","0.8","0.2977714141","0.1900351118","0.3987772474","0.4064507999","","","","","","","","","","","75","K","2","","","216","main_expt"
"283","","bandit","295","894353","0.0-256.0-0.0","44245712","wem/bandit_either","A16ANYLVNPKCVG","either","7","","","","","","","1","0","0","0.4101433534","","0.6","0.2","0.4","0.8","","","","","0.3017601552","0.2185169477","0.4101433534","0.4197961641","","","","","","","75","K","2","","","217","main_expt"
"279","","bandit","296","896140","0.0-257.0-0.0","44245712","wem/bandit_either","A16ANYLVNPKCVG","either","7","","","","","","","0","1","0","","0.4448029092","0.6","0.2","0.4","0.8","0.2888566207","0.2240895604","0.4448029092","0.4167397569","","","","","","","","","","","75","K","2","","","218","main_expt"
"261","","bandit","297","897908","0.0-258.0-0.0","44245712","wem/bandit_either","A16ANYLVNPKCVG","either","7","","","","","","","0","1","0","","0.4454766299","0.6","0.2","0.4","0.8","0.2844008008","0.1990808675","0.4454766299","0.4250944588","","","","","","","","","","","75","K","2","","","219","main_expt"
"279","","bandit","298","899695","0.0-259.0-0.0","44245712","wem/bandit_either","A16ANYLVNPKCVG","either","7","","","","","","","0","1","0","","0.4610997771","0.6","0.2","0.4","0.8","0.2225062479","0.266602996","0.4610997771","0.4173336587","","","","","","","","","","","75","K","2","","","220","main_expt"
"288","","bandit","299","901490","0.0-260.0-0.0","44245712","wem/bandit_either","A16ANYLVNPKCVG","either","7","","","","","","","1","0","0","0.4642289789","","0.6","0.2","0.4","0.8","","","","","0.2409900116","0.2443661227","0.4642289789","0.3944711005","","","","","","","75","K","2","","","221","main_expt"
"272","","bandit","300","903270","0.0-261.0-0.0","44245712","wem/bandit_either","A16ANYLVNPKCVG","either","7","","","","","","","0","0","1","","0.4641270597","0.6","0.2","0.4","0.8","0.1989678636","0.2205922116","0.4641270597","0.3619306912","","","","","","","","","","","75","K","2","","","222","main_expt"
"244","","bandit","301","905021","0.0-262.0-0.0","44245712","wem/bandit_either","A16ANYLVNPKCVG","either","7","","","","","","","0","0","1","","0.4697433819","0.6","0.2","0.4","0.8","0.1902867071","0.1861223506","0.4697433819","0.4117842179","","","","","","","","","","","75","K","2","","","223","main_expt"
"242","","bandit","302","906771","0.0-263.0-0.0","44245712","wem/bandit_either","A16ANYLVNPKCVG","either","7","","","","","","","0","1","0","","0.460898083","0.6","0.2","0.4","0.8","0.2076415522","0.1668884863","0.460898083","0.3965092367","","","","","","","","","","","75","K","2","","","224","main_expt"
"263","","bandit","303","908541","0.0-264.0-0.0","44245712","wem/bandit_either","A16ANYLVNPKCVG","either","7","","","","","","","0","0","1","0.4394890665","","0.6","0.2","0.4","0.8","","","","","0.2393469174","0.1481472712","0.4394890665","0.4084477862","","","","","","","75","K","2","","","225","main_expt"
"321","","bandit","304","910371","0.0-265.0-0.0","44245712","wem/bandit_either","A16ANYLVNPKCVG","either","7","","","","","","","0","1","0","","0.4520955237","0.6","0.2","0.4","0.8","0.2425440376","0.1140846591","0.4520955237","0.4104601526","","","","","","","","","","","75","K","2","","","226","main_expt"
"275","","bandit","305","912155","0.0-266.0-0.0","44245712","wem/bandit_either","A16ANYLVNPKCVG","either","7","","","","","","","1","0","0","0.4324220164","","0.6","0.2","0.4","0.8","","","","","0.2365603363","0.1074218354","0.4324220164","0.3899733519","","","","","","","75","K","2","","","227","main_expt"
"284","","bandit","306","913946","0.0-267.0-0.0","44245712","wem/bandit_either","A16ANYLVNPKCVG","either","7","","","","","","","0","0","1","","0.4220482421","0.6","0.2","0.4","0.8","0.2127958296","0.08065165665","0.4220482421","0.3796730737","","","","","","","","","","","75","K","2","","","228","main_expt"
"273","","bandit","307","915727","0.0-268.0-0.0","44245712","wem/bandit_either","A16ANYLVNPKCVG","either","7","","","","","","","0","1","0","","0.3885749154","0.6","0.2","0.4","0.8","0.2207861463","0.07774059362","0.3885749154","0.4046866514","","","","","","","","","","","75","K","2","","","229","main_expt"
"330","","bandit","308","917565","0.0-269.0-0.0","44245712","wem/bandit_either","A16ANYLVNPKCVG","either","7","","","","","","","0","0","1","0.4023755806","","0.6","0.2","0.4","0.8","","","","","0.2589226453","0.1109483114","0.4023755806","0.3988793555","","","","","","","75","K","2","","","230","main_expt"
"380","","bandit","309","919454","0.0-270.0-0.0","44245712","wem/bandit_either","A16ANYLVNPKCVG","either","7","","","","","","","0","0","1","0.3768725222","","0.6","0.2","0.4","0.8","","","","","0.2956158432","0.05902300203","0.3768725222","0.3981898202","","","","","","","75","K","2","","","231","main_expt"
"312","","bandit","310","921275","0.0-271.0-0.0","44245712","wem/bandit_either","A16ANYLVNPKCVG","either","7","","","","","","","0","0","1","","0.3619917427","0.6","0.2","0.4","0.8","0.3202484073","0.06675855664","0.3619917427","0.4411941832","","","","","","","","","","","75","K","2","","","232","main_expt"
"192","","bandit","311","922975","0.0-272.0-0.0","44245712","wem/bandit_either","A16ANYLVNPKCVG","either","7","","","","","","","1","0","0","0.3833578816","","0.6","0.2","0.4","0.8","","","","","0.2933644042","0.06703699679","0.3833578816","0.42967461","","","","","","","75","K","2","","","233","main_expt"
"391","","bandit","312","924875","0.0-273.0-0.0","44245712","wem/bandit_either","A16ANYLVNPKCVG","either","7","","","","","","","0","0","1","0.3552131768","","0.6","0.2","0.4","0.8","","","","","0.3106154811","0.05331023031","0.3552131768","0.4242798354","","","","","","","75","K","2","","","234","main_expt"
"444","","bandit","313","926828","0.0-274.0-0.0","44245712","wem/bandit_either","A16ANYLVNPKCVG","either","7","","","","","","","0","0","1","0.3135084543","","0.6","0.2","0.4","0.8","","","","","0.3158990995","0.05187545802","0.3135084543","0.4617388459","","","","","","","75","K","2","","","235","main_expt"
"326","","bandit","314","928661","0.0-275.0-0.0","44245712","wem/bandit_either","A16ANYLVNPKCVG","either","7","","","","","","","0","0","1","","0.244945467","0.6","0.2","0.4","0.8","0.3036927748","0.06939909985","0.244945467","0.4619510484","","","","","","","","","","","75","K","2","","","236","main_expt"
"501","","bandit","315","930670","0.0-276.0-0.0","44245712","wem/bandit_either","A16ANYLVNPKCVG","either","7","","","","","","","0","0","1","","0.1823839079","0.6","0.2","0.4","0.8","0.3491021326","0.1210409879","0.1823839079","0.4482398789","","","","","","","","","","","75","K","2","","","237","main_expt"
"17","","bandit","316","932195","0.0-277.0-0.0","44245712","wem/bandit_either","A16ANYLVNPKCVG","either","7","","","","","","","1","0","0","0.4193969143","","0.6","0.2","0.4","0.8","","","","","0.3939254097","0.1147840357","0.1685050226","0.4193969143","","","","","","","76","L","3","","","238","main_expt"
"240","","bandit","317","933944","0.0-278.0-0.0","44245712","wem/bandit_either","A16ANYLVNPKCVG","either","7","","","","","","","1","0","0","0.4203848948","","0.6","0.2","0.4","0.8","","","","","0.379108978","0.1006463842","0.1606472637","0.4203848948","","","","","","","76","L","3","","","239","main_expt"
"223","","bandit","318","935675","0.0-279.0-0.0","44245712","wem/bandit_either","A16ANYLVNPKCVG","either","7","","","","","","","1","0","0","0.4489383263","","0.6","0.2","0.4","0.8","","","","","0.3876209848","0.1008771133","0.1512795466","0.4489383263","","","","","","","76","L","3","","","240","main_expt"
"225","","bandit","319","937409","0.0-280.0-0.0","44245712","wem/bandit_either","A16ANYLVNPKCVG","either","7","","","","","","","1","0","0","0.4636195567","","0.6","0.2","0.4","0.8","","","","","0.3839625774","0.09981833296","0.1916219391","0.4636195567","","","","","","","76","L","3","","","241","main_expt"
"290","","bandit","320","939207","0.0-281.0-0.0","44245712","wem/bandit_either","A16ANYLVNPKCVG","either","7","","","","","","","0","0","1","0.4575307695","","0.6","0.2","0.4","0.8","","","","","0.3477958629","0.1171772993","0.1641013935","0.4575307695","","","","","","","76","L","3","","","242","main_expt"
"147","","bandit","321","940863","0.0-282.0-0.0","44245712","wem/bandit_either","A16ANYLVNPKCVG","either","7","","","","","","","1","0","0","0.4449554393","","0.6","0.2","0.4","0.8","","","","","0.3500658948","0.1239984651","0.2064320789","0.4449554393","","","","","","","76","L","3","","","243","main_expt"
"253","","bandit","322","942624","0.0-283.0-0.0","44245712","wem/bandit_either","A16ANYLVNPKCVG","either","7","","","","","","","0","0","1","0.4525763452","","0.6","0.2","0.4","0.8","","","","","0.3452717574","0.1126152289","0.2205496082","0.4525763452","","","","","","","76","L","3","","","244","main_expt"
"288","","bandit","323","944421","0.0-284.0-0.0","44245712","wem/bandit_either","A16ANYLVNPKCVG","either","7","","","","","","","0","0","1","0.4753838692","","0.6","0.2","0.4","0.8","","","","","0.3162288444","0.1524829061","0.214276823","0.4753838692","","","","","","","76","L","3","","","245","main_expt"
"297","","bandit","324","946226","0.0-285.0-0.0","44245712","wem/bandit_either","A16ANYLVNPKCVG","either","7","","","","","","","0","0","1","0.4623654582","","0.6","0.2","0.4","0.8","","","","","0.2894596967","0.1921750243","0.2084567316","0.4623654582","","","","","","","76","L","3","","","246","main_expt"
"533","","bandit","325","948266","0.0-286.0-0.0","44245712","wem/bandit_either","A16ANYLVNPKCVG","either","7","","","","","","","1","0","0","0.4331165165","","0.6","0.2","0.4","0.8","","","","","0.2642296388","0.1931065189","0.2232303491","0.4331165165","","","","","","","76","L","3","","","247","main_expt"
"336","","bandit","326","950110","0.0-287.0-0.0","44245712","wem/bandit_either","A16ANYLVNPKCVG","either","7","","","","","","","1","0","0","0.4401602984","","0.6","0.2","0.4","0.8","","","","","0.2534255255","0.2189994516","0.2541796534","0.4401602984","","","","","","","76","L","3","","","248","main_expt"
"335","","bandit","327","951953","0.0-288.0-0.0","44245712","wem/bandit_either","A16ANYLVNPKCVG","either","7","","","","","","","0","0","1","","0.430892824","0.6","0.2","0.4","0.8","0.2252980971","0.1989243371","0.232462199","0.430892824","","","","","","","","","","","76","L","3","","","249","main_expt"
"289","","bandit","328","953750","0.0-289.0-0.0","44245712","wem/bandit_either","A16ANYLVNPKCVG","either","7","","","","","","","0","0","1","0.4282509168","","0.6","0.2","0.4","0.8","","","","","0.298830738","0.1635706079","0.2877664065","0.4282509168","","","","","","","76","L","3","","","250","main_expt"
"260","","bandit","329","955518","0.0-290.0-0.0","44245712","wem/bandit_either","A16ANYLVNPKCVG","either","7","","","","","","","0","0","1","0.4499649657","","0.6","0.2","0.4","0.8","","","","","0.3113207693","0.1738575253","0.2947451014","0.4499649657","","","","","","","76","L","3","","","251","main_expt"
"446","","bandit","330","957474","0.0-291.0-0.0","44245712","wem/bandit_either","A16ANYLVNPKCVG","either","7","","","","","","","0","0","1","0.458069626","","0.6","0.2","0.4","0.8","","","","","0.2952600368","0.1868362494","0.2581410112","0.458069626","","","","","","","76","L","3","","","252","main_expt"
"553","","bandit","331","959535","0.0-292.0-0.0","44245712","wem/bandit_either","A16ANYLVNPKCVG","either","7","","","","","","","0","0","1","0.1888839862","","0.6","0.2","0.4","0.8","","","","","0.2837805879","0.1888839862","0.2526573277","0.4419078322","","","","","","","74","J","1","","","253","main_expt"
"340","","bandit","332","961384","0.0-293.0-0.0","44245712","wem/bandit_either","A16ANYLVNPKCVG","either","7","","","","","","","0","0","1","","0.1763585164","0.6","0.2","0.4","0.8","0.2664224025","0.1763585164","0.2625272406","0.4374591364","","","","","","","","","","","74","J","1","","","254","main_expt"
