"rt","responses","trial_type","trial_index","time_elapsed","internal_node_id","subjID","study","MID","cond","drift","key_press","expt_phase","target","like","value","connected","gems","bombs","no_reward","GemPrChosen","BombPrChosen","GainOverPainPr_0","GainOverPainPr_1","GainOverPainPr_2","GainOverPainPr_3","LosePr_0","LosePr_1","LosePr_2","LosePr_3","WinPr_0","WinPr_1","WinPr_2","WinPr_3","Q0","Q1","Q2","gender","age","ethnicity","respCharCode","respKey","respChoiceNum","respChoice","practice","trial_counter","trial_label"
"8494","{""Q0"":""A1MTRZDRKNB9GV""}","survey-text","0","8511","0.0-0.0","44488552","wem/bandit_either","A1MTRZDRKNB9GV","either","8","","","","","","","","","","","","","","","","","","","","","","","","","","","","","","","","","","","",""
"33476","","text","1","42997","0.0-1.0","44488552","wem/bandit_either","A1MTRZDRKNB9GV","either","8","32","","","","","","","","","","","","","","","","","","","","","","","","","","","","","","","","","","",""
"12390","","text","2","55390","0.0-2.0","44488552","wem/bandit_either","A1MTRZDRKNB9GV","either","8","32","","","","","","","","","","","","","","","","","","","","","","","","","","","","","","","","","","",""
"41935","","text","3","97329","0.0-3.0","44488552","wem/bandit_either","A1MTRZDRKNB9GV","either","8","32","","","","","","","","","","","","","","","","","","","","","","","","","","","","","","","","","","",""
"35990","","text","4","133322","0.0-4.0","44488552","wem/bandit_either","A1MTRZDRKNB9GV","either","8","32","","","","","","","","","","","","","","","","","","","","","","","","","","","","","","","","","","",""
"24368","","text","5","157692","0.0-5.0","44488552","wem/bandit_either","A1MTRZDRKNB9GV","either","8","32","","","","","","","","","","","","","","","","","","","","","","","","","","","","","","","","","","",""
"23603","","text","6","181298","0.0-6.0","44488552","wem/bandit_either","A1MTRZDRKNB9GV","either","8","32","","","","","","","","","","","","","","","","","","","","","","","","","","","","","","","","","","",""
"7475","","text","7","188776","0.0-7.0","44488552","wem/bandit_either","A1MTRZDRKNB9GV","either","8","32","","","","","","","","","","","","","","","","","","","","","","","","","","","","","","","","","","",""
"30106","","identification","8","218925","0.0-8.0-0.0","44488552","wem/bandit_either","A1MTRZDRKNB9GV","either","8","","identification_pre","the village of Zur","","","","","","","","","","","","","","","","","","","","","","","","","","","","","","","","",""
"6350","","identification","9","226305","0.0-8.0-1.0","44488552","wem/bandit_either","A1MTRZDRKNB9GV","either","8","","identification_pre","the village of Nyx","","","","","","","","","","","","","","","","","","","","","","","","","","","","","","","","",""
"7400","","text","10","234712","0.0-9.0","44488552","wem/bandit_either","A1MTRZDRKNB9GV","either","8","32","","","","","","","","","","","","","","","","","","","","","","","","","","","","","","","","","","",""
"4615","","text","11","239331","0.0-10.0","44488552","wem/bandit_either","A1MTRZDRKNB9GV","either","8","32","","","","","","","","","","","","","","","","","","","","","","","","","","","","","","","","","","",""
"6579","","text","12","245917","0.0-11.0","44488552","wem/bandit_either","A1MTRZDRKNB9GV","either","8","32","","","","","","","","","","","","","","","","","","","","","","","","","","","","","","","","","","",""
"6465","","text","13","252387","0.0-12.0","44488552","wem/bandit_either","A1MTRZDRKNB9GV","either","8","32","","","","","","","","","","","","","","","","","","","","","","","","","","","","","","","","","","",""
"4819","","bandit","14","258731","0.0-13.0-0.0","44488552","wem/bandit_either","A1MTRZDRKNB9GV","either","8","","","","","","","0","0","1","0","0","","","","","0","","","","0","","","","","","","","","","74","J","0","img/none_selected_demo.jpg","true","0",""
"1774","","bandit","15","262023","0.0-14.0-0.0","44488552","wem/bandit_either","A1MTRZDRKNB9GV","either","8","","","","","","","0","0","1","0","0","","","","","0","","","","0","","","","","","","","","","75","K","0","img/none_selected_demo.jpg","true","0",""
"11892","","text","16","273920","0.0-15.0","44488552","wem/bandit_either","A1MTRZDRKNB9GV","either","8","32","","","","","","","","","","","","","","","","","","","","","","","","","","","","","","","","","","",""
"18939","","text","17","292864","0.0-16.0","44488552","wem/bandit_either","A1MTRZDRKNB9GV","either","8","32","","","","","","","","","","","","","","","","","","","","","","","","","","","","","","","","","","",""
"11208","","text","18","304077","0.0-17.0","44488552","wem/bandit_either","A1MTRZDRKNB9GV","either","8","32","","","","","","","","","","","","","","","","","","","","","","","","","","","","","","","","","","",""
"9798","","text","19","313878","0.0-18.0","44488552","wem/bandit_either","A1MTRZDRKNB9GV","either","8","32","","","","","","","","","","","","","","","","","","","","","","","","","","","","","","","","","","",""
"1562","","bandit","20","316953","0.0-19.0-0.0","44488552","wem/bandit_either","A1MTRZDRKNB9GV","either","8","","","","","","","0","1","0","","0.8","0.5","0.5","","","0.8","0.2","","","","","","","","","","","","","74","J","0","img/none_selected_demo.jpg","true","0","80_20_practice"
"2480","","bandit","21","320952","0.0-19.0-1.0","44488552","wem/bandit_either","A1MTRZDRKNB9GV","either","8","","","","","","","1","0","0","0.8","","0.5","0.5","","","","","","","0.8","0.2","","","","","","","","","74","J","0","img/none_selected_demo.jpg","true","0","80_20_practice"
"2328","","bandit","22","324802","0.0-19.0-2.0","44488552","wem/bandit_either","A1MTRZDRKNB9GV","either","8","","","","","","","0","0","1","0.2","","0.5","0.5","","","","","","","0.8","0.2","","","","","","","","","75","K","1","","true","0","80_20_practice"
"1828","","bandit","23","328141","0.0-19.0-3.0","44488552","wem/bandit_either","A1MTRZDRKNB9GV","either","8","","","","","","","0","0","1","0.2","","0.5","0.5","","","","","","","0.8","0.2","","","","","","","","","75","K","1","","true","0","80_20_practice"
"1114","","bandit","24","330771","0.0-19.0-4.0","44488552","wem/bandit_either","A1MTRZDRKNB9GV","either","8","","","","","","","1","0","0","0.8","","0.5","0.5","","","","","","","0.8","0.2","","","","","","","","","74","J","0","img/none_selected_demo.jpg","true","0","80_20_practice"
"1477","","bandit","25","333766","0.0-19.0-5.0","44488552","wem/bandit_either","A1MTRZDRKNB9GV","either","8","","","","","","","0","0","1","","0.2","0.5","0.5","","","0.8","0.2","","","","","","","","","","","","","75","K","1","","true","0","80_20_practice"
"985","","bandit","26","336263","0.0-19.0-6.0","44488552","wem/bandit_either","A1MTRZDRKNB9GV","either","8","","","","","","","0","0","1","","0.2","0.5","0.5","","","0.8","0.2","","","","","","","","","","","","","75","K","1","","true","0","80_20_practice"
"1362","","bandit","27","339141","0.0-19.0-7.0","44488552","wem/bandit_either","A1MTRZDRKNB9GV","either","8","","","","","","","0","1","0","","0.8","0.5","0.5","","","0.8","0.2","","","","","","","","","","","","","74","J","0","img/none_selected_demo.jpg","true","0","80_20_practice"
"1358","","bandit","28","342018","0.0-19.0-8.0","44488552","wem/bandit_either","A1MTRZDRKNB9GV","either","8","","","","","","","0","1","0","","0.2","0.5","0.5","","","0.8","0.2","","","","","","","","","","","","","75","K","1","","true","0","80_20_practice"
"667","","bandit","29","344197","0.0-19.0-9.0","44488552","wem/bandit_either","A1MTRZDRKNB9GV","either","8","","","","","","","0","1","0","","0.2","0.5","0.5","","","0.8","0.2","","","","","","","","","","","","","75","K","1","","true","0","80_20_practice"
"796","","bandit","30","346509","0.0-19.0-10.0","44488552","wem/bandit_either","A1MTRZDRKNB9GV","either","8","","","","","","","0","0","1","","0.2","0.5","0.5","","","0.8","0.2","","","","","","","","","","","","","75","K","1","","true","0","80_20_practice"
"1007","","bandit","31","349028","0.0-19.0-11.0","44488552","wem/bandit_either","A1MTRZDRKNB9GV","either","8","","","","","","","0","1","0","","0.8","0.5","0.5","","","0.8","0.2","","","","","","","","","","","","","74","J","0","img/none_selected_demo.jpg","true","0","80_20_practice"
"593","","bandit","32","351149","0.0-19.0-12.0","44488552","wem/bandit_either","A1MTRZDRKNB9GV","either","8","","","","","","","0","1","0","","0.8","0.5","0.5","","","0.8","0.2","","","","","","","","","","","","","74","J","0","img/none_selected_demo.jpg","true","0","80_20_practice"
"576","","bandit","33","353244","0.0-19.0-13.0","44488552","wem/bandit_either","A1MTRZDRKNB9GV","either","8","","","","","","","0","1","0","","0.8","0.5","0.5","","","0.8","0.2","","","","","","","","","","","","","74","J","0","img/none_selected_demo.jpg","true","0","80_20_practice"
"798","","bandit","34","355568","0.0-19.0-14.0","44488552","wem/bandit_either","A1MTRZDRKNB9GV","either","8","","","","","","","0","0","1","0.2","","0.5","0.5","","","","","","","0.8","0.2","","","","","","","","","75","K","1","","true","0","80_20_practice"
"489","","bandit","35","357568","0.0-19.0-15.0","44488552","wem/bandit_either","A1MTRZDRKNB9GV","either","8","","","","","","","0","1","0","","0.8","0.5","0.5","","","0.8","0.2","","","","","","","","","","","","","74","J","0","img/none_selected_demo.jpg","true","0","80_20_practice"
"793","","bandit","36","359876","0.0-19.0-16.0","44488552","wem/bandit_either","A1MTRZDRKNB9GV","either","8","","","","","","","0","0","1","","0.2","0.5","0.5","","","0.8","0.2","","","","","","","","","","","","","75","K","1","","true","0","80_20_practice"
"581","","bandit","37","361969","0.0-19.0-17.0","44488552","wem/bandit_either","A1MTRZDRKNB9GV","either","8","","","","","","","0","0","1","","0.2","0.5","0.5","","","0.8","0.2","","","","","","","","","","","","","75","K","1","","true","0","80_20_practice"
"450","","bandit","38","363943","0.0-19.0-18.0","44488552","wem/bandit_either","A1MTRZDRKNB9GV","either","8","","","","","","","1","0","0","0.8","","0.5","0.5","","","","","","","0.8","0.2","","","","","","","","","74","J","0","img/none_selected_demo.jpg","true","0","80_20_practice"
"1074","","bandit","39","366533","0.0-19.0-19.0","44488552","wem/bandit_either","A1MTRZDRKNB9GV","either","8","","","","","","","1","0","0","0.8","","0.5","0.5","","","","","","","0.8","0.2","","","","","","","","","74","J","0","img/none_selected_demo.jpg","true","0","80_20_practice"
"8665","","text","40","375204","0.0-20.0","44488552","wem/bandit_either","A1MTRZDRKNB9GV","either","8","32","","","","","","","","","","","","","","","","","","","","","","","","","","","","","","","","","","",""
"4558","","bandit","41","381273","0.0-21.0-0.0","44488552","wem/bandit_either","A1MTRZDRKNB9GV","either","8","","","","","","","1","0","0","1","0","","","","","0","1","","","1","0","","","","","","","","","74","J","0","img/none_selected_demo.jpg","true","0",""
"12025","","text","42","393304","0.0-22.0","44488552","wem/bandit_either","A1MTRZDRKNB9GV","either","8","32","","","","","","","","","","","","","","","","","","","","","","","","","","","","","","","","","","",""
"7242","","text","43","400551","0.0-23.0","44488552","wem/bandit_either","A1MTRZDRKNB9GV","either","8","32","","","","","","","","","","","","","","","","","","","","","","","","","","","","","","","","","","",""
"4743","","text","44","405298","0.0-24.0","44488552","wem/bandit_either","A1MTRZDRKNB9GV","either","8","32","","","","","","","","","","","","","","","","","","","","","","","","","","","","","","","","","","",""
"7613","","text","45","412916","0.0-25.0","44488552","wem/bandit_either","A1MTRZDRKNB9GV","either","8","32","","","","","","","","","","","","","","","","","","","","","","","","","","","","","","","","","","",""
"15910","","text","46","428831","0.0-26.0","44488552","wem/bandit_either","A1MTRZDRKNB9GV","either","8","32","","","","","","","","","","","","","","","","","","","","","","","","","","","","","","","","","","",""
"5764","","text","47","434599","0.0-27.0","44488552","wem/bandit_either","A1MTRZDRKNB9GV","either","8","32","","","","","","","","","","","","","","","","","","","","","","","","","","","","","","","","","","",""
"6752","","text","48","441357","0.0-28.0","44488552","wem/bandit_either","A1MTRZDRKNB9GV","either","8","32","","","","","","","","","","","","","","","","","","","","","","","","","","","","","","","","","","",""
"7497","","text","49","448860","0.0-29.0","44488552","wem/bandit_either","A1MTRZDRKNB9GV","either","8","32","","","","","","","","","","","","","","","","","","","","","","","","","","","","","","","","","","",""
"6142","","text","50","455007","0.0-30.0","44488552","wem/bandit_either","A1MTRZDRKNB9GV","either","8","32","","","","","","","","","","","","","","","","","","","","","","","","","","","","","","","","","","",""
"6397","","text","51","461409","0.0-31.0","44488552","wem/bandit_either","A1MTRZDRKNB9GV","either","8","32","","","","","","","","","","","","","","","","","","","","","","","","","","","","","","","","","","",""
"3218","","text","52","464633","0.0-32.0","44488552","wem/bandit_either","A1MTRZDRKNB9GV","either","8","32","","","","","","","","","","","","","","","","","","","","","","","","","","","","","","","","","","",""
"1150","","bandit","53","467305","0.0-33.0-0.0","44488552","wem/bandit_either","A1MTRZDRKNB9GV","either","8","","","","","","","0","0","1","0.2","","0.5","0.5","0.5","0.5","","","","","0.8","0.2","0.6","0.2","","","","","","","74","J","1","","true","0","full_practice"
"2455","","bandit","54","471286","0.0-33.0-1.0","44488552","wem/bandit_either","A1MTRZDRKNB9GV","either","8","","","","","","","1","0","0","0.8","","0.5","0.5","0.5","0.5","","","","","0.8","0.2","0.6","0.2","","","","","","","72","H","0","img/none_selected.jpg","true","0","full_practice"
"1014","","bandit","55","473824","0.0-33.0-2.0","44488552","wem/bandit_either","A1MTRZDRKNB9GV","either","8","","","","","","","0","1","0","","0.2","0.5","0.5","0.5","0.5","0.8","0.2","0.6","0.2","","","","","","","","","","","76","L","3","","true","0","full_practice"
"711","","bandit","56","476051","0.0-33.0-3.0","44488552","wem/bandit_either","A1MTRZDRKNB9GV","either","8","","","","","","","1","0","0","0.6","","0.5","0.5","0.5","0.5","","","","","0.8","0.2","0.6","0.2","","","","","","","75","K","2","","true","0","full_practice"
"1243","","bandit","57","478812","0.0-33.0-4.0","44488552","wem/bandit_either","A1MTRZDRKNB9GV","either","8","","","","","","","0","0","1","","0.2","0.5","0.5","0.5","0.5","0.8","0.2","0.6","0.2","","","","","","","","","","","74","J","1","","true","0","full_practice"
"2061","","bandit","58","482406","0.0-33.0-5.0","44488552","wem/bandit_either","A1MTRZDRKNB9GV","either","8","","","","","","","0","0","1","","0.8","0.5","0.5","0.5","0.5","0.8","0.2","0.6","0.2","","","","","","","","","","","72","H","0","img/none_selected.jpg","true","0","full_practice"
"1100","","bandit","59","485021","0.0-33.0-6.0","44488552","wem/bandit_either","A1MTRZDRKNB9GV","either","8","","","","","","","0","0","1","0.2","","0.5","0.5","0.5","0.5","","","","","0.8","0.2","0.6","0.2","","","","","","","74","J","1","","true","0","full_practice"
"1470","","bandit","60","488008","0.0-33.0-7.0","44488552","wem/bandit_either","A1MTRZDRKNB9GV","either","8","","","","","","","1","0","0","0.8","","0.5","0.5","0.5","0.5","","","","","0.8","0.2","0.6","0.2","","","","","","","72","H","0","img/none_selected.jpg","true","0","full_practice"
"1000","","bandit","61","490529","0.0-33.0-8.0","44488552","wem/bandit_either","A1MTRZDRKNB9GV","either","8","","","","","","","0","0","1","","0.2","0.5","0.5","0.5","0.5","0.8","0.2","0.6","0.2","","","","","","","","","","","76","L","3","","true","0","full_practice"
"914","","bandit","62","492962","0.0-33.0-9.0","44488552","wem/bandit_either","A1MTRZDRKNB9GV","either","8","","","","","","","1","0","0","0.6","","0.5","0.5","0.5","0.5","","","","","0.8","0.2","0.6","0.2","","","","","","","75","K","2","","true","0","full_practice"
"1970","","bandit","63","496458","0.0-33.0-10.0","44488552","wem/bandit_either","A1MTRZDRKNB9GV","either","8","","","","","","","0","0","1","","0.8","0.5","0.5","0.5","0.5","0.8","0.2","0.6","0.2","","","","","","","","","","","72","H","0","img/none_selected.jpg","true","0","full_practice"
"855","","bandit","64","498831","0.0-33.0-11.0","44488552","wem/bandit_either","A1MTRZDRKNB9GV","either","8","","","","","","","1","0","0","0.6","","0.5","0.5","0.5","0.5","","","","","0.8","0.2","0.6","0.2","","","","","","","75","K","2","","true","0","full_practice"
"752","","bandit","65","501109","0.0-33.0-12.0","44488552","wem/bandit_either","A1MTRZDRKNB9GV","either","8","","","","","","","0","0","1","0.2","","0.5","0.5","0.5","0.5","","","","","0.8","0.2","0.6","0.2","","","","","","","76","L","3","","true","0","full_practice"
"678","","bandit","66","503300","0.0-33.0-13.0","44488552","wem/bandit_either","A1MTRZDRKNB9GV","either","8","","","","","","","0","1","0","","0.2","0.5","0.5","0.5","0.5","0.8","0.2","0.6","0.2","","","","","","","","","","","74","J","1","","true","0","full_practice"
"1122","","bandit","67","505936","0.0-33.0-14.0","44488552","wem/bandit_either","A1MTRZDRKNB9GV","either","8","","","","","","","0","0","1","","0.6","0.5","0.5","0.5","0.5","0.8","0.2","0.6","0.2","","","","","","","","","","","75","K","2","","true","0","full_practice"
"557","","bandit","68","508015","0.0-33.0-15.0","44488552","wem/bandit_either","A1MTRZDRKNB9GV","either","8","","","","","","","1","0","0","0.8","","0.5","0.5","0.5","0.5","","","","","0.8","0.2","0.6","0.2","","","","","","","72","H","0","img/none_selected.jpg","true","0","full_practice"
"900","","bandit","69","510437","0.0-33.0-16.0","44488552","wem/bandit_either","A1MTRZDRKNB9GV","either","8","","","","","","","0","0","1","0.2","","0.5","0.5","0.5","0.5","","","","","0.8","0.2","0.6","0.2","","","","","","","76","L","3","","true","0","full_practice"
"818","","bandit","70","512776","0.0-33.0-17.0","44488552","wem/bandit_either","A1MTRZDRKNB9GV","either","8","","","","","","","0","0","1","0.6","","0.5","0.5","0.5","0.5","","","","","0.8","0.2","0.6","0.2","","","","","","","75","K","2","","true","0","full_practice"
"520","","bandit","71","514824","0.0-33.0-18.0","44488552","wem/bandit_either","A1MTRZDRKNB9GV","either","8","","","","","","","0","0","1","0.2","","0.5","0.5","0.5","0.5","","","","","0.8","0.2","0.6","0.2","","","","","","","74","J","1","","true","0","full_practice"
"771","","bandit","72","517111","0.0-33.0-19.0","44488552","wem/bandit_either","A1MTRZDRKNB9GV","either","8","","","","","","","0","0","1","0.2","","0.5","0.5","0.5","0.5","","","","","0.8","0.2","0.6","0.2","","","","","","","74","J","1","","true","0","full_practice"
"6626","","text","73","523755","0.0-34.0","44488552","wem/bandit_either","A1MTRZDRKNB9GV","either","8","32","","","","","","","","","","","","","","","","","","","","","","","","","","","","","","","","","","",""
"21603","","text","74","546370","0.0-35.0","44488552","wem/bandit_either","A1MTRZDRKNB9GV","either","8","32","","","","","","","","","","","","","","","","","","","","","","","","","","","","","","","","","","",""
"20614","","text","75","566993","0.0-36.0","44488552","wem/bandit_either","A1MTRZDRKNB9GV","either","8","32","","","","","","","","","","","","","","","","","","","","","","","","","","","","","","","","","","",""
"7994","","text","76","574996","0.0-37.0","44488552","wem/bandit_either","A1MTRZDRKNB9GV","either","8","32","","","","","","","","","","","","","","","","","","","","","","","","","","","","","","","","","","",""
"5875","","text","77","580877","0.0-38.0","44488552","wem/bandit_either","A1MTRZDRKNB9GV","either","8","32","","","","","","","","","","","","","","","","","","","","","","","","","","","","","","","","","","",""
"11168","","text","78","592051","0.0-39.0","44488552","wem/bandit_either","A1MTRZDRKNB9GV","either","8","32","","","","","","","","","","","","","","","","","","","","","","","","","","","","","","","","","","",""
"1932","","bandit","79","595507","0.0-40.0-0.0","44488552","wem/bandit_either","A1MTRZDRKNB9GV","either","8","","","","","","","0","0","1","0.2928194041","","0.8","0.2","0.6","0.4","","","","","0.2928194041","0.3540548627","0.1351790469","0.2637293772","","","","","","","72","H","0","img/none_selected.jpg","","1","main_expt"
"1538","","bandit","80","598568","0.0-41.0-0.0","44488552","wem/bandit_either","A1MTRZDRKNB9GV","either","8","","","","","","","0","0","1","","0.3812516843","0.8","0.2","0.6","0.4","0.3040419902","0.3812516843","0.125602744","0.2760013096","","","","","","","","","","","74","J","1","","","2","main_expt"
"1166","","bandit","81","601258","0.0-42.0-0.0","44488552","wem/bandit_either","A1MTRZDRKNB9GV","either","8","","","","","","","0","0","1","0.2875251023","","0.8","0.2","0.6","0.4","","","","","0.2875251023","0.3901316494","0.09574082279","0.3240499928","","","","","","","72","H","0","img/none_selected.jpg","","3","main_expt"
"1076","","bandit","82","603850","0.0-43.0-0.0","44488552","wem/bandit_either","A1MTRZDRKNB9GV","either","8","","","","","","","0","0","1","","0.3510822359","0.8","0.2","0.6","0.4","0.2965567903","0.3945399471","0.0913382225","0.3510822359","","","","","","","","","","","76","L","3","","","4","main_expt"
"1070","","bandit","83","606436","0.0-44.0-0.0","44488552","wem/bandit_either","A1MTRZDRKNB9GV","either","8","","","","","","","0","0","1","0.106177601","","0.8","0.2","0.6","0.4","","","","","0.2681113314","0.3997977613","0.106177601","0.3522827721","","","","","","","75","K","2","","","5","main_expt"
"746","","bandit","84","608699","0.0-45.0-0.0","44488552","wem/bandit_either","A1MTRZDRKNB9GV","either","8","","","","","","","0","1","0","","0.390783501","0.8","0.2","0.6","0.4","0.2330443498","0.390783501","0.08998955495","0.382674005","","","","","","","","","","","74","J","1","","","6","main_expt"
"1320","","bandit","85","611538","0.0-46.0-0.0","44488552","wem/bandit_either","A1MTRZDRKNB9GV","either","8","","","","","","","0","0","1","0.1630509172","","0.8","0.2","0.6","0.4","","","","","0.1630509172","0.3305693427","0.1077526668","0.3998463606","","","","","","","72","H","0","img/none_selected.jpg","","7","main_expt"
"1167","","bandit","86","614219","0.0-47.0-0.0","44488552","wem/bandit_either","A1MTRZDRKNB9GV","either","8","","","","","","","1","0","0","0.3832029687","","0.8","0.2","0.6","0.4","","","","","0.2002468685","0.3056545716","0.1243697388","0.3832029687","","","","","","","76","L","3","","","8","main_expt"
"1268","","bandit","87","617005","0.0-48.0-0.0","44488552","wem/bandit_either","A1MTRZDRKNB9GV","either","8","","","","","","","0","1","0","","0.3796681134","0.8","0.2","0.6","0.4","0.1835034381","0.3278889804","0.1698108096","0.3796681134","","","","","","","","","","","76","L","3","","","9","main_expt"
"1259","","bandit","88","619782","0.0-49.0-0.0","44488552","wem/bandit_either","A1MTRZDRKNB9GV","either","8","","","","","","","1","0","0","0.1939723001","","0.8","0.2","0.6","0.4","","","","","0.1939723001","0.3137855556","0.221757114","0.3614311416","","","","","","","72","H","0","img/none_selected.jpg","","10","main_expt"
"1313","","bandit","89","622627","0.0-50.0-0.0","44488552","wem/bandit_either","A1MTRZDRKNB9GV","either","8","","","","","","","0","0","1","","0.1961062924","0.8","0.2","0.6","0.4","0.1949806013","0.3253079181","0.1961062924","0.3938737051","","","","","","","","","","","75","K","2","","","11","main_expt"
"779","","bandit","90","624929","0.0-51.0-0.0","44488552","wem/bandit_either","A1MTRZDRKNB9GV","either","8","","","","","","","0","0","1","","0.3298150516","0.8","0.2","0.6","0.4","0.2587943474","0.3298150516","0.1907056259","0.3810544723","","","","","","","","","","","74","J","1","","","12","main_expt"
"828","","bandit","91","627278","0.0-52.0-0.0","44488552","wem/bandit_either","A1MTRZDRKNB9GV","either","8","","","","","","","0","0","1","0.3707046684","","0.8","0.2","0.6","0.4","","","","","0.3085985727","0.3673307406","0.2162865666","0.3707046684","","","","","","","76","L","3","","","13","main_expt"
"1139","","bandit","92","629937","0.0-53.0-0.0","44488552","wem/bandit_either","A1MTRZDRKNB9GV","either","8","","","","","","","0","0","1","0.2464992766","","0.8","0.2","0.6","0.4","","","","","0.2464992766","0.3679224674","0.2399362825","0.3486531997","","","","","","","72","H","0","img/none_selected.jpg","","14","main_expt"
"730","","bandit","93","632190","0.0-54.0-0.0","44488552","wem/bandit_either","A1MTRZDRKNB9GV","either","8","","","","","","","0","0","1","","0.1986859052","0.8","0.2","0.6","0.4","0.2474611475","0.3062507314","0.1986859052","0.3263578384","","","","","","","","","","","75","K","2","","","15","main_expt"
"1312","","bandit","94","635029","0.0-55.0-0.0","44488552","wem/bandit_either","A1MTRZDRKNB9GV","either","8","","","","","","","0","0","1","","0.2892976033","0.8","0.2","0.6","0.4","0.2835538477","0.2892976033","0.1865641621","0.3514189979","","","","","","","","","","","74","J","1","","","16","main_expt"
"1271","","bandit","95","637816","0.0-56.0-0.0","44488552","wem/bandit_either","A1MTRZDRKNB9GV","either","8","","","","","","","0","0","1","0.3532592314","","0.8","0.2","0.6","0.4","","","","","0.3256112075","0.2861796528","0.2035525071","0.3532592314","","","","","","","76","L","3","","","17","main_expt"
"865","","bandit","96","640203","0.0-57.0-0.0","44488552","wem/bandit_either","A1MTRZDRKNB9GV","either","8","","","","","","","0","0","1","","0.3802227677","0.8","0.2","0.6","0.4","0.3802227677","0.2958570682","0.2039336531","0.3858608091","","","","","","","","","","","72","H","0","img/none_selected.jpg","","18","main_expt"
"539","","bandit","97","642266","0.0-58.0-0.0","44488552","wem/bandit_either","A1MTRZDRKNB9GV","either","8","","","","","","","0","0","1","0.1598579642","","0.8","0.2","0.6","0.4","","","","","0.360566968","0.3353028819","0.1598579642","0.3837638756","","","","","","","75","K","2","","","19","main_expt"
"1305","","bandit","98","645095","0.0-59.0-0.0","44488552","wem/bandit_either","A1MTRZDRKNB9GV","either","8","","","","","","","0","1","0","","0.3139704528","0.8","0.2","0.6","0.4","0.3696799013","0.3139704528","0.1437622327","0.2872100501","","","","","","","","","","","74","J","1","","","20","main_expt"
"1407","","bandit","99","648020","0.0-60.0-0.0","44488552","wem/bandit_either","A1MTRZDRKNB9GV","either","8","","","","","","","0","0","1","","0.2975414498","0.8","0.2","0.6","0.4","0.4006907501","0.2524707143","0.07974703335","0.2975414498","","","","","","","","","","","76","L","3","","","21","main_expt"
"1747","","bandit","100","651285","0.0-61.0-0.0","44488552","wem/bandit_either","A1MTRZDRKNB9GV","either","8","","","","","","","0","0","1","0.4081217326","","0.8","0.2","0.6","0.4","","","","","0.4081217326","0.248326021","0.1361132429","0.2741965999","","","","","","","72","H","0","img/none_selected.jpg","","22","main_expt"
"1097","","bandit","101","653900","0.0-62.0-0.0","44488552","wem/bandit_either","A1MTRZDRKNB9GV","either","8","","","","","","","0","0","1","","0.2937153481","0.8","0.2","0.6","0.4","0.3740207531","0.2937153481","0.1705973249","0.2379064449","","","","","","","","","","","74","J","1","","","23","main_expt"
"776","","bandit","102","656193","0.0-63.0-0.0","44488552","wem/bandit_either","A1MTRZDRKNB9GV","either","8","","","","","","","0","1","0","","0.2078598572","0.8","0.2","0.6","0.4","0.3913756451","0.2625315469","0.1392759225","0.2078598572","","","","","","","","","","","76","L","3","","","24","main_expt"
"1058","","bandit","103","658767","0.0-64.0-0.0","44488552","wem/bandit_either","A1MTRZDRKNB9GV","either","8","","","","","","","0","0","1","0.4100905738","","0.8","0.2","0.6","0.4","","","","","0.4100905738","0.2405651368","0.1800538527","0.2764850733","","","","","","","72","H","0","img/none_selected.jpg","","25","main_expt"
"1174","","bandit","104","661459","0.0-65.0-0.0","44488552","wem/bandit_either","A1MTRZDRKNB9GV","either","8","","","","","","","0","0","1","0.3600668969","","0.8","0.2","0.6","0.4","","","","","0.3600668969","0.2503350336","0.2146400533","0.3080191348","","","","","","","72","H","0","img/none_selected.jpg","","26","main_expt"
"1261","","bandit","105","664248","0.0-66.0-0.0","44488552","wem/bandit_either","A1MTRZDRKNB9GV","either","8","","","","","","","0","0","1","0.3703096079","","0.8","0.2","0.6","0.4","","","","","0.3703096079","0.354091838","0.1948367851","0.3606197488","","","","","","","72","H","0","img/none_selected.jpg","","27","main_expt"
"1008","","bandit","106","666782","0.0-67.0-0.0","44488552","wem/bandit_either","A1MTRZDRKNB9GV","either","8","","","","","","","1","0","0","0.3527269899","","0.8","0.2","0.6","0.4","","","","","0.3527269899","0.3419366675","0.2282666016","0.3696097963","","","","","","","72","H","0","img/none_selected.jpg","","28","main_expt"
"917","","bandit","107","669217","0.0-68.0-0.0","44488552","wem/bandit_either","A1MTRZDRKNB9GV","either","8","","","","","","","0","0","1","0.2854860911","","0.8","0.2","0.6","0.4","","","","","0.2854860911","0.361896517","0.1842618798","0.3434444954","","","","","","","72","H","0","img/none_selected.jpg","","29","main_expt"
"914","","bandit","108","671650","0.0-69.0-0.0","44488552","wem/bandit_either","A1MTRZDRKNB9GV","either","8","","","","","","","0","0","1","0.3528183973","","0.8","0.2","0.6","0.4","","","","","0.2971434158","0.3701160785","0.1930267653","0.3528183973","","","","","","","76","L","3","","","30","main_expt"
"472","","bandit","109","673650","0.0-70.0-0.0","44488552","wem/bandit_either","A1MTRZDRKNB9GV","either","8","","","","","","","0","0","1","","0.3192935598","0.8","0.2","0.6","0.4","0.3192935598","0.3602312343","0.2279264959","0.3436926249","","","","","","","","","","","72","H","0","img/none_selected.jpg","","31","main_expt"
"650","","bandit","110","675830","0.0-71.0-0.0","44488552","wem/bandit_either","A1MTRZDRKNB9GV","either","8","","","","","","","0","1","0","","0.3392376576","0.8","0.2","0.6","0.4","0.2910845839","0.3550043818","0.1922668126","0.3392376576","","","","","","","","","","","76","L","3","","","32","main_expt"
"1605","","bandit","111","678958","0.0-72.0-0.0","44488552","wem/bandit_either","A1MTRZDRKNB9GV","either","8","","","","","","","0","0","1","","0.1503247695","0.8","0.2","0.6","0.4","0.2956883229","0.3927862597","0.1503247695","0.2524106513","","","","","","","","","","","75","K","2","","","33","main_expt"
"498","","bandit","112","680976","0.0-73.0-0.0","44488552","wem/bandit_either","A1MTRZDRKNB9GV","either","8","","","","","","","0","0","1","","0.4185963197","0.8","0.2","0.6","0.4","0.2918182698","0.4185963197","0.1875072744","0.2378308988","","","","","","","","","","","74","J","1","","","34","main_expt"
"510","","bandit","113","683008","0.0-74.0-0.0","44488552","wem/bandit_either","A1MTRZDRKNB9GV","either","8","","","","","","","0","0","1","","0.3063909307","0.8","0.2","0.6","0.4","0.3063909307","0.441983755","0.2135507624","0.2683654211","","","","","","","","","","","72","H","0","img/none_selected.jpg","","35","main_expt"
"1051","","bandit","114","685586","0.0-75.0-0.0","44488552","wem/bandit_either","A1MTRZDRKNB9GV","either","8","","","","","","","0","0","1","0.2820805085","","0.8","0.2","0.6","0.4","","","","","0.2820805085","0.4352827683","0.2042402853","0.2645223933","","","","","","","72","H","0","img/none_selected.jpg","","36","main_expt"
"1426","","bandit","115","688530","0.0-76.0-0.0","44488552","wem/bandit_either","A1MTRZDRKNB9GV","either","8","","","","","","","0","0","1","0.2610370824","","0.8","0.2","0.6","0.4","","","","","0.2610370824","0.450520142","0.2024605481","0.2360561858","","","","","","","72","H","0","img/none_selected.jpg","","37","main_expt"
"975","","bandit","116","691037","0.0-77.0-0.0","44488552","wem/bandit_either","A1MTRZDRKNB9GV","either","8","","","","","","","0","0","1","0.1896233007","","0.8","0.2","0.6","0.4","","","","","0.1896233007","0.4681224698","0.1677713785","0.2001865083","","","","","","","72","H","0","img/none_selected.jpg","","38","main_expt"
"982","","bandit","117","693557","0.0-78.0-0.0","44488552","wem/bandit_either","A1MTRZDRKNB9GV","either","8","","","","","","","0","0","1","0.168851025","","0.8","0.2","0.6","0.4","","","","","0.168851025","0.4711022053","0.221779122","0.1687915361","","","","","","","72","H","0","img/none_selected.jpg","","39","main_expt"
"715","","bandit","118","695800","0.0-79.0-0.0","44488552","wem/bandit_either","A1MTRZDRKNB9GV","either","8","","","","","","","0","0","1","0.1615787635","","0.8","0.2","0.6","0.4","","","","","0.1615787635","0.4559447699","0.2722397218","0.1503151413","","","","","","","72","H","0","img/none_selected.jpg","","40","main_expt"
"809","","bandit","119","698136","0.0-80.0-0.0","44488552","wem/bandit_either","A1MTRZDRKNB9GV","either","8","","","","","","","0","0","1","0.1472326003","","0.8","0.2","0.6","0.4","","","","","0.1472326003","0.4412687596","0.3298230943","0.08168262283","","","","","","","72","H","0","img/none_selected.jpg","","41","main_expt"
"801","","bandit","120","700466","0.0-81.0-0.0","44488552","wem/bandit_either","A1MTRZDRKNB9GV","either","8","","","","","","","0","0","1","0.1533480506","","0.8","0.2","0.6","0.4","","","","","0.1533480506","0.4457751761","0.3104885444","0.07668629145","","","","","","","72","H","0","img/none_selected.jpg","","42","main_expt"
"1384","","bandit","121","703371","0.0-82.0-0.0","44488552","wem/bandit_either","A1MTRZDRKNB9GV","either","8","","","","","","","0","0","1","0.07394587158","","0.8","0.2","0.6","0.4","","","","","0.1414351437","0.4298378352","0.3005355489","0.07394587158","","","","","","","76","L","3","","","43","main_expt"
"487","","bandit","122","705376","0.0-83.0-0.0","44488552","wem/bandit_either","A1MTRZDRKNB9GV","either","8","","","","","","","0","0","1","0.2456242138","","0.8","0.2","0.6","0.4","","","","","0.1067646429","0.4416915379","0.2456242138","0.1192337685","","","","","","","75","K","2","","","44","main_expt"
"1152","","bandit","123","708048","0.0-84.0-0.0","44488552","wem/bandit_either","A1MTRZDRKNB9GV","either","8","","","","","","","0","0","1","","0.3915522423","0.8","0.2","0.6","0.4","0.1250796286","0.3915522423","0.2839901561","0.1285724119","","","","","","","","","","","74","J","1","","","45","main_expt"
"907","","bandit","124","710483","0.0-85.0-0.0","44488552","wem/bandit_either","A1MTRZDRKNB9GV","either","8","","","","","","","0","0","1","0.1927264636","","0.8","0.2","0.6","0.4","","","","","0.1927264636","0.4318427431","0.2353621531","0.1112684106","","","","","","","72","H","0","img/none_selected.jpg","","46","main_expt"
"526","","bandit","125","712533","0.0-86.0-0.0","44488552","wem/bandit_either","A1MTRZDRKNB9GV","either","8","","","","","","","0","0","1","","0.4395998441","0.8","0.2","0.6","0.4","0.1804488412","0.4395998441","0.2405257196","0.1207340475","","","","","","","","","","","74","J","1","","","47","main_expt"
"407","","bandit","126","714459","0.0-87.0-0.0","44488552","wem/bandit_either","A1MTRZDRKNB9GV","either","8","","","","","","","0","0","1","","0.1182533935","0.8","0.2","0.6","0.4","0.168268176","0.4630443269","0.2629408555","0.1182533935","","","","","","","","","","","76","L","3","","","48","main_expt"
"496","","bandit","127","716477","0.0-88.0-0.0","44488552","wem/bandit_either","A1MTRZDRKNB9GV","either","8","","","","","","","0","0","1","0.1466838001","","0.8","0.2","0.6","0.4","","","","","0.1466838001","0.4794982466","0.2902453213","0.1460801474","","","","","","","72","H","0","img/none_selected.jpg","","49","main_expt"
"550","","bandit","128","718549","0.0-89.0-0.0","44488552","wem/bandit_either","A1MTRZDRKNB9GV","either","8","","","","","","","1","0","0","0.3033715012","","0.8","0.2","0.6","0.4","","","","","0.1336340117","0.4562783041","0.3033715012","0.1765155983","","","","","","","75","K","2","","","50","main_expt"
"1214","","bandit","129","721284","0.0-90.0-0.0","44488552","wem/bandit_either","A1MTRZDRKNB9GV","either","8","","","","","","","0","0","1","","0.4515646323","0.8","0.2","0.6","0.4","0.1067821754","0.4515646323","0.3536831403","0.1614266163","","","","","","","","","","","74","J","1","","","51","main_expt"
"830","","bandit","130","723638","0.0-91.0-0.0","44488552","wem/bandit_either","A1MTRZDRKNB9GV","either","8","","","","","","","0","0","1","","0.3058792917","0.8","0.2","0.6","0.4","0.07294577227","0.4344137529","0.3058792917","0.1938643747","","","","","","","","","","","75","K","2","","","52","main_expt"
"734","","bandit","131","725906","0.0-92.0-0.0","44488552","wem/bandit_either","A1MTRZDRKNB9GV","either","8","","","","","","","0","0","1","0.07676454597","","0.8","0.2","0.6","0.4","","","","","0.07676454597","0.4421766306","0.3466820038","0.1721886996","","","","","","","72","H","0","img/none_selected.jpg","","53","main_expt"
"530","","bandit","132","727969","0.0-93.0-0.0","44488552","wem/bandit_either","A1MTRZDRKNB9GV","either","8","","","","","","","0","0","1","0.1542880765","","0.8","0.2","0.6","0.4","","","","","0.07707135067","0.4591875032","0.3159173384","0.1542880765","","","","","","","76","L","3","","","54","main_expt"
"559","","bandit","133","730049","0.0-94.0-0.0","44488552","wem/bandit_either","A1MTRZDRKNB9GV","either","8","","","","","","","0","0","1","","0.3205246683","0.8","0.2","0.6","0.4","0.08227932488","0.4455250987","0.3205246683","0.2155598061","","","","","","","","","","","75","K","2","","","55","main_expt"
"741","","bandit","134","732321","0.0-95.0-0.0","44488552","wem/bandit_either","A1MTRZDRKNB9GV","either","8","","","","","","","0","0","1","0.09013031375","","0.8","0.2","0.6","0.4","","","","","0.09013031375","0.4200701886","0.3067659888","0.199350645","","","","","","","72","H","0","img/none_selected.jpg","","56","main_expt"
"833","","bandit","135","734680","0.0-96.0-0.0","44488552","wem/bandit_either","A1MTRZDRKNB9GV","either","8","","","","","","","0","0","1","","0.3635567377","0.8","0.2","0.6","0.4","0.106866739","0.3635567377","0.3786279545","0.1991981904","","","","","","","","","","","74","J","1","","","57","main_expt"
"597","","bandit","136","736804","0.0-97.0-0.0","44488552","wem/bandit_either","A1MTRZDRKNB9GV","either","8","","","","","","","0","0","1","0.0915584437","","0.8","0.2","0.6","0.4","","","","","0.0915584437","0.3647217687","0.3796022377","0.1307276253","","","","","","","72","H","0","img/none_selected.jpg","","58","main_expt"
"425","","bandit","137","738747","0.0-98.0-0.0","44488552","wem/bandit_either","A1MTRZDRKNB9GV","either","8","","","","","","","0","0","1","0.3570845549","","0.8","0.2","0.6","0.4","","","","","0.1036540812","0.3975499765","0.3570845549","0.1540949786","","","","","","","75","K","2","","","59","main_expt"
"399","","bandit","138","740667","0.0-99.0-0.0","44488552","wem/bandit_either","A1MTRZDRKNB9GV","either","8","","","","","","","0","0","1","","0.1187181044","0.8","0.2","0.6","0.4","0.07948280662","0.376383165","0.398525789","0.1187181044","","","","","","","","","","","76","L","3","","","60","main_expt"
"626","","bandit","139","742814","0.0-100.0-0.0","44488552","wem/bandit_either","A1MTRZDRKNB9GV","either","8","","","","","","","0","0","1","0.0685056185","","0.8","0.2","0.6","0.4","","","","","0.0685056185","0.3384437455","0.380986593","0.1734870435","","","","","","","72","H","0","img/none_selected.jpg","","61","main_expt"
"688","","bandit","140","745024","0.0-101.0-0.0","44488552","wem/bandit_either","A1MTRZDRKNB9GV","either","8","","","","","","","0","0","1","","0.3086389155","0.8","0.2","0.6","0.4","0.04196312691","0.3086389155","0.3928002855","0.2056999461","","","","","","","","","","","74","J","1","","","62","main_expt"
"458","","bandit","141","747018","0.0-102.0-0.0","44488552","wem/bandit_either","A1MTRZDRKNB9GV","either","8","","","","","","","0","0","1","0.2421495796","","0.8","0.2","0.6","0.4","","","","","0.06524357318","0.3098998428","0.4097838671","0.2421495796","","","","","","","76","L","3","","","63","main_expt"
"424","","bandit","142","748974","0.0-103.0-0.0","44488552","wem/bandit_either","A1MTRZDRKNB9GV","either","8","","","","","","","0","0","1","","0.3942475769","0.8","0.2","0.6","0.4","0.04599317762","0.2859800092","0.3942475769","0.2678986655","","","","","","","","","","","75","K","2","","","64","main_expt"
"790","","bandit","143","751289","0.0-104.0-0.0","44488552","wem/bandit_either","A1MTRZDRKNB9GV","either","8","","","","","","","0","0","1","0.04738713632","","0.8","0.2","0.6","0.4","","","","","0.04738713632","0.2780623804","0.3756823908","0.2780805564","","","","","","","72","H","0","img/none_selected.jpg","","65","main_expt"
"422","","bandit","144","753237","0.0-105.0-0.0","44488552","wem/bandit_either","A1MTRZDRKNB9GV","either","8","","","","","","","0","0","1","0.3780323226","","0.8","0.2","0.6","0.4","","","","","0.02873144913","0.2740889186","0.3780323226","0.2923516192","","","","","","","75","K","2","","","66","main_expt"
"292","","bandit","145","755054","0.0-106.0-0.0","44488552","wem/bandit_either","A1MTRZDRKNB9GV","either","8","","","","","","","0","0","1","","0.3481747094","0.8","0.2","0.6","0.4","0.0355516853","0.3122756929","0.382091886","0.3481747094","","","","","","","","","","","76","L","3","","","67","main_expt"
"712","","bandit","146","757285","0.0-107.0-0.0","44488552","wem/bandit_either","A1MTRZDRKNB9GV","either","8","","","","","","","0","1","0","","0.3004294993","0.8","0.2","0.6","0.4","0.04483006882","0.3004294993","0.4080562953","0.3540590834","","","","","","","","","","","74","J","1","","","68","main_expt"
"834","","bandit","147","759642","0.0-108.0-0.0","44488552","wem/bandit_either","A1MTRZDRKNB9GV","either","8","","","","","","","0","1","0","","0.419826639","0.8","0.2","0.6","0.4","0.04300650393","0.3312842332","0.419826639","0.3348318208","","","","","","","","","","","75","K","2","","","69","main_expt"
"953","","bandit","148","762117","0.0-109.0-0.0","44488552","wem/bandit_either","A1MTRZDRKNB9GV","either","8","","","","","","","0","0","1","0.03960880855","","0.8","0.2","0.6","0.4","","","","","0.03960880855","0.2362018798","0.3889643965","0.3844983113","","","","","","","72","H","0","img/none_selected.jpg","","70","main_expt"
"1107","","bandit","149","764746","0.0-110.0-0.0","44488552","wem/bandit_either","A1MTRZDRKNB9GV","either","8","","","","","","","0","0","1","0.02401392238","","0.8","0.2","0.6","0.4","","","","","0.02401392238","0.1838323472","0.3492343966","0.3753843975","","","","","","","72","H","0","img/none_selected.jpg","","71","main_expt"
"802","","bandit","150","767074","0.0-111.0-0.0","44488552","wem/bandit_either","A1MTRZDRKNB9GV","either","8","","","","","","","0","0","1","0.008756159955","","0.8","0.2","0.6","0.4","","","","","0.008756159955","0.1749810972","0.3502155883","0.3861429343","","","","","","","72","H","0","img/none_selected.jpg","","72","main_expt"
"411","","bandit","151","769004","0.0-112.0-0.0","44488552","wem/bandit_either","A1MTRZDRKNB9GV","either","8","","","","","","","0","0","1","","0.3978436086","0.8","0.2","0.6","0.4","0.006257651783","0.1664097112","0.3568691787","0.3978436086","","","","","","","","","","","76","L","3","","","73","main_expt"
"552","","bandit","152","771077","0.0-113.0-0.0","44488552","wem/bandit_either","A1MTRZDRKNB9GV","either","8","","","","","","","0","1","0","","0.3303653739","0.8","0.2","0.6","0.4","0.004732084297","0.2001176207","0.3303653739","0.3847979518","","","","","","","","","","","75","K","2","","","74","main_expt"
"876","","bandit","153","773474","0.0-114.0-0.0","44488552","wem/bandit_either","A1MTRZDRKNB9GV","either","8","","","","","","","0","0","1","0.006967558871","","0.8","0.2","0.6","0.4","","","","","0.006967558871","0.1848717924","0.3353283381","0.3974319157","","","","","","","72","H","0","img/none_selected.jpg","","75","main_expt"
"862","","bandit","154","775860","0.0-115.0-0.0","44488552","wem/bandit_either","A1MTRZDRKNB9GV","either","8","","","","","","","0","0","1","0.004525860487","","0.8","0.2","0.6","0.4","","","","","0.004525860487","0.1510178238","0.3009524994","0.3987985884","","","","","","","72","H","0","img/none_selected.jpg","","76","main_expt"
"623","","bandit","155","778017","0.0-116.0-0.0","44488552","wem/bandit_either","A1MTRZDRKNB9GV","either","8","","","","","","","0","0","1","0.007245535115","","0.8","0.2","0.6","0.4","","","","","0.007245535115","0.2089633591","0.3316028908","0.4127312768","","","","","","","72","H","0","img/none_selected.jpg","","77","main_expt"
"576","","bandit","156","780116","0.0-117.0-0.0","44488552","wem/bandit_either","A1MTRZDRKNB9GV","either","8","","","","","","","0","0","1","0.00483057751","","0.8","0.2","0.6","0.4","","","","","0.00483057751","0.2285147345","0.3571024926","0.4257675477","","","","","","","72","H","0","img/none_selected.jpg","","78","main_expt"
"468","","bandit","157","782106","0.0-118.0-0.0","44488552","wem/bandit_either","A1MTRZDRKNB9GV","either","8","","","","","","","0","0","1","","0.2246975601","0.8","0.2","0.6","0.4","0.005956317848","0.2246975601","0.3542776451","0.4331167668","","","","","","","","","","","74","J","1","","","79","main_expt"
"717","","bandit","158","784344","0.0-119.0-0.0","44488552","wem/bandit_either","A1MTRZDRKNB9GV","either","8","","","","","","","0","1","0","","0.3201174307","0.8","0.2","0.6","0.4","0.0076590047","0.1878766281","0.3201174307","0.4294395537","","","","","","","","","","","75","K","2","","","80","main_expt"
"476","","bandit","159","786343","0.0-120.0-0.0","44488552","wem/bandit_either","A1MTRZDRKNB9GV","either","8","","","","","","","0","0","1","0.4234249918","","0.8","0.2","0.6","0.4","","","","","0.009115568074","0.2436254364","0.3503003334","0.4234249918","","","","","","","76","L","3","","","81","main_expt"
"555","","bandit","160","788421","0.0-121.0-0.0","44488552","wem/bandit_either","A1MTRZDRKNB9GV","either","8","","","","","","","0","0","1","0.01382977225","","0.8","0.2","0.6","0.4","","","","","0.01382977225","0.2627531714","0.3509066846","0.3956977209","","","","","","","72","H","0","img/none_selected.jpg","","82","main_expt"
"461","","bandit","161","790405","0.0-122.0-0.0","44488552","wem/bandit_either","A1MTRZDRKNB9GV","either","8","","","","","","","0","0","1","","0.4248650233","0.8","0.2","0.6","0.4","0.01500629599","0.2672212524","0.3951868033","0.4248650233","","","","","","","","","","","76","L","3","","","83","main_expt"
"700","","bandit","162","792630","0.0-123.0-0.0","44488552","wem/bandit_either","A1MTRZDRKNB9GV","either","8","","","","","","","0","0","1","0.4196907627","","0.8","0.2","0.6","0.4","","","","","0.02310127573","0.2817484998","0.4131477378","0.4196907627","","","","","","","76","L","3","","","84","main_expt"
"566","","bandit","163","794716","0.0-124.0-0.0","44488552","wem/bandit_either","A1MTRZDRKNB9GV","either","8","","","","","","","1","0","0","0.435633498","","0.8","0.2","0.6","0.4","","","","","0.02639065846","0.3074775227","0.3889697292","0.435633498","","","","","","","76","L","3","","","85","main_expt"
"480","","bandit","164","796719","0.0-125.0-0.0","44488552","wem/bandit_either","A1MTRZDRKNB9GV","either","8","","","","","","","0","0","1","0.01746441632","","0.8","0.2","0.6","0.4","","","","","0.01746441632","0.2717847629","0.3885636443","0.4322222521","","","","","","","72","H","0","img/none_selected.jpg","","86","main_expt"
"597","","bandit","165","798838","0.0-126.0-0.0","44488552","wem/bandit_either","A1MTRZDRKNB9GV","either","8","","","","","","","0","0","1","0.01256144444","","0.8","0.2","0.6","0.4","","","","","0.01256144444","0.2183858348","0.4028282504","0.4476119451","","","","","","","72","H","0","img/none_selected.jpg","","87","main_expt"
"675","","bandit","166","801040","0.0-127.0-0.0","44488552","wem/bandit_either","A1MTRZDRKNB9GV","either","8","","","","","","","0","0","1","0.01178158386","","0.8","0.2","0.6","0.4","","","","","0.01178158386","0.2054961256","0.4306890759","0.4073123198","","","","","","","72","H","0","img/none_selected.jpg","","88","main_expt"
"852","","bandit","167","803421","0.0-128.0-0.0","44488552","wem/bandit_either","A1MTRZDRKNB9GV","either","8","","","","","","","0","0","1","0.008722555822","","0.8","0.2","0.6","0.4","","","","","0.008722555822","0.1452714398","0.4103738654","0.3862301724","","","","","","","72","H","0","img/none_selected.jpg","","89","main_expt"
"504","","bandit","168","805449","0.0-129.0-0.0","44488552","wem/bandit_either","A1MTRZDRKNB9GV","either","8","","","","","","","0","0","1","0.008232471735","","0.8","0.2","0.6","0.4","","","","","0.008232471735","0.1077779513","0.3980827974","0.3596745144","","","","","","","72","H","0","img/none_selected.jpg","","90","main_expt"
"590","","bandit","169","807560","0.0-130.0-0.0","44488552","wem/bandit_either","A1MTRZDRKNB9GV","either","8","","","","","","","0","0","1","0.01249180717","","0.8","0.2","0.6","0.4","","","","","0.01249180717","0.1308407065","0.4040531024","0.3082854458","","","","","","","72","H","0","img/none_selected.jpg","","91","main_expt"
"448","","bandit","170","809529","0.0-131.0-0.0","44488552","wem/bandit_either","A1MTRZDRKNB9GV","either","8","","","","","","","0","0","1","0.01470986316","","0.8","0.2","0.6","0.4","","","","","0.01470986316","0.1652322036","0.3462944796","0.312225492","","","","","","","72","H","0","img/none_selected.jpg","","92","main_expt"
"382","","bandit","171","811444","0.0-132.0-0.0","44488552","wem/bandit_either","A1MTRZDRKNB9GV","either","8","","","","","","","0","0","1","","0.3671658277","0.8","0.2","0.6","0.4","0.02655281846","0.1344678182","0.3411451966","0.3671658277","","","","","","","","","","","76","L","3","","","93","main_expt"
"860","","bandit","172","813823","0.0-133.0-0.0","44488552","wem/bandit_either","A1MTRZDRKNB9GV","either","8","","","","","","","0","0","1","","0.1301314301","0.8","0.2","0.6","0.4","0.02575246025","0.1301314301","0.3384154489","0.3401731108","","","","","","","","","","","74","J","1","","","94","main_expt"
"576","","bandit","173","815927","0.0-134.0-0.0","44488552","wem/bandit_either","A1MTRZDRKNB9GV","either","8","","","","","","","0","0","1","0.02262355665","","0.8","0.2","0.6","0.4","","","","","0.02262355665","0.1746055711","0.3126988266","0.3413923724","","","","","","","72","H","0","img/none_selected.jpg","","95","main_expt"
"681","","bandit","174","818138","0.0-135.0-0.0","44488552","wem/bandit_either","A1MTRZDRKNB9GV","either","8","","","","","","","0","0","1","0.02047181149","","0.8","0.2","0.6","0.4","","","","","0.02047181149","0.1994244555","0.3800019137","0.3570420485","","","","","","","72","H","0","img/none_selected.jpg","","96","main_expt"
"1002","","bandit","175","820665","0.0-136.0-0.0","44488552","wem/bandit_either","A1MTRZDRKNB9GV","either","8","","","","","","","1","0","0","0.3435474977","","0.8","0.2","0.6","0.4","","","","","0.0207754381","0.1834602947","0.3328121005","0.3435474977","","","","","","","76","L","3","","","97","main_expt"
"744","","bandit","176","822931","0.0-137.0-0.0","44488552","wem/bandit_either","A1MTRZDRKNB9GV","either","8","","","","","","","0","0","1","0.02955834597","","0.8","0.2","0.6","0.4","","","","","0.02955834597","0.1719221531","0.332228596","0.3614714926","","","","","","","72","H","0","img/none_selected.jpg","","98","main_expt"
"251","","bandit","177","824705","0.0-138.0-0.0","44488552","wem/bandit_either","A1MTRZDRKNB9GV","either","8","","","","","","","0","0","1","","0.2843854285","0.8","0.2","0.6","0.4","0.0383131093","0.1183399241","0.2843854285","0.3176405447","","","","","","","","","","","75","K","2","","","99","main_expt"
"479","","bandit","178","826715","0.0-139.0-0.0","44488552","wem/bandit_either","A1MTRZDRKNB9GV","either","8","","","","","","","0","0","1","","0.1558635017","0.8","0.2","0.6","0.4","0.03580757471","0.1558635017","0.309751149","0.3586553183","","","","","","","","","","","74","J","1","","","100","main_expt"
"747","","bandit","179","828993","0.0-140.0-0.0","44488552","wem/bandit_either","A1MTRZDRKNB9GV","either","8","","","","","","","0","0","1","","0.2951503345","0.8","0.2","0.6","0.4","0.04899620691","0.1389665978","0.2993195944","0.2951503345","","","","","","","","","","","76","L","3","","","101","main_expt"
"558","","bandit","180","831074","0.0-141.0-0.0","44488552","wem/bandit_either","A1MTRZDRKNB9GV","either","8","","","","","","","0","0","1","0.08055650644","","0.8","0.2","0.6","0.4","","","","","0.08055650644","0.1377203561","0.3551890872","0.2998391809","","","","","","","72","H","0","img/none_selected.jpg","","102","main_expt"
"647","","bandit","181","833244","0.0-142.0-0.0","44488552","wem/bandit_either","A1MTRZDRKNB9GV","either","8","","","","","","","0","0","1","0.1040447627","","0.8","0.2","0.6","0.4","","","","","0.1040447627","0.1285548106","0.3148404956","0.2791823827","","","","","","","72","H","0","img/none_selected.jpg","","103","main_expt"
"517","","bandit","182","835289","0.0-143.0-0.0","44488552","wem/bandit_either","A1MTRZDRKNB9GV","either","8","","","","","","","0","0","1","0.3382769334","","0.8","0.2","0.6","0.4","","","","","0.1143547335","0.1555523735","0.3286912191","0.3382769334","","","","","","","76","L","3","","","104","main_expt"
"474","","bandit","183","837286","0.0-144.0-0.0","44488552","wem/bandit_either","A1MTRZDRKNB9GV","either","8","","","","","","","0","0","1","","0.1775592141","0.8","0.2","0.6","0.4","0.1487676438","0.1775592141","0.298340497","0.3339697125","","","","","","","","","","","74","J","1","","","105","main_expt"
"412","","bandit","184","839223","0.0-145.0-0.0","44488552","wem/bandit_either","A1MTRZDRKNB9GV","either","8","","","","","","","0","0","1","","0.3504464386","0.8","0.2","0.6","0.4","0.152088545","0.2263451353","0.3504464386","0.3124129253","","","","","","","","","","","75","K","2","","","106","main_expt"
"475","","bandit","185","841237","0.0-146.0-0.0","44488552","wem/bandit_either","A1MTRZDRKNB9GV","either","8","","","","","","","0","1","0","","0.3400683723","0.8","0.2","0.6","0.4","0.2406734145","0.1679769802","0.3510410077","0.3400683723","","","","","","","","","","","76","L","3","","","107","main_expt"
"781","","bandit","186","843553","0.0-147.0-0.0","44488552","wem/bandit_either","A1MTRZDRKNB9GV","either","8","","","","","","","0","0","1","","0.3282766846","0.8","0.2","0.6","0.4","0.3048040024","0.1999870147","0.3282766846","0.3557340834","","","","","","","","","","","75","K","2","","","108","main_expt"
"499","","bandit","187","845577","0.0-148.0-0.0","44488552","wem/bandit_either","A1MTRZDRKNB9GV","either","8","","","","","","","1","0","0","0.3418503096","","0.8","0.2","0.6","0.4","","","","","0.3418503096","0.208992856","0.3561186451","0.3846418901","","","","","","","72","H","0","img/none_selected.jpg","","109","main_expt"
"1604","","bandit","188","848703","0.0-149.0-0.0","44488552","wem/bandit_either","A1MTRZDRKNB9GV","either","8","","","","","","","0","0","1","","0.1716040471","0.8","0.2","0.6","0.4","0.3198501315","0.1716040471","0.3576445865","0.4057962062","","","","","","","","","","","74","J","1","","","110","main_expt"
"587","","bandit","189","850813","0.0-150.0-0.0","44488552","wem/bandit_either","A1MTRZDRKNB9GV","either","8","","","","","","","0","0","1","0.08984071331","","0.8","0.2","0.6","0.4","","","","","0.3681534847","0.08984071331","0.3377543854","0.3692451483","","","","","","","74","J","1","","","111","main_expt"
"523","","bandit","190","852860","0.0-151.0-0.0","44488552","wem/bandit_either","A1MTRZDRKNB9GV","either","8","","","","","","","0","0","1","","0.1243463141","0.8","0.2","0.6","0.4","0.3757830796","0.1243463141","0.286234052","0.3577317973","","","","","","","","","","","74","J","1","","","112","main_expt"
"547","","bandit","191","854929","0.0-152.0-0.0","44488552","wem/bandit_either","A1MTRZDRKNB9GV","either","8","","","","","","","0","0","1","","0.1433440675","0.8","0.2","0.6","0.4","0.3838999828","0.1433440675","0.1932674395","0.3328808086","","","","","","","","","","","74","J","1","","","113","main_expt"
"475","","bandit","192","856926","0.0-153.0-0.0","44488552","wem/bandit_either","A1MTRZDRKNB9GV","either","8","","","","","","","0","0","1","0.2403040534","","0.8","0.2","0.6","0.4","","","","","0.4157938717","0.1510662198","0.2403040534","0.3416979579","","","","","","","75","K","2","","","114","main_expt"
"467","","bandit","193","858916","0.0-154.0-0.0","44488552","wem/bandit_either","A1MTRZDRKNB9GV","either","8","","","","","","","0","0","1","","0.09845245139","0.8","0.2","0.6","0.4","0.4055870595","0.09845245139","0.254937398","0.3377137281","","","","","","","","","","","74","J","1","","","115","main_expt"
"459","","bandit","194","860896","0.0-155.0-0.0","44488552","wem/bandit_either","A1MTRZDRKNB9GV","either","8","","","","","","","1","0","0","0.2605063941","","0.8","0.2","0.6","0.4","","","","","0.4161015278","0.107393795","0.2605063941","0.3039448029","","","","","","","75","K","2","","","116","main_expt"
"359","","bandit","195","862779","0.0-156.0-0.0","44488552","wem/bandit_either","A1MTRZDRKNB9GV","either","8","","","","","","","0","0","1","0.414877819","","0.8","0.2","0.6","0.4","","","","","0.414877819","0.07879800556","0.2161328783","0.2974336912","","","","","","","72","H","0","img/none_selected.jpg","","117","main_expt"
"472","","bandit","196","864774","0.0-157.0-0.0","44488552","wem/bandit_either","A1MTRZDRKNB9GV","either","8","","","","","","","0","1","0","","0.3968259953","0.8","0.2","0.6","0.4","0.3968259953","0.08383735875","0.1931197841","0.2651867246","","","","","","","","","","","72","H","0","img/none_selected.jpg","","118","main_expt"
"604","","bandit","197","866902","0.0-158.0-0.0","44488552","wem/bandit_either","A1MTRZDRKNB9GV","either","8","","","","","","","0","0","1","0.3131666206","","0.8","0.2","0.6","0.4","","","","","0.4198241006","0.1392474383","0.1638183597","0.3131666206","","","","","","","76","L","3","","","119","main_expt"
"497","","bandit","198","868921","0.0-159.0-0.0","44488552","wem/bandit_either","A1MTRZDRKNB9GV","either","8","","","","","","","0","0","1","0.358829095","","0.8","0.2","0.6","0.4","","","","","0.4286088018","0.1649404926","0.1893282748","0.358829095","","","","","","","76","L","3","","","120","main_expt"
"646","","bandit","199","871096","0.0-160.0-0.0","44488552","wem/bandit_either","A1MTRZDRKNB9GV","either","8","","","","","","","0","0","1","","0.3189860171","0.8","0.2","0.6","0.4","0.4253829576","0.1764152442","0.2290368179","0.3189860171","","","","","","","","","","","76","L","3","","","121","main_expt"
"442","","bandit","200","873070","0.0-161.0-0.0","44488552","wem/bandit_either","A1MTRZDRKNB9GV","either","8","","","","","","","1","0","0","0.2445441383","","0.8","0.2","0.6","0.4","","","","","0.4235175979","0.2092397698","0.2445441383","0.3011672979","","","","","","","75","K","2","","","122","main_expt"
"994","","bandit","201","875584","0.0-162.0-0.0","44488552","wem/bandit_either","A1MTRZDRKNB9GV","either","8","","","","","","","0","1","0","","0.1884058447","0.8","0.2","0.6","0.4","0.4182090072","0.1884058447","0.2091075756","0.3037948063","","","","","","","","","","","74","J","1","","","123","main_expt"
"607","","bandit","202","877723","0.0-163.0-0.0","44488552","wem/bandit_either","A1MTRZDRKNB9GV","either","8","","","","","","","0","0","1","","0.2216111921","0.8","0.2","0.6","0.4","0.4356016004","0.1876417206","0.2216111921","0.2446200253","","","","","","","","","","","75","K","2","","","124","main_expt"
"579","","bandit","203","879843","0.0-164.0-0.0","44488552","wem/bandit_either","A1MTRZDRKNB9GV","either","8","","","","","","","0","0","1","0.1622020501","","0.8","0.2","0.6","0.4","","","","","0.403953628","0.1890564589","0.1622020501","0.2464628806","","","","","","","75","K","2","","","125","main_expt"
"457","","bandit","204","881823","0.0-165.0-0.0","44488552","wem/bandit_either","A1MTRZDRKNB9GV","either","8","","","","","","","0","0","1","","0.173533554","0.8","0.2","0.6","0.4","0.4020675328","0.1659850756","0.173533554","0.281169445","","","","","","","","","","","75","K","2","","","126","main_expt"
"122","","bandit","205","883473","0.0-166.0-0.0","44488552","wem/bandit_either","A1MTRZDRKNB9GV","either","8","","","","","","","0","0","1","0.290080064","","0.8","0.2","0.6","0.4","","","","","0.338443572","0.2006343121","0.189829559","0.290080064","","","","","","","76","L","3","","","127","main_expt"
"200","","bandit","206","885195","0.0-167.0-0.0","44488552","wem/bandit_either","A1MTRZDRKNB9GV","either","8","","","","","","","0","0","1","0.323123489","","0.8","0.2","0.6","0.4","","","","","0.323123489","0.2637444583","0.1764696366","0.3280989756","","","","","","","72","H","0","img/none_selected.jpg","","128","main_expt"
"341","","bandit","207","887059","0.0-168.0-0.0","44488552","wem/bandit_either","A1MTRZDRKNB9GV","either","8","","","","","","","0","0","1","","0.2783394686","0.8","0.2","0.6","0.4","0.3615310162","0.2783394686","0.172709194","0.3052704822","","","","","","","","","","","74","J","1","","","129","main_expt"
"565","","bandit","208","889150","0.0-169.0-0.0","44488552","wem/bandit_either","A1MTRZDRKNB9GV","either","8","","","","","","","1","0","0","0.1407460215","","0.8","0.2","0.6","0.4","","","","","0.3667448715","0.2674474002","0.1407460215","0.314718742","","","","","","","75","K","2","","","130","main_expt"
"386","","bandit","209","891075","0.0-170.0-0.0","44488552","wem/bandit_either","A1MTRZDRKNB9GV","either","8","","","","","","","0","0","1","0.341745941","","0.8","0.2","0.6","0.4","","","","","0.341745941","0.2122920843","0.143826562","0.2492347367","","","","","","","72","H","0","img/none_selected.jpg","","131","main_expt"
"402","","bandit","210","893005","0.0-171.0-0.0","44488552","wem/bandit_either","A1MTRZDRKNB9GV","either","8","","","","","","","0","0","1","0.2495736985","","0.8","0.2","0.6","0.4","","","","","0.2615325727","0.1969346152","0.1862992663","0.2495736985","","","","","","","76","L","3","","","132","main_expt"
"525","","bandit","211","895071","0.0-172.0-0.0","44488552","wem/bandit_either","A1MTRZDRKNB9GV","either","8","","","","","","","0","0","1","","0.1390835973","0.8","0.2","0.6","0.4","0.27905624","0.1390835973","0.185648564","0.2487120015","","","","","","","","","","","74","J","1","","","133","main_expt"
"578","","bandit","212","897179","0.0-173.0-0.0","44488552","wem/bandit_either","A1MTRZDRKNB9GV","either","8","","","","","","","0","0","1","","0.2002276213","0.8","0.2","0.6","0.4","0.2751163123","0.1437640715","0.2002276213","0.3239420422","","","","","","","","","","","75","K","2","","","134","main_expt"
"467","","bandit","213","899170","0.0-174.0-0.0","44488552","wem/bandit_either","A1MTRZDRKNB9GV","either","8","","","","","","","0","0","1","0.3903525049","","0.8","0.2","0.6","0.4","","","","","0.2586507773","0.1175999949","0.2474552851","0.3903525049","","","","","","","76","L","3","","","135","main_expt"
"413","","bandit","214","901110","0.0-175.0-0.0","44488552","wem/bandit_either","A1MTRZDRKNB9GV","either","8","","","","","","","1","0","0","0.2385277364","","0.8","0.2","0.6","0.4","","","","","0.2385277364","0.1108499649","0.2454982057","0.3703049055","","","","","","","72","H","0","img/none_selected.jpg","","136","main_expt"
"713","","bandit","215","903348","0.0-176.0-0.0","44488552","wem/bandit_either","A1MTRZDRKNB9GV","either","8","","","","","","","0","0","1","","0.1208727618","0.8","0.2","0.6","0.4","0.1935782534","0.1208727618","0.2708690816","0.3657944308","","","","","","","","","","","74","J","1","","","137","main_expt"
"583","","bandit","216","905453","0.0-177.0-0.0","44488552","wem/bandit_either","A1MTRZDRKNB9GV","either","8","","","","","","","0","1","0","","0.3452946514","0.8","0.2","0.6","0.4","0.14087624","0.1098805161","0.2219039101","0.3452946514","","","","","","","","","","","76","L","3","","","138","main_expt"
"461","","bandit","217","907438","0.0-178.0-0.0","44488552","wem/bandit_either","A1MTRZDRKNB9GV","either","8","","","","","","","0","0","1","0.1340930794","","0.8","0.2","0.6","0.4","","","","","0.1340930794","0.1359731218","0.2485571535","0.3225052804","","","","","","","72","H","0","img/none_selected.jpg","","139","main_expt"
"469","","bandit","218","909437","0.0-179.0-0.0","44488552","wem/bandit_either","A1MTRZDRKNB9GV","either","8","","","","","","","0","0","1","","0.1170750994","0.8","0.2","0.6","0.4","0.1170750994","0.1419248406","0.2605640439","0.2997250911","","","","","","","","","","","72","H","0","img/none_selected.jpg","","140","main_expt"
"418","","bandit","219","911387","0.0-180.0-0.0","44488552","wem/bandit_either","A1MTRZDRKNB9GV","either","8","","","","","","","0","0","1","","0.311933389","0.8","0.2","0.6","0.4","0.1316830279","0.1269577117","0.2260680923","0.311933389","","","","","","","","","","","76","L","3","","","141","main_expt"
"310","","bandit","220","913222","0.0-181.0-0.0","44488552","wem/bandit_either","A1MTRZDRKNB9GV","either","8","","","","","","","0","0","1","","0.2354846983","0.8","0.2","0.6","0.4","0.09490366034","0.1073819056","0.2354846983","0.3442568425","","","","","","","","","","","75","K","2","","","142","main_expt"
"537","","bandit","221","915281","0.0-182.0-0.0","44488552","wem/bandit_either","A1MTRZDRKNB9GV","either","8","","","","","","","0","0","1","0.1152767294","","0.8","0.2","0.6","0.4","","","","","0.1246024154","0.1152767294","0.2089358464","0.3117203045","","","","","","","74","J","1","","","143","main_expt"
"449","","bandit","222","917254","0.0-183.0-0.0","44488552","wem/bandit_either","A1MTRZDRKNB9GV","either","8","","","","","","","0","0","1","","0.1844607625","0.8","0.2","0.6","0.4","0.1179874238","0.1317444946","0.1844607625","0.3080771123","","","","","","","","","","","75","K","2","","","144","main_expt"
"487","","bandit","223","919267","0.0-184.0-0.0","44488552","wem/bandit_either","A1MTRZDRKNB9GV","either","8","","","","","","","0","0","1","","0.1058600218","0.8","0.2","0.6","0.4","0.1211842963","0.1058600218","0.1940384654","0.3146876691","","","","","","","","","","","74","J","1","","","145","main_expt"
"435","","bandit","224","921226","0.0-185.0-0.0","44488552","wem/bandit_either","A1MTRZDRKNB9GV","either","8","","","","","","","0","0","1","","0.3526806189","0.8","0.2","0.6","0.4","0.06212451067","0.1862633901","0.2532022814","0.3526806189","","","","","","","","","","","76","L","3","","","146","main_expt"
"403","","bandit","225","923156","0.0-186.0-0.0","44488552","wem/bandit_either","A1MTRZDRKNB9GV","either","8","","","","","","","0","0","1","","0.05826033827","0.8","0.2","0.6","0.4","0.05826033827","0.1944793183","0.272856749","0.3859334927","","","","","","","","","","","72","H","0","img/none_selected.jpg","","147","main_expt"
"419","","bandit","226","925108","0.0-187.0-0.0","44488552","wem/bandit_either","A1MTRZDRKNB9GV","either","8","","","","","","","0","0","1","","0.04847575149","0.8","0.2","0.6","0.4","0.04847575149","0.1572605535","0.2441255329","0.4089873985","","","","","","","","","","","72","H","0","img/none_selected.jpg","","148","main_expt"
"420","","bandit","227","927053","0.0-188.0-0.0","44488552","wem/bandit_either","A1MTRZDRKNB9GV","either","8","","","","","","","0","0","1","0.07397138717","","0.8","0.2","0.6","0.4","","","","","0.07397138717","0.1632070519","0.2304797635","0.3317076441","","","","","","","72","H","0","img/none_selected.jpg","","149","main_expt"
"422","","bandit","228","929000","0.0-189.0-0.0","44488552","wem/bandit_either","A1MTRZDRKNB9GV","either","8","","","","","","","0","0","1","","0.1178437277","0.8","0.2","0.6","0.4","0.1178437277","0.2162169298","0.2645424191","0.2514439341","","","","","","","","","","","72","H","0","img/none_selected.jpg","","150","main_expt"
"475","","bandit","229","931017","0.0-190.0-0.0","44488552","wem/bandit_either","A1MTRZDRKNB9GV","either","8","","","","","","","0","0","1","0.1116740648","","0.8","0.2","0.6","0.4","","","","","0.1116740648","0.2806681102","0.2919476008","0.2209696772","","","","","","","72","H","0","img/none_selected.jpg","","151","main_expt"
"452","","bandit","230","933000","0.0-191.0-0.0","44488552","wem/bandit_either","A1MTRZDRKNB9GV","either","8","","","","","","","0","0","1","0.2004300668","","0.8","0.2","0.6","0.4","","","","","0.09681320826","0.25223767","0.3004198658","0.2004300668","","","","","","","76","L","3","","","152","main_expt"
"162","","bandit","231","934696","0.0-192.0-0.0","44488552","wem/bandit_either","A1MTRZDRKNB9GV","either","8","","","","","","","0","0","1","","0.1803159607","0.8","0.2","0.6","0.4","0.1162344283","0.2259503681","0.2910243242","0.1803159607","","","","","","","","","","","76","L","3","","","153","main_expt"
"372","","bandit","232","936603","0.0-193.0-0.0","44488552","wem/bandit_either","A1MTRZDRKNB9GV","either","8","","","","","","","0","0","1","","0.1793353988","0.8","0.2","0.6","0.4","0.1441765144","0.2520515582","0.2858680692","0.1793353988","","","","","","","","","","","76","L","3","","","154","main_expt"
"278","","bandit","233","938405","0.0-194.0-0.0","44488552","wem/bandit_either","A1MTRZDRKNB9GV","either","8","","","","","","","0","0","1","0.175125938","","0.8","0.2","0.6","0.4","","","","","0.1506434262","0.246895917","0.276906037","0.175125938","","","","","","","76","L","3","","","155","main_expt"
"371","","bandit","234","940303","0.0-195.0-0.0","44488552","wem/bandit_either","A1MTRZDRKNB9GV","either","8","","","","","","","1","0","0","0.3087514371","","0.8","0.2","0.6","0.4","","","","","0.1691825384","0.2067462234","0.3087514371","0.19004546","","","","","","","75","K","2","","","156","main_expt"
"409","","bandit","235","942242","0.0-196.0-0.0","44488552","wem/bandit_either","A1MTRZDRKNB9GV","either","8","","","","","","","0","0","1","","0.1736677602","0.8","0.2","0.6","0.4","0.1465267651","0.1736677602","0.3400763937","0.1538528063","","","","","","","","","","","74","J","1","","","157","main_expt"
"453","","bandit","236","944220","0.0-197.0-0.0","44488552","wem/bandit_either","A1MTRZDRKNB9GV","either","8","","","","","","","0","0","1","0.1624419901","","0.8","0.2","0.6","0.4","","","","","0.1517260174","0.2437422656","0.3388441277","0.1624419901","","","","","","","76","L","3","","","158","main_expt"
"434","","bandit","237","946183","0.0-198.0-0.0","44488552","wem/bandit_either","A1MTRZDRKNB9GV","either","8","","","","","","","0","0","1","0.143579764","","0.8","0.2","0.6","0.4","","","","","0.143579764","0.2627628197","0.3496437485","0.1749682205","","","","","","","72","H","0","img/none_selected.jpg","","159","main_expt"
"378","","bandit","238","948086","0.0-199.0-0.0","44488552","wem/bandit_either","A1MTRZDRKNB9GV","either","8","","","","","","","0","0","1","0.3347491532","","0.8","0.2","0.6","0.4","","","","","0.1701049762","0.2532756584","0.3347491532","0.2227833177","","","","","","","75","K","2","","","160","main_expt"
"469","","bandit","239","950086","0.0-200.0-0.0","44488552","wem/bandit_either","A1MTRZDRKNB9GV","either","8","","","","","","","0","0","1","0.1596038406","","0.8","0.2","0.6","0.4","","","","","0.1596038406","0.2846030245","0.3036625801","0.1616195486","","","","","","","72","H","0","img/none_selected.jpg","","161","main_expt"
"306","","bandit","240","951921","0.0-201.0-0.0","44488552","wem/bandit_either","A1MTRZDRKNB9GV","either","8","","","","","","","0","0","1","0.1440802068","","0.8","0.2","0.6","0.4","","","","","0.1186271452","0.2480450928","0.2735804545","0.1440802068","","","","","","","76","L","3","","","162","main_expt"
"396","","bandit","241","953844","0.0-202.0-0.0","44488552","wem/bandit_either","A1MTRZDRKNB9GV","either","8","","","","","","","0","0","1","","0.2219233964","0.8","0.2","0.6","0.4","0.1460830151","0.3217860246","0.2219233964","0.1349250059","","","","","","","","","","","75","K","2","","","163","main_expt"
"453","","bandit","242","955820","0.0-203.0-0.0","44488552","wem/bandit_either","A1MTRZDRKNB9GV","either","8","","","","","","","0","1","0","","0.1924179555","0.8","0.2","0.6","0.4","0.1924179555","0.3528623486","0.2489701673","0.1482528248","","","","","","","","","","","72","H","0","img/none_selected.jpg","","164","main_expt"
"406","","bandit","243","957754","0.0-204.0-0.0","44488552","wem/bandit_either","A1MTRZDRKNB9GV","either","8","","","","","","","0","0","1","0.3113737792","","0.8","0.2","0.6","0.4","","","","","0.1909643941","0.3113737792","0.2424219606","0.1444116863","","","","","","","74","J","1","","","165","main_expt"
"515","","bandit","244","959794","0.0-205.0-0.0","44488552","wem/bandit_either","A1MTRZDRKNB9GV","either","8","","","","","","","0","0","1","","0.2820045276","0.8","0.2","0.6","0.4","0.1917506842","0.2820045276","0.1899742571","0.1621449425","","","","","","","","","","","74","J","1","","","166","main_expt"
"418","","bandit","245","961739","0.0-206.0-0.0","44488552","wem/bandit_either","A1MTRZDRKNB9GV","either","8","","","","","","","0","0","1","","0.1695256229","0.8","0.2","0.6","0.4","0.2238056512","0.2539690707","0.2298880826","0.1695256229","","","","","","","","","","","76","L","3","","","167","main_expt"
"618","","bandit","246","963881","0.0-207.0-0.0","44488552","wem/bandit_either","A1MTRZDRKNB9GV","either","8","","","","","","","0","1","0","","0.1712445676","0.8","0.2","0.6","0.4","0.2132240521","0.2177565821","0.241220494","0.1712445676","","","","","","","","","","","76","L","3","","","168","main_expt"
"11762","","bandit","247","977171","0.0-208.0-0.0","44488552","wem/bandit_either","A1MTRZDRKNB9GV","either","8","","","","","","","0","0","1","","0.183214586","0.8","0.2","0.6","0.4","0.1363713625","0.183214586","0.2113351254","0.191079104","","","","","","","","","","","74","J","1","","","169","main_expt"
"204","","bandit","248","978901","0.0-209.0-0.0","44488552","wem/bandit_either","A1MTRZDRKNB9GV","either","8","","","","","","","0","0","1","0.2007690262","","0.8","0.2","0.6","0.4","","","","","0.2007690262","0.1757282231","0.2224744884","0.2227666825","","","","","","","72","H","0","img/none_selected.jpg","","170","main_expt"
"489","","bandit","249","980922","0.0-210.0-0.0","44488552","wem/bandit_either","A1MTRZDRKNB9GV","either","8","","","","","","","0","0","1","0.262177911","","0.8","0.2","0.6","0.4","","","","","0.1238998316","0.1679331046","0.262177911","0.2719914804","","","","","","","75","K","2","","","171","main_expt"
"433","","bandit","250","982879","0.0-211.0-0.0","44488552","wem/bandit_either","A1MTRZDRKNB9GV","either","8","","","","","","","0","0","1","","0.2330128459","0.8","0.2","0.6","0.4","0.09746419185","0.14560319","0.2822992514","0.2330128459","","","","","","","","","","","76","L","3","","","172","main_expt"
"482","","bandit","251","984892","0.0-212.0-0.0","44488552","wem/bandit_either","A1MTRZDRKNB9GV","either","8","","","","","","","0","0","1","","0.2545762091","0.8","0.2","0.6","0.4","0.1018164217","0.1341549344","0.2545762091","0.2840251313","","","","","","","","","","","75","K","2","","","173","main_expt"
"490","","bandit","252","986907","0.0-213.0-0.0","44488552","wem/bandit_either","A1MTRZDRKNB9GV","either","8","","","","","","","0","0","1","","0.1401689619","0.8","0.2","0.6","0.4","0.1401689619","0.1471305278","0.2838184637","0.2739042306","","","","","","","","","","","72","H","0","img/none_selected.jpg","","174","main_expt"
"711","","bandit","253","989147","0.0-214.0-0.0","44488552","wem/bandit_either","A1MTRZDRKNB9GV","either","8","","","","","","","0","0","1","0.173963405","","0.8","0.2","0.6","0.4","","","","","0.1697524679","0.173963405","0.3002790513","0.3444735506","","","","","","","74","J","1","","","175","main_expt"
"640","","bandit","254","991314","0.0-215.0-0.0","44488552","wem/bandit_either","A1MTRZDRKNB9GV","either","8","","","","","","","0","1","0","","0.3771690292","0.8","0.2","0.6","0.4","0.1896898672","0.1821857965","0.3771690292","0.3223017316","","","","","","","","","","","75","K","2","","","176","main_expt"
"454","","bandit","255","993297","0.0-216.0-0.0","44488552","wem/bandit_either","A1MTRZDRKNB9GV","either","8","","","","","","","0","0","1","","0.2441254625","0.8","0.2","0.6","0.4","0.2441254625","0.1444884472","0.4047809956","0.2964924158","","","","","","","","","","","72","H","0","img/none_selected.jpg","","177","main_expt"
"418","","bandit","256","995244","0.0-217.0-0.0","44488552","wem/bandit_either","A1MTRZDRKNB9GV","either","8","","","","","","","0","0","1","","0.2780576925","0.8","0.2","0.6","0.4","0.2427722412","0.1207783293","0.4344960837","0.2780576925","","","","","","","","","","","76","L","3","","","178","main_expt"
"475","","bandit","257","997253","0.0-218.0-0.0","44488552","wem/bandit_either","A1MTRZDRKNB9GV","either","8","","","","","","","0","0","1","","0.2859751729","0.8","0.2","0.6","0.4","0.2284650367","0.111585665","0.4287912686","0.2859751729","","","","","","","","","","","76","L","3","","","179","main_expt"
"459","","bandit","258","999244","0.0-219.0-0.0","44488552","wem/bandit_either","A1MTRZDRKNB9GV","either","8","","","","","","","0","0","1","","0.283533164","0.8","0.2","0.6","0.4","0.2694081366","0.06891525065","0.4294180747","0.283533164","","","","","","","","","","","76","L","3","","","180","main_expt"
"421","","bandit","259","1001199","0.0-220.0-0.0","44488552","wem/bandit_either","A1MTRZDRKNB9GV","either","8","","","","","","","0","0","1","0.2471628034","","0.8","0.2","0.6","0.4","","","","","0.2471628034","0.07407739619","0.3887332701","0.2430023428","","","","","","","72","H","0","img/none_selected.jpg","","181","main_expt"
"326","","bandit","260","1003068","0.0-221.0-0.0","44488552","wem/bandit_either","A1MTRZDRKNB9GV","either","8","","","","","","","0","0","1","","0.07501704201","0.8","0.2","0.6","0.4","0.275372354","0.07501704201","0.3910635387","0.223254837","","","","","","","","","","","74","J","1","","","182","main_expt"
"477","","bandit","261","1005083","0.0-222.0-0.0","44488552","wem/bandit_either","A1MTRZDRKNB9GV","either","8","","","","","","","1","0","0","0.3957792538","","0.8","0.2","0.6","0.4","","","","","0.2378950907","0.09354103142","0.3957792538","0.2274286797","","","","","","","75","K","2","","","183","main_expt"
"597","","bandit","262","1007206","0.0-223.0-0.0","44488552","wem/bandit_either","A1MTRZDRKNB9GV","either","8","","","","","","","1","0","0","0.2611999536","","0.8","0.2","0.6","0.4","","","","","0.2611999536","0.06673830493","0.3777829694","0.2485964068","","","","","","","72","H","0","img/none_selected.jpg","","184","main_expt"
"504","","bandit","263","1009247","0.0-224.0-0.0","44488552","wem/bandit_either","A1MTRZDRKNB9GV","either","8","","","","","","","0","0","1","0.2080173303","","0.8","0.2","0.6","0.4","","","","","0.2799245071","0.08617836821","0.4130939835","0.2080173303","","","","","","","76","L","3","","","185","main_expt"
"693","","bandit","264","1011467","0.0-225.0-0.0","44488552","wem/bandit_either","A1MTRZDRKNB9GV","either","8","","","","","","","0","0","1","","0.2538883687","0.8","0.2","0.6","0.4","0.2275386122","0.05054014018","0.376930599","0.2538883687","","","","","","","","","","","76","L","3","","","186","main_expt"
"504","","bandit","265","1013501","0.0-226.0-0.0","44488552","wem/bandit_either","A1MTRZDRKNB9GV","either","8","","","","","","","0","0","1","","0.1101456656","0.8","0.2","0.6","0.4","0.2558518805","0.1101456656","0.3934592684","0.2267652077","","","","","","","","","","","74","J","1","","","187","main_expt"
"451","","bandit","266","1015478","0.0-227.0-0.0","44488552","wem/bandit_either","A1MTRZDRKNB9GV","either","8","","","","","","","1","0","0","0.4086060551","","0.8","0.2","0.6","0.4","","","","","0.2757393749","0.1076418148","0.4086060551","0.2583789709","","","","","","","75","K","2","","","188","main_expt"
"489","","bandit","267","1017496","0.0-228.0-0.0","44488552","wem/bandit_either","A1MTRZDRKNB9GV","either","8","","","","","","","0","0","1","0.3326758055","","0.8","0.2","0.6","0.4","","","","","0.3326758055","0.1230456027","0.447145564","0.2329768584","","","","","","","72","H","0","img/none_selected.jpg","","189","main_expt"
"492","","bandit","268","1019518","0.0-229.0-0.0","44488552","wem/bandit_either","A1MTRZDRKNB9GV","either","8","","","","","","","0","0","1","","0.2002510669","0.8","0.2","0.6","0.4","0.332927569","0.1872873117","0.386091063","0.2002510669","","","","","","","","","","","76","L","3","","","190","main_expt"
"449","","bandit","269","1021494","0.0-230.0-0.0","44488552","wem/bandit_either","A1MTRZDRKNB9GV","either","8","","","","","","","0","1","0","","0.4221145333","0.8","0.2","0.6","0.4","0.3859199101","0.1413073252","0.4221145333","0.2182600554","","","","","","","","","","","75","K","2","","","191","main_expt"
"460","","bandit","270","1023480","0.0-231.0-0.0","44488552","wem/bandit_either","A1MTRZDRKNB9GV","either","8","","","","","","","0","1","0","","0.392668484","0.8","0.2","0.6","0.4","0.392668484","0.1868627967","0.3913199708","0.2681613901","","","","","","","","","","","72","H","0","img/none_selected.jpg","","192","main_expt"
"509","","bandit","271","1025520","0.0-232.0-0.0","44488552","wem/bandit_either","A1MTRZDRKNB9GV","either","8","","","","","","","0","0","1","","0.2312719224","0.8","0.2","0.6","0.4","0.3789843676","0.2312719224","0.4013624592","0.3035027483","","","","","","","","","","","74","J","1","","","193","main_expt"
"372","","bandit","272","1027420","0.0-233.0-0.0","44488552","wem/bandit_either","A1MTRZDRKNB9GV","either","8","","","","","","","0","0","1","","0.275531754","0.8","0.2","0.6","0.4","0.3689216281","0.2585201677","0.3668237699","0.275531754","","","","","","","","","","","76","L","3","","","194","main_expt"
"459","","bandit","273","1029426","0.0-234.0-0.0","44488552","wem/bandit_either","A1MTRZDRKNB9GV","either","8","","","","","","","0","1","0","","0.2716401532","0.8","0.2","0.6","0.4","0.4136905162","0.2786104129","0.3856266791","0.2716401532","","","","","","","","","","","76","L","3","","","195","main_expt"
"377","","bandit","274","1031337","0.0-235.0-0.0","44488552","wem/bandit_either","A1MTRZDRKNB9GV","either","8","","","","","","","0","1","0","","0.3702439493","0.8","0.2","0.6","0.4","0.4258575101","0.2407834285","0.3702439493","0.2814611543","","","","","","","","","","","75","K","2","","","196","main_expt"
"356","","bandit","275","1033224","0.0-236.0-0.0","44488552","wem/bandit_either","A1MTRZDRKNB9GV","either","8","","","","","","","0","0","1","","0.3665926528","0.8","0.2","0.6","0.4","0.3976178043","0.2550568011","0.3665926528","0.2588010394","","","","","","","","","","","75","K","2","","","197","main_expt"
"355","","bandit","276","1035113","0.0-237.0-0.0","44488552","wem/bandit_either","A1MTRZDRKNB9GV","either","8","","","","","","","0","0","1","","0.3094863904","0.8","0.2","0.6","0.4","0.3802378075","0.3094863904","0.3432124584","0.3094610495","","","","","","","","","","","74","J","1","","","198","main_expt"
"306","","bandit","277","1036958","0.0-238.0-0.0","44488552","wem/bandit_either","A1MTRZDRKNB9GV","either","8","","","","","","","0","0","1","0.3012985694","","0.8","0.2","0.6","0.4","","","","","0.3926800246","0.3012985694","0.4096574544","0.3139278769","","","","","","","74","J","1","","","199","main_expt"
"278","","bandit","278","1038769","0.0-239.0-0.0","44488552","wem/bandit_either","A1MTRZDRKNB9GV","either","8","","","","","","","0","0","1","","0.3459706187","0.8","0.2","0.6","0.4","0.3814844917","0.3149132519","0.3799023259","0.3459706187","","","","","","","","","","","76","L","3","","","200","main_expt"
"441","","bandit","279","1040738","0.0-240.0-0.0","44488552","wem/bandit_either","A1MTRZDRKNB9GV","either","8","","","","","","","0","0","1","0.3831630738","","0.8","0.2","0.6","0.4","","","","","0.3831630738","0.3236307962","0.3513783521","0.3038365479","","","","","","","72","H","0","img/none_selected.jpg","","201","main_expt"
"694","","bandit","280","1042960","0.0-241.0-0.0","44488552","wem/bandit_either","A1MTRZDRKNB9GV","either","8","","","","","","","0","0","1","","0.3439351057","0.8","0.2","0.6","0.4","0.3957430938","0.3163717903","0.3439351057","0.2964599608","","","","","","","","","","","75","K","2","","","202","main_expt"
"547","","bandit","281","1045051","0.0-242.0-0.0","44488552","wem/bandit_either","A1MTRZDRKNB9GV","either","8","","","","","","","0","0","1","","0.2615327891","0.8","0.2","0.6","0.4","0.4175506619","0.3165936227","0.2615327891","0.280336616","","","","","","","","","","","75","K","2","","","203","main_expt"
"651","","bandit","282","1047248","0.0-243.0-0.0","44488552","wem/bandit_either","A1MTRZDRKNB9GV","either","8","","","","","","","0","0","1","","0.2211517471","0.8","0.2","0.6","0.4","0.4356800279","0.3166231072","0.2211517471","0.262900641","","","","","","","","","","","75","K","2","","","204","main_expt"
"574","","bandit","283","1049355","0.0-244.0-0.0","44488552","wem/bandit_either","A1MTRZDRKNB9GV","either","8","","","","","","","0","1","0","","0.2983153058","0.8","0.2","0.6","0.4","0.4342993254","0.2983153058","0.1955747294","0.3403150927","","","","","","","","","","","74","J","1","","","205","main_expt"
"478","","bandit","284","1051368","0.0-245.0-0.0","44488552","wem/bandit_either","A1MTRZDRKNB9GV","either","8","","","","","","","0","0","1","0.3137251184","","0.8","0.2","0.6","0.4","","","","","0.4515967499","0.255573156","0.3137251184","0.3407188883","","","","","","","75","K","2","","","206","main_expt"
"727","","bandit","285","1053623","0.0-246.0-0.0","44488552","wem/bandit_either","A1MTRZDRKNB9GV","either","8","","","","","","","0","0","1","","0.2955601217","0.8","0.2","0.6","0.4","0.4559700358","0.2816724171","0.2982459604","0.2955601217","","","","","","","","","","","76","L","3","","","207","main_expt"
"492","","bandit","286","1055652","0.0-247.0-0.0","44488552","wem/bandit_either","A1MTRZDRKNB9GV","either","8","","","","","","","0","1","0","","0.2832193826","0.8","0.2","0.6","0.4","0.4711787588","0.2462622089","0.2359404152","0.2832193826","","","","","","","","","","","76","L","3","","","208","main_expt"
"381","","bandit","287","1057573","0.0-248.0-0.0","44488552","wem/bandit_either","A1MTRZDRKNB9GV","either","8","","","","","","","1","0","0","0.4859779177","","0.8","0.2","0.6","0.4","","","","","0.4859779177","0.2608633631","0.2396635106","0.25637755","","","","","","","72","H","0","img/none_selected.jpg","","209","main_expt"
"406","","bandit","288","1059509","0.0-249.0-0.0","44488552","wem/bandit_either","A1MTRZDRKNB9GV","either","8","","","","","","","0","0","1","0.4798195452","","0.8","0.2","0.6","0.4","","","","","0.4798195452","0.2649708152","0.2320506775","0.2500912527","","","","","","","72","H","0","img/none_selected.jpg","","210","main_expt"
"441","","bandit","289","1061476","0.0-250.0-0.0","44488552","wem/bandit_either","A1MTRZDRKNB9GV","either","8","","","","","","","0","0","1","","0.1894847828","0.8","0.2","0.6","0.4","0.4754072522","0.2658594566","0.1894847828","0.2481129288","","","","","","","","","","","75","K","2","","","211","main_expt"
"428","","bandit","290","1063435","0.0-251.0-0.0","44488552","wem/bandit_either","A1MTRZDRKNB9GV","either","8","","","","","","","0","0","1","","0.2648449814","0.8","0.2","0.6","0.4","0.4780703898","0.2648449814","0.2330804604","0.3192168596","","","","","","","","","","","74","J","1","","","212","main_expt"
"402","","bandit","291","1065366","0.0-252.0-0.0","44488552","wem/bandit_either","A1MTRZDRKNB9GV","either","8","","","","","","","0","0","1","0.2361953268","","0.8","0.2","0.6","0.4","","","","","0.4883488692","0.286492297","0.2484053244","0.2361953268","","","","","","","76","L","3","","","213","main_expt"
"565","","bandit","292","1067462","0.0-253.0-0.0","44488552","wem/bandit_either","A1MTRZDRKNB9GV","either","8","","","","","","","0","0","1","0.4872562331","","0.8","0.2","0.6","0.4","","","","","0.4872562331","0.2540339129","0.2182548364","0.2308921763","","","","","","","72","H","0","img/none_selected.jpg","","214","main_expt"
"748","","bandit","293","1069741","0.0-254.0-0.0","44488552","wem/bandit_either","A1MTRZDRKNB9GV","either","8","","","","","","","1","0","0","0.1824073789","","0.8","0.2","0.6","0.4","","","","","0.4749609167","0.254651127","0.1824073789","0.2161033537","","","","","","","75","K","2","","","215","main_expt"
"451","","bandit","294","1071724","0.0-255.0-0.0","44488552","wem/bandit_either","A1MTRZDRKNB9GV","either","8","","","","","","","0","1","0","","0.3140517816","0.8","0.2","0.6","0.4","0.4798413464","0.3140517816","0.1923730387","0.1896756427","","","","","","","","","","","74","J","1","","","216","main_expt"
"513","","bandit","295","1073765","0.0-256.0-0.0","44488552","wem/bandit_either","A1MTRZDRKNB9GV","either","8","","","","","","","0","0","1","0.1724286307","","0.8","0.2","0.6","0.4","","","","","0.4865144435","0.3338676317","0.2266612446","0.1724286307","","","","","","","76","L","3","","","217","main_expt"
"498","","bandit","296","1075802","0.0-257.0-0.0","44488552","wem/bandit_either","A1MTRZDRKNB9GV","either","8","","","","","","","1","0","0","0.4789145001","","0.8","0.2","0.6","0.4","","","","","0.4789145001","0.3397001125","0.1702705737","0.161168334","","","","","","","72","H","0","img/none_selected.jpg","","218","main_expt"
"541","","bandit","297","1077872","0.0-258.0-0.0","44488552","wem/bandit_either","A1MTRZDRKNB9GV","either","8","","","","","","","0","0","1","0.1159766116","","0.8","0.2","0.6","0.4","","","","","0.4834748692","0.2982528089","0.1159766116","0.2021763003","","","","","","","75","K","2","","","219","main_expt"
"535","","bandit","298","1079936","0.0-259.0-0.0","44488552","wem/bandit_either","A1MTRZDRKNB9GV","either","8","","","","","","","0","0","1","","0.2142164272","0.8","0.2","0.6","0.4","0.4722371777","0.2770934022","0.09529473055","0.2142164272","","","","","","","","","","","76","L","3","","","220","main_expt"
"514","","bandit","299","1081991","0.0-260.0-0.0","44488552","wem/bandit_either","A1MTRZDRKNB9GV","either","8","","","","","","","1","0","0","0.4654689219","","0.8","0.2","0.6","0.4","","","","","0.4654689219","0.2696770889","0.09060922323","0.189068297","","","","","","","72","H","0","img/none_selected.jpg","","221","main_expt"
"443","","bandit","300","1083962","0.0-261.0-0.0","44488552","wem/bandit_either","A1MTRZDRKNB9GV","either","8","","","","","","","0","0","1","0.1250772464","","0.8","0.2","0.6","0.4","","","","","0.4533789701","0.3103502417","0.1250772464","0.2120997892","","","","","","","75","K","2","","","222","main_expt"
"460","","bandit","301","1085953","0.0-262.0-0.0","44488552","wem/bandit_either","A1MTRZDRKNB9GV","either","8","","","","","","","1","0","0","0.3477728299","","0.8","0.2","0.6","0.4","","","","","0.4473019993","0.3477728299","0.1177235221","0.1937664477","","","","","","","74","J","1","","","223","main_expt"
"579","","bandit","302","1088067","0.0-263.0-0.0","44488552","wem/bandit_either","A1MTRZDRKNB9GV","either","8","","","","","","","0","0","1","","0.2195846313","0.8","0.2","0.6","0.4","0.4651086175","0.3230244909","0.1589673504","0.2195846313","","","","","","","","","","","76","L","3","","","224","main_expt"
"494","","bandit","303","1090090","0.0-264.0-0.0","44488552","wem/bandit_either","A1MTRZDRKNB9GV","either","8","","","","","","","0","0","1","0.4704934375","","0.8","0.2","0.6","0.4","","","","","0.4704934375","0.3641913847","0.1582937281","0.1973587738","","","","","","","72","H","0","img/none_selected.jpg","","225","main_expt"
"445","","bandit","304","1092065","0.0-265.0-0.0","44488552","wem/bandit_either","A1MTRZDRKNB9GV","either","8","","","","","","","0","0","1","0.1585786296","","0.8","0.2","0.6","0.4","","","","","0.4545632724","0.3211822138","0.1585786296","0.2029059012","","","","","","","75","K","2","","","226","main_expt"
"418","","bandit","305","1094016","0.0-266.0-0.0","44488552","wem/bandit_either","A1MTRZDRKNB9GV","either","8","","","","","","","0","0","1","0.3318596792","","0.8","0.2","0.6","0.4","","","","","0.4313330006","0.3318596792","0.1614007709","0.1677618241","","","","","","","74","J","1","","","227","main_expt"
"534","","bandit","306","1096079","0.0-267.0-0.0","44488552","wem/bandit_either","A1MTRZDRKNB9GV","either","8","","","","","","","1","0","0","0.4253897179","","0.8","0.2","0.6","0.4","","","","","0.4253897179","0.3715738924","0.1160982884","0.2079318551","","","","","","","72","H","0","img/none_selected.jpg","","228","main_expt"
"609","","bandit","307","1098222","0.0-268.0-0.0","44488552","wem/bandit_either","A1MTRZDRKNB9GV","either","8","","","","","","","0","0","1","0.1860779256","","0.8","0.2","0.6","0.4","","","","","0.4416009531","0.3571583743","0.1327168588","0.1860779256","","","","","","","76","L","3","","","229","main_expt"
"584","","bandit","308","1100340","0.0-269.0-0.0","44488552","wem/bandit_either","A1MTRZDRKNB9GV","either","8","","","","","","","1","0","0","0.4612445757","","0.8","0.2","0.6","0.4","","","","","0.4612445757","0.3455313741","0.1751239199","0.1294985144","","","","","","","72","H","0","img/none_selected.jpg","","230","main_expt"
"498","","bandit","309","1102368","0.0-270.0-0.0","44488552","wem/bandit_either","A1MTRZDRKNB9GV","either","8","","","","","","","0","0","1","","0.2080149414","0.8","0.2","0.6","0.4","0.4455927364","0.3114256563","0.2080149414","0.1424139305","","","","","","","","","","","75","K","2","","","231","main_expt"
"523","","bandit","310","1104431","0.0-271.0-0.0","44488552","wem/bandit_either","A1MTRZDRKNB9GV","either","8","","","","","","","0","1","0","","0.1777617008","0.8","0.2","0.6","0.4","0.4449483857","0.3127001645","0.2305008548","0.1777617008","","","","","","","","","","","76","L","3","","","232","main_expt"
"582","","bandit","311","1106545","0.0-272.0-0.0","44488552","wem/bandit_either","A1MTRZDRKNB9GV","either","8","","","","","","","0","0","1","0.4570404202","","0.8","0.2","0.6","0.4","","","","","0.4570404202","0.2953609795","0.2331895239","0.1408291819","","","","","","","72","H","0","img/none_selected.jpg","","233","main_expt"
"526","","bandit","312","1108601","0.0-273.0-0.0","44488552","wem/bandit_either","A1MTRZDRKNB9GV","either","8","","","","","","","0","0","1","0.2007149185","","0.8","0.2","0.6","0.4","","","","","0.4785018613","0.2743769666","0.2007149185","0.09563300426","","","","","","","75","K","2","","","234","main_expt"
"594","","bandit","313","1110727","0.0-274.0-0.0","44488552","wem/bandit_either","A1MTRZDRKNB9GV","either","8","","","","","","","1","0","0","0.2842570603","","0.8","0.2","0.6","0.4","","","","","0.4708517218","0.2842570603","0.1428876463","0.06508254785","","","","","","","74","J","1","","","235","main_expt"
"457","","bandit","314","1112721","0.0-275.0-0.0","44488552","wem/bandit_either","A1MTRZDRKNB9GV","either","8","","","","","","","0","1","0","","0.4721911582","0.8","0.2","0.6","0.4","0.4721911582","0.3536106974","0.1327756685","0.05272484418","","","","","","","","","","","72","H","0","img/none_selected.jpg","","236","main_expt"
"395","","bandit","315","1114646","0.0-276.0-0.0","44488552","wem/bandit_either","A1MTRZDRKNB9GV","either","8","","","","","","","0","0","1","","0.05000735717","0.8","0.2","0.6","0.4","0.4567984566","0.3777879982","0.1969646424","0.05000735717","","","","","","","","","","","76","L","3","","","237","main_expt"
"551","","bandit","316","1116730","0.0-277.0-0.0","44488552","wem/bandit_either","A1MTRZDRKNB9GV","either","8","","","","","","","0","0","1","0.2040955009","","0.8","0.2","0.6","0.4","","","","","0.4601910044","0.3819628943","0.2040955009","0.03409798278","","","","","","","75","K","2","","","238","main_expt"
"410","","bandit","317","1118682","0.0-278.0-0.0","44488552","wem/bandit_either","A1MTRZDRKNB9GV","either","8","","","","","","","0","1","0","","0.3590612953","0.8","0.2","0.6","0.4","0.4663275819","0.3590612953","0.1885012088","0.03555143528","","","","","","","","","","","74","J","1","","","239","main_expt"
"438","","bandit","318","1120652","0.0-279.0-0.0","44488552","wem/bandit_either","A1MTRZDRKNB9GV","either","8","","","","","","","1","0","0","0.4781926851","","0.8","0.2","0.6","0.4","","","","","0.4781926851","0.3943681209","0.1779850251","0.06633834621","","","","","","","72","H","0","img/none_selected.jpg","","240","main_expt"
"457","","bandit","319","1122643","0.0-280.0-0.0","44488552","wem/bandit_either","A1MTRZDRKNB9GV","either","8","","","","","","","0","0","1","0.4813407325","","0.8","0.2","0.6","0.4","","","","","0.4813407325","0.4178476804","0.2132761508","0.0332650027","","","","","","","72","H","0","img/none_selected.jpg","","241","main_expt"
"436","","bandit","320","1124613","0.0-281.0-0.0","44488552","wem/bandit_either","A1MTRZDRKNB9GV","either","8","","","","","","","0","0","1","","0.03674005559","0.8","0.2","0.6","0.4","0.4758201438","0.4083523659","0.2181708985","0.03674005559","","","","","","","","","","","76","L","3","","","242","main_expt"
"478","","bandit","321","1126625","0.0-282.0-0.0","44488552","wem/bandit_either","A1MTRZDRKNB9GV","either","8","","","","","","","0","0","1","0.1880751836","","0.8","0.2","0.6","0.4","","","","","0.4739127226","0.4107673147","0.1880751836","0.02732183546","","","","","","","75","K","2","","","243","main_expt"
"467","","bandit","322","1128624","0.0-283.0-0.0","44488552","wem/bandit_either","A1MTRZDRKNB9GV","either","8","","","","","","","0","0","1","","0.3914084711","0.8","0.2","0.6","0.4","0.4467527753","0.3914084711","0.2693527465","0.02742276317","","","","","","","","","","","74","J","1","","","244","main_expt"
"439","","bandit","323","1130598","0.0-284.0-0.0","44488552","wem/bandit_either","A1MTRZDRKNB9GV","either","8","","","","","","","0","0","1","0.4492118003","","0.8","0.2","0.6","0.4","","","","","0.4492118003","0.4117032301","0.2474629182","0.03322496416","","","","","","","72","H","0","img/none_selected.jpg","","245","main_expt"
"400","","bandit","324","1132537","0.0-285.0-0.0","44488552","wem/bandit_either","A1MTRZDRKNB9GV","either","8","","","","","","","0","0","1","0.0538648904","","0.8","0.2","0.6","0.4","","","","","0.4702058379","0.4225436654","0.3019125269","0.0538648904","","","","","","","76","L","3","","","246","main_expt"
"420","","bandit","325","1134491","0.0-286.0-0.0","44488552","wem/bandit_either","A1MTRZDRKNB9GV","either","8","","","","","","","0","1","0","","0.3013832462","0.8","0.2","0.6","0.4","0.4717010128","0.4327875568","0.3013832462","0.05538537946","","","","","","","","","","","75","K","2","","","247","main_expt"
"447","","bandit","326","1136473","0.0-287.0-0.0","44488552","wem/bandit_either","A1MTRZDRKNB9GV","either","8","","","","","","","0","0","1","","0.4478523955","0.8","0.2","0.6","0.4","0.4750055548","0.4478523955","0.2917300956","0.07377210468","","","","","","","","","","","74","J","1","","","248","main_expt"
"539","","bandit","327","1138546","0.0-288.0-0.0","44488552","wem/bandit_either","A1MTRZDRKNB9GV","either","8","","","","","","","0","0","1","0.4608113614","","0.8","0.2","0.6","0.4","","","","","0.4608113614","0.4221620221","0.2976682537","0.07098242635","","","","","","","72","H","0","img/none_selected.jpg","","249","main_expt"
"472","","bandit","328","1140551","0.0-289.0-0.0","44488552","wem/bandit_either","A1MTRZDRKNB9GV","either","8","","","","","","","0","0","1","0.2921609534","","0.8","0.2","0.6","0.4","","","","","0.4361301801","0.3998447204","0.2921609534","0.08291081884","","","","","","","75","K","2","","","250","main_expt"
"478","","bandit","329","1142562","0.0-290.0-0.0","44488552","wem/bandit_either","A1MTRZDRKNB9GV","either","8","","","","","","","0","0","1","","0.4053116556","0.8","0.2","0.6","0.4","0.4203652199","0.4053116556","0.3026336231","0.07668358207","","","","","","","","","","","74","J","1","","","251","main_expt"
"524","","bandit","330","1144626","0.0-291.0-0.0","44488552","wem/bandit_either","A1MTRZDRKNB9GV","either","8","","","","","","","1","0","0","0.4465363659","","0.8","0.2","0.6","0.4","","","","","0.4465363659","0.3780439072","0.3303824841","0.05892609675","","","","","","","72","H","0","img/none_selected.jpg","","252","main_expt"
