"rt","responses","trial_type","trial_index","time_elapsed","internal_node_id","subjID","study","MID","cond","drift","key_press","expt_phase","target","like","value","connected","gems","bombs","no_reward","GemPrChosen","BombPrChosen","GainOverPainPr_0","GainOverPainPr_1","GainOverPainPr_2","GainOverPainPr_3","LosePr_0","LosePr_1","LosePr_2","LosePr_3","WinPr_0","WinPr_1","WinPr_2","WinPr_3","Q0","Q1","Q2","gender","age","ethnicity","respCharCode","respKey","respChoiceNum","respChoice","practice","trial_counter","trial_label"
"3604","{""Q0"":""A1XDMS0KFSF5JW""}","survey-text","0","3641","0.0-0.0","44615728","wem/bandit_either","A1XDMS0KFSF5JW","either","7","","","","","","","","","","","","","","","","","","","","","","","","","","","","","","","","","","","",""
"21263","","text","1","25929","0.0-1.0","44615728","wem/bandit_either","A1XDMS0KFSF5JW","either","7","32","","","","","","","","","","","","","","","","","","","","","","","","","","","","","","","","","","",""
"11795","","text","2","37736","0.0-2.0","44615728","wem/bandit_either","A1XDMS0KFSF5JW","either","7","32","","","","","","","","","","","","","","","","","","","","","","","","","","","","","","","","","","",""
"46067","","text","3","83817","0.0-3.0","44615728","wem/bandit_either","A1XDMS0KFSF5JW","either","7","32","","","","","","","","","","","","","","","","","","","","","","","","","","","","","","","","","","",""
"22961","","text","4","106790","0.0-4.0","44615728","wem/bandit_either","A1XDMS0KFSF5JW","either","7","32","","","","","","","","","","","","","","","","","","","","","","","","","","","","","","","","","","",""
"34339","","text","5","141142","0.0-5.0","44615728","wem/bandit_either","A1XDMS0KFSF5JW","either","7","32","","","","","","","","","","","","","","","","","","","","","","","","","","","","","","","","","","",""
"24176","","text","6","165330","0.0-6.0","44615728","wem/bandit_either","A1XDMS0KFSF5JW","either","7","32","","","","","","","","","","","","","","","","","","","","","","","","","","","","","","","","","","",""
"6387","","text","7","171727","0.0-7.0","44615728","wem/bandit_either","A1XDMS0KFSF5JW","either","7","32","","","","","","","","","","","","","","","","","","","","","","","","","","","","","","","","","","",""
"6034","","identification","8","177877","0.0-8.0-0.0","44615728","wem/bandit_either","A1XDMS0KFSF5JW","either","7","","identification_pre","the village of Zur","","","","","","","","","","","","","","","","","","","","","","","","","","","","","","","","",""
"5314","","identification","9","184297","0.0-8.0-1.0","44615728","wem/bandit_either","A1XDMS0KFSF5JW","either","7","","identification_pre","the village of Nyx","","","","","","","","","","","","","","","","","","","","","","","","","","","","","","","","",""
"8786","","text","10","194103","0.0-9.0","44615728","wem/bandit_either","A1XDMS0KFSF5JW","either","7","32","","","","","","","","","","","","","","","","","","","","","","","","","","","","","","","","","","",""
"7308","","text","11","201428","0.0-10.0","44615728","wem/bandit_either","A1XDMS0KFSF5JW","either","7","32","","","","","","","","","","","","","","","","","","","","","","","","","","","","","","","","","","",""
"2263","","text","12","203705","0.0-11.0","44615728","wem/bandit_either","A1XDMS0KFSF5JW","either","7","32","","","","","","","","","","","","","","","","","","","","","","","","","","","","","","","","","","",""
"4341","","text","13","208056","0.0-12.0","44615728","wem/bandit_either","A1XDMS0KFSF5JW","either","7","32","","","","","","","","","","","","","","","","","","","","","","","","","","","","","","","","","","",""
"1969","","bandit","14","211639","0.0-13.0-0.0","44615728","wem/bandit_either","A1XDMS0KFSF5JW","either","7","","","","","","","0","0","1","0","0","","","","","0","","","","0","","","","","","","","","","74","J","0","img/none_selected_demo.jpg","true","0",""
"1931","","bandit","15","215108","0.0-14.0-0.0","44615728","wem/bandit_either","A1XDMS0KFSF5JW","either","7","","","","","","","0","0","1","0","0","","","","","0","","","","0","","","","","","","","","","75","K","0","img/none_selected_demo.jpg","true","0",""
"11121","","text","16","226238","0.0-15.0","44615728","wem/bandit_either","A1XDMS0KFSF5JW","either","7","32","","","","","","","","","","","","","","","","","","","","","","","","","","","","","","","","","","",""
"10672","","text","17","236916","0.0-16.0","44615728","wem/bandit_either","A1XDMS0KFSF5JW","either","7","32","","","","","","","","","","","","","","","","","","","","","","","","","","","","","","","","","","",""
"10363","","text","18","247285","0.0-17.0","44615728","wem/bandit_either","A1XDMS0KFSF5JW","either","7","32","","","","","","","","","","","","","","","","","","","","","","","","","","","","","","","","","","",""
"2185","","text","19","249475","0.0-18.0","44615728","wem/bandit_either","A1XDMS0KFSF5JW","either","7","32","","","","","","","","","","","","","","","","","","","","","","","","","","","","","","","","","","",""
"1096","","bandit","20","252101","0.0-19.0-0.0","44615728","wem/bandit_either","A1XDMS0KFSF5JW","either","7","","","","","","","1","0","0","0.8","","0.5","0.5","","","","","","","0.8","0.2","","","","","","","","","74","J","0","img/none_selected_demo.jpg","true","0","80_20_practice"
"398","","bandit","21","254029","0.0-19.0-1.0","44615728","wem/bandit_either","A1XDMS0KFSF5JW","either","7","","","","","","","0","0","1","0.8","","0.5","0.5","","","","","","","0.8","0.2","","","","","","","","","74","J","0","img/none_selected_demo.jpg","true","0","80_20_practice"
"318","","bandit","22","255874","0.0-19.0-2.0","44615728","wem/bandit_either","A1XDMS0KFSF5JW","either","7","","","","","","","1","0","0","0.8","","0.5","0.5","","","","","","","0.8","0.2","","","","","","","","","74","J","0","img/none_selected_demo.jpg","true","0","80_20_practice"
"347","","bandit","23","257748","0.0-19.0-3.0","44615728","wem/bandit_either","A1XDMS0KFSF5JW","either","7","","","","","","","0","1","0","","0.8","0.5","0.5","","","0.8","0.2","","","","","","","","","","","","","74","J","0","img/none_selected_demo.jpg","true","0","80_20_practice"
"336","","bandit","24","259624","0.0-19.0-4.0","44615728","wem/bandit_either","A1XDMS0KFSF5JW","either","7","","","","","","","0","1","0","","0.8","0.5","0.5","","","0.8","0.2","","","","","","","","","","","","","74","J","0","img/none_selected_demo.jpg","true","0","80_20_practice"
"297","","bandit","25","261536","0.0-19.0-5.0","44615728","wem/bandit_either","A1XDMS0KFSF5JW","either","7","","","","","","","0","1","0","","0.8","0.5","0.5","","","0.8","0.2","","","","","","","","","","","","","74","J","0","img/none_selected_demo.jpg","true","0","80_20_practice"
"196","","bandit","26","263276","0.0-19.0-6.0","44615728","wem/bandit_either","A1XDMS0KFSF5JW","either","7","","","","","","","0","1","0","","0.8","0.5","0.5","","","0.8","0.2","","","","","","","","","","","","","74","J","0","img/none_selected_demo.jpg","true","0","80_20_practice"
"353","","bandit","27","265175","0.0-19.0-7.0","44615728","wem/bandit_either","A1XDMS0KFSF5JW","either","7","","","","","","","1","0","0","0.8","","0.5","0.5","","","","","","","0.8","0.2","","","","","","","","","74","J","0","img/none_selected_demo.jpg","true","0","80_20_practice"
"335","","bandit","28","267577","0.0-19.0-8.0","44615728","wem/bandit_either","A1XDMS0KFSF5JW","either","7","","","","","","","0","1","0","","0.8","0.5","0.5","","","0.8","0.2","","","","","","","","","","","","","74","J","0","img/none_selected_demo.jpg","true","0","80_20_practice"
"1600","","bandit","29","270713","0.0-19.0-9.0","44615728","wem/bandit_either","A1XDMS0KFSF5JW","either","7","","","","","","","0","1","0","","0.8","0.5","0.5","","","0.8","0.2","","","","","","","","","","","","","74","J","0","img/none_selected_demo.jpg","true","0","80_20_practice"
"310","","bandit","30","272578","0.0-19.0-10.0","44615728","wem/bandit_either","A1XDMS0KFSF5JW","either","7","","","","","","","0","1","0","","0.8","0.5","0.5","","","0.8","0.2","","","","","","","","","","","","","74","J","0","img/none_selected_demo.jpg","true","0","80_20_practice"
"311","","bandit","31","274496","0.0-19.0-11.0","44615728","wem/bandit_either","A1XDMS0KFSF5JW","either","7","","","","","","","1","0","0","0.8","","0.5","0.5","","","","","","","0.8","0.2","","","","","","","","","74","J","0","img/none_selected_demo.jpg","true","0","80_20_practice"
"318","","bandit","32","276406","0.0-19.0-12.0","44615728","wem/bandit_either","A1XDMS0KFSF5JW","either","7","","","","","","","0","1","0","","0.8","0.5","0.5","","","0.8","0.2","","","","","","","","","","","","","74","J","0","img/none_selected_demo.jpg","true","0","80_20_practice"
"274","","bandit","33","278222","0.0-19.0-13.0","44615728","wem/bandit_either","A1XDMS0KFSF5JW","either","7","","","","","","","0","1","0","","0.8","0.5","0.5","","","0.8","0.2","","","","","","","","","","","","","74","J","0","img/none_selected_demo.jpg","true","0","80_20_practice"
"515","","bandit","34","280450","0.0-19.0-14.0","44615728","wem/bandit_either","A1XDMS0KFSF5JW","either","7","","","","","","","0","0","1","","0.8","0.5","0.5","","","0.8","0.2","","","","","","","","","","","","","74","J","0","img/none_selected_demo.jpg","true","0","80_20_practice"
"259","","bandit","35","282287","0.0-19.0-15.0","44615728","wem/bandit_either","A1XDMS0KFSF5JW","either","7","","","","","","","0","1","0","","0.8","0.5","0.5","","","0.8","0.2","","","","","","","","","","","","","74","J","0","img/none_selected_demo.jpg","true","0","80_20_practice"
"307","","bandit","36","284133","0.0-19.0-16.0","44615728","wem/bandit_either","A1XDMS0KFSF5JW","either","7","","","","","","","1","0","0","0.8","","0.5","0.5","","","","","","","0.8","0.2","","","","","","","","","74","J","0","img/none_selected_demo.jpg","true","0","80_20_practice"
"527","","bandit","37","286214","0.0-19.0-17.0","44615728","wem/bandit_either","A1XDMS0KFSF5JW","either","7","","","","","","","1","0","0","0.8","","0.5","0.5","","","","","","","0.8","0.2","","","","","","","","","74","J","0","img/none_selected_demo.jpg","true","0","80_20_practice"
"319","","bandit","38","288081","0.0-19.0-18.0","44615728","wem/bandit_either","A1XDMS0KFSF5JW","either","7","","","","","","","0","1","0","","0.8","0.5","0.5","","","0.8","0.2","","","","","","","","","","","","","74","J","0","img/none_selected_demo.jpg","true","0","80_20_practice"
"351","","bandit","39","289972","0.0-19.0-19.0","44615728","wem/bandit_either","A1XDMS0KFSF5JW","either","7","","","","","","","0","1","0","","0.8","0.5","0.5","","","0.8","0.2","","","","","","","","","","","","","74","J","0","img/none_selected_demo.jpg","true","0","80_20_practice"
"7975","","text","40","297960","0.0-20.0","44615728","wem/bandit_either","A1XDMS0KFSF5JW","either","7","32","","","","","","","","","","","","","","","","","","","","","","","","","","","","","","","","","","",""
"705","","bandit","41","300241","0.0-21.0-0.0","44615728","wem/bandit_either","A1XDMS0KFSF5JW","either","7","","","","","","","1","0","0","1","0","","","","","0","1","","","1","0","","","","","","","","","74","J","0","img/none_selected_demo.jpg","true","0",""
"10712","","text","42","310970","0.0-22.0","44615728","wem/bandit_either","A1XDMS0KFSF5JW","either","7","32","","","","","","","","","","","","","","","","","","","","","","","","","","","","","","","","","","",""
"4979","","text","43","315968","0.0-23.0","44615728","wem/bandit_either","A1XDMS0KFSF5JW","either","7","32","","","","","","","","","","","","","","","","","","","","","","","","","","","","","","","","","","",""
"3006","","text","44","318992","0.0-24.0","44615728","wem/bandit_either","A1XDMS0KFSF5JW","either","7","32","","","","","","","","","","","","","","","","","","","","","","","","","","","","","","","","","","",""
"4016","","text","45","323023","0.0-25.0","44615728","wem/bandit_either","A1XDMS0KFSF5JW","either","7","32","","","","","","","","","","","","","","","","","","","","","","","","","","","","","","","","","","",""
"8294","","text","46","331334","0.0-26.0","44615728","wem/bandit_either","A1XDMS0KFSF5JW","either","7","32","","","","","","","","","","","","","","","","","","","","","","","","","","","","","","","","","","",""
"2795","","text","47","334144","0.0-27.0","44615728","wem/bandit_either","A1XDMS0KFSF5JW","either","7","32","","","","","","","","","","","","","","","","","","","","","","","","","","","","","","","","","","",""
"6851","","text","48","341015","0.0-28.0","44615728","wem/bandit_either","A1XDMS0KFSF5JW","either","7","32","","","","","","","","","","","","","","","","","","","","","","","","","","","","","","","","","","",""
"4428","","text","49","345461","0.0-29.0","44615728","wem/bandit_either","A1XDMS0KFSF5JW","either","7","32","","","","","","","","","","","","","","","","","","","","","","","","","","","","","","","","","","",""
"6603","","text","50","352082","0.0-30.0","44615728","wem/bandit_either","A1XDMS0KFSF5JW","either","7","32","","","","","","","","","","","","","","","","","","","","","","","","","","","","","","","","","","",""
"3861","","text","51","355961","0.0-31.0","44615728","wem/bandit_either","A1XDMS0KFSF5JW","either","7","32","","","","","","","","","","","","","","","","","","","","","","","","","","","","","","","","","","",""
"3084","","text","52","359062","0.0-32.0","44615728","wem/bandit_either","A1XDMS0KFSF5JW","either","7","32","","","","","","","","","","","","","","","","","","","","","","","","","","","","","","","","","","",""
"643","","bandit","53","361253","0.0-33.0-0.0","44615728","wem/bandit_either","A1XDMS0KFSF5JW","either","7","","","","","","","1","0","0","0.8","","0.5","0.5","0.5","0.5","","","","","0.8","0.2","0.6","0.2","","","","","","","72","H","0","img/none_selected.jpg","true","0","full_practice"
"371","","bandit","54","363169","0.0-33.0-1.0","44615728","wem/bandit_either","A1XDMS0KFSF5JW","either","7","","","","","","","0","1","0","","0.8","0.5","0.5","0.5","0.5","0.8","0.2","0.6","0.2","","","","","","","","","","","72","H","0","img/none_selected.jpg","true","0","full_practice"
"308","","bandit","55","365030","0.0-33.0-2.0","44615728","wem/bandit_either","A1XDMS0KFSF5JW","either","7","","","","","","","0","0","1","","0.8","0.5","0.5","0.5","0.5","0.8","0.2","0.6","0.2","","","","","","","","","","","72","H","0","img/none_selected.jpg","true","0","full_practice"
"39","","bandit","56","366611","0.0-33.0-3.0","44615728","wem/bandit_either","A1XDMS0KFSF5JW","either","7","","","","","","","0","1","0","","0.8","0.5","0.5","0.5","0.5","0.8","0.2","0.6","0.2","","","","","","","","","","","72","H","0","img/none_selected.jpg","true","0","full_practice"
"379","","bandit","57","368567","0.0-33.0-4.0","44615728","wem/bandit_either","A1XDMS0KFSF5JW","either","7","","","","","","","0","0","1","","0.8","0.5","0.5","0.5","0.5","0.8","0.2","0.6","0.2","","","","","","","","","","","72","H","0","img/none_selected.jpg","true","0","full_practice"
"172","","bandit","58","370330","0.0-33.0-5.0","44615728","wem/bandit_either","A1XDMS0KFSF5JW","either","7","","","","","","","1","0","0","0.8","","0.5","0.5","0.5","0.5","","","","","0.8","0.2","0.6","0.2","","","","","","","72","H","0","img/none_selected.jpg","true","0","full_practice"
"351","","bandit","59","372238","0.0-33.0-6.0","44615728","wem/bandit_either","A1XDMS0KFSF5JW","either","7","","","","","","","0","0","1","0.8","","0.5","0.5","0.5","0.5","","","","","0.8","0.2","0.6","0.2","","","","","","","72","H","0","img/none_selected.jpg","true","0","full_practice"
"149","","bandit","60","373937","0.0-33.0-7.0","44615728","wem/bandit_either","A1XDMS0KFSF5JW","either","7","","","","","","","0","0","1","0.8","","0.5","0.5","0.5","0.5","","","","","0.8","0.2","0.6","0.2","","","","","","","72","H","0","img/none_selected.jpg","true","0","full_practice"
"530","","bandit","61","376007","0.0-33.0-8.0","44615728","wem/bandit_either","A1XDMS0KFSF5JW","either","7","","","","","","","1","0","0","0.6","","0.5","0.5","0.5","0.5","","","","","0.8","0.2","0.6","0.2","","","","","","","75","K","2","","true","0","full_practice"
"328","","bandit","62","377918","0.0-33.0-9.0","44615728","wem/bandit_either","A1XDMS0KFSF5JW","either","7","","","","","","","1","0","0","0.6","","0.5","0.5","0.5","0.5","","","","","0.8","0.2","0.6","0.2","","","","","","","75","K","2","","true","0","full_practice"
"334","","bandit","63","379810","0.0-33.0-10.0","44615728","wem/bandit_either","A1XDMS0KFSF5JW","either","7","","","","","","","0","0","1","","0.6","0.5","0.5","0.5","0.5","0.8","0.2","0.6","0.2","","","","","","","","","","","75","K","2","","true","0","full_practice"
"265","","bandit","64","381627","0.0-33.0-11.0","44615728","wem/bandit_either","A1XDMS0KFSF5JW","either","7","","","","","","","0","1","0","","0.6","0.5","0.5","0.5","0.5","0.8","0.2","0.6","0.2","","","","","","","","","","","75","K","2","","true","0","full_practice"
"392","","bandit","65","383559","0.0-33.0-12.0","44615728","wem/bandit_either","A1XDMS0KFSF5JW","either","7","","","","","","","0","0","1","0.6","","0.5","0.5","0.5","0.5","","","","","0.8","0.2","0.6","0.2","","","","","","","75","K","2","","true","0","full_practice"
"302","","bandit","66","385462","0.0-33.0-13.0","44615728","wem/bandit_either","A1XDMS0KFSF5JW","either","7","","","","","","","0","0","1","","0.6","0.5","0.5","0.5","0.5","0.8","0.2","0.6","0.2","","","","","","","","","","","75","K","2","","true","0","full_practice"
"3","","bandit","67","387019","0.0-33.0-14.0","44615728","wem/bandit_either","A1XDMS0KFSF5JW","either","7","","","","","","","0","0","1","","0.6","0.5","0.5","0.5","0.5","0.8","0.2","0.6","0.2","","","","","","","","","","","75","K","2","","true","0","full_practice"
"657","","bandit","68","389334","0.0-33.0-15.0","44615728","wem/bandit_either","A1XDMS0KFSF5JW","either","7","","","","","","","0","0","1","","0.2","0.5","0.5","0.5","0.5","0.8","0.2","0.6","0.2","","","","","","","","","","","74","J","1","","true","0","full_practice"
"136","","bandit","69","391045","0.0-33.0-16.0","44615728","wem/bandit_either","A1XDMS0KFSF5JW","either","7","","","","","","","0","0","1","0.2","","0.5","0.5","0.5","0.5","","","","","0.8","0.2","0.6","0.2","","","","","","","76","L","3","","true","0","full_practice"
"91","","bandit","70","392736","0.0-33.0-17.0","44615728","wem/bandit_either","A1XDMS0KFSF5JW","either","7","","","","","","","1","0","0","0.8","","0.5","0.5","0.5","0.5","","","","","0.8","0.2","0.6","0.2","","","","","","","72","H","0","img/none_selected.jpg","true","0","full_practice"
"159","","bandit","71","394436","0.0-33.0-18.0","44615728","wem/bandit_either","A1XDMS0KFSF5JW","either","7","","","","","","","0","1","0","","0.8","0.5","0.5","0.5","0.5","0.8","0.2","0.6","0.2","","","","","","","","","","","72","H","0","img/none_selected.jpg","true","0","full_practice"
"264","","bandit","72","396273","0.0-33.0-19.0","44615728","wem/bandit_either","A1XDMS0KFSF5JW","either","7","","","","","","","0","1","0","","0.8","0.5","0.5","0.5","0.5","0.8","0.2","0.6","0.2","","","","","","","","","","","72","H","0","img/none_selected.jpg","true","0","full_practice"
"4734","","text","73","401046","0.0-34.0","44615728","wem/bandit_either","A1XDMS0KFSF5JW","either","7","32","","","","","","","","","","","","","","","","","","","","","","","","","","","","","","","","","","",""
"80852","","text","74","482982","0.0-35.0","44615728","wem/bandit_either","A1XDMS0KFSF5JW","either","7","32","","","","","","","","","","","","","","","","","","","","","","","","","","","","","","","","","","",""
"19087","","text","75","502092","0.0-36.0","44615728","wem/bandit_either","A1XDMS0KFSF5JW","either","7","32","","","","","","","","","","","","","","","","","","","","","","","","","","","","","","","","","","",""
"8583","","text","76","510693","0.0-37.0","44615728","wem/bandit_either","A1XDMS0KFSF5JW","either","7","32","","","","","","","","","","","","","","","","","","","","","","","","","","","","","","","","","","",""
"7242","","text","77","517952","0.0-38.0","44615728","wem/bandit_either","A1XDMS0KFSF5JW","either","7","32","","","","","","","","","","","","","","","","","","","","","","","","","","","","","","","","","","",""
"6878","","text","78","524852","0.0-39.0","44615728","wem/bandit_either","A1XDMS0KFSF5JW","either","7","32","","","","","","","","","","","","","","","","","","","","","","","","","","","","","","","","","","",""
"993","","bandit","79","527507","0.0-40.0-0.0","44615728","wem/bandit_either","A1XDMS0KFSF5JW","either","7","","","","","","","0","0","1","","0.1480066451","0.4","0.6","0.8","0.2","0.01738065524","0.06530018083","0.1480066451","0.1952616071","","","","","","","","","","","75","K","2","","","1","main_expt"
"132","","bandit","80","529289","0.0-41.0-0.0","44615728","wem/bandit_either","A1XDMS0KFSF5JW","either","7","","","","","","","0","0","1","0.1053714073","","0.4","0.6","0.8","0.2","","","","","0.0196943787","0.1011701763","0.1053714073","0.1652234336","","","","","","","75","K","2","","","2","main_expt"
"3","","bandit","81","530830","0.0-42.0-0.0","44615728","wem/bandit_either","A1XDMS0KFSF5JW","either","7","","","","","","","0","0","1","0.1460078221","","0.4","0.6","0.8","0.2","","","","","0.01678573497","0.09486719381","0.1460078221","0.1347382479","","","","","","","75","K","2","","","3","main_expt"
"1186","","bandit","82","533623","0.0-43.0-0.0","44615728","wem/bandit_either","A1XDMS0KFSF5JW","either","7","","","","","","","1","0","0","0.1866138214","","0.4","0.6","0.8","0.2","","","","","0.02981965743","0.06705802814","0.1866138214","0.1684625442","","","","","","","75","K","2","","","4","main_expt"
"289","","bandit","83","535470","0.0-44.0-0.0","44615728","wem/bandit_either","A1XDMS0KFSF5JW","either","7","","","","","","","0","0","1","0.2445348717","","0.4","0.6","0.8","0.2","","","","","0.02600208211","0.0822298525","0.2445348717","0.1792029032","","","","","","","75","K","2","","","5","main_expt"
"11","","bandit","84","537052","0.0-45.0-0.0","44615728","wem/bandit_either","A1XDMS0KFSF5JW","either","7","","","","","","","0","0","1","0.02332436933","","0.4","0.6","0.8","0.2","","","","","0.02332436933","0.09162209411","0.2546962146","0.2153873139","","","","","","","72","H","0","img/none_selected.jpg","","6","main_expt"
"1781","","bandit","85","540472","0.0-46.0-0.0","44615728","wem/bandit_either","A1XDMS0KFSF5JW","either","7","","","","","","","0","0","1","","0.02864040813","0.4","0.6","0.8","0.2","0.02864040813","0.1028820098","0.2344841702","0.1757762721","","","","","","","","","","","72","H","0","img/none_selected.jpg","","7","main_expt"
"784","","bandit","86","542849","0.0-47.0-0.0","44615728","wem/bandit_either","A1XDMS0KFSF5JW","either","7","","","","","","","0","0","1","0.1532270122","","0.4","0.6","0.8","0.2","","","","","0.02951264166","0.1532270122","0.2473344203","0.2241229746","","","","","","","74","J","1","","","8","main_expt"
"52","","bandit","87","544435","0.0-48.0-0.0","44615728","wem/bandit_either","A1XDMS0KFSF5JW","either","7","","","","","","","0","0","1","","0.2199426203","0.4","0.6","0.8","0.2","0.02997011939","0.2131450397","0.2642160399","0.2199426203","","","","","","","","","","","76","L","3","","","9","main_expt"
"1316","","bandit","88","547298","0.0-49.0-0.0","44615728","wem/bandit_either","A1XDMS0KFSF5JW","either","7","","","","","","","0","0","1","","0.1520686932","0.4","0.6","0.8","0.2","0.02489651457","0.2985754635","0.2104627424","0.1520686932","","","","","","","","","","","76","L","3","","","10","main_expt"
"364","","bandit","89","549229","0.0-50.0-0.0","44615728","wem/bandit_either","A1XDMS0KFSF5JW","either","7","","","","","","","0","0","1","","0.2013349999","0.4","0.6","0.8","0.2","0.01651058827","0.2924640086","0.219372878","0.2013349999","","","","","","","","","","","76","L","3","","","11","main_expt"
"137","","bandit","90","550920","0.0-51.0-0.0","44615728","wem/bandit_either","A1XDMS0KFSF5JW","either","7","","","","","","","1","0","0","0.02341729431","","0.4","0.6","0.8","0.2","","","","","0.02341729431","0.3264291113","0.2105839871","0.2156800105","","","","","","","72","H","0","img/none_selected.jpg","","12","main_expt"
"293","","bandit","91","552768","0.0-52.0-0.0","44615728","wem/bandit_either","A1XDMS0KFSF5JW","either","7","","","","","","","0","0","1","","0.0257410372","0.4","0.6","0.8","0.2","0.0257410372","0.3254913314","0.2511698571","0.1833947696","","","","","","","","","","","72","H","0","img/none_selected.jpg","","13","main_expt"
"352","","bandit","92","554710","0.0-53.0-0.0","44615728","wem/bandit_either","A1XDMS0KFSF5JW","either","7","","","","","","","0","0","1","0.02570014082","","0.4","0.6","0.8","0.2","","","","","0.02570014082","0.3428504842","0.2158977649","0.243643366","","","","","","","72","H","0","img/none_selected.jpg","","14","main_expt"
"90","","bandit","93","556432","0.0-54.0-0.0","44615728","wem/bandit_either","A1XDMS0KFSF5JW","either","7","","","","","","","0","0","1","0.04268316416","","0.4","0.6","0.8","0.2","","","","","0.04268316416","0.3244047679","0.2762480727","0.2265365198","","","","","","","72","H","0","img/none_selected.jpg","","15","main_expt"
"1280","","bandit","94","559345","0.0-55.0-0.0","44615728","wem/bandit_either","A1XDMS0KFSF5JW","either","7","","","","","","","0","0","1","0.3025313629","","0.4","0.6","0.8","0.2","","","","","0.04667408308","0.3025313629","0.3202890724","0.2484951132","","","","","","","74","J","1","","","16","main_expt"
"779","","bandit","95","561738","0.0-56.0-0.0","44615728","wem/bandit_either","A1XDMS0KFSF5JW","either","7","","","","","","","0","0","1","","0.3291216938","0.4","0.6","0.8","0.2","0.0506688767","0.3291216938","0.3680552247","0.2570267238","","","","","","","","","","","74","J","1","","","17","main_expt"
"384","","bandit","96","563663","0.0-57.0-0.0","44615728","wem/bandit_either","A1XDMS0KFSF5JW","either","7","","","","","","","0","0","1","","0.2987881532","0.4","0.6","0.8","0.2","0.02988526167","0.2987881532","0.3968593921","0.287418789","","","","","","","","","","","74","J","1","","","18","main_expt"
"359","","bandit","97","565564","0.0-58.0-0.0","44615728","wem/bandit_either","A1XDMS0KFSF5JW","either","7","","","","","","","0","0","1","0.4192996399","","0.4","0.6","0.8","0.2","","","","","0.03476350355","0.281207523","0.4192996399","0.2338710899","","","","","","","75","K","2","","","19","main_expt"
"448","","bandit","98","567547","0.0-59.0-0.0","44615728","wem/bandit_either","A1XDMS0KFSF5JW","either","7","","","","","","","0","0","1","0.4362768361","","0.4","0.6","0.8","0.2","","","","","0.0233687216","0.291129981","0.4362768361","0.2335293464","","","","","","","75","K","2","","","20","main_expt"
"180","","bandit","99","569265","0.0-60.0-0.0","44615728","wem/bandit_either","A1XDMS0KFSF5JW","either","7","","","","","","","0","0","1","","0.01272547494","0.4","0.6","0.8","0.2","0.01272547494","0.2729578326","0.4599691003","0.2434826965","","","","","","","","","","","72","H","0","img/none_selected.jpg","","21","main_expt"
"3","","bandit","100","570885","0.0-61.0-0.0","44615728","wem/bandit_either","A1XDMS0KFSF5JW","either","7","","","","","","","0","0","1","","0.2702300591","0.4","0.6","0.8","0.2","0.01739491555","0.2805141014","0.44353765","0.2702300591","","","","","","","","","","","76","L","3","","","22","main_expt"
"125","","bandit","101","572571","0.0-62.0-0.0","44615728","wem/bandit_either","A1XDMS0KFSF5JW","either","7","","","","","","","0","1","0","","0.2424740502","0.4","0.6","0.8","0.2","0.006692102231","0.3016389313","0.4105594395","0.2424740502","","","","","","","","","","","76","L","3","","","23","main_expt"
"304","","bandit","102","574502","0.0-63.0-0.0","44615728","wem/bandit_either","A1XDMS0KFSF5JW","either","7","","","","","","","0","0","1","","0.1754503809","0.4","0.6","0.8","0.2","0.01209419849","0.2475621169","0.4243351486","0.1754503809","","","","","","","","","","","76","L","3","","","24","main_expt"
"2","","bandit","103","576046","0.0-64.0-0.0","44615728","wem/bandit_either","A1XDMS0KFSF5JW","either","7","","","","","","","0","0","1","","0.2023019753","0.4","0.6","0.8","0.2","0.009734580702","0.2607476102","0.4172780312","0.2023019753","","","","","","","","","","","76","L","3","","","25","main_expt"
"18","","bandit","104","577611","0.0-65.0-0.0","44615728","wem/bandit_either","A1XDMS0KFSF5JW","either","7","","","","","","","0","0","1","","0.008596148908","0.4","0.6","0.8","0.2","0.008596148908","0.292589008","0.3981062588","0.1887270612","","","","","","","","","","","72","H","0","img/none_selected.jpg","","26","main_expt"
"1113","","bandit","105","580286","0.0-66.0-0.0","44615728","wem/bandit_either","A1XDMS0KFSF5JW","either","7","","","","","","","0","0","1","","0.01380650739","0.4","0.6","0.8","0.2","0.01380650739","0.2978950393","0.3889188119","0.2526986378","","","","","","","","","","","72","H","0","img/none_selected.jpg","","27","main_expt"
"62","","bandit","106","581928","0.0-67.0-0.0","44615728","wem/bandit_either","A1XDMS0KFSF5JW","either","7","","","","","","","0","0","1","0.01160852189","","0.4","0.6","0.8","0.2","","","","","0.01160852189","0.337392419","0.3699095679","0.2536033627","","","","","","","72","H","0","img/none_selected.jpg","","28","main_expt"
"18","","bandit","107","583488","0.0-68.0-0.0","44615728","wem/bandit_either","A1XDMS0KFSF5JW","either","7","","","","","","","0","0","1","0.02858314752","","0.4","0.6","0.8","0.2","","","","","0.02858314752","0.3830759015","0.4087832773","0.258258936","","","","","","","72","H","0","img/none_selected.jpg","","29","main_expt"
"631","","bandit","108","585752","0.0-69.0-0.0","44615728","wem/bandit_either","A1XDMS0KFSF5JW","either","7","","","","","","","0","0","1","0.4162513677","","0.4","0.6","0.8","0.2","","","","","0.0265596094","0.3778881599","0.4162513677","0.3152574144","","","","","","","75","K","2","","","30","main_expt"
"332","","bandit","109","587653","0.0-70.0-0.0","44615728","wem/bandit_either","A1XDMS0KFSF5JW","either","7","","","","","","","0","0","1","0.43337534","","0.4","0.6","0.8","0.2","","","","","0.02828816112","0.3585458117","0.43337534","0.3508579725","","","","","","","75","K","2","","","31","main_expt"
"374","","bandit","110","589609","0.0-71.0-0.0","44615728","wem/bandit_either","A1XDMS0KFSF5JW","either","7","","","","","","","0","1","0","","0.4399105216","0.4","0.6","0.8","0.2","0.03857304495","0.3511664436","0.4399105216","0.3902021543","","","","","","","","","","","75","K","2","","","32","main_expt"
"294","","bandit","111","591463","0.0-72.0-0.0","44615728","wem/bandit_either","A1XDMS0KFSF5JW","either","7","","","","","","","0","0","1","0.3859623535","","0.4","0.6","0.8","0.2","","","","","0.02642959278","0.3924960189","0.3859623535","0.4112626521","","","","","","","75","K","2","","","33","main_expt"
"148","","bandit","112","593159","0.0-73.0-0.0","44615728","wem/bandit_either","A1XDMS0KFSF5JW","either","7","","","","","","","0","0","1","","0.4231921331","0.4","0.6","0.8","0.2","0.06800028167","0.3713907517","0.4231921331","0.3912589523","","","","","","","","","","","75","K","2","","","34","main_expt"
"353","","bandit","113","595087","0.0-74.0-0.0","44615728","wem/bandit_either","A1XDMS0KFSF5JW","either","7","","","","","","","0","0","1","","0.3929004689","0.4","0.6","0.8","0.2","0.05710280771","0.3929004689","0.3950458867","0.3663646496","","","","","","","","","","","74","J","1","","","35","main_expt"
"195","","bandit","114","596831","0.0-75.0-0.0","44615728","wem/bandit_either","A1XDMS0KFSF5JW","either","7","","","","","","","0","0","1","","0.3820467604","0.4","0.6","0.8","0.2","0.07756943076","0.3820467604","0.4005306787","0.3045225128","","","","","","","","","","","74","J","1","","","36","main_expt"
"379","","bandit","115","598807","0.0-76.0-0.0","44615728","wem/bandit_either","A1XDMS0KFSF5JW","either","7","","","","","","","0","1","0","","0.3948022939","0.4","0.6","0.8","0.2","0.06074629621","0.3948022939","0.3972735937","0.2806474599","","","","","","","","","","","74","J","1","","","37","main_expt"
"255","","bandit","116","600716","0.0-77.0-0.0","44615728","wem/bandit_either","A1XDMS0KFSF5JW","either","7","","","","","","","1","0","0","0.3769579019","","0.4","0.6","0.8","0.2","","","","","0.07063042774","0.3769579019","0.38339591","0.3558759705","","","","","","","74","J","1","","","38","main_expt"
"272","","bandit","117","602578","0.0-78.0-0.0","44615728","wem/bandit_either","A1XDMS0KFSF5JW","either","7","","","","","","","1","0","0","0.4030344636","","0.4","0.6","0.8","0.2","","","","","0.06209293178","0.4030344636","0.3906354184","0.3194138052","","","","","","","74","J","1","","","39","main_expt"
"294","","bandit","118","604452","0.0-79.0-0.0","44615728","wem/bandit_either","A1XDMS0KFSF5JW","either","7","","","","","","","1","0","0","0.3622335218","","0.4","0.6","0.8","0.2","","","","","0.06952578958","0.3622335218","0.3623676206","0.3549086085","","","","","","","74","J","1","","","40","main_expt"
"362","","bandit","119","606382","0.0-80.0-0.0","44615728","wem/bandit_either","A1XDMS0KFSF5JW","either","7","","","","","","","0","0","1","","0.3911596719","0.4","0.6","0.8","0.2","0.1291245709","0.3911596719","0.3873704927","0.3452113815","","","","","","","","","","","74","J","1","","","41","main_expt"
"284","","bandit","120","608263","0.0-81.0-0.0","44615728","wem/bandit_either","A1XDMS0KFSF5JW","either","7","","","","","","","0","0","1","","0.3921858285","0.4","0.6","0.8","0.2","0.1174523948","0.3921858285","0.359823116","0.3522960267","","","","","","","","","","","74","J","1","","","42","main_expt"
"253","","bandit","121","610066","0.0-82.0-0.0","44615728","wem/bandit_either","A1XDMS0KFSF5JW","either","7","","","","","","","0","0","1","","0.3831213528","0.4","0.6","0.8","0.2","0.1201484523","0.3831213528","0.3710191411","0.3093122096","","","","","","","","","","","74","J","1","","","43","main_expt"
"158","","bandit","122","611769","0.0-83.0-0.0","44615728","wem/bandit_either","A1XDMS0KFSF5JW","either","7","","","","","","","0","0","1","0.3518708159","","0.4","0.6","0.8","0.2","","","","","0.09958360536","0.3518708159","0.3874065465","0.3026159556","","","","","","","74","J","1","","","44","main_expt"
"211","","bandit","123","613520","0.0-84.0-0.0","44615728","wem/bandit_either","A1XDMS0KFSF5JW","either","7","","","","","","","0","0","1","","0.3122870636","0.4","0.6","0.8","0.2","0.05173655998","0.3122870636","0.3851533971","0.3336294247","","","","","","","","","","","74","J","1","","","45","main_expt"
"101","","bandit","124","615220","0.0-85.0-0.0","44615728","wem/bandit_either","A1XDMS0KFSF5JW","either","7","","","","","","","0","0","1","0.05945041096","","0.4","0.6","0.8","0.2","","","","","0.05945041096","0.2635721956","0.4055883719","0.3400222736","","","","","","","72","H","0","img/none_selected.jpg","","46","main_expt"
"194","","bandit","125","616952","0.0-86.0-0.0","44615728","wem/bandit_either","A1XDMS0KFSF5JW","either","7","","","","","","","0","0","1","","0.04375763727","0.4","0.6","0.8","0.2","0.04375763727","0.2856785865","0.3671593179","0.328707825","","","","","","","","","","","72","H","0","img/none_selected.jpg","","47","main_expt"
"622","","bandit","126","619215","0.0-87.0-0.0","44615728","wem/bandit_either","A1XDMS0KFSF5JW","either","7","","","","","","","0","0","1","0.2649087478","","0.4","0.6","0.8","0.2","","","","","0.0666370861","0.2649087478","0.3198203038","0.3307690822","","","","","","","74","J","1","","","48","main_expt"
"506","","bandit","127","621303","0.0-88.0-0.0","44615728","wem/bandit_either","A1XDMS0KFSF5JW","either","7","","","","","","","1","0","0","0.3438067684","","0.4","0.6","0.8","0.2","","","","","0.08266213623","0.2462979357","0.3111357295","0.3438067684","","","","","","","76","L","3","","","49","main_expt"
"312","","bandit","128","623337","0.0-89.0-0.0","44615728","wem/bandit_either","A1XDMS0KFSF5JW","either","7","","","","","","","0","1","0","","0.4037002216","0.4","0.6","0.8","0.2","0.08795051988","0.2490076798","0.3196682981","0.4037002216","","","","","","","","","","","76","L","3","","","50","main_expt"
"329","","bandit","129","625402","0.0-90.0-0.0","44615728","wem/bandit_either","A1XDMS0KFSF5JW","either","7","","","","","","","0","0","1","","0.3557518394","0.4","0.6","0.8","0.2","0.07533366945","0.305209751","0.3088596379","0.3557518394","","","","","","","","","","","76","L","3","","","51","main_expt"
"233","","bandit","130","627413","0.0-91.0-0.0","44615728","wem/bandit_either","A1XDMS0KFSF5JW","either","7","","","","","","","0","0","1","","0.3254324358","0.4","0.6","0.8","0.2","0.06506638851","0.3087204988","0.3060924957","0.3254324358","","","","","","","","","","","76","L","3","","","52","main_expt"
"70","","bandit","131","629352","0.0-92.0-0.0","44615728","wem/bandit_either","A1XDMS0KFSF5JW","either","7","","","","","","","1","0","0","0.3229319808","","0.4","0.6","0.8","0.2","","","","","0.06562792832","0.2984188648","0.3229319808","0.2952150256","","","","","","","75","K","2","","","53","main_expt"
"402","","bandit","132","631303","0.0-93.0-0.0","44615728","wem/bandit_either","A1XDMS0KFSF5JW","either","7","","","","","","","1","0","0","0.3280138586","","0.4","0.6","0.8","0.2","","","","","0.04630081711","0.3353917468","0.3280138586","0.300320608","","","","","","","75","K","2","","","54","main_expt"
"349","","bandit","133","633197","0.0-94.0-0.0","44615728","wem/bandit_either","A1XDMS0KFSF5JW","either","7","","","","","","","0","0","1","0.2777260571","","0.4","0.6","0.8","0.2","","","","","0.03868373719","0.3259144651","0.2777260571","0.2985084879","","","","","","","75","K","2","","","55","main_expt"
"350","","bandit","134","635232","0.0-95.0-0.0","44615728","wem/bandit_either","A1XDMS0KFSF5JW","either","7","","","","","","","1","0","0","0.1791004868","","0.4","0.6","0.8","0.2","","","","","0.06235362297","0.3259049121","0.1791004868","0.2607009345","","","","","","","75","K","2","","","56","main_expt"
"368","","bandit","135","637160","0.0-96.0-0.0","44615728","wem/bandit_either","A1XDMS0KFSF5JW","either","7","","","","","","","0","0","1","","0.2182265394","0.4","0.6","0.8","0.2","0.04639461243","0.3687904078","0.2182265394","0.2565854794","","","","","","","","","","","75","K","2","","","57","main_expt"
"4","","bandit","136","638715","0.0-97.0-0.0","44615728","wem/bandit_either","A1XDMS0KFSF5JW","either","7","","","","","","","0","0","1","","0.2970860181","0.4","0.6","0.8","0.2","0.08954448139","0.3422038875","0.2970860181","0.319121847","","","","","","","","","","","75","K","2","","","58","main_expt"
"316","","bandit","137","640576","0.0-98.0-0.0","44615728","wem/bandit_either","A1XDMS0KFSF5JW","either","7","","","","","","","0","0","1","0.3249685468","","0.4","0.6","0.8","0.2","","","","","0.07390342289","0.3771421139","0.3249685468","0.3269923399","","","","","","","75","K","2","","","59","main_expt"
"618","","bandit","138","642759","0.0-99.0-0.0","44615728","wem/bandit_either","A1XDMS0KFSF5JW","either","7","","","","","","","0","1","0","","0.3150968823","0.4","0.6","0.8","0.2","0.05801548519","0.3620124399","0.2931470039","0.3150968823","","","","","","","","","","","76","L","3","","","60","main_expt"
"346","","bandit","139","644667","0.0-100.0-0.0","44615728","wem/bandit_either","A1XDMS0KFSF5JW","either","7","","","","","","","0","0","1","","0.324539239","0.4","0.6","0.8","0.2","0.07333263924","0.3958116198","0.2646536279","0.324539239","","","","","","","","","","","76","L","3","","","61","main_expt"
"190","","bandit","140","646521","0.0-101.0-0.0","44615728","wem/bandit_either","A1XDMS0KFSF5JW","either","7","","","","","","","0","0","1","","0.3066306166","0.4","0.6","0.8","0.2","0.07563430262","0.3615218546","0.242461968","0.3066306166","","","","","","","","","","","76","L","3","","","62","main_expt"
"444","","bandit","141","648507","0.0-102.0-0.0","44615728","wem/bandit_either","A1XDMS0KFSF5JW","either","7","","","","","","","0","0","1","0.2206683029","","0.4","0.6","0.8","0.2","","","","","0.06826526778","0.3574266064","0.2206683029","0.3068900116","","","","","","","75","K","2","","","63","main_expt"
"266","","bandit","142","650316","0.0-103.0-0.0","44615728","wem/bandit_either","A1XDMS0KFSF5JW","either","7","","","","","","","0","0","1","0.2288959862","","0.4","0.6","0.8","0.2","","","","","0.1175271989","0.3541915859","0.2288959862","0.2936494982","","","","","","","75","K","2","","","64","main_expt"
"185","","bandit","143","652068","0.0-104.0-0.0","44615728","wem/bandit_either","A1XDMS0KFSF5JW","either","7","","","","","","","0","0","1","0.1273865191","","0.4","0.6","0.8","0.2","","","","","0.1273865191","0.3339820985","0.2346523549","0.290236101","","","","","","","72","H","0","img/none_selected.jpg","","65","main_expt"
"204","","bandit","144","653829","0.0-105.0-0.0","44615728","wem/bandit_either","A1XDMS0KFSF5JW","either","7","","","","","","","0","0","1","","0.3195467083","0.4","0.6","0.8","0.2","0.09075088943","0.3195467083","0.1881688105","0.2512036594","","","","","","","","","","","74","J","1","","","66","main_expt"
"185","","bandit","145","655698","0.0-106.0-0.0","44615728","wem/bandit_either","A1XDMS0KFSF5JW","either","7","","","","","","","0","0","1","","0.08077075725","0.4","0.6","0.8","0.2","0.08077075725","0.3477383846","0.231043846","0.263747572","","","","","","","","","","","72","H","0","img/none_selected.jpg","","67","main_expt"
"534","","bandit","146","657781","0.0-107.0-0.0","44615728","wem/bandit_either","A1XDMS0KFSF5JW","either","7","","","","","","","1","0","0","0.3365352069","","0.4","0.6","0.8","0.2","","","","","0.08810311296","0.3365352069","0.2576664243","0.2892519303","","","","","","","74","J","1","","","68","main_expt"
"310","","bandit","147","659636","0.0-108.0-0.0","44615728","wem/bandit_either","A1XDMS0KFSF5JW","either","7","","","","","","","0","1","0","","0.3148812039","0.4","0.6","0.8","0.2","0.1260156682","0.3148812039","0.2183283259","0.2383664846","","","","","","","","","","","74","J","1","","","69","main_expt"
"312","","bandit","148","661501","0.0-109.0-0.0","44615728","wem/bandit_either","A1XDMS0KFSF5JW","either","7","","","","","","","0","0","1","","0.3154014692","0.4","0.6","0.8","0.2","0.08773951932","0.3154014692","0.2260484764","0.2497111545","","","","","","","","","","","74","J","1","","","70","main_expt"
"175","","bandit","149","663528","0.0-110.0-0.0","44615728","wem/bandit_either","A1XDMS0KFSF5JW","either","7","","","","","","","0","1","0","","0.219815459","0.4","0.6","0.8","0.2","0.1154304285","0.219815459","0.3196469567","0.2095843002","","","","","","","","","","","74","J","1","","","71","main_expt"
"332","","bandit","150","665408","0.0-111.0-0.0","44615728","wem/bandit_either","A1XDMS0KFSF5JW","either","7","","","","","","","0","0","1","0.2623730272","","0.4","0.6","0.8","0.2","","","","","0.10097247","0.2623730272","0.3644141189","0.1972488467","","","","","","","74","J","1","","","72","main_expt"
"289","","bandit","151","667245","0.0-112.0-0.0","44615728","wem/bandit_either","A1XDMS0KFSF5JW","either","7","","","","","","","0","0","1","0.2639805735","","0.4","0.6","0.8","0.2","","","","","0.0746930591","0.2639805735","0.4081842109","0.15494396","","","","","","","74","J","1","","","73","main_expt"
"291","","bandit","152","669122","0.0-113.0-0.0","44615728","wem/bandit_either","A1XDMS0KFSF5JW","either","7","","","","","","","1","0","0","0.2770925356","","0.4","0.6","0.8","0.2","","","","","0.1124392477","0.2770925356","0.4506698749","0.1324790415","","","","","","","74","J","1","","","74","main_expt"
"318","","bandit","153","671011","0.0-114.0-0.0","44615728","wem/bandit_either","A1XDMS0KFSF5JW","either","7","","","","","","","0","0","1","0.2796652475","","0.4","0.6","0.8","0.2","","","","","0.113494578","0.2796652475","0.454520075","0.179195356","","","","","","","74","J","1","","","75","main_expt"
"244","","bandit","154","672815","0.0-115.0-0.0","44615728","wem/bandit_either","A1XDMS0KFSF5JW","either","7","","","","","","","0","0","1","0.3153427244","","0.4","0.6","0.8","0.2","","","","","0.1469344428","0.3153427244","0.466199952","0.215808919","","","","","","","74","J","1","","","76","main_expt"
"303","","bandit","155","674670","0.0-116.0-0.0","44615728","wem/bandit_either","A1XDMS0KFSF5JW","either","7","","","","","","","0","0","1","0.3676911864","","0.4","0.6","0.8","0.2","","","","","0.2152215887","0.3676911864","0.4402141775","0.2312347408","","","","","","","74","J","1","","","77","main_expt"
"343","","bandit","156","676560","0.0-117.0-0.0","44615728","wem/bandit_either","A1XDMS0KFSF5JW","either","7","","","","","","","0","0","1","0.3434277392","","0.4","0.6","0.8","0.2","","","","","0.2055177618","0.3434277392","0.4525957793","0.2197025874","","","","","","","74","J","1","","","78","main_expt"
"275","","bandit","157","678400","0.0-118.0-0.0","44615728","wem/bandit_either","A1XDMS0KFSF5JW","either","7","","","","","","","0","1","0","","0.3758616161","0.4","0.6","0.8","0.2","0.222262525","0.3758616161","0.4630799716","0.2227420924","","","","","","","","","","","74","J","1","","","79","main_expt"
"305","","bandit","158","680270","0.0-119.0-0.0","44615728","wem/bandit_either","A1XDMS0KFSF5JW","either","7","","","","","","","1","0","0","0.3862393514","","0.4","0.6","0.8","0.2","","","","","0.2700860438","0.3862393514","0.423693353","0.2283057493","","","","","","","74","J","1","","","80","main_expt"
"327","","bandit","159","682148","0.0-120.0-0.0","44615728","wem/bandit_either","A1XDMS0KFSF5JW","either","7","","","","","","","0","0","1","0.3593770893","","0.4","0.6","0.8","0.2","","","","","0.2642688004","0.3593770893","0.4319112677","0.2721525977","","","","","","","74","J","1","","","81","main_expt"
"280","","bandit","160","684043","0.0-121.0-0.0","44615728","wem/bandit_either","A1XDMS0KFSF5JW","either","7","","","","","","","0","1","0","","0.4035110645","0.4","0.6","0.8","0.2","0.2824164754","0.4035110645","0.441827487","0.2850237184","","","","","","","","","","","74","J","1","","","82","main_expt"
"248","","bandit","161","685835","0.0-122.0-0.0","44615728","wem/bandit_either","A1XDMS0KFSF5JW","either","7","","","","","","","0","0","1","0.3719627038","","0.4","0.6","0.8","0.2","","","","","0.2819095575","0.3719627038","0.4288861504","0.3236436683","","","","","","","74","J","1","","","83","main_expt"
"229","","bandit","162","687605","0.0-123.0-0.0","44615728","wem/bandit_either","A1XDMS0KFSF5JW","either","7","","","","","","","0","0","1","0.3349288927","","0.4","0.6","0.8","0.2","","","","","0.2589745902","0.3349288927","0.4350385517","0.3339638593","","","","","","","74","J","1","","","84","main_expt"
"114","","bandit","163","689259","0.0-124.0-0.0","44615728","wem/bandit_either","A1XDMS0KFSF5JW","either","7","","","","","","","1","0","0","0.3247899262","","0.4","0.6","0.8","0.2","","","","","0.3626504113","0.3247899262","0.4255505645","0.3795022601","","","","","","","74","J","1","","","85","main_expt"
"130","","bandit","164","690932","0.0-125.0-0.0","44615728","wem/bandit_either","A1XDMS0KFSF5JW","either","7","","","","","","","0","0","1","0.3443557019","","0.4","0.6","0.8","0.2","","","","","0.3598915268","0.3443557019","0.4330938692","0.3835523064","","","","","","","74","J","1","","","86","main_expt"
"398","","bandit","165","693211","0.0-126.0-0.0","44615728","wem/bandit_either","A1XDMS0KFSF5JW","either","7","","","","","","","0","0","1","","0.3648776167","0.4","0.6","0.8","0.2","0.3433052933","0.3648776167","0.4548398529","0.3772514457","","","","","","","","","","","74","J","1","","","87","main_expt"
"294","","bandit","166","695459","0.0-127.0-0.0","44615728","wem/bandit_either","A1XDMS0KFSF5JW","either","7","","","","","","","0","0","1","0.3609631839","","0.4","0.6","0.8","0.2","","","","","0.4022938878","0.3609631839","0.4493124031","0.3766830519","","","","","","","74","J","1","","","88","main_expt"
"683","","bandit","167","697694","0.0-128.0-0.0","44615728","wem/bandit_either","A1XDMS0KFSF5JW","either","7","","","","","","","0","1","0","","0.3537755119","0.4","0.6","0.8","0.2","0.4141493151","0.3636167192","0.4161110063","0.3537755119","","","","","","","","","","","76","L","3","","","89","main_expt"
"164","","bandit","168","699530","0.0-129.0-0.0","44615728","wem/bandit_either","A1XDMS0KFSF5JW","either","7","","","","","","","0","0","1","","0.3014761449","0.4","0.6","0.8","0.2","0.4136124289","0.3563441379","0.405260856","0.3014761449","","","","","","","","","","","76","L","3","","","90","main_expt"
"139","","bandit","169","701251","0.0-130.0-0.0","44615728","wem/bandit_either","A1XDMS0KFSF5JW","either","7","","","","","","","0","0","1","0.2694038268","","0.4","0.6","0.8","0.2","","","","","0.4184852842","0.3389138503","0.3827048226","0.2694038268","","","","","","","76","L","3","","","91","main_expt"
"346","","bandit","170","703159","0.0-131.0-0.0","44615728","wem/bandit_either","A1XDMS0KFSF5JW","either","7","","","","","","","0","1","0","","0.2651536323","0.4","0.6","0.8","0.2","0.4456808576","0.3263360165","0.3552182969","0.2651536323","","","","","","","","","","","76","L","3","","","92","main_expt"
"435","","bandit","171","705144","0.0-132.0-0.0","44615728","wem/bandit_either","A1XDMS0KFSF5JW","either","7","","","","","","","1","0","0","0.1997208586","","0.4","0.6","0.8","0.2","","","","","0.4355219805","0.2844131911","0.3286897504","0.1997208586","","","","","","","76","L","3","","","93","main_expt"
"326","","bandit","172","707032","0.0-133.0-0.0","44615728","wem/bandit_either","A1XDMS0KFSF5JW","either","7","","","","","","","1","0","0","0.2442555344","","0.4","0.6","0.8","0.2","","","","","0.4609821192","0.2978465223","0.3422490236","0.2442555344","","","","","","","76","L","3","","","94","main_expt"
"329","","bandit","173","708932","0.0-134.0-0.0","44615728","wem/bandit_either","A1XDMS0KFSF5JW","either","7","","","","","","","0","1","0","","0.2638839348","0.4","0.6","0.8","0.2","0.4419374505","0.2638723705","0.3160161054","0.2638839348","","","","","","","","","","","76","L","3","","","95","main_expt"
"332","","bandit","174","710830","0.0-135.0-0.0","44615728","wem/bandit_either","A1XDMS0KFSF5JW","either","7","","","","","","","0","0","1","","0.2265245807","0.4","0.6","0.8","0.2","0.39438674","0.2276010735","0.2945538732","0.2265245807","","","","","","","","","","","76","L","3","","","96","main_expt"
"281","","bandit","175","712688","0.0-136.0-0.0","44615728","wem/bandit_either","A1XDMS0KFSF5JW","either","7","","","","","","","1","0","0","0.1969189177","","0.4","0.6","0.8","0.2","","","","","0.3617668419","0.2045446072","0.393563827","0.1969189177","","","","","","","76","L","3","","","97","main_expt"
"339","","bandit","176","714574","0.0-137.0-0.0","44615728","wem/bandit_either","A1XDMS0KFSF5JW","either","7","","","","","","","0","0","1","","0.1761144245","0.4","0.6","0.8","0.2","0.3737913853","0.2436418828","0.4046254927","0.1761144245","","","","","","","","","","","76","L","3","","","98","main_expt"
"326","","bandit","177","716481","0.0-138.0-0.0","44615728","wem/bandit_either","A1XDMS0KFSF5JW","either","7","","","","","","","0","1","0","","0.1211630765","0.4","0.6","0.8","0.2","0.4221129479","0.2473144087","0.3659012549","0.1211630765","","","","","","","","","","","76","L","3","","","99","main_expt"
"316","","bandit","178","718479","0.0-139.0-0.0","44615728","wem/bandit_either","A1XDMS0KFSF5JW","either","7","","","","","","","0","0","1","","0.1257326749","0.4","0.6","0.8","0.2","0.3857893684","0.2707360286","0.400368336","0.1257326749","","","","","","","","","","","76","L","3","","","100","main_expt"
"127","","bandit","179","720269","0.0-140.0-0.0","44615728","wem/bandit_either","A1XDMS0KFSF5JW","either","7","","","","","","","0","0","1","","0.09975532208","0.4","0.6","0.8","0.2","0.3635527264","0.3250409822","0.4367931528","0.09975532208","","","","","","","","","","","76","L","3","","","101","main_expt"
"333","","bandit","180","722196","0.0-141.0-0.0","44615728","wem/bandit_either","A1XDMS0KFSF5JW","either","7","","","","","","","0","0","1","","0.1127414424","0.4","0.6","0.8","0.2","0.3738375489","0.3088580598","0.4371155326","0.1127414424","","","","","","","","","","","76","L","3","","","102","main_expt"
"875","","bandit","181","724644","0.0-142.0-0.0","44615728","wem/bandit_either","A1XDMS0KFSF5JW","either","7","","","","","","","0","0","1","0.1232600734","","0.4","0.6","0.8","0.2","","","","","0.3860163181","0.2901001995","0.388648264","0.1232600734","","","","","","","76","L","3","","","103","main_expt"
"259","","bandit","182","726465","0.0-143.0-0.0","44615728","wem/bandit_either","A1XDMS0KFSF5JW","either","7","","","","","","","0","0","1","0.390692362","","0.4","0.6","0.8","0.2","","","","","0.390692362","0.309645936","0.3718469433","0.08156843846","","","","","","","72","H","0","img/none_selected.jpg","","104","main_expt"
"124","","bandit","183","728140","0.0-144.0-0.0","44615728","wem/bandit_either","A1XDMS0KFSF5JW","either","7","","","","","","","0","0","1","","0.3386062745","0.4","0.6","0.8","0.2","0.4139082553","0.3386062745","0.3920304628","0.08245659199","","","","","","","","","","","74","J","1","","","105","main_expt"
"357","","bandit","184","730045","0.0-145.0-0.0","44615728","wem/bandit_either","A1XDMS0KFSF5JW","either","7","","","","","","","1","0","0","0.3733497125","","0.4","0.6","0.8","0.2","","","","","0.3295275825","0.3827539061","0.3733497125","0.1276639339","","","","","","","75","K","2","","","106","main_expt"
"322","","bandit","185","731916","0.0-146.0-0.0","44615728","wem/bandit_either","A1XDMS0KFSF5JW","either","7","","","","","","","0","0","1","0.3878439861","","0.4","0.6","0.8","0.2","","","","","0.3499712774","0.3401355396","0.3878439861","0.1812689745","","","","","","","75","K","2","","","107","main_expt"
"384","","bandit","186","733845","0.0-147.0-0.0","44615728","wem/bandit_either","A1XDMS0KFSF5JW","either","7","","","","","","","0","0","1","0.3529013302","","0.4","0.6","0.8","0.2","","","","","0.2666891207","0.3258039352","0.3529013302","0.2187982558","","","","","","","75","K","2","","","108","main_expt"
"432","","bandit","187","735839","0.0-148.0-0.0","44615728","wem/bandit_either","A1XDMS0KFSF5JW","either","7","","","","","","","0","0","1","","0.3457683734","0.4","0.6","0.8","0.2","0.2575067634","0.374919859","0.3457683734","0.2201216928","","","","","","","","","","","75","K","2","","","109","main_expt"
"270","","bandit","188","737697","0.0-149.0-0.0","44615728","wem/bandit_either","A1XDMS0KFSF5JW","either","7","","","","","","","0","0","1","","0.1789817232","0.4","0.6","0.8","0.2","0.2664913793","0.3656186065","0.3316873257","0.1789817232","","","","","","","","","","","76","L","3","","","110","main_expt"
"1099","","bandit","189","740366","0.0-150.0-0.0","44615728","wem/bandit_either","A1XDMS0KFSF5JW","either","7","","","","","","","0","0","1","","0.2233446911","0.4","0.6","0.8","0.2","0.2233446911","0.3649701027","0.3434945318","0.2404947452","","","","","","","","","","","72","H","0","img/none_selected.jpg","","111","main_expt"
"295","","bandit","190","742272","0.0-151.0-0.0","44615728","wem/bandit_either","A1XDMS0KFSF5JW","either","7","","","","","","","0","0","1","0.2170082082","","0.4","0.6","0.8","0.2","","","","","0.2170082082","0.3371716456","0.2729480053","0.2959558532","","","","","","","72","H","0","img/none_selected.jpg","","112","main_expt"
"194","","bandit","191","744048","0.0-152.0-0.0","44615728","wem/bandit_either","A1XDMS0KFSF5JW","either","7","","","","","","","0","0","1","","0.1912277411","0.4","0.6","0.8","0.2","0.1912277411","0.2587224119","0.2579672073","0.2966985553","","","","","","","","","","","72","H","0","img/none_selected.jpg","","113","main_expt"
"433","","bandit","192","746051","0.0-153.0-0.0","44615728","wem/bandit_either","A1XDMS0KFSF5JW","either","7","","","","","","","1","0","0","0.2384324947","","0.4","0.6","0.8","0.2","","","","","0.1691995451","0.2384324947","0.24654084","0.3289730608","","","","","","","74","J","1","","","114","main_expt"
"319","","bandit","193","748010","0.0-154.0-0.0","44615728","wem/bandit_either","A1XDMS0KFSF5JW","either","7","","","","","","","0","0","1","0.2705755989","","0.4","0.6","0.8","0.2","","","","","0.1263730162","0.2705755989","0.246649757","0.2783705844","","","","","","","74","J","1","","","115","main_expt"
"329","","bandit","194","749893","0.0-155.0-0.0","44615728","wem/bandit_either","A1XDMS0KFSF5JW","either","7","","","","","","","1","0","0","0.2666822","","0.4","0.6","0.8","0.2","","","","","0.1130092975","0.2666822","0.2190482835","0.2990421824","","","","","","","74","J","1","","","116","main_expt"
"340","","bandit","195","751834","0.0-156.0-0.0","44615728","wem/bandit_either","A1XDMS0KFSF5JW","either","7","","","","","","","0","0","1","","0.2664749026","0.4","0.6","0.8","0.2","0.1317362661","0.2664749026","0.1860086181","0.3214730448","","","","","","","","","","","74","J","1","","","117","main_expt"
"380","","bandit","196","753762","0.0-157.0-0.0","44615728","wem/bandit_either","A1XDMS0KFSF5JW","either","7","","","","","","","0","0","1","0.285497096","","0.4","0.6","0.8","0.2","","","","","0.08460291254","0.285497096","0.1765749983","0.3996160597","","","","","","","74","J","1","","","118","main_expt"
"346","","bandit","197","755653","0.0-158.0-0.0","44615728","wem/bandit_either","A1XDMS0KFSF5JW","either","7","","","","","","","0","1","0","","0.3004427434","0.4","0.6","0.8","0.2","0.09168363065","0.3004427434","0.1840588368","0.4143362638","","","","","","","","","","","74","J","1","","","119","main_expt"
"334","","bandit","198","757532","0.0-159.0-0.0","44615728","wem/bandit_either","A1XDMS0KFSF5JW","either","7","","","","","","","0","0","1","0.2419855731","","0.4","0.6","0.8","0.2","","","","","0.06729372802","0.2419855731","0.1988357929","0.372340151","","","","","","","74","J","1","","","120","main_expt"
"222","","bandit","199","759346","0.0-160.0-0.0","44615728","wem/bandit_either","A1XDMS0KFSF5JW","either","7","","","","","","","1","0","0","0.3054132847","","0.4","0.6","0.8","0.2","","","","","0.08346408207","0.3054132847","0.2315674","0.3910424524","","","","","","","74","J","1","","","121","main_expt"
"435","","bandit","200","761556","0.0-161.0-0.0","44615728","wem/bandit_either","A1XDMS0KFSF5JW","either","7","","","","","","","0","0","1","0.2473202095","","0.4","0.6","0.8","0.2","","","","","0.05632743158","0.2473202095","0.2041322171","0.3813410711","","","","","","","74","J","1","","","122","main_expt"
"438","","bandit","201","763686","0.0-162.0-0.0","44615728","wem/bandit_either","A1XDMS0KFSF5JW","either","7","","","","","","","0","1","0","","0.2909195989","0.4","0.6","0.8","0.2","0.05516745574","0.2909195989","0.1945268209","0.4247291795","","","","","","","","","","","74","J","1","","","123","main_expt"
"409","","bandit","202","765681","0.0-163.0-0.0","44615728","wem/bandit_either","A1XDMS0KFSF5JW","either","7","","","","","","","0","0","1","0.3493750294","","0.4","0.6","0.8","0.2","","","","","0.05528311039","0.3493750294","0.2206749142","0.4311179713","","","","","","","74","J","1","","","124","main_expt"
"344","","bandit","203","767604","0.0-164.0-0.0","44615728","wem/bandit_either","A1XDMS0KFSF5JW","either","7","","","","","","","1","0","0","0.3883668019","","0.4","0.6","0.8","0.2","","","","","0.07149807259","0.3883668019","0.212012295","0.4085782939","","","","","","","74","J","1","","","125","main_expt"
"342","","bandit","204","769534","0.0-165.0-0.0","44615728","wem/bandit_either","A1XDMS0KFSF5JW","either","7","","","","","","","0","1","0","","0.3888129637","0.4","0.6","0.8","0.2","0.1137803622","0.3888129637","0.1656684785","0.4110861309","","","","","","","","","","","74","J","1","","","126","main_expt"
"338","","bandit","205","771430","0.0-166.0-0.0","44615728","wem/bandit_either","A1XDMS0KFSF5JW","either","7","","","","","","","0","0","1","0.3659195129","","0.4","0.6","0.8","0.2","","","","","0.1003054442","0.3659195129","0.1685301808","0.4214671818","","","","","","","74","J","1","","","127","main_expt"
"370","","bandit","206","773348","0.0-167.0-0.0","44615728","wem/bandit_either","A1XDMS0KFSF5JW","either","7","","","","","","","0","0","1","0.3689954399","","0.4","0.6","0.8","0.2","","","","","0.1378169536","0.3689954399","0.1703551811","0.36889317","","","","","","","74","J","1","","","128","main_expt"
"171","","bandit","207","775092","0.0-168.0-0.0","44615728","wem/bandit_either","A1XDMS0KFSF5JW","either","7","","","","","","","0","1","0","","0.3600340942","0.4","0.6","0.8","0.2","0.1333081235","0.3600340942","0.1624753709","0.3840267129","","","","","","","","","","","74","J","1","","","129","main_expt"
"291","","bandit","208","777056","0.0-169.0-0.0","44615728","wem/bandit_either","A1XDMS0KFSF5JW","either","7","","","","","","","0","0","1","","0.3580797835","0.4","0.6","0.8","0.2","0.1682212827","0.3580797835","0.2335662737","0.3809677701","","","","","","","","","","","74","J","1","","","130","main_expt"
"317","","bandit","209","778979","0.0-170.0-0.0","44615728","wem/bandit_either","A1XDMS0KFSF5JW","either","7","","","","","","","0","1","0","","0.3785893338","0.4","0.6","0.8","0.2","0.2193829955","0.3785893338","0.240441026","0.3681933818","","","","","","","","","","","74","J","1","","","131","main_expt"
"326","","bandit","210","780852","0.0-171.0-0.0","44615728","wem/bandit_either","A1XDMS0KFSF5JW","either","7","","","","","","","0","0","1","","0.3764735404","0.4","0.6","0.8","0.2","0.2693349046","0.3764735404","0.2266699971","0.3664045944","","","","","","","","","","","74","J","1","","","132","main_expt"
"254","","bandit","211","782673","0.0-172.0-0.0","44615728","wem/bandit_either","A1XDMS0KFSF5JW","either","7","","","","","","","0","0","1","0.3433534211","","0.4","0.6","0.8","0.2","","","","","0.2576546077","0.3433534211","0.1994193025","0.4046437197","","","","","","","74","J","1","","","133","main_expt"
"152","","bandit","212","784393","0.0-173.0-0.0","44615728","wem/bandit_either","A1XDMS0KFSF5JW","either","7","","","","","","","0","0","1","0.3606247271","","0.4","0.6","0.8","0.2","","","","","0.2412372273","0.3606247271","0.1891464922","0.364490756","","","","","","","74","J","1","","","134","main_expt"
"86","","bandit","213","786049","0.0-174.0-0.0","44615728","wem/bandit_either","A1XDMS0KFSF5JW","either","7","","","","","","","0","1","0","","0.3268624306","0.4","0.6","0.8","0.2","0.2198641054","0.3268624306","0.1614798668","0.311914316","","","","","","","","","","","74","J","1","","","135","main_expt"
"414","","bandit","214","788043","0.0-175.0-0.0","44615728","wem/bandit_either","A1XDMS0KFSF5JW","either","7","","","","","","","0","0","1","0.2854606769","","0.4","0.6","0.8","0.2","","","","","0.2504132697","0.2854606769","0.1880386222","0.2653901568","","","","","","","74","J","1","","","136","main_expt"
"154","","bandit","215","789752","0.0-176.0-0.0","44615728","wem/bandit_either","A1XDMS0KFSF5JW","either","7","","","","","","","0","1","0","","0.3311747399","0.4","0.6","0.8","0.2","0.1912230989","0.3311747399","0.1961818793","0.2413295316","","","","","","","","","","","74","J","1","","","137","main_expt"
"415","","bandit","216","791742","0.0-177.0-0.0","44615728","wem/bandit_either","A1XDMS0KFSF5JW","either","7","","","","","","","0","0","1","0.2570785188","","0.4","0.6","0.8","0.2","","","","","0.1576256809","0.2570785188","0.2857678963","0.2060295423","","","","","","","74","J","1","","","138","main_expt"
"341","","bandit","217","793671","0.0-178.0-0.0","44615728","wem/bandit_either","A1XDMS0KFSF5JW","either","7","","","","","","","0","0","1","0.2858060749","","0.4","0.6","0.8","0.2","","","","","0.1019788138","0.2858060749","0.3449131854","0.1809645164","","","","","","","74","J","1","","","139","main_expt"
"255","","bandit","218","795477","0.0-179.0-0.0","44615728","wem/bandit_either","A1XDMS0KFSF5JW","either","7","","","","","","","0","0","1","0.2975559752","","0.4","0.6","0.8","0.2","","","","","0.07754087054","0.2975559752","0.2537716732","0.1843216893","","","","","","","74","J","1","","","140","main_expt"
"32","","bandit","219","797067","0.0-180.0-0.0","44615728","wem/bandit_either","A1XDMS0KFSF5JW","either","7","","","","","","","0","0","1","","0.2802168405","0.4","0.6","0.8","0.2","0.09489610577","0.2802168405","0.2858111263","0.1651876155","","","","","","","","","","","74","J","1","","","141","main_expt"
"328","","bandit","220","798967","0.0-181.0-0.0","44615728","wem/bandit_either","A1XDMS0KFSF5JW","either","7","","","","","","","0","1","0","","0.2231986748","0.4","0.6","0.8","0.2","0.09601428546","0.2231986748","0.303049367","0.1536427928","","","","","","","","","","","74","J","1","","","142","main_expt"
"358","","bandit","221","800979","0.0-182.0-0.0","44615728","wem/bandit_either","A1XDMS0KFSF5JW","either","7","","","","","","","0","0","1","0.2032880393","","0.4","0.6","0.8","0.2","","","","","0.08301142993","0.2032880393","0.2969419413","0.1546140226","","","","","","","74","J","1","","","143","main_expt"
"360","","bandit","222","802890","0.0-183.0-0.0","44615728","wem/bandit_either","A1XDMS0KFSF5JW","either","7","","","","","","","0","0","1","0.1967741464","","0.4","0.6","0.8","0.2","","","","","0.09599686985","0.1967741464","0.3128690494","0.1746031107","","","","","","","74","J","1","","","144","main_expt"
"243","","bandit","223","804685","0.0-184.0-0.0","44615728","wem/bandit_either","A1XDMS0KFSF5JW","either","7","","","","","","","0","0","1","0.2283154954","","0.4","0.6","0.8","0.2","","","","","0.07499383622","0.2283154954","0.2991796355","0.2021387556","","","","","","","74","J","1","","","145","main_expt"
"107","","bandit","224","806370","0.0-185.0-0.0","44615728","wem/bandit_either","A1XDMS0KFSF5JW","either","7","","","","","","","1","0","0","0.2118700154","","0.4","0.6","0.8","0.2","","","","","0.09566861","0.2118700154","0.3163763193","0.2504344391","","","","","","","74","J","1","","","146","main_expt"
"327","","bandit","225","808338","0.0-186.0-0.0","44615728","wem/bandit_either","A1XDMS0KFSF5JW","either","7","","","","","","","0","0","1","0.210437557","","0.4","0.6","0.8","0.2","","","","","0.08578591382","0.210437557","0.3198025905","0.2437718569","","","","","","","74","J","1","","","147","main_expt"
"80","","bandit","226","809978","0.0-187.0-0.0","44615728","wem/bandit_either","A1XDMS0KFSF5JW","either","7","","","","","","","0","0","1","","0.2370661354","0.4","0.6","0.8","0.2","0.1147887709","0.2370661354","0.2588245921","0.2446677265","","","","","","","","","","","74","J","1","","","148","main_expt"
"180","","bandit","227","811707","0.0-188.0-0.0","44615728","wem/bandit_either","A1XDMS0KFSF5JW","either","7","","","","","","","0","0","1","","0.2430363771","0.4","0.6","0.8","0.2","0.1378203382","0.2430363771","0.248712437","0.2911002833","","","","","","","","","","","74","J","1","","","149","main_expt"
"296","","bandit","228","813557","0.0-189.0-0.0","44615728","wem/bandit_either","A1XDMS0KFSF5JW","either","7","","","","","","","0","0","1","0.179144869","","0.4","0.6","0.8","0.2","","","","","0.1414499273","0.2242182381","0.179144869","0.3529655025","","","","","","","75","K","2","","","150","main_expt"
"328","","bandit","229","815433","0.0-190.0-0.0","44615728","wem/bandit_either","A1XDMS0KFSF5JW","either","7","","","","","","","0","1","0","","0.3885741111","0.4","0.6","0.8","0.2","0.07852348772","0.1997145133","0.1545669956","0.3885741111","","","","","","","","","","","76","L","3","","","151","main_expt"
"337","","bandit","230","817317","0.0-191.0-0.0","44615728","wem/bandit_either","A1XDMS0KFSF5JW","either","7","","","","","","","0","0","1","","0.3690499696","0.4","0.6","0.8","0.2","0.08485793113","0.2195927633","0.1651714415","0.3690499696","","","","","","","","","","","76","L","3","","","152","main_expt"
"314","","bandit","231","819179","0.0-192.0-0.0","44615728","wem/bandit_either","A1XDMS0KFSF5JW","either","7","","","","","","","0","0","1","","0.3710492515","0.4","0.6","0.8","0.2","0.1083789561","0.2121816628","0.2396245514","0.3710492515","","","","","","","","","","","76","L","3","","","153","main_expt"
"439","","bandit","232","821168","0.0-193.0-0.0","44615728","wem/bandit_either","A1XDMS0KFSF5JW","either","7","","","","","","","0","0","1","","0.3483335413","0.4","0.6","0.8","0.2","0.109098481","0.1830588608","0.2085838567","0.3483335413","","","","","","","","","","","76","L","3","","","154","main_expt"
"274","","bandit","233","823058","0.0-194.0-0.0","44615728","wem/bandit_either","A1XDMS0KFSF5JW","either","7","","","","","","","0","0","1","","0.3343760247","0.4","0.6","0.8","0.2","0.1758262092","0.2031423662","0.1864274254","0.3343760247","","","","","","","","","","","76","L","3","","","155","main_expt"
"335","","bandit","234","824945","0.0-195.0-0.0","44615728","wem/bandit_either","A1XDMS0KFSF5JW","either","7","","","","","","","0","0","1","","0.3742013553","0.4","0.6","0.8","0.2","0.2046597001","0.2022731065","0.1750870897","0.3742013553","","","","","","","","","","","76","L","3","","","156","main_expt"
"194","","bandit","235","826705","0.0-196.0-0.0","44615728","wem/bandit_either","A1XDMS0KFSF5JW","either","7","","","","","","","0","0","1","","0.1774751899","0.4","0.6","0.8","0.2","0.1774751899","0.1826661219","0.1321985386","0.3620366094","","","","","","","","","","","72","H","0","img/none_selected.jpg","","157","main_expt"
"317","","bandit","236","828770","0.0-197.0-0.0","44615728","wem/bandit_either","A1XDMS0KFSF5JW","either","7","","","","","","","0","1","0","","0.1612033886","0.4","0.6","0.8","0.2","0.1612033886","0.1658993888","0.1341899746","0.3671714071","","","","","","","","","","","72","H","0","img/none_selected.jpg","","158","main_expt"
"278","","bandit","237","830694","0.0-198.0-0.0","44615728","wem/bandit_either","A1XDMS0KFSF5JW","either","7","","","","","","","0","0","1","","0.1586838935","0.4","0.6","0.8","0.2","0.1586838935","0.1620079643","0.1567784951","0.4015988616","","","","","","","","","","","72","H","0","img/none_selected.jpg","","159","main_expt"
"454","","bandit","238","832689","0.0-199.0-0.0","44615728","wem/bandit_either","A1XDMS0KFSF5JW","either","7","","","","","","","0","0","1","","0.2159944071","0.4","0.6","0.8","0.2","0.2159944071","0.2453635642","0.1615549635","0.4004877553","","","","","","","","","","","72","H","0","img/none_selected.jpg","","160","main_expt"
"355","","bandit","239","834585","0.0-200.0-0.0","44615728","wem/bandit_either","A1XDMS0KFSF5JW","either","7","","","","","","","1","0","0","0.2105769377","","0.4","0.6","0.8","0.2","","","","","0.2105769377","0.2456373749","0.1854631015","0.4095849454","","","","","","","72","H","0","img/none_selected.jpg","","161","main_expt"
"298","","bandit","240","836424","0.0-201.0-0.0","44615728","wem/bandit_either","A1XDMS0KFSF5JW","either","7","","","","","","","0","1","0","","0.2006925765","0.4","0.6","0.8","0.2","0.2006925765","0.2460125232","0.21229469","0.3978002783","","","","","","","","","","","72","H","0","img/none_selected.jpg","","162","main_expt"
"328","","bandit","241","838308","0.0-202.0-0.0","44615728","wem/bandit_either","A1XDMS0KFSF5JW","either","7","","","","","","","0","1","0","","0.2365124807","0.4","0.6","0.8","0.2","0.2365124807","0.2013568893","0.162194177","0.4180552148","","","","","","","","","","","72","H","0","img/none_selected.jpg","","163","main_expt"
"383","","bandit","242","840235","0.0-203.0-0.0","44615728","wem/bandit_either","A1XDMS0KFSF5JW","either","7","","","","","","","0","0","1","","0.2157370886","0.4","0.6","0.8","0.2","0.2157370886","0.1933595846","0.1535707797","0.4407560021","","","","","","","","","","","72","H","0","img/none_selected.jpg","","164","main_expt"
"279","","bandit","243","842055","0.0-204.0-0.0","44615728","wem/bandit_either","A1XDMS0KFSF5JW","either","7","","","","","","","0","0","1","","0.2166787898","0.4","0.6","0.8","0.2","0.2166787898","0.167552211","0.2315934193","0.4582960521","","","","","","","","","","","72","H","0","img/none_selected.jpg","","165","main_expt"
"290","","bandit","244","843888","0.0-205.0-0.0","44615728","wem/bandit_either","A1XDMS0KFSF5JW","either","7","","","","","","","0","0","1","","0.1846262972","0.4","0.6","0.8","0.2","0.1846262972","0.1311237951","0.2579087381","0.4337500892","","","","","","","","","","","72","H","0","img/none_selected.jpg","","166","main_expt"
"290","","bandit","245","845720","0.0-206.0-0.0","44615728","wem/bandit_either","A1XDMS0KFSF5JW","either","7","","","","","","","1","0","0","0.1888750078","","0.4","0.6","0.8","0.2","","","","","0.1888750078","0.1714029316","0.2496457694","0.4537582576","","","","","","","72","H","0","img/none_selected.jpg","","167","main_expt"
"482","","bandit","246","847744","0.0-207.0-0.0","44615728","wem/bandit_either","A1XDMS0KFSF5JW","either","7","","","","","","","0","1","0","","0.2315683769","0.4","0.6","0.8","0.2","0.2315683769","0.1494402723","0.234558796","0.4473485534","","","","","","","","","","","72","H","0","img/none_selected.jpg","","168","main_expt"
"310","","bandit","247","849624","0.0-208.0-0.0","44615728","wem/bandit_either","A1XDMS0KFSF5JW","either","7","","","","","","","0","0","1","","0.2018123945","0.4","0.6","0.8","0.2","0.2018123945","0.1819888556","0.2458600006","0.4471591033","","","","","","","","","","","72","H","0","img/none_selected.jpg","","169","main_expt"
"309","","bandit","248","851522","0.0-209.0-0.0","44615728","wem/bandit_either","A1XDMS0KFSF5JW","either","7","","","","","","","0","0","1","","0.139238222","0.4","0.6","0.8","0.2","0.139238222","0.2329206984","0.2214583157","0.4581839475","","","","","","","","","","","72","H","0","img/none_selected.jpg","","170","main_expt"
"360","","bandit","249","853445","0.0-210.0-0.0","44615728","wem/bandit_either","A1XDMS0KFSF5JW","either","7","","","","","","","0","0","1","0.1466511374","","0.4","0.6","0.8","0.2","","","","","0.1466511374","0.2000607923","0.296208115","0.4674995421","","","","","","","72","H","0","img/none_selected.jpg","","171","main_expt"
"263","","bandit","250","855667","0.0-211.0-0.0","44615728","wem/bandit_either","A1XDMS0KFSF5JW","either","7","","","","","","","0","0","1","","0.1348290388","0.4","0.6","0.8","0.2","0.1348290388","0.2342957318","0.3062379281","0.4455620345","","","","","","","","","","","72","H","0","img/none_selected.jpg","","172","main_expt"
"2","","bandit","251","857263","0.0-212.0-0.0","44615728","wem/bandit_either","A1XDMS0KFSF5JW","either","7","","","","","","","0","0","1","0.1521691919","","0.4","0.6","0.8","0.2","","","","","0.1521691919","0.2189308077","0.2498067723","0.4471610379","","","","","","","72","H","0","img/none_selected.jpg","","173","main_expt"
"467","","bandit","252","859307","0.0-213.0-0.0","44615728","wem/bandit_either","A1XDMS0KFSF5JW","either","7","","","","","","","0","0","1","","0.2373932689","0.4","0.6","0.8","0.2","0.2191935525","0.2373932689","0.1803522277","0.4496576915","","","","","","","","","","","74","J","1","","","174","main_expt"
"258","","bandit","253","861153","0.0-214.0-0.0","44615728","wem/bandit_either","A1XDMS0KFSF5JW","either","7","","","","","","","0","0","1","","0.2160264752","0.4","0.6","0.8","0.2","0.219961305","0.2160264752","0.2014319342","0.4715297358","","","","","","","","","","","74","J","1","","","175","main_expt"
"163","","bandit","254","862879","0.0-215.0-0.0","44615728","wem/bandit_either","A1XDMS0KFSF5JW","either","7","","","","","","","0","0","1","","0.1990604306","0.4","0.6","0.8","0.2","0.1882485239","0.1990604306","0.2122003168","0.477956151","","","","","","","","","","","74","J","1","","","176","main_expt"
"188","","bandit","255","864682","0.0-216.0-0.0","44615728","wem/bandit_either","A1XDMS0KFSF5JW","either","7","","","","","","","1","0","0","0.1729978196","","0.4","0.6","0.8","0.2","","","","","0.1644902553","0.1729978196","0.2629069455","0.4563721206","","","","","","","74","J","1","","","177","main_expt"
"319","","bandit","256","866554","0.0-217.0-0.0","44615728","wem/bandit_either","A1XDMS0KFSF5JW","either","7","","","","","","","0","1","0","","0.1633080779","0.4","0.6","0.8","0.2","0.1713669852","0.1633080779","0.2336104206","0.4409869931","","","","","","","","","","","74","J","1","","","178","main_expt"
"311","","bandit","257","868426","0.0-218.0-0.0","44615728","wem/bandit_either","A1XDMS0KFSF5JW","either","7","","","","","","","0","0","1","0.1243251356","","0.4","0.6","0.8","0.2","","","","","0.2263400462","0.1243251356","0.1887504226","0.4243126063","","","","","","","74","J","1","","","179","main_expt"
"432","","bandit","258","870413","0.0-219.0-0.0","44615728","wem/bandit_either","A1XDMS0KFSF5JW","either","7","","","","","","","1","0","0","0.1150149055","","0.4","0.6","0.8","0.2","","","","","0.2036870175","0.1150149055","0.138376641","0.4312830743","","","","","","","74","J","1","","","180","main_expt"
"327","","bandit","259","872290","0.0-220.0-0.0","44615728","wem/bandit_either","A1XDMS0KFSF5JW","either","7","","","","","","","0","1","0","","0.1407924877","0.4","0.6","0.8","0.2","0.1934599198","0.1407924877","0.1883992559","0.4433127893","","","","","","","","","","","74","J","1","","","181","main_expt"
"370","","bandit","260","874209","0.0-221.0-0.0","44615728","wem/bandit_either","A1XDMS0KFSF5JW","either","7","","","","","","","0","0","1","0.09672650852","","0.4","0.6","0.8","0.2","","","","","0.2424515525","0.09672650852","0.128889003","0.440136403","","","","","","","74","J","1","","","182","main_expt"
"237","","bandit","261","875994","0.0-222.0-0.0","44615728","wem/bandit_either","A1XDMS0KFSF5JW","either","7","","","","","","","0","0","1","","0.09888002855","0.4","0.6","0.8","0.2","0.1961777535","0.09888002855","0.1748769843","0.4347693449","","","","","","","","","","","74","J","1","","","183","main_expt"
"9","","bandit","262","877551","0.0-223.0-0.0","44615728","wem/bandit_either","A1XDMS0KFSF5JW","either","7","","","","","","","0","0","1","0.07200145298","","0.4","0.6","0.8","0.2","","","","","0.1489283113","0.07200145298","0.1945994373","0.4277130926","","","","","","","74","J","1","","","184","main_expt"
"324","","bandit","263","879461","0.0-224.0-0.0","44615728","wem/bandit_either","A1XDMS0KFSF5JW","either","7","","","","","","","0","0","1","","0.09476413333","0.4","0.6","0.8","0.2","0.1499965078","0.09476413333","0.1644748654","0.3956248437","","","","","","","","","","","74","J","1","","","185","main_expt"
"161","","bandit","264","881296","0.0-225.0-0.0","44615728","wem/bandit_either","A1XDMS0KFSF5JW","either","7","","","","","","","0","0","1","0.06556422103","","0.4","0.6","0.8","0.2","","","","","0.2169832988","0.06556422103","0.1504635592","0.3748928266","","","","","","","74","J","1","","","186","main_expt"
"2","","bandit","265","882905","0.0-226.0-0.0","44615728","wem/bandit_either","A1XDMS0KFSF5JW","either","7","","","","","","","0","0","1","0.08901149072","","0.4","0.6","0.8","0.2","","","","","0.2655186329","0.08901149072","0.1760039214","0.3848139325","","","","","","","74","J","1","","","187","main_expt"
"293","","bandit","266","884743","0.0-227.0-0.0","44615728","wem/bandit_either","A1XDMS0KFSF5JW","either","7","","","","","","","1","0","0","0.09471428588","","0.4","0.6","0.8","0.2","","","","","0.2738785118","0.09471428588","0.1203267588","0.3990176401","","","","","","","74","J","1","","","188","main_expt"
"385","","bandit","267","886675","0.0-228.0-0.0","44615728","wem/bandit_either","A1XDMS0KFSF5JW","either","7","","","","","","","0","0","1","0.05118235823","","0.4","0.6","0.8","0.2","","","","","0.3041874674","0.05118235823","0.1171540391","0.3581396838","","","","","","","74","J","1","","","189","main_expt"
"193","","bandit","268","888424","0.0-229.0-0.0","44615728","wem/bandit_either","A1XDMS0KFSF5JW","either","7","","","","","","","0","0","1","0.1535230761","","0.4","0.6","0.8","0.2","","","","","0.3229453735","0.05788318751","0.1535230761","0.2882972244","","","","","","","75","K","2","","","190","main_expt"
"199","","bandit","269","890183","0.0-230.0-0.0","44615728","wem/bandit_either","A1XDMS0KFSF5JW","either","7","","","","","","","0","0","1","0.1372750947","","0.4","0.6","0.8","0.2","","","","","0.3818249757","0.08736915481","0.1372750947","0.3145326233","","","","","","","75","K","2","","","191","main_expt"
"222","","bandit","270","891952","0.0-231.0-0.0","44615728","wem/bandit_either","A1XDMS0KFSF5JW","either","7","","","","","","","1","0","0","0.1047771501","","0.4","0.6","0.8","0.2","","","","","0.4157726243","0.08251019118","0.1047771501","0.3270603702","","","","","","","75","K","2","","","192","main_expt"
"224","","bandit","271","893720","0.0-232.0-0.0","44615728","wem/bandit_either","A1XDMS0KFSF5JW","either","7","","","","","","","0","0","1","0.1100845432","","0.4","0.6","0.8","0.2","","","","","0.4611608212","0.06897628064","0.1100845432","0.3604030797","","","","","","","75","K","2","","","193","main_expt"
"187","","bandit","272","895557","0.0-233.0-0.0","44615728","wem/bandit_either","A1XDMS0KFSF5JW","either","7","","","","","","","0","0","1","0.1468163818","","0.4","0.6","0.8","0.2","","","","","0.4508818777","0.06801266305","0.1468163818","0.357423186","","","","","","","75","K","2","","","194","main_expt"
"1413","","bandit","273","898556","0.0-234.0-0.0","44615728","wem/bandit_either","A1XDMS0KFSF5JW","either","7","","","","","","","0","0","1","","0.1495594621","0.4","0.6","0.8","0.2","0.4278921451","0.09923709358","0.1495594621","0.3697779856","","","","","","","","","","","75","K","2","","","195","main_expt"
"372","","bandit","274","900627","0.0-235.0-0.0","44615728","wem/bandit_either","A1XDMS0KFSF5JW","either","7","","","","","","","0","0","1","0.2263220537","","0.4","0.6","0.8","0.2","","","","","0.4256293003","0.1103063831","0.2263220537","0.3617177512","","","","","","","75","K","2","","","196","main_expt"
"480","","bandit","275","902725","0.0-236.0-0.0","44615728","wem/bandit_either","A1XDMS0KFSF5JW","either","7","","","","","","","1","0","0","0.2204718804","","0.4","0.6","0.8","0.2","","","","","0.4476975038","0.07377144043","0.2204718804","0.3775990084","","","","","","","75","K","2","","","197","main_expt"
"302","","bandit","276","904576","0.0-237.0-0.0","44615728","wem/bandit_either","A1XDMS0KFSF5JW","either","7","","","","","","","0","0","1","0.2401118457","","0.4","0.6","0.8","0.2","","","","","0.4434357272","0.08863448313","0.2401118457","0.4144042571","","","","","","","75","K","2","","","198","main_expt"
"79","","bandit","277","906201","0.0-238.0-0.0","44615728","wem/bandit_either","A1XDMS0KFSF5JW","either","7","","","","","","","0","0","1","0.2673724497","","0.4","0.6","0.8","0.2","","","","","0.4245114622","0.1082179128","0.2673724497","0.4081775392","","","","","","","75","K","2","","","199","main_expt"
"223","","bandit","278","907967","0.0-239.0-0.0","44615728","wem/bandit_either","A1XDMS0KFSF5JW","either","7","","","","","","","0","0","1","0.3125307902","","0.4","0.6","0.8","0.2","","","","","0.4087100315","0.09350688576","0.3125307902","0.4166156547","","","","","","","75","K","2","","","200","main_expt"
"305","","bandit","279","909818","0.0-240.0-0.0","44615728","wem/bandit_either","A1XDMS0KFSF5JW","either","7","","","","","","","0","1","0","","0.4306537176","0.4","0.6","0.8","0.2","0.4361521275","0.1036625099","0.2914574258","0.4306537176","","","","","","","","","","","76","L","3","","","201","main_expt"
"286","","bandit","280","911694","0.0-241.0-0.0","44615728","wem/bandit_either","A1XDMS0KFSF5JW","either","7","","","","","","","1","0","0","0.449382563","","0.4","0.6","0.8","0.2","","","","","0.3332596158","0.1216733889","0.2550600684","0.449382563","","","","","","","76","L","3","","","202","main_expt"
"308","","bandit","281","913619","0.0-242.0-0.0","44615728","wem/bandit_either","A1XDMS0KFSF5JW","either","7","","","","","","","0","0","1","0.4506576586","","0.4","0.6","0.8","0.2","","","","","0.3581848779","0.120655788","0.2769745997","0.4506576586","","","","","","","76","L","3","","","203","main_expt"
"442","","bandit","282","915629","0.0-243.0-0.0","44615728","wem/bandit_either","A1XDMS0KFSF5JW","either","7","","","","","","","0","1","0","","0.454839243","0.4","0.6","0.8","0.2","0.3597133043","0.1082970726","0.2752990059","0.454839243","","","","","","","","","","","76","L","3","","","204","main_expt"
"309","","bandit","283","917503","0.0-244.0-0.0","44615728","wem/bandit_either","A1XDMS0KFSF5JW","either","7","","","","","","","0","0","1","","0.4512889682","0.4","0.6","0.8","0.2","0.3630183988","0.09143681274","0.2901512169","0.4512889682","","","","","","","","","","","76","L","3","","","205","main_expt"
"368","","bandit","284","919679","0.0-245.0-0.0","44615728","wem/bandit_either","A1XDMS0KFSF5JW","either","7","","","","","","","0","0","1","","0.4591490044","0.4","0.6","0.8","0.2","0.3737494834","0.08377413986","0.2823763913","0.4591490044","","","","","","","","","","","76","L","3","","","206","main_expt"
"79","","bandit","285","921856","0.0-246.0-0.0","44615728","wem/bandit_either","A1XDMS0KFSF5JW","either","7","","","","","","","0","0","1","","0.4650593633","0.4","0.6","0.8","0.2","0.3668784438","0.1585073664","0.2708062506","0.4650593633","","","","","","","","","","","76","L","3","","","207","main_expt"
"1807","","bandit","286","925227","0.0-247.0-0.0","44615728","wem/bandit_either","A1XDMS0KFSF5JW","either","7","","","","","","","0","1","0","","0.4641513068","0.4","0.6","0.8","0.2","0.4045351895","0.162299901","0.2641553663","0.4641513068","","","","","","","","","","","76","L","3","","","208","main_expt"
"325","","bandit","287","927127","0.0-248.0-0.0","44615728","wem/bandit_either","A1XDMS0KFSF5JW","either","7","","","","","","","0","1","0","","0.4567807332","0.4","0.6","0.8","0.2","0.4402386934","0.1542266077","0.2704675845","0.4567807332","","","","","","","","","","","76","L","3","","","209","main_expt"
"314","","bandit","288","929097","0.0-249.0-0.0","44615728","wem/bandit_either","A1XDMS0KFSF5JW","either","7","","","","","","","0","0","1","","0.428253188","0.4","0.6","0.8","0.2","0.4483623408","0.1890415559","0.3420868926","0.428253188","","","","","","","","","","","76","L","3","","","210","main_expt"
"300","","bandit","289","930954","0.0-250.0-0.0","44615728","wem/bandit_either","A1XDMS0KFSF5JW","either","7","","","","","","","0","0","1","0.410271385","","0.4","0.6","0.8","0.2","","","","","0.4471415093","0.1818133019","0.3069688952","0.410271385","","","","","","","76","L","3","","","211","main_expt"
"302","","bandit","290","932811","0.0-251.0-0.0","44615728","wem/bandit_either","A1XDMS0KFSF5JW","either","7","","","","","","","0","1","0","","0.4065587724","0.4","0.6","0.8","0.2","0.4374655127","0.1782747956","0.3005379093","0.4065587724","","","","","","","","","","","76","L","3","","","212","main_expt"
"338","","bandit","291","934699","0.0-252.0-0.0","44615728","wem/bandit_either","A1XDMS0KFSF5JW","either","7","","","","","","","0","0","1","","0.4007116542","0.4","0.6","0.8","0.2","0.4381457257","0.1935195711","0.213882915","0.4007116542","","","","","","","","","","","76","L","3","","","213","main_expt"
"293","","bandit","292","936543","0.0-253.0-0.0","44615728","wem/bandit_either","A1XDMS0KFSF5JW","either","7","","","","","","","0","0","1","","0.4246209323","0.4","0.6","0.8","0.2","0.4643769008","0.2421176173","0.2138557204","0.4246209323","","","","","","","","","","","76","L","3","","","214","main_expt"
"21","","bandit","293","938155","0.0-254.0-0.0","44615728","wem/bandit_either","A1XDMS0KFSF5JW","either","7","","","","","","","0","0","1","","0.3993057066","0.4","0.6","0.8","0.2","0.4328812357","0.2629876012","0.2142566612","0.3993057066","","","","","","","","","","","76","L","3","","","215","main_expt"
"245","","bandit","294","940039","0.0-255.0-0.0","44615728","wem/bandit_either","A1XDMS0KFSF5JW","either","7","","","","","","","0","0","1","","0.3987772474","0.4","0.6","0.8","0.2","0.4064507999","0.2977714141","0.1900351118","0.3987772474","","","","","","","","","","","76","L","3","","","216","main_expt"
"767","","bandit","295","942383","0.0-256.0-0.0","44615728","wem/bandit_either","A1XDMS0KFSF5JW","either","7","","","","","","","0","1","0","","0.4101433534","0.4","0.6","0.8","0.2","0.4197961641","0.3017601552","0.2185169477","0.4101433534","","","","","","","","","","","76","L","3","","","217","main_expt"
"535","","bandit","296","944634","0.0-257.0-0.0","44615728","wem/bandit_either","A1XDMS0KFSF5JW","either","7","","","","","","","0","1","0","","0.4448029092","0.4","0.6","0.8","0.2","0.4167397569","0.2888566207","0.2240895604","0.4448029092","","","","","","","","","","","76","L","3","","","218","main_expt"
"267","","bandit","297","946459","0.0-258.0-0.0","44615728","wem/bandit_either","A1XDMS0KFSF5JW","either","7","","","","","","","0","0","1","","0.4454766299","0.4","0.6","0.8","0.2","0.4250944588","0.2844008008","0.1990808675","0.4454766299","","","","","","","","","","","76","L","3","","","219","main_expt"
"355","","bandit","298","948371","0.0-259.0-0.0","44615728","wem/bandit_either","A1XDMS0KFSF5JW","either","7","","","","","","","0","1","0","","0.4610997771","0.4","0.6","0.8","0.2","0.4173336587","0.2225062479","0.266602996","0.4610997771","","","","","","","","","","","76","L","3","","","220","main_expt"
"351","","bandit","299","950275","0.0-260.0-0.0","44615728","wem/bandit_either","A1XDMS0KFSF5JW","either","7","","","","","","","0","1","0","","0.4642289789","0.4","0.6","0.8","0.2","0.3944711005","0.2409900116","0.2443661227","0.4642289789","","","","","","","","","","","76","L","3","","","221","main_expt"
"386","","bandit","300","952214","0.0-261.0-0.0","44615728","wem/bandit_either","A1XDMS0KFSF5JW","either","7","","","","","","","0","1","0","","0.4641270597","0.4","0.6","0.8","0.2","0.3619306912","0.1989678636","0.2205922116","0.4641270597","","","","","","","","","","","76","L","3","","","222","main_expt"
"455","","bandit","301","954226","0.0-262.0-0.0","44615728","wem/bandit_either","A1XDMS0KFSF5JW","either","7","","","","","","","0","1","0","","0.4697433819","0.4","0.6","0.8","0.2","0.4117842179","0.1902867071","0.1861223506","0.4697433819","","","","","","","","","","","76","L","3","","","223","main_expt"
"246","","bandit","302","956080","0.0-263.0-0.0","44615728","wem/bandit_either","A1XDMS0KFSF5JW","either","7","","","","","","","0","0","1","","0.460898083","0.4","0.6","0.8","0.2","0.3965092367","0.2076415522","0.1668884863","0.460898083","","","","","","","","","","","76","L","3","","","224","main_expt"
"594","","bandit","303","958225","0.0-264.0-0.0","44615728","wem/bandit_either","A1XDMS0KFSF5JW","either","7","","","","","","","0","0","1","","0.4394890665","0.4","0.6","0.8","0.2","0.4084477862","0.2393469174","0.1481472712","0.4394890665","","","","","","","","","","","76","L","3","","","225","main_expt"
"313","","bandit","304","960092","0.0-265.0-0.0","44615728","wem/bandit_either","A1XDMS0KFSF5JW","either","7","","","","","","","1","0","0","0.4520955237","","0.4","0.6","0.8","0.2","","","","","0.4104601526","0.2425440376","0.1140846591","0.4520955237","","","","","","","76","L","3","","","226","main_expt"
"388","","bandit","305","962112","0.0-266.0-0.0","44615728","wem/bandit_either","A1XDMS0KFSF5JW","either","7","","","","","","","0","0","1","","0.4324220164","0.4","0.6","0.8","0.2","0.3899733519","0.2365603363","0.1074218354","0.4324220164","","","","","","","","","","","76","L","3","","","227","main_expt"
"306","","bandit","306","964038","0.0-267.0-0.0","44615728","wem/bandit_either","A1XDMS0KFSF5JW","either","7","","","","","","","0","0","1","","0.4220482421","0.4","0.6","0.8","0.2","0.3796730737","0.2127958296","0.08065165665","0.4220482421","","","","","","","","","","","76","L","3","","","228","main_expt"
"445","","bandit","307","966207","0.0-268.0-0.0","44615728","wem/bandit_either","A1XDMS0KFSF5JW","either","7","","","","","","","0","1","0","","0.3885749154","0.4","0.6","0.8","0.2","0.4046866514","0.2207861463","0.07774059362","0.3885749154","","","","","","","","","","","76","L","3","","","229","main_expt"
"357","","bandit","308","968532","0.0-269.0-0.0","44615728","wem/bandit_either","A1XDMS0KFSF5JW","either","7","","","","","","","0","0","1","","0.4023755806","0.4","0.6","0.8","0.2","0.3988793555","0.2589226453","0.1109483114","0.4023755806","","","","","","","","","","","76","L","3","","","230","main_expt"
"3","","bandit","309","970195","0.0-270.0-0.0","44615728","wem/bandit_either","A1XDMS0KFSF5JW","either","7","","","","","","","1","0","0","0.3768725222","","0.4","0.6","0.8","0.2","","","","","0.3981898202","0.2956158432","0.05902300203","0.3768725222","","","","","","","76","L","3","","","231","main_expt"
"350","","bandit","310","972131","0.0-271.0-0.0","44615728","wem/bandit_either","A1XDMS0KFSF5JW","either","7","","","","","","","1","0","0","0.3619917427","","0.4","0.6","0.8","0.2","","","","","0.4411941832","0.3202484073","0.06675855664","0.3619917427","","","","","","","76","L","3","","","232","main_expt"
"351","","bandit","311","974047","0.0-272.0-0.0","44615728","wem/bandit_either","A1XDMS0KFSF5JW","either","7","","","","","","","0","1","0","","0.3833578816","0.4","0.6","0.8","0.2","0.42967461","0.2933644042","0.06703699679","0.3833578816","","","","","","","","","","","76","L","3","","","233","main_expt"
"328","","bandit","312","975930","0.0-273.0-0.0","44615728","wem/bandit_either","A1XDMS0KFSF5JW","either","7","","","","","","","1","0","0","0.3552131768","","0.4","0.6","0.8","0.2","","","","","0.4242798354","0.3106154811","0.05331023031","0.3552131768","","","","","","","76","L","3","","","234","main_expt"
"290","","bandit","313","977812","0.0-274.0-0.0","44615728","wem/bandit_either","A1XDMS0KFSF5JW","either","7","","","","","","","0","0","1","","0.3135084543","0.4","0.6","0.8","0.2","0.4617388459","0.3158990995","0.05187545802","0.3135084543","","","","","","","","","","","76","L","3","","","235","main_expt"
"358","","bandit","314","979789","0.0-275.0-0.0","44615728","wem/bandit_either","A1XDMS0KFSF5JW","either","7","","","","","","","0","0","1","","0.244945467","0.4","0.6","0.8","0.2","0.4619510484","0.3036927748","0.06939909985","0.244945467","","","","","","","","","","","76","L","3","","","236","main_expt"
"297","","bandit","315","981748","0.0-276.0-0.0","44615728","wem/bandit_either","A1XDMS0KFSF5JW","either","7","","","","","","","0","0","1","","0.1823839079","0.4","0.6","0.8","0.2","0.4482398789","0.3491021326","0.1210409879","0.1823839079","","","","","","","","","","","76","L","3","","","237","main_expt"
"396","","bandit","316","983856","0.0-277.0-0.0","44615728","wem/bandit_either","A1XDMS0KFSF5JW","either","7","","","","","","","0","0","1","","0.1685050226","0.4","0.6","0.8","0.2","0.4193969143","0.3939254097","0.1147840357","0.1685050226","","","","","","","","","","","76","L","3","","","238","main_expt"
"312","","bandit","317","985731","0.0-278.0-0.0","44615728","wem/bandit_either","A1XDMS0KFSF5JW","either","7","","","","","","","0","1","0","","0.1606472637","0.4","0.6","0.8","0.2","0.4203848948","0.379108978","0.1006463842","0.1606472637","","","","","","","","","","","76","L","3","","","239","main_expt"
"367","","bandit","318","987666","0.0-279.0-0.0","44615728","wem/bandit_either","A1XDMS0KFSF5JW","either","7","","","","","","","0","0","1","0.1512795466","","0.4","0.6","0.8","0.2","","","","","0.4489383263","0.3876209848","0.1008771133","0.1512795466","","","","","","","76","L","3","","","240","main_expt"
"434","","bandit","319","989684","0.0-280.0-0.0","44615728","wem/bandit_either","A1XDMS0KFSF5JW","either","7","","","","","","","0","0","1","","0.1916219391","0.4","0.6","0.8","0.2","0.4636195567","0.3839625774","0.09981833296","0.1916219391","","","","","","","","","","","76","L","3","","","241","main_expt"
"378","","bandit","320","991842","0.0-281.0-0.0","44615728","wem/bandit_either","A1XDMS0KFSF5JW","either","7","","","","","","","0","0","1","","0.1641013935","0.4","0.6","0.8","0.2","0.4575307695","0.3477958629","0.1171772993","0.1641013935","","","","","","","","","","","76","L","3","","","242","main_expt"
"281","","bandit","321","993707","0.0-282.0-0.0","44615728","wem/bandit_either","A1XDMS0KFSF5JW","either","7","","","","","","","0","0","1","","0.2064320789","0.4","0.6","0.8","0.2","0.4449554393","0.3500658948","0.1239984651","0.2064320789","","","","","","","","","","","76","L","3","","","243","main_expt"
"284","","bandit","322","995552","0.0-283.0-0.0","44615728","wem/bandit_either","A1XDMS0KFSF5JW","either","7","","","","","","","0","0","1","","0.2205496082","0.4","0.6","0.8","0.2","0.4525763452","0.3452717574","0.1126152289","0.2205496082","","","","","","","","","","","76","L","3","","","244","main_expt"
"208","","bandit","323","997419","0.0-284.0-0.0","44615728","wem/bandit_either","A1XDMS0KFSF5JW","either","7","","","","","","","0","0","1","0.214276823","","0.4","0.6","0.8","0.2","","","","","0.4753838692","0.3162288444","0.1524829061","0.214276823","","","","","","","76","L","3","","","245","main_expt"
"790","","bandit","324","999804","0.0-285.0-0.0","44615728","wem/bandit_either","A1XDMS0KFSF5JW","either","7","","","","","","","1","0","0","0.4623654582","","0.4","0.6","0.8","0.2","","","","","0.4623654582","0.2894596967","0.1921750243","0.2084567316","","","","","","","72","H","0","img/none_selected.jpg","","246","main_expt"
"239","","bandit","325","1001627","0.0-286.0-0.0","44615728","wem/bandit_either","A1XDMS0KFSF5JW","either","7","","","","","","","0","0","1","","0.4331165165","0.4","0.6","0.8","0.2","0.4331165165","0.2642296388","0.1931065189","0.2232303491","","","","","","","","","","","72","H","0","img/none_selected.jpg","","247","main_expt"
"388","","bandit","326","1003581","0.0-287.0-0.0","44615728","wem/bandit_either","A1XDMS0KFSF5JW","either","7","","","","","","","0","0","1","0.4401602984","","0.4","0.6","0.8","0.2","","","","","0.4401602984","0.2534255255","0.2189994516","0.2541796534","","","","","","","72","H","0","img/none_selected.jpg","","248","main_expt"
"434","","bandit","327","1005608","0.0-288.0-0.0","44615728","wem/bandit_either","A1XDMS0KFSF5JW","either","7","","","","","","","0","0","1","","0.430892824","0.4","0.6","0.8","0.2","0.430892824","0.2252980971","0.1989243371","0.232462199","","","","","","","","","","","72","H","0","img/none_selected.jpg","","249","main_expt"
"175","","bandit","328","1007350","0.0-289.0-0.0","44615728","wem/bandit_either","A1XDMS0KFSF5JW","either","7","","","","","","","0","1","0","","0.4282509168","0.4","0.6","0.8","0.2","0.4282509168","0.298830738","0.1635706079","0.2877664065","","","","","","","","","","","72","H","0","img/none_selected.jpg","","250","main_expt"
"326","","bandit","329","1009234","0.0-290.0-0.0","44615728","wem/bandit_either","A1XDMS0KFSF5JW","either","7","","","","","","","1","0","0","0.4499649657","","0.4","0.6","0.8","0.2","","","","","0.4499649657","0.3113207693","0.1738575253","0.2947451014","","","","","","","72","H","0","img/none_selected.jpg","","251","main_expt"
"318","","bandit","330","1011254","0.0-291.0-0.0","44615728","wem/bandit_either","A1XDMS0KFSF5JW","either","7","","","","","","","0","1","0","","0.458069626","0.4","0.6","0.8","0.2","0.458069626","0.2952600368","0.1868362494","0.2581410112","","","","","","","","","","","72","H","0","img/none_selected.jpg","","252","main_expt"
"186","","bandit","331","1013023","0.0-292.0-0.0","44615728","wem/bandit_either","A1XDMS0KFSF5JW","either","7","","","","","","","0","1","0","","0.4419078322","0.4","0.6","0.8","0.2","0.4419078322","0.2837805879","0.1888839862","0.2526573277","","","","","","","","","","","72","H","0","img/none_selected.jpg","","253","main_expt"
"280","","bandit","332","1014868","0.0-293.0-0.0","44615728","wem/bandit_either","A1XDMS0KFSF5JW","either","7","","","","","","","0","0","1","0.4374591364","","0.4","0.6","0.8","0.2","","","","","0.4374591364","0.2664224025","0.1763585164","0.2625272406","","","","","","","72","H","0","img/none_selected.jpg","","254","main_expt"
