"rt","responses","trial_type","trial_index","time_elapsed","internal_node_id","subjID","study","MID","cond","drift","key_press","expt_phase","target","like","value","connected","gems","bombs","no_reward","GemPrChosen","BombPrChosen","GainOverPainPr_0","GainOverPainPr_1","GainOverPainPr_2","GainOverPainPr_3","LosePr_0","LosePr_1","LosePr_2","LosePr_3","WinPr_0","WinPr_1","WinPr_2","WinPr_3","Q0","Q1","Q2","gender","age","ethnicity","respCharCode","respKey","respChoiceNum","respChoice","practice","trial_counter","trial_label"
"12768","{""Q0"":""AMUV60QYHNUR3""}","survey-text","0","12774","0.0-0.0","44688841","wem/bandit_either","AMUV60QYHNUR3","either","3","","","","","","","","","","","","","","","","","","","","","","","","","","","","","","","","","","","",""
"4272","","text","1","18050","0.0-1.0","44688841","wem/bandit_either","AMUV60QYHNUR3","either","3","32","","","","","","","","","","","","","","","","","","","","","","","","","","","","","","","","","","",""
"15479","","text","2","33531","0.0-2.0","44688841","wem/bandit_either","AMUV60QYHNUR3","either","3","32","","","","","","","","","","","","","","","","","","","","","","","","","","","","","","","","","","",""
"17493","","text","3","51026","0.0-3.0","44688841","wem/bandit_either","AMUV60QYHNUR3","either","3","32","","","","","","","","","","","","","","","","","","","","","","","","","","","","","","","","","","",""
"17405","","text","4","68433","0.0-4.0","44688841","wem/bandit_either","AMUV60QYHNUR3","either","3","32","","","","","","","","","","","","","","","","","","","","","","","","","","","","","","","","","","",""
"9949","","text","5","78383","0.0-5.0","44688841","wem/bandit_either","AMUV60QYHNUR3","either","3","32","","","","","","","","","","","","","","","","","","","","","","","","","","","","","","","","","","",""
"6783","","text","6","85168","0.0-6.0","44688841","wem/bandit_either","AMUV60QYHNUR3","either","3","32","","","","","","","","","","","","","","","","","","","","","","","","","","","","","","","","","","",""
"4606","","text","7","89775","0.0-7.0","44688841","wem/bandit_either","AMUV60QYHNUR3","either","3","32","","","","","","","","","","","","","","","","","","","","","","","","","","","","","","","","","","",""
"10986","","identification","8","100777","0.0-8.0-0.0","44688841","wem/bandit_either","AMUV60QYHNUR3","either","3","","identification_pre","the village of Zur","","","","","","","","","","","","","","","","","","","","","","","","","","","","","","","","",""
"3983","","identification","9","105773","0.0-8.0-1.0","44688841","wem/bandit_either","AMUV60QYHNUR3","either","3","","identification_pre","the village of Nyx","","","","","","","","","","","","","","","","","","","","","","","","","","","","","","","","",""
"11784","","text","10","118561","0.0-9.0","44688841","wem/bandit_either","AMUV60QYHNUR3","either","3","32","","","","","","","","","","","","","","","","","","","","","","","","","","","","","","","","","","",""
"3547","","text","11","122110","0.0-10.0","44688841","wem/bandit_either","AMUV60QYHNUR3","either","3","32","","","","","","","","","","","","","","","","","","","","","","","","","","","","","","","","","","",""
"1879","","text","12","123991","0.0-11.0","44688841","wem/bandit_either","AMUV60QYHNUR3","either","3","32","","","","","","","","","","","","","","","","","","","","","","","","","","","","","","","","","","",""
"3511","","text","13","127503","0.0-12.0","44688841","wem/bandit_either","AMUV60QYHNUR3","either","3","32","","","","","","","","","","","","","","","","","","","","","","","","","","","","","","","","","","",""
"3326","","bandit","14","132337","0.0-13.0-0.0","44688841","wem/bandit_either","AMUV60QYHNUR3","either","3","","","","","","","0","0","1","0","0","","","","","0","","","","0","","","","","","","","","","74","J","0","img/none_selected_demo.jpg","true","0",""
"1917","","bandit","15","135759","0.0-14.0-0.0","44688841","wem/bandit_either","AMUV60QYHNUR3","either","3","","","","","","","0","0","1","0","0","","","","","0","","","","0","","","","","","","","","","75","K","0","img/none_selected_demo.jpg","true","0",""
"6577","","text","16","142337","0.0-15.0","44688841","wem/bandit_either","AMUV60QYHNUR3","either","3","32","","","","","","","","","","","","","","","","","","","","","","","","","","","","","","","","","","",""
"9181","","text","17","151519","0.0-16.0","44688841","wem/bandit_either","AMUV60QYHNUR3","either","3","32","","","","","","","","","","","","","","","","","","","","","","","","","","","","","","","","","","",""
"7976","","text","18","159497","0.0-17.0","44688841","wem/bandit_either","AMUV60QYHNUR3","either","3","32","","","","","","","","","","","","","","","","","","","","","","","","","","","","","","","","","","",""
"5286","","text","19","164783","0.0-18.0","44688841","wem/bandit_either","AMUV60QYHNUR3","either","3","32","","","","","","","","","","","","","","","","","","","","","","","","","","","","","","","","","","",""
"862","","bandit","20","167150","0.0-19.0-0.0","44688841","wem/bandit_either","AMUV60QYHNUR3","either","3","","","","","","","1","0","0","0.8","","0.5","0.5","","","","","","","0.8","0.2","","","","","","","","","74","J","0","img/none_selected_demo.jpg","true","0","80_20_practice"
"597","","bandit","21","169254","0.0-19.0-1.0","44688841","wem/bandit_either","AMUV60QYHNUR3","either","3","","","","","","","0","1","0","","0.8","0.5","0.5","","","0.8","0.2","","","","","","","","","","","","","74","J","0","img/none_selected_demo.jpg","true","0","80_20_practice"
"1111","","bandit","22","171872","0.0-19.0-2.0","44688841","wem/bandit_either","AMUV60QYHNUR3","either","3","","","","","","","1","0","0","0.8","","0.5","0.5","","","","","","","0.8","0.2","","","","","","","","","74","J","0","img/none_selected_demo.jpg","true","0","80_20_practice"
"886","","bandit","23","174263","0.0-19.0-3.0","44688841","wem/bandit_either","AMUV60QYHNUR3","either","3","","","","","","","0","1","0","","0.8","0.5","0.5","","","0.8","0.2","","","","","","","","","","","","","74","J","0","img/none_selected_demo.jpg","true","0","80_20_practice"
"598","","bandit","24","176367","0.0-19.0-4.0","44688841","wem/bandit_either","AMUV60QYHNUR3","either","3","","","","","","","0","1","0","","0.2","0.5","0.5","","","0.8","0.2","","","","","","","","","","","","","75","K","1","","true","0","80_20_practice"
"511","","bandit","25","178382","0.0-19.0-5.0","44688841","wem/bandit_either","AMUV60QYHNUR3","either","3","","","","","","","0","0","1","0.2","","0.5","0.5","","","","","","","0.8","0.2","","","","","","","","","75","K","1","","true","0","80_20_practice"
"814","","bandit","26","180701","0.0-19.0-6.0","44688841","wem/bandit_either","AMUV60QYHNUR3","either","3","","","","","","","0","0","1","0.2","","0.5","0.5","","","","","","","0.8","0.2","","","","","","","","","75","K","1","","true","0","80_20_practice"
"1240","","bandit","27","183445","0.0-19.0-7.0","44688841","wem/bandit_either","AMUV60QYHNUR3","either","3","","","","","","","0","0","1","0.2","","0.5","0.5","","","","","","","0.8","0.2","","","","","","","","","75","K","1","","true","0","80_20_practice"
"383","","bandit","28","185333","0.0-19.0-8.0","44688841","wem/bandit_either","AMUV60QYHNUR3","either","3","","","","","","","1","0","0","0.8","","0.5","0.5","","","","","","","0.8","0.2","","","","","","","","","74","J","0","img/none_selected_demo.jpg","true","0","80_20_practice"
"472","","bandit","29","187310","0.0-19.0-9.0","44688841","wem/bandit_either","AMUV60QYHNUR3","either","3","","","","","","","0","1","0","","0.8","0.5","0.5","","","0.8","0.2","","","","","","","","","","","","","74","J","0","img/none_selected_demo.jpg","true","0","80_20_practice"
"1440","","bandit","30","190254","0.0-19.0-10.0","44688841","wem/bandit_either","AMUV60QYHNUR3","either","3","","","","","","","0","0","1","","0.8","0.5","0.5","","","0.8","0.2","","","","","","","","","","","","","74","J","0","img/none_selected_demo.jpg","true","0","80_20_practice"
"712","","bandit","31","192472","0.0-19.0-11.0","44688841","wem/bandit_either","AMUV60QYHNUR3","either","3","","","","","","","0","0","1","0.8","","0.5","0.5","","","","","","","0.8","0.2","","","","","","","","","74","J","0","img/none_selected_demo.jpg","true","0","80_20_practice"
"548","","bandit","32","194525","0.0-19.0-12.0","44688841","wem/bandit_either","AMUV60QYHNUR3","either","3","","","","","","","0","1","0","","0.8","0.5","0.5","","","0.8","0.2","","","","","","","","","","","","","74","J","0","img/none_selected_demo.jpg","true","0","80_20_practice"
"231","","bandit","33","196261","0.0-19.0-13.0","44688841","wem/bandit_either","AMUV60QYHNUR3","either","3","","","","","","","0","1","0","","0.8","0.5","0.5","","","0.8","0.2","","","","","","","","","","","","","74","J","0","img/none_selected_demo.jpg","true","0","80_20_practice"
"1198","","bandit","34","198967","0.0-19.0-14.0","44688841","wem/bandit_either","AMUV60QYHNUR3","either","3","","","","","","","0","1","0","","0.8","0.5","0.5","","","0.8","0.2","","","","","","","","","","","","","74","J","0","img/none_selected_demo.jpg","true","0","80_20_practice"
"564","","bandit","35","201039","0.0-19.0-15.0","44688841","wem/bandit_either","AMUV60QYHNUR3","either","3","","","","","","","0","1","0","","0.8","0.5","0.5","","","0.8","0.2","","","","","","","","","","","","","74","J","0","img/none_selected_demo.jpg","true","0","80_20_practice"
"663","","bandit","36","203206","0.0-19.0-16.0","44688841","wem/bandit_either","AMUV60QYHNUR3","either","3","","","","","","","0","1","0","","0.8","0.5","0.5","","","0.8","0.2","","","","","","","","","","","","","74","J","0","img/none_selected_demo.jpg","true","0","80_20_practice"
"1126","","bandit","37","205836","0.0-19.0-17.0","44688841","wem/bandit_either","AMUV60QYHNUR3","either","3","","","","","","","0","0","1","0.8","","0.5","0.5","","","","","","","0.8","0.2","","","","","","","","","74","J","0","img/none_selected_demo.jpg","true","0","80_20_practice"
"185","","bandit","38","207527","0.0-19.0-18.0","44688841","wem/bandit_either","AMUV60QYHNUR3","either","3","","","","","","","0","0","1","","0.2","0.5","0.5","","","0.8","0.2","","","","","","","","","","","","","75","K","1","","true","0","80_20_practice"
"789","","bandit","39","209821","0.0-19.0-19.0","44688841","wem/bandit_either","AMUV60QYHNUR3","either","3","","","","","","","0","0","1","0.2","","0.5","0.5","","","","","","","0.8","0.2","","","","","","","","","75","K","1","","true","0","80_20_practice"
"5864","","text","40","215687","0.0-20.0","44688841","wem/bandit_either","AMUV60QYHNUR3","either","3","32","","","","","","","","","","","","","","","","","","","","","","","","","","","","","","","","","","",""
"853","","bandit","41","218044","0.0-21.0-0.0","44688841","wem/bandit_either","AMUV60QYHNUR3","either","3","","","","","","","1","0","0","1","0","","","","","0","1","","","1","0","","","","","","","","","74","J","0","img/none_selected_demo.jpg","true","0",""
"3750","","text","42","221799","0.0-22.0","44688841","wem/bandit_either","AMUV60QYHNUR3","either","3","32","","","","","","","","","","","","","","","","","","","","","","","","","","","","","","","","","","",""
"4910","","text","43","226712","0.0-23.0","44688841","wem/bandit_either","AMUV60QYHNUR3","either","3","32","","","","","","","","","","","","","","","","","","","","","","","","","","","","","","","","","","",""
"2893","","text","44","229607","0.0-24.0","44688841","wem/bandit_either","AMUV60QYHNUR3","either","3","32","","","","","","","","","","","","","","","","","","","","","","","","","","","","","","","","","","",""
"7111","","text","45","236720","0.0-25.0","44688841","wem/bandit_either","AMUV60QYHNUR3","either","3","32","","","","","","","","","","","","","","","","","","","","","","","","","","","","","","","","","","",""
"8037","","text","46","244759","0.0-26.0","44688841","wem/bandit_either","AMUV60QYHNUR3","either","3","32","","","","","","","","","","","","","","","","","","","","","","","","","","","","","","","","","","",""
"2623","","text","47","247383","0.0-27.0","44688841","wem/bandit_either","AMUV60QYHNUR3","either","3","32","","","","","","","","","","","","","","","","","","","","","","","","","","","","","","","","","","",""
"2030","","text","48","249415","0.0-28.0","44688841","wem/bandit_either","AMUV60QYHNUR3","either","3","32","","","","","","","","","","","","","","","","","","","","","","","","","","","","","","","","","","",""
"4133","","text","49","253550","0.0-29.0","44688841","wem/bandit_either","AMUV60QYHNUR3","either","3","32","","","","","","","","","","","","","","","","","","","","","","","","","","","","","","","","","","",""
"5768","","text","50","259320","0.0-30.0","44688841","wem/bandit_either","AMUV60QYHNUR3","either","3","32","","","","","","","","","","","","","","","","","","","","","","","","","","","","","","","","","","",""
"1427","","text","51","260749","0.0-31.0","44688841","wem/bandit_either","AMUV60QYHNUR3","either","3","32","","","","","","","","","","","","","","","","","","","","","","","","","","","","","","","","","","",""
"3582","","text","52","264334","0.0-32.0","44688841","wem/bandit_either","AMUV60QYHNUR3","either","3","32","","","","","","","","","","","","","","","","","","","","","","","","","","","","","","","","","","",""
"610","","bandit","53","266452","0.0-33.0-0.0","44688841","wem/bandit_either","AMUV60QYHNUR3","either","3","","","","","","","0","1","0","","0.8","0.5","0.5","0.5","0.5","0.8","0.2","0.6","0.2","","","","","","","","","","","72","H","0","img/none_selected.jpg","true","0","full_practice"
"406","","bandit","54","268364","0.0-33.0-1.0","44688841","wem/bandit_either","AMUV60QYHNUR3","either","3","","","","","","","0","1","0","","0.8","0.5","0.5","0.5","0.5","0.8","0.2","0.6","0.2","","","","","","","","","","","72","H","0","img/none_selected.jpg","true","0","full_practice"
"406","","bandit","55","270277","0.0-33.0-2.0","44688841","wem/bandit_either","AMUV60QYHNUR3","either","3","","","","","","","0","1","0","","0.8","0.5","0.5","0.5","0.5","0.8","0.2","0.6","0.2","","","","","","","","","","","72","H","0","img/none_selected.jpg","true","0","full_practice"
"326","","bandit","56","272108","0.0-33.0-3.0","44688841","wem/bandit_either","AMUV60QYHNUR3","either","3","","","","","","","1","0","0","0.8","","0.5","0.5","0.5","0.5","","","","","0.8","0.2","0.6","0.2","","","","","","","72","H","0","img/none_selected.jpg","true","0","full_practice"
"518","","bandit","57","274131","0.0-33.0-4.0","44688841","wem/bandit_either","AMUV60QYHNUR3","either","3","","","","","","","0","0","1","","0.2","0.5","0.5","0.5","0.5","0.8","0.2","0.6","0.2","","","","","","","","","","","74","J","1","","true","0","full_practice"
"1790","","bandit","58","277427","0.0-33.0-5.0","44688841","wem/bandit_either","AMUV60QYHNUR3","either","3","","","","","","","0","0","1","0.2","","0.5","0.5","0.5","0.5","","","","","0.8","0.2","0.6","0.2","","","","","","","74","J","1","","true","0","full_practice"
"366","","bandit","59","279300","0.0-33.0-6.0","44688841","wem/bandit_either","AMUV60QYHNUR3","either","3","","","","","","","0","0","1","","0.2","0.5","0.5","0.5","0.5","0.8","0.2","0.6","0.2","","","","","","","","","","","74","J","1","","true","0","full_practice"
"511","","bandit","60","281315","0.0-33.0-7.0","44688841","wem/bandit_either","AMUV60QYHNUR3","either","3","","","","","","","0","0","1","","0.2","0.5","0.5","0.5","0.5","0.8","0.2","0.6","0.2","","","","","","","","","","","74","J","1","","true","0","full_practice"
"199","","bandit","61","283020","0.0-33.0-8.0","44688841","wem/bandit_either","AMUV60QYHNUR3","either","3","","","","","","","0","0","1","","0.6","0.5","0.5","0.5","0.5","0.8","0.2","0.6","0.2","","","","","","","","","","","75","K","2","","true","0","full_practice"
"396","","bandit","62","284923","0.0-33.0-9.0","44688841","wem/bandit_either","AMUV60QYHNUR3","either","3","","","","","","","1","0","0","0.6","","0.5","0.5","0.5","0.5","","","","","0.8","0.2","0.6","0.2","","","","","","","75","K","2","","true","0","full_practice"
"406","","bandit","63","286836","0.0-33.0-10.0","44688841","wem/bandit_either","AMUV60QYHNUR3","either","3","","","","","","","0","1","0","","0.6","0.5","0.5","0.5","0.5","0.8","0.2","0.6","0.2","","","","","","","","","","","75","K","2","","true","0","full_practice"
"853","","bandit","64","289195","0.0-33.0-11.0","44688841","wem/bandit_either","AMUV60QYHNUR3","either","3","","","","","","","0","0","1","","0.6","0.5","0.5","0.5","0.5","0.8","0.2","0.6","0.2","","","","","","","","","","","75","K","2","","true","0","full_practice"
"407","","bandit","65","291117","0.0-33.0-12.0","44688841","wem/bandit_either","AMUV60QYHNUR3","either","3","","","","","","","0","0","1","","0.6","0.5","0.5","0.5","0.5","0.8","0.2","0.6","0.2","","","","","","","","","","","75","K","2","","true","0","full_practice"
"1398","","bandit","66","294022","0.0-33.0-13.0","44688841","wem/bandit_either","AMUV60QYHNUR3","either","3","","","","","","","1","0","0","0.6","","0.5","0.5","0.5","0.5","","","","","0.8","0.2","0.6","0.2","","","","","","","75","K","2","","true","0","full_practice"
"589","","bandit","67","296115","0.0-33.0-14.0","44688841","wem/bandit_either","AMUV60QYHNUR3","either","3","","","","","","","0","1","0","","0.6","0.5","0.5","0.5","0.5","0.8","0.2","0.6","0.2","","","","","","","","","","","75","K","2","","true","0","full_practice"
"558","","bandit","68","298179","0.0-33.0-15.0","44688841","wem/bandit_either","AMUV60QYHNUR3","either","3","","","","","","","0","1","0","","0.6","0.5","0.5","0.5","0.5","0.8","0.2","0.6","0.2","","","","","","","","","","","75","K","2","","true","0","full_practice"
"22","","bandit","69","299706","0.0-33.0-16.0","44688841","wem/bandit_either","AMUV60QYHNUR3","either","3","","","","","","","0","0","1","0.2","","0.5","0.5","0.5","0.5","","","","","0.8","0.2","0.6","0.2","","","","","","","76","L","3","","true","0","full_practice"
"392","","bandit","70","301603","0.0-33.0-17.0","44688841","wem/bandit_either","AMUV60QYHNUR3","either","3","","","","","","","0","0","1","","0.2","0.5","0.5","0.5","0.5","0.8","0.2","0.6","0.2","","","","","","","","","","","76","L","3","","true","0","full_practice"
"1071","","bandit","71","304180","0.0-33.0-18.0","44688841","wem/bandit_either","AMUV60QYHNUR3","either","3","","","","","","","0","1","0","","0.2","0.5","0.5","0.5","0.5","0.8","0.2","0.6","0.2","","","","","","","","","","","76","L","3","","true","0","full_practice"
"436","","bandit","72","306125","0.0-33.0-19.0","44688841","wem/bandit_either","AMUV60QYHNUR3","either","3","","","","","","","0","0","1","","0.2","0.5","0.5","0.5","0.5","0.8","0.2","0.6","0.2","","","","","","","","","","","76","L","3","","true","0","full_practice"
"4531","","text","73","310661","0.0-34.0","44688841","wem/bandit_either","AMUV60QYHNUR3","either","3","32","","","","","","","","","","","","","","","","","","","","","","","","","","","","","","","","","","",""
"10286","","text","74","321950","0.0-35.0","44688841","wem/bandit_either","AMUV60QYHNUR3","either","3","32","","","","","","","","","","","","","","","","","","","","","","","","","","","","","","","","","","",""
"266900","","text","75","588852","0.0-36.0","44688841","wem/bandit_either","AMUV60QYHNUR3","either","3","32","","","","","","","","","","","","","","","","","","","","","","","","","","","","","","","","","","",""
"10629","","text","76","599483","0.0-37.0","44688841","wem/bandit_either","AMUV60QYHNUR3","either","3","32","","","","","","","","","","","","","","","","","","","","","","","","","","","","","","","","","","",""
"4654","","text","77","604138","0.0-38.0","44688841","wem/bandit_either","AMUV60QYHNUR3","either","3","32","","","","","","","","","","","","","","","","","","","","","","","","","","","","","","","","","","",""
"8247","","text","78","612388","0.0-39.0","44688841","wem/bandit_either","AMUV60QYHNUR3","either","3","32","","","","","","","","","","","","","","","","","","","","","","","","","","","","","","","","","","",""
"1986","","bandit","79","615881","0.0-40.0-0.0","44688841","wem/bandit_either","AMUV60QYHNUR3","either","3","","","","","","","0","0","1","0.07685641067","","0.6","0.2","0.4","0.8","","","","","0.07685641067","0.1646489015","0.1426046982","0.4870892339","","","","","","","72","H","0","img/none_selected.jpg","","1","main_expt"
"214","","bandit","80","617601","0.0-41.0-0.0","44688841","wem/bandit_either","AMUV60QYHNUR3","either","3","","","","","","","0","0","1","0.08388143876","","0.6","0.2","0.4","0.8","","","","","0.08388143876","0.2180431119","0.1597004976","0.4875162112","","","","","","","72","H","0","img/none_selected.jpg","","2","main_expt"
"174","","bandit","81","619282","0.0-42.0-0.0","44688841","wem/bandit_either","AMUV60QYHNUR3","either","3","","","","","","","0","1","0","","0.2294217256","0.6","0.2","0.4","0.8","0.06528774038","0.2294217256","0.1381850853","0.4909945117","","","","","","","","","","","74","J","1","","","3","main_expt"
"308","","bandit","82","621097","0.0-43.0-0.0","44688841","wem/bandit_either","AMUV60QYHNUR3","either","3","","","","","","","0","0","1","","0.2162119515","0.6","0.2","0.4","0.8","0.07987899881","0.2162119515","0.1787932262","0.482579304","","","","","","","","","","","74","J","1","","","4","main_expt"
"167","","bandit","83","622769","0.0-44.0-0.0","44688841","wem/bandit_either","AMUV60QYHNUR3","either","3","","","","","","","0","0","1","","0.2246316054","0.6","0.2","0.4","0.8","0.0432391811","0.2246316054","0.1795032464","0.4887913002","","","","","","","","","","","74","J","1","","","5","main_expt"
"879","","bandit","84","625154","0.0-45.0-0.0","44688841","wem/bandit_either","AMUV60QYHNUR3","either","3","","","","","","","0","0","1","0.2061018479","","0.6","0.2","0.4","0.8","","","","","0.03467601655","0.2061018479","0.164375756","0.4887860333","","","","","","","74","J","1","","","6","main_expt"
"1117","","bandit","85","627776","0.0-46.0-0.0","44688841","wem/bandit_either","AMUV60QYHNUR3","either","3","","","","","","","0","0","1","","0.204957223","0.6","0.2","0.4","0.8","0.05033951668","0.1795347326","0.204957223","0.4901971563","","","","","","","","","","","75","K","2","","","7","main_expt"
"454","","bandit","86","629738","0.0-47.0-0.0","44688841","wem/bandit_either","AMUV60QYHNUR3","either","3","","","","","","","0","0","1","0.2162036531","","0.6","0.2","0.4","0.8","","","","","0.07676355645","0.1290452752","0.2162036531","0.4862230721","","","","","","","75","K","2","","","8","main_expt"
"108","","bandit","87","631354","0.0-48.0-0.0","44688841","wem/bandit_either","AMUV60QYHNUR3","either","3","","","","","","","0","0","1","0.2167418122","","0.6","0.2","0.4","0.8","","","","","0.08620859221","0.1559184374","0.2167418122","0.4759730645","","","","","","","75","K","2","","","9","main_expt"
"45","","bandit","88","632904","0.0-49.0-0.0","44688841","wem/bandit_either","AMUV60QYHNUR3","either","3","","","","","","","0","1","0","","0.1607923637","0.6","0.2","0.4","0.8","0.1103839657","0.1381514788","0.1607923637","0.4560980466","","","","","","","","","","","75","K","2","","","10","main_expt"
"366","","bandit","89","634778","0.0-50.0-0.0","44688841","wem/bandit_either","AMUV60QYHNUR3","either","3","","","","","","","0","0","1","","0.1386410957","0.6","0.2","0.4","0.8","0.1334948588","0.1271140015","0.1386410957","0.4775116046","","","","","","","","","","","75","K","2","","","11","main_expt"
"397","","bandit","90","636681","0.0-51.0-0.0","44688841","wem/bandit_either","AMUV60QYHNUR3","either","3","","","","","","","0","0","1","","0.1718380738","0.6","0.2","0.4","0.8","0.1535602519","0.1854664659","0.1718380738","0.4705073552","","","","","","","","","","","75","K","2","","","12","main_expt"
"397","","bandit","91","638586","0.0-52.0-0.0","44688841","wem/bandit_either","AMUV60QYHNUR3","either","3","","","","","","","0","0","1","0.4851887342","","0.6","0.2","0.4","0.8","","","","","0.127854239","0.1869952656","0.1686303413","0.4851887342","","","","","","","76","L","3","","","13","main_expt"
"156","","bandit","92","640250","0.0-53.0-0.0","44688841","wem/bandit_either","AMUV60QYHNUR3","either","3","","","","","","","1","0","0","0.4731273917","","0.6","0.2","0.4","0.8","","","","","0.1507911491","0.2035171393","0.1460019496","0.4731273917","","","","","","","76","L","3","","","14","main_expt"
"365","","bandit","93","642122","0.0-54.0-0.0","44688841","wem/bandit_either","AMUV60QYHNUR3","either","3","","","","","","","1","0","0","0.4585867004","","0.6","0.2","0.4","0.8","","","","","0.1741212098","0.2800299461","0.1667614464","0.4585867004","","","","","","","76","L","3","","","15","main_expt"
"356","","bandit","94","643985","0.0-55.0-0.0","44688841","wem/bandit_either","AMUV60QYHNUR3","either","3","","","","","","","1","0","0","0.4366533258","","0.6","0.2","0.4","0.8","","","","","0.1918308831","0.2725454461","0.1973644546","0.4366533258","","","","","","","76","L","3","","","16","main_expt"
"340","","bandit","95","645832","0.0-56.0-0.0","44688841","wem/bandit_either","AMUV60QYHNUR3","either","3","","","","","","","0","0","1","0.4405228744","","0.6","0.2","0.4","0.8","","","","","0.1950212473","0.1570621471","0.1873415792","0.4405228744","","","","","","","76","L","3","","","17","main_expt"
"334","","bandit","96","647673","0.0-57.0-0.0","44688841","wem/bandit_either","AMUV60QYHNUR3","either","3","","","","","","","0","0","1","","0.4678551263","0.6","0.2","0.4","0.8","0.2094813194","0.1968188506","0.1875860444","0.4678551263","","","","","","","","","","","76","L","3","","","18","main_expt"
"69","","bandit","97","649249","0.0-58.0-0.0","44688841","wem/bandit_either","AMUV60QYHNUR3","either","3","","","","","","","0","0","1","0.466140525","","0.6","0.2","0.4","0.8","","","","","0.2628959394","0.2439518204","0.1988439388","0.466140525","","","","","","","76","L","3","","","19","main_expt"
"493","","bandit","98","651248","0.0-59.0-0.0","44688841","wem/bandit_either","AMUV60QYHNUR3","either","3","","","","","","","0","0","1","0.1813993393","","0.6","0.2","0.4","0.8","","","","","0.2116504525","0.2806117898","0.1813993393","0.4094087999","","","","","","","75","K","2","","","20","main_expt"
"69","","bandit","99","652827","0.0-60.0-0.0","44688841","wem/bandit_either","AMUV60QYHNUR3","either","3","","","","","","","0","0","1","","0.2012004452","0.6","0.2","0.4","0.8","0.1904426465","0.2658005831","0.2012004452","0.4386974508","","","","","","","","","","","75","K","2","","","21","main_expt"
"165","","bandit","100","654496","0.0-61.0-0.0","44688841","wem/bandit_either","AMUV60QYHNUR3","either","3","","","","","","","0","0","1","","0.2774390086","0.6","0.2","0.4","0.8","0.1581796968","0.2774390086","0.1958646163","0.4505723784","","","","","","","","","","","74","J","1","","","22","main_expt"
"430","","bandit","101","656434","0.0-62.0-0.0","44688841","wem/bandit_either","AMUV60QYHNUR3","either","3","","","","","","","0","1","0","","0.2795917474","0.6","0.2","0.4","0.8","0.2039009352","0.2795917474","0.2626819079","0.4568000239","","","","","","","","","","","74","J","1","","","23","main_expt"
"1116","","bandit","102","659056","0.0-63.0-0.0","44688841","wem/bandit_either","AMUV60QYHNUR3","either","3","","","","","","","0","0","1","","0.2981059477","0.6","0.2","0.4","0.8","0.228339491","0.2981059477","0.2906682881","0.4518339256","","","","","","","","","","","74","J","1","","","24","main_expt"
"622","","bandit","103","661185","0.0-64.0-0.0","44688841","wem/bandit_either","AMUV60QYHNUR3","either","3","","","","","","","0","0","1","","0.3272059922","0.6","0.2","0.4","0.8","0.2602465224","0.3272059922","0.3270173502","0.4120159309","","","","","","","","","","","74","J","1","","","25","main_expt"
"613","","bandit","104","663305","0.0-65.0-0.0","44688841","wem/bandit_either","AMUV60QYHNUR3","either","3","","","","","","","0","1","0","","0.3369826645","0.6","0.2","0.4","0.8","0.1939420306","0.3369826645","0.2951289915","0.4134154185","","","","","","","","","","","74","J","1","","","26","main_expt"
"639","","bandit","105","665451","0.0-66.0-0.0","44688841","wem/bandit_either","AMUV60QYHNUR3","either","3","","","","","","","0","1","0","","0.2531212506","0.6","0.2","0.4","0.8","0.2387331149","0.2531212506","0.3520126272","0.4031068294","","","","","","","","","","","74","J","1","","","27","main_expt"
"669","","bandit","106","667627","0.0-67.0-0.0","44688841","wem/bandit_either","AMUV60QYHNUR3","either","3","","","","","","","0","1","0","","0.2170461037","0.6","0.2","0.4","0.8","0.2183458617","0.2170461037","0.3369287003","0.4305883772","","","","","","","","","","","74","J","1","","","28","main_expt"
"539","","bandit","107","669673","0.0-68.0-0.0","44688841","wem/bandit_either","AMUV60QYHNUR3","either","3","","","","","","","0","0","1","0.2346211465","","0.6","0.2","0.4","0.8","","","","","0.2151501268","0.2346211465","0.3591799128","0.4383329838","","","","","","","74","J","1","","","29","main_expt"
"781","","bandit","108","671959","0.0-69.0-0.0","44688841","wem/bandit_either","AMUV60QYHNUR3","either","3","","","","","","","0","0","1","","0.2450860663","0.6","0.2","0.4","0.8","0.2267233056","0.2450860663","0.3324285477","0.4233276099","","","","","","","","","","","74","J","1","","","30","main_expt"
"589","","bandit","109","674057","0.0-70.0-0.0","44688841","wem/bandit_either","AMUV60QYHNUR3","either","3","","","","","","","0","0","1","","0.2141169407","0.6","0.2","0.4","0.8","0.2663701676","0.2141169407","0.327032362","0.4016185005","","","","","","","","","","","74","J","1","","","31","main_expt"
"550","","bandit","110","676113","0.0-71.0-0.0","44688841","wem/bandit_either","AMUV60QYHNUR3","either","3","","","","","","","0","0","1","","0.2347854155","0.6","0.2","0.4","0.8","0.275969473","0.2347854155","0.3230905041","0.4134940178","","","","","","","","","","","74","J","1","","","32","main_expt"
"901","","bandit","111","678519","0.0-72.0-0.0","44688841","wem/bandit_either","AMUV60QYHNUR3","either","3","","","","","","","0","0","1","0.3365270118","","0.6","0.2","0.4","0.8","","","","","0.3365270118","0.246596708","0.2969008969","0.4331174495","","","","","","","72","H","0","img/none_selected.jpg","","33","main_expt"
"454","","bandit","112","680478","0.0-73.0-0.0","44688841","wem/bandit_either","AMUV60QYHNUR3","either","3","","","","","","","1","0","0","0.2916301021","","0.6","0.2","0.4","0.8","","","","","0.2916301021","0.1914370393","0.2536392951","0.4454497031","","","","","","","72","H","0","img/none_selected.jpg","","34","main_expt"
"664","","bandit","113","682647","0.0-74.0-0.0","44688841","wem/bandit_either","AMUV60QYHNUR3","either","3","","","","","","","0","0","1","0.3236538836","","0.6","0.2","0.4","0.8","","","","","0.3236538836","0.1408207185","0.2336030597","0.4419706984","","","","","","","72","H","0","img/none_selected.jpg","","35","main_expt"
"477","","bandit","114","684632","0.0-75.0-0.0","44688841","wem/bandit_either","AMUV60QYHNUR3","either","3","","","","","","","0","0","1","0.3317439785","","0.6","0.2","0.4","0.8","","","","","0.3317439785","0.09539735145","0.3110392291","0.4205940312","","","","","","","72","H","0","img/none_selected.jpg","","36","main_expt"
"542","","bandit","115","686679","0.0-76.0-0.0","44688841","wem/bandit_either","AMUV60QYHNUR3","either","3","","","","","","","0","1","0","","0.3620900841","0.6","0.2","0.4","0.8","0.3620900841","0.08867332122","0.3354302382","0.4227305347","","","","","","","","","","","72","H","0","img/none_selected.jpg","","37","main_expt"
"502","","bandit","116","688687","0.0-77.0-0.0","44688841","wem/bandit_either","AMUV60QYHNUR3","either","3","","","","","","","1","0","0","0.3649119955","","0.6","0.2","0.4","0.8","","","","","0.3649119955","0.0804097964","0.3359947902","0.3904174821","","","","","","","72","H","0","img/none_selected.jpg","","38","main_expt"
"534","","bandit","117","690729","0.0-78.0-0.0","44688841","wem/bandit_either","AMUV60QYHNUR3","either","3","","","","","","","0","0","1","0.3993258453","","0.6","0.2","0.4","0.8","","","","","0.3993258453","0.1092906338","0.3719467902","0.3704092514","","","","","","","72","H","0","img/none_selected.jpg","","39","main_expt"
"635","","bandit","118","692871","0.0-79.0-0.0","44688841","wem/bandit_either","AMUV60QYHNUR3","either","3","","","","","","","0","1","0","","0.43145226","0.6","0.2","0.4","0.8","0.43145226","0.08771014895","0.37180955","0.3250394812","","","","","","","","","","","72","H","0","img/none_selected.jpg","","40","main_expt"
"605","","bandit","119","694984","0.0-80.0-0.0","44688841","wem/bandit_either","AMUV60QYHNUR3","either","3","","","","","","","0","0","1","0.3925837484","","0.6","0.2","0.4","0.8","","","","","0.3925837484","0.1065106481","0.3972707938","0.3633775572","","","","","","","72","H","0","img/none_selected.jpg","","41","main_expt"
"278","","bandit","120","696768","0.0-81.0-0.0","44688841","wem/bandit_either","AMUV60QYHNUR3","either","3","","","","","","","1","0","0","0.4020613291","","0.6","0.2","0.4","0.8","","","","","0.4020613291","0.0926848955","0.3981555674","0.3708570881","","","","","","","72","H","0","img/none_selected.jpg","","42","main_expt"
"452","","bandit","121","698728","0.0-82.0-0.0","44688841","wem/bandit_either","AMUV60QYHNUR3","either","3","","","","","","","0","0","1","","0.4199094288","0.6","0.2","0.4","0.8","0.4199094288","0.09213729174","0.3698022864","0.3852030547","","","","","","","","","","","72","H","0","img/none_selected.jpg","","43","main_expt"
"373","","bandit","122","700609","0.0-83.0-0.0","44688841","wem/bandit_either","AMUV60QYHNUR3","either","3","","","","","","","1","0","0","0.4362917367","","0.6","0.2","0.4","0.8","","","","","0.4362917367","0.0950319608","0.3278340923","0.3653477133","","","","","","","72","H","0","img/none_selected.jpg","","44","main_expt"
"492","","bandit","123","702608","0.0-84.0-0.0","44688841","wem/bandit_either","AMUV60QYHNUR3","either","3","","","","","","","0","0","1","0.4310393502","","0.6","0.2","0.4","0.8","","","","","0.4310393502","0.07917944011","0.4004869948","0.3423722135","","","","","","","72","H","0","img/none_selected.jpg","","45","main_expt"
"220","","bandit","124","704336","0.0-85.0-0.0","44688841","wem/bandit_either","AMUV60QYHNUR3","either","3","","","","","","","0","0","1","","0.4301719659","0.6","0.2","0.4","0.8","0.4301719659","0.08528552535","0.4389658195","0.2713785315","","","","","","","","","","","72","H","0","img/none_selected.jpg","","46","main_expt"
"3430","","bandit","125","709273","0.0-86.0-0.0","44688841","wem/bandit_either","AMUV60QYHNUR3","either","3","","","","","","","0","1","0","","0.4274268526","0.6","0.2","0.4","0.8","0.4274268526","0.08303267599","0.4294918489","0.2675382036","","","","","","","","","","","72","H","0","img/none_selected.jpg","","47","main_expt"
"1204","","bandit","126","711983","0.0-87.0-0.0","44688841","wem/bandit_either","AMUV60QYHNUR3","either","3","","","","","","","0","0","1","","0.4559220927","0.6","0.2","0.4","0.8","0.4559220927","0.1183490009","0.3948346084","0.3006553151","","","","","","","","","","","72","H","0","img/none_selected.jpg","","48","main_expt"
"1827","","bandit","127","715321","0.0-88.0-0.0","44688841","wem/bandit_either","AMUV60QYHNUR3","either","3","","","","","","","1","0","0","0.4362936898","","0.6","0.2","0.4","0.8","","","","","0.4362936898","0.09831357925","0.4226663974","0.2865645246","","","","","","","72","H","0","img/none_selected.jpg","","49","main_expt"
"715","","bandit","128","717543","0.0-89.0-0.0","44688841","wem/bandit_either","AMUV60QYHNUR3","either","3","","","","","","","0","0","1","0.4001593617","","0.6","0.2","0.4","0.8","","","","","0.4001593617","0.0896163698","0.3943232949","0.2842330123","","","","","","","72","H","0","img/none_selected.jpg","","50","main_expt"
"709","","bandit","129","719761","0.0-90.0-0.0","44688841","wem/bandit_either","AMUV60QYHNUR3","either","3","","","","","","","0","0","1","","0.3737598101","0.6","0.2","0.4","0.8","0.3737598101","0.08239790895","0.3911898034","0.2933637591","","","","","","","","","","","72","H","0","img/none_selected.jpg","","51","main_expt"
"411","","bandit","130","721681","0.0-91.0-0.0","44688841","wem/bandit_either","AMUV60QYHNUR3","either","3","","","","","","","0","0","1","","0.06509061927","0.6","0.2","0.4","0.8","0.3490564905","0.06509061927","0.3897106723","0.2802127762","","","","","","","","","","","74","J","1","","","52","main_expt"
"338","","bandit","131","723528","0.0-92.0-0.0","44688841","wem/bandit_either","AMUV60QYHNUR3","either","3","","","","","","","0","0","1","","0.05503049918","0.6","0.2","0.4","0.8","0.3606416198","0.05503049918","0.3977919118","0.2567133084","","","","","","","","","","","74","J","1","","","53","main_expt"
"307","","bandit","132","725344","0.0-93.0-0.0","44688841","wem/bandit_either","AMUV60QYHNUR3","either","3","","","","","","","0","0","1","","0.06606451817","0.6","0.2","0.4","0.8","0.3920172378","0.06606451817","0.3803623479","0.304436262","","","","","","","","","","","74","J","1","","","54","main_expt"
"141","","bandit","133","726993","0.0-94.0-0.0","44688841","wem/bandit_either","AMUV60QYHNUR3","either","3","","","","","","","0","0","1","","0.3898030924","0.6","0.2","0.4","0.8","0.3841867886","0.0812436444","0.3898030924","0.3050376594","","","","","","","","","","","75","K","2","","","55","main_expt"
"306","","bandit","134","728810","0.0-95.0-0.0","44688841","wem/bandit_either","AMUV60QYHNUR3","either","3","","","","","","","1","0","0","0.4332266089","","0.6","0.2","0.4","0.8","","","","","0.3752679739","0.05752214818","0.4332266089","0.2874076515","","","","","","","75","K","2","","","56","main_expt"
"403","","bandit","135","730721","0.0-96.0-0.0","44688841","wem/bandit_either","AMUV60QYHNUR3","either","3","","","","","","","0","1","0","","0.4598680415","0.6","0.2","0.4","0.8","0.3595388075","0.05957573693","0.4598680415","0.2633226407","","","","","","","","","","","75","K","2","","","57","main_expt"
"345","","bandit","136","732575","0.0-97.0-0.0","44688841","wem/bandit_either","AMUV60QYHNUR3","either","3","","","","","","","0","0","1","0.4510058242","","0.6","0.2","0.4","0.8","","","","","0.2926617498","0.08347810371","0.4510058242","0.282557186","","","","","","","75","K","2","","","58","main_expt"
"277","","bandit","137","734359","0.0-98.0-0.0","44688841","wem/bandit_either","AMUV60QYHNUR3","either","3","","","","","","","0","0","1","","0.4587464736","0.6","0.2","0.4","0.8","0.2854140482","0.1166757522","0.4587464736","0.2675679041","","","","","","","","","","","75","K","2","","","59","main_expt"
"1580","","bandit","138","737449","0.0-99.0-0.0","44688841","wem/bandit_either","AMUV60QYHNUR3","either","3","","","","","","","0","0","1","","0.4534111386","0.6","0.2","0.4","0.8","0.2767785787","0.1223048521","0.4534111386","0.2654645802","","","","","","","","","","","75","K","2","","","60","main_expt"
"419","","bandit","139","739374","0.0-100.0-0.0","44688841","wem/bandit_either","AMUV60QYHNUR3","either","3","","","","","","","0","0","1","0.4581751116","","0.6","0.2","0.4","0.8","","","","","0.3110110239","0.1341525672","0.4581751116","0.2326588137","","","","","","","75","K","2","","","61","main_expt"
"469","","bandit","140","741351","0.0-101.0-0.0","44688841","wem/bandit_either","AMUV60QYHNUR3","either","3","","","","","","","0","0","1","0.2430345153","","0.6","0.2","0.4","0.8","","","","","0.2739379344","0.1748443247","0.4447189615","0.2430345153","","","","","","","76","L","3","","","62","main_expt"
"397","","bandit","141","743255","0.0-102.0-0.0","44688841","wem/bandit_either","AMUV60QYHNUR3","either","3","","","","","","","0","0","1","0.2682261916","","0.6","0.2","0.4","0.8","","","","","0.2518438402","0.1872250423","0.4351057758","0.2682261916","","","","","","","76","L","3","","","63","main_expt"
"338","","bandit","142","745102","0.0-103.0-0.0","44688841","wem/bandit_either","AMUV60QYHNUR3","either","3","","","","","","","1","0","0","0.3136585585","","0.6","0.2","0.4","0.8","","","","","0.216118181","0.1592276408","0.4559228662","0.3136585585","","","","","","","76","L","3","","","64","main_expt"
"429","","bandit","143","747039","0.0-104.0-0.0","44688841","wem/bandit_either","AMUV60QYHNUR3","either","3","","","","","","","0","0","1","0.3208042698","","0.6","0.2","0.4","0.8","","","","","0.1961712117","0.1881419285","0.4526438492","0.3208042698","","","","","","","76","L","3","","","65","main_expt"
"412","","bandit","144","748961","0.0-105.0-0.0","44688841","wem/bandit_either","AMUV60QYHNUR3","either","3","","","","","","","0","0","1","0.3550213758","","0.6","0.2","0.4","0.8","","","","","0.1821057022","0.2075830042","0.4604690516","0.3550213758","","","","","","","76","L","3","","","66","main_expt"
"366","","bandit","145","750835","0.0-106.0-0.0","44688841","wem/bandit_either","AMUV60QYHNUR3","either","3","","","","","","","0","0","1","0.2883445083","","0.6","0.2","0.4","0.8","","","","","0.2221692745","0.210321401","0.4479534522","0.2883445083","","","","","","","76","L","3","","","67","main_expt"
"480","","bandit","146","752823","0.0-107.0-0.0","44688841","wem/bandit_either","AMUV60QYHNUR3","either","3","","","","","","","0","0","1","","0.2492112051","0.6","0.2","0.4","0.8","0.2385328342","0.1740681144","0.4420076102","0.2492112051","","","","","","","","","","","76","L","3","","","68","main_expt"
"549","","bandit","147","754879","0.0-108.0-0.0","44688841","wem/bandit_either","AMUV60QYHNUR3","either","3","","","","","","","0","0","1","0.1725364023","","0.6","0.2","0.4","0.8","","","","","0.2693988132","0.1495678232","0.3840886122","0.1725364023","","","","","","","76","L","3","","","69","main_expt"
"540","","bandit","148","756926","0.0-109.0-0.0","44688841","wem/bandit_either","AMUV60QYHNUR3","either","3","","","","","","","0","0","1","","0.2633889128","0.6","0.2","0.4","0.8","0.2633889128","0.1594524764","0.3764426572","0.2081322216","","","","","","","","","","","72","H","0","img/none_selected.jpg","","70","main_expt"
"357","","bandit","149","758790","0.0-110.0-0.0","44688841","wem/bandit_either","AMUV60QYHNUR3","either","3","","","","","","","0","0","1","","0.2881785301","0.6","0.2","0.4","0.8","0.2881785301","0.1308665948","0.3925575972","0.2222096595","","","","","","","","","","","72","H","0","img/none_selected.jpg","","71","main_expt"
"324","","bandit","150","760623","0.0-111.0-0.0","44688841","wem/bandit_either","AMUV60QYHNUR3","either","3","","","","","","","0","0","1","","0.3496752211","0.6","0.2","0.4","0.8","0.3496752211","0.1413665491","0.4055717031","0.2276413934","","","","","","","","","","","72","H","0","img/none_selected.jpg","","72","main_expt"
"509","","bandit","151","762639","0.0-112.0-0.0","44688841","wem/bandit_either","AMUV60QYHNUR3","either","3","","","","","","","0","0","1","0.3662649551","","0.6","0.2","0.4","0.8","","","","","0.3662649551","0.1562096843","0.4313753627","0.202726327","","","","","","","72","H","0","img/none_selected.jpg","","73","main_expt"
"323","","bandit","152","764472","0.0-113.0-0.0","44688841","wem/bandit_either","AMUV60QYHNUR3","either","3","","","","","","","0","0","1","0.3318597218","","0.6","0.2","0.4","0.8","","","","","0.3318597218","0.1601549975","0.4294283137","0.2465356434","","","","","","","72","H","0","img/none_selected.jpg","","74","main_expt"
"332","","bandit","153","766311","0.0-114.0-0.0","44688841","wem/bandit_either","AMUV60QYHNUR3","either","3","","","","","","","0","0","1","","0.1962365409","0.6","0.2","0.4","0.8","0.3129946244","0.1962365409","0.4114775526","0.2780880013","","","","","","","","","","","74","J","1","","","75","main_expt"
"323","","bandit","154","768144","0.0-115.0-0.0","44688841","wem/bandit_either","AMUV60QYHNUR3","either","3","","","","","","","0","0","1","0.2315068675","","0.6","0.2","0.4","0.8","","","","","0.3299880354","0.2315068675","0.4038916894","0.230570622","","","","","","","74","J","1","","","76","main_expt"
"332","","bandit","155","769983","0.0-116.0-0.0","44688841","wem/bandit_either","AMUV60QYHNUR3","either","3","","","","","","","0","0","1","","0.1749603823","0.6","0.2","0.4","0.8","0.2704336052","0.1749603823","0.4028298088","0.1747897532","","","","","","","","","","","74","J","1","","","77","main_expt"
"380","","bandit","156","771870","0.0-117.0-0.0","44688841","wem/bandit_either","AMUV60QYHNUR3","either","3","","","","","","","0","0","1","","0.2091975686","0.6","0.2","0.4","0.8","0.2489008917","0.2091975686","0.4004321452","0.2009150394","","","","","","","","","","","74","J","1","","","78","main_expt"
"333","","bandit","157","773710","0.0-118.0-0.0","44688841","wem/bandit_either","AMUV60QYHNUR3","either","3","","","","","","","0","0","1","","0.3909827091","0.6","0.2","0.4","0.8","0.2182462247","0.2699334682","0.3909827091","0.2090883318","","","","","","","","","","","75","K","2","","","79","main_expt"
"301","","bandit","158","775519","0.0-119.0-0.0","44688841","wem/bandit_either","AMUV60QYHNUR3","either","3","","","","","","","0","0","1","","0.4289339141","0.6","0.2","0.4","0.8","0.1591694045","0.2712134299","0.4289339141","0.215522018","","","","","","","","","","","75","K","2","","","80","main_expt"
"227","","bandit","159","777255","0.0-120.0-0.0","44688841","wem/bandit_either","AMUV60QYHNUR3","either","3","","","","","","","0","0","1","0.4256341571","","0.6","0.2","0.4","0.8","","","","","0.1661146317","0.2563236188","0.4256341571","0.2655955182","","","","","","","75","K","2","","","81","main_expt"
"93","","bandit","160","778856","0.0-121.0-0.0","44688841","wem/bandit_either","AMUV60QYHNUR3","either","3","","","","","","","0","0","1","0.2642342948","","0.6","0.2","0.4","0.8","","","","","0.2249160828","0.2474856626","0.4153375647","0.2642342948","","","","","","","76","L","3","","","82","main_expt"
"1954","","bandit","161","782320","0.0-122.0-0.0","44688841","wem/bandit_either","AMUV60QYHNUR3","either","3","","","","","","","1","0","0","0.2615040017","","0.6","0.2","0.4","0.8","","","","","0.2194800234","0.2338037125","0.4239102097","0.2615040017","","","","","","","76","L","3","","","83","main_expt"
"644","","bandit","162","784472","0.0-123.0-0.0","44688841","wem/bandit_either","AMUV60QYHNUR3","either","3","","","","","","","0","0","1","0.3136368113","","0.6","0.2","0.4","0.8","","","","","0.2020024956","0.2929655049","0.4021041833","0.3136368113","","","","","","","76","L","3","","","84","main_expt"
"460","","bandit","163","786438","0.0-124.0-0.0","44688841","wem/bandit_either","AMUV60QYHNUR3","either","3","","","","","","","0","0","1","0.2433538552","","0.6","0.2","0.4","0.8","","","","","0.1639230135","0.2755572306","0.4322374594","0.2433538552","","","","","","","76","L","3","","","85","main_expt"
"508","","bandit","164","788454","0.0-125.0-0.0","44688841","wem/bandit_either","AMUV60QYHNUR3","either","3","","","","","","","1","0","0","0.2583740773","","0.6","0.2","0.4","0.8","","","","","0.1423092638","0.2706615249","0.4247618508","0.2583740773","","","","","","","76","L","3","","","86","main_expt"
"605","","bandit","165","790566","0.0-126.0-0.0","44688841","wem/bandit_either","AMUV60QYHNUR3","either","3","","","","","","","0","0","1","0.2656778135","","0.6","0.2","0.4","0.8","","","","","0.1623313408","0.3259805539","0.4130492334","0.2656778135","","","","","","","76","L","3","","","87","main_expt"
"341","","bandit","166","792414","0.0-127.0-0.0","44688841","wem/bandit_either","AMUV60QYHNUR3","either","3","","","","","","","1","0","0","0.2565525481","","0.6","0.2","0.4","0.8","","","","","0.1459946163","0.3471137027","0.3883747858","0.2565525481","","","","","","","76","L","3","","","88","main_expt"
"347","","bandit","167","794272","0.0-128.0-0.0","44688841","wem/bandit_either","AMUV60QYHNUR3","either","3","","","","","","","1","0","0","0.2471999074","","0.6","0.2","0.4","0.8","","","","","0.1684807643","0.3715311126","0.3950807547","0.2471999074","","","","","","","76","L","3","","","89","main_expt"
"372","","bandit","168","796154","0.0-129.0-0.0","44688841","wem/bandit_either","AMUV60QYHNUR3","either","3","","","","","","","0","0","1","0.2204199549","","0.6","0.2","0.4","0.8","","","","","0.1937692241","0.3571728809","0.420982679","0.2204199549","","","","","","","76","L","3","","","90","main_expt"
"264","","bandit","169","797928","0.0-130.0-0.0","44688841","wem/bandit_either","AMUV60QYHNUR3","either","3","","","","","","","0","0","1","","0.2013548925","0.6","0.2","0.4","0.8","0.1670397906","0.3348642023","0.4012606491","0.2013548925","","","","","","","","","","","76","L","3","","","91","main_expt"
"347","","bandit","170","799784","0.0-131.0-0.0","44688841","wem/bandit_either","AMUV60QYHNUR3","either","3","","","","","","","1","0","0","0.174921714","","0.6","0.2","0.4","0.8","","","","","0.1936095216","0.3551195155","0.3950870333","0.174921714","","","","","","","76","L","3","","","92","main_expt"
"307","","bandit","171","801600","0.0-132.0-0.0","44688841","wem/bandit_either","AMUV60QYHNUR3","either","3","","","","","","","0","0","1","0.1972058505","","0.6","0.2","0.4","0.8","","","","","0.2399824117","0.3494458231","0.3797372222","0.1972058505","","","","","","","76","L","3","","","93","main_expt"
"395","","bandit","172","803503","0.0-133.0-0.0","44688841","wem/bandit_either","AMUV60QYHNUR3","either","3","","","","","","","0","0","1","0.2144007407","","0.6","0.2","0.4","0.8","","","","","0.242536602","0.3759818745","0.3346339076","0.2144007407","","","","","","","76","L","3","","","94","main_expt"
"284","","bandit","173","805296","0.0-134.0-0.0","44688841","wem/bandit_either","AMUV60QYHNUR3","either","3","","","","","","","0","0","1","","0.2025691914","0.6","0.2","0.4","0.8","0.3081296623","0.3467088588","0.3433005441","0.2025691914","","","","","","","","","","","76","L","3","","","95","main_expt"
"299","","bandit","174","807105","0.0-135.0-0.0","44688841","wem/bandit_either","AMUV60QYHNUR3","either","3","","","","","","","0","0","1","0.1750118246","","0.6","0.2","0.4","0.8","","","","","0.371766452","0.3520186383","0.2900415689","0.1750118246","","","","","","","76","L","3","","","96","main_expt"
"345","","bandit","175","808959","0.0-136.0-0.0","44688841","wem/bandit_either","AMUV60QYHNUR3","either","3","","","","","","","0","0","1","0.2433812568","","0.6","0.2","0.4","0.8","","","","","0.3737721809","0.342216001","0.3136050561","0.2433812568","","","","","","","76","L","3","","","97","main_expt"
"331","","bandit","176","810798","0.0-137.0-0.0","44688841","wem/bandit_either","AMUV60QYHNUR3","either","3","","","","","","","0","0","1","","0.3662625892","0.6","0.2","0.4","0.8","0.3662625892","0.3775958225","0.3236610102","0.1834100281","","","","","","","","","","","72","H","0","img/none_selected.jpg","","98","main_expt"
"348","","bandit","177","812655","0.0-138.0-0.0","44688841","wem/bandit_either","AMUV60QYHNUR3","either","3","","","","","","","0","0","1","0.3912879072","","0.6","0.2","0.4","0.8","","","","","0.3912879072","0.3490624926","0.3116662608","0.146161558","","","","","","","72","H","0","img/none_selected.jpg","","99","main_expt"
"403","","bandit","178","814566","0.0-139.0-0.0","44688841","wem/bandit_either","AMUV60QYHNUR3","either","3","","","","","","","0","0","1","0.3916888764","","0.6","0.2","0.4","0.8","","","","","0.3916888764","0.3418910903","0.3806420769","0.1186266926","","","","","","","72","H","0","img/none_selected.jpg","","100","main_expt"
"436","","bandit","179","816510","0.0-140.0-0.0","44688841","wem/bandit_either","AMUV60QYHNUR3","either","3","","","","","","","1","0","0","0.3803758031","","0.6","0.2","0.4","0.8","","","","","0.3803758031","0.3544055354","0.3825052475","0.1467879228","","","","","","","72","H","0","img/none_selected.jpg","","101","main_expt"
"421","","bandit","180","818439","0.0-141.0-0.0","44688841","wem/bandit_either","AMUV60QYHNUR3","either","3","","","","","","","0","0","1","","0.3685266224","0.6","0.2","0.4","0.8","0.3685266224","0.3580864163","0.3799327693","0.1336514036","","","","","","","","","","","72","H","0","img/none_selected.jpg","","102","main_expt"
"771","","bandit","181","820720","0.0-142.0-0.0","44688841","wem/bandit_either","AMUV60QYHNUR3","either","3","","","","","","","0","1","0","","0.3754978655","0.6","0.2","0.4","0.8","0.3754978655","0.336528594","0.3502018886","0.1325092095","","","","","","","","","","","72","H","0","img/none_selected.jpg","","103","main_expt"
"457","","bandit","182","822686","0.0-143.0-0.0","44688841","wem/bandit_either","AMUV60QYHNUR3","either","3","","","","","","","0","1","0","","0.4033056484","0.6","0.2","0.4","0.8","0.4033056484","0.3190078166","0.3443431466","0.1162839287","","","","","","","","","","","72","H","0","img/none_selected.jpg","","104","main_expt"
"469","","bandit","183","824662","0.0-144.0-0.0","44688841","wem/bandit_either","AMUV60QYHNUR3","either","3","","","","","","","0","0","1","0.3617388181","","0.6","0.2","0.4","0.8","","","","","0.3617388181","0.3100940773","0.3551378046","0.115620258","","","","","","","72","H","0","img/none_selected.jpg","","105","main_expt"
"525","","bandit","184","826696","0.0-145.0-0.0","44688841","wem/bandit_either","AMUV60QYHNUR3","either","3","","","","","","","0","0","1","0.3656875331","","0.6","0.2","0.4","0.8","","","","","0.3656875331","0.2964842485","0.3177956882","0.1102569517","","","","","","","72","H","0","img/none_selected.jpg","","106","main_expt"
"1811","","bandit","185","830016","0.0-146.0-0.0","44688841","wem/bandit_either","AMUV60QYHNUR3","either","3","","","","","","","0","0","1","","0.3478183852","0.6","0.2","0.4","0.8","0.3478183852","0.3224579283","0.3463124521","0.110599846","","","","","","","","","","","72","H","0","img/none_selected.jpg","","107","main_expt"
"682","","bandit","186","832206","0.0-147.0-0.0","44688841","wem/bandit_either","AMUV60QYHNUR3","either","3","","","","","","","0","0","1","0.3715517583","","0.6","0.2","0.4","0.8","","","","","0.3715517583","0.3365568187","0.330790185","0.1647947233","","","","","","","72","H","0","img/none_selected.jpg","","108","main_expt"
"477","","bandit","187","834189","0.0-148.0-0.0","44688841","wem/bandit_either","AMUV60QYHNUR3","either","3","","","","","","","0","0","1","0.3713851569","","0.6","0.2","0.4","0.8","","","","","0.3713851569","0.3200824859","0.3259779601","0.146095753","","","","","","","72","H","0","img/none_selected.jpg","","109","main_expt"
"2427","","bandit","188","838125","0.0-149.0-0.0","44688841","wem/bandit_either","AMUV60QYHNUR3","either","3","","","","","","","0","0","1","","0.3401672382","0.6","0.2","0.4","0.8","0.3401672382","0.3179471713","0.3169053314","0.1691954855","","","","","","","","","","","72","H","0","img/none_selected.jpg","","110","main_expt"
"1045","","bandit","189","840680","0.0-150.0-0.0","44688841","wem/bandit_either","AMUV60QYHNUR3","either","3","","","","","","","1","0","0","0.3242328008","","0.6","0.2","0.4","0.8","","","","","0.3242328008","0.3168158386","0.342138516","0.1690298198","","","","","","","72","H","0","img/none_selected.jpg","","111","main_expt"
"1651","","bandit","190","843838","0.0-151.0-0.0","44688841","wem/bandit_either","AMUV60QYHNUR3","either","3","","","","","","","0","0","1","","0.2991119965","0.6","0.2","0.4","0.8","0.2991119965","0.3551606626","0.3597886873","0.2196992501","","","","","","","","","","","72","H","0","img/none_selected.jpg","","112","main_expt"
"2219","","bandit","191","847568","0.0-152.0-0.0","44688841","wem/bandit_either","AMUV60QYHNUR3","either","3","","","","","","","0","0","1","0.3364281798","","0.6","0.2","0.4","0.8","","","","","0.3364281798","0.3615444015","0.3580549124","0.2723467559","","","","","","","72","H","0","img/none_selected.jpg","","113","main_expt"
"512","","bandit","192","849591","0.0-153.0-0.0","44688841","wem/bandit_either","AMUV60QYHNUR3","either","3","","","","","","","0","0","1","","0.3495122724","0.6","0.2","0.4","0.8","0.3495122724","0.4043222556","0.3556181037","0.2470985199","","","","","","","","","","","72","H","0","img/none_selected.jpg","","114","main_expt"
"667","","bandit","193","851769","0.0-154.0-0.0","44688841","wem/bandit_either","AMUV60QYHNUR3","either","3","","","","","","","0","1","0","","0.324938203","0.6","0.2","0.4","0.8","0.324938203","0.4179696435","0.3489042174","0.2482590513","","","","","","","","","","","72","H","0","img/none_selected.jpg","","115","main_expt"
"665","","bandit","194","853941","0.0-155.0-0.0","44688841","wem/bandit_either","AMUV60QYHNUR3","either","3","","","","","","","0","1","0","","0.3227512736","0.6","0.2","0.4","0.8","0.3227512736","0.4324393975","0.3466245191","0.1992012358","","","","","","","","","","","72","H","0","img/none_selected.jpg","","116","main_expt"
"445","","bandit","195","855894","0.0-156.0-0.0","44688841","wem/bandit_either","AMUV60QYHNUR3","either","3","","","","","","","1","0","0","0.2585209305","","0.6","0.2","0.4","0.8","","","","","0.2585209305","0.4290779421","0.3581754781","0.216355905","","","","","","","72","H","0","img/none_selected.jpg","","117","main_expt"
"419","","bandit","196","857821","0.0-157.0-0.0","44688841","wem/bandit_either","AMUV60QYHNUR3","either","3","","","","","","","0","0","1","0.2817260076","","0.6","0.2","0.4","0.8","","","","","0.2817260076","0.4459264202","0.283939031","0.1715453935","","","","","","","72","H","0","img/none_selected.jpg","","118","main_expt"
"507","","bandit","197","859838","0.0-158.0-0.0","44688841","wem/bandit_either","AMUV60QYHNUR3","either","3","","","","","","","0","0","1","0.328214026","","0.6","0.2","0.4","0.8","","","","","0.328214026","0.436995295","0.2992634423","0.1843456939","","","","","","","72","H","0","img/none_selected.jpg","","119","main_expt"
"564","","bandit","198","861911","0.0-159.0-0.0","44688841","wem/bandit_either","AMUV60QYHNUR3","either","3","","","","","","","0","0","1","0.4151314625","","0.6","0.2","0.4","0.8","","","","","0.3355603121","0.4151314625","0.1878150733","0.1848061615","","","","","","","74","J","1","","","120","main_expt"
"491","","bandit","199","863910","0.0-160.0-0.0","44688841","wem/bandit_either","AMUV60QYHNUR3","either","3","","","","","","","0","1","0","","0.4384064527","0.6","0.2","0.4","0.8","0.3829587724","0.4384064527","0.1447458933","0.1679578636","","","","","","","","","","","74","J","1","","","121","main_expt"
"490","","bandit","200","865910","0.0-161.0-0.0","44688841","wem/bandit_either","AMUV60QYHNUR3","either","3","","","","","","","0","1","0","","0.4417589501","0.6","0.2","0.4","0.8","0.3995678287","0.4417589501","0.1176060398","0.197295971","","","","","","","","","","","74","J","1","","","122","main_expt"
"315","","bandit","201","867735","0.0-162.0-0.0","44688841","wem/bandit_either","AMUV60QYHNUR3","either","3","","","","","","","0","0","1","","0.4017154396","0.6","0.2","0.4","0.8","0.3656739583","0.4017154396","0.1097677055","0.2184653352","","","","","","","","","","","74","J","1","","","123","main_expt"
"482","","bandit","202","869725","0.0-163.0-0.0","44688841","wem/bandit_either","AMUV60QYHNUR3","either","3","","","","","","","1","0","0","0.08048168986","","0.6","0.2","0.4","0.8","","","","","0.3862549257","0.3619070526","0.08048168986","0.2147868977","","","","","","","75","K","2","","","124","main_expt"
"363","","bandit","203","871598","0.0-164.0-0.0","44688841","wem/bandit_either","AMUV60QYHNUR3","either","3","","","","","","","0","0","1","0.07842900555","","0.6","0.2","0.4","0.8","","","","","0.3593796239","0.3567490645","0.07842900555","0.1667936559","","","","","","","75","K","2","","","125","main_expt"
"309","","bandit","204","873414","0.0-165.0-0.0","44688841","wem/bandit_either","AMUV60QYHNUR3","either","3","","","","","","","0","0","1","","0.08318363027","0.6","0.2","0.4","0.8","0.3413194209","0.3558473019","0.08318363027","0.1453295256","","","","","","","","","","","75","K","2","","","126","main_expt"
"314","","bandit","205","875237","0.0-166.0-0.0","44688841","wem/bandit_either","AMUV60QYHNUR3","either","3","","","","","","","0","0","1","","0.06812438963","0.6","0.2","0.4","0.8","0.3369929262","0.3543069734","0.06812438963","0.1635755653","","","","","","","","","","","75","K","2","","","127","main_expt"
"316","","bandit","206","877061","0.0-167.0-0.0","44688841","wem/bandit_either","AMUV60QYHNUR3","either","3","","","","","","","0","0","1","0.08303766286","","0.6","0.2","0.4","0.8","","","","","0.2922989636","0.3328374851","0.08303766286","0.1872639566","","","","","","","75","K","2","","","128","main_expt"
"309","","bandit","207","878879","0.0-168.0-0.0","44688841","wem/bandit_either","AMUV60QYHNUR3","either","3","","","","","","","0","0","1","0.09047360051","","0.6","0.2","0.4","0.8","","","","","0.3095146075","0.3238683282","0.09047360051","0.2032718864","","","","","","","75","K","2","","","129","main_expt"
"153","","bandit","208","880542","0.0-169.0-0.0","44688841","wem/bandit_either","AMUV60QYHNUR3","either","3","","","","","","","0","1","0","","0.2025864764","0.6","0.2","0.4","0.8","0.3068425872","0.2750329062","0.131542256","0.2025864764","","","","","","","","","","","76","L","3","","","130","main_expt"
"427","","bandit","209","882477","0.0-170.0-0.0","44688841","wem/bandit_either","AMUV60QYHNUR3","either","3","","","","","","","0","0","1","0.2158584071","","0.6","0.2","0.4","0.8","","","","","0.3112504131","0.2751886228","0.1492019489","0.2158584071","","","","","","","76","L","3","","","131","main_expt"
"133","","bandit","210","884117","0.0-171.0-0.0","44688841","wem/bandit_either","AMUV60QYHNUR3","either","3","","","","","","","1","0","0","0.2105840197","","0.6","0.2","0.4","0.8","","","","","0.3595653039","0.2729729886","0.1571188116","0.2105840197","","","","","","","76","L","3","","","132","main_expt"
"1","","bandit","211","885628","0.0-172.0-0.0","44688841","wem/bandit_either","AMUV60QYHNUR3","either","3","","","","","","","0","0","1","","0.2328486735","0.6","0.2","0.4","0.8","0.3873527377","0.3248088544","0.2021073832","0.2328486735","","","","","","","","","","","76","L","3","","","133","main_expt"
"581","","bandit","212","887717","0.0-173.0-0.0","44688841","wem/bandit_either","AMUV60QYHNUR3","either","3","","","","","","","1","0","0","0.2589092944","","0.6","0.2","0.4","0.8","","","","","0.3973884711","0.3596446835","0.2693148074","0.2589092944","","","","","","","76","L","3","","","134","main_expt"
"499","","bandit","213","889726","0.0-174.0-0.0","44688841","wem/bandit_either","AMUV60QYHNUR3","either","3","","","","","","","0","0","1","0.2637326353","","0.6","0.2","0.4","0.8","","","","","0.4080523157","0.318377279","0.2625780805","0.2637326353","","","","","","","76","L","3","","","135","main_expt"
"250","","bandit","214","891485","0.0-175.0-0.0","44688841","wem/bandit_either","AMUV60QYHNUR3","either","3","","","","","","","0","0","1","0.2718680576","","0.6","0.2","0.4","0.8","","","","","0.4176503084","0.3160887017","0.2981707722","0.2718680576","","","","","","","76","L","3","","","136","main_expt"
"309","","bandit","215","893301","0.0-176.0-0.0","44688841","wem/bandit_either","AMUV60QYHNUR3","either","3","","","","","","","0","0","1","0.2919957672","","0.6","0.2","0.4","0.8","","","","","0.3859803947","0.2883225013","0.3148158286","0.2919957672","","","","","","","76","L","3","","","137","main_expt"
"341","","bandit","216","895150","0.0-177.0-0.0","44688841","wem/bandit_either","AMUV60QYHNUR3","either","3","","","","","","","0","0","1","0.3193993407","","0.6","0.2","0.4","0.8","","","","","0.358492916","0.3009152141","0.3111523267","0.3193993407","","","","","","","76","L","3","","","138","main_expt"
"321","","bandit","217","896980","0.0-178.0-0.0","44688841","wem/bandit_either","AMUV60QYHNUR3","either","3","","","","","","","0","0","1","0.3404434035","","0.6","0.2","0.4","0.8","","","","","0.3608756281","0.293720077","0.3034593298","0.3404434035","","","","","","","76","L","3","","","139","main_expt"
"501","","bandit","218","898990","0.0-179.0-0.0","44688841","wem/bandit_either","AMUV60QYHNUR3","either","3","","","","","","","0","0","1","","0.2507495005","0.6","0.2","0.4","0.8","0.3421836092","0.286059761","0.2507495005","0.3278052243","","","","","","","","","","","75","K","2","","","140","main_expt"
"275","","bandit","219","900773","0.0-180.0-0.0","44688841","wem/bandit_either","AMUV60QYHNUR3","either","3","","","","","","","0","0","1","","0.2220694513","0.6","0.2","0.4","0.8","0.3737340371","0.2931724706","0.2220694513","0.3038906839","","","","","","","","","","","75","K","2","","","141","main_expt"
"1955","","bandit","220","904237","0.0-181.0-0.0","44688841","wem/bandit_either","AMUV60QYHNUR3","either","3","","","","","","","0","1","0","","0.2119249064","0.6","0.2","0.4","0.8","0.3461121542","0.2182180164","0.2119249064","0.2924195757","","","","","","","","","","","75","K","2","","","142","main_expt"
"613","","bandit","221","906357","0.0-182.0-0.0","44688841","wem/bandit_either","AMUV60QYHNUR3","either","3","","","","","","","0","1","0","","0.2665135591","0.6","0.2","0.4","0.8","0.3305931074","0.2015475508","0.2665135591","0.2816149275","","","","","","","","","","","75","K","2","","","143","main_expt"
"404","","bandit","222","908269","0.0-183.0-0.0","44688841","wem/bandit_either","AMUV60QYHNUR3","either","3","","","","","","","0","0","1","0.2854155153","","0.6","0.2","0.4","0.8","","","","","0.3561039987","0.2074070562","0.2854155153","0.2355525614","","","","","","","75","K","2","","","144","main_expt"
"338","","bandit","223","910117","0.0-184.0-0.0","44688841","wem/bandit_either","AMUV60QYHNUR3","either","3","","","","","","","0","0","1","","0.2521048148","0.6","0.2","0.4","0.8","0.3648023512","0.1415368311","0.2521048148","0.2185662272","","","","","","","","","","","75","K","2","","","145","main_expt"
"1124","","bandit","224","912748","0.0-185.0-0.0","44688841","wem/bandit_either","AMUV60QYHNUR3","either","3","","","","","","","0","0","1","","0.2321266643","0.6","0.2","0.4","0.8","0.3450315","0.1549520657","0.2321266643","0.2209315791","","","","","","","","","","","75","K","2","","","146","main_expt"
"658","","bandit","225","914917","0.0-186.0-0.0","44688841","wem/bandit_either","AMUV60QYHNUR3","either","3","","","","","","","0","1","0","","0.3159383216","0.6","0.2","0.4","0.8","0.2720321141","0.1469310363","0.3159383216","0.2889766311","","","","","","","","","","","75","K","2","","","147","main_expt"
"397","","bandit","226","916821","0.0-187.0-0.0","44688841","wem/bandit_either","AMUV60QYHNUR3","either","3","","","","","","","1","0","0","0.2673485129","","0.6","0.2","0.4","0.8","","","","","0.2598972664","0.1332828417","0.2673485129","0.2859466156","","","","","","","75","K","2","","","148","main_expt"
"355","","bandit","227","918685","0.0-188.0-0.0","44688841","wem/bandit_either","AMUV60QYHNUR3","either","3","","","","","","","0","0","1","","0.3348600541","0.6","0.2","0.4","0.8","0.2343157719","0.1102010463","0.3348600541","0.2588478233","","","","","","","","","","","75","K","2","","","149","main_expt"
"267","","bandit","228","920460","0.0-189.0-0.0","44688841","wem/bandit_either","AMUV60QYHNUR3","either","3","","","","","","","0","1","0","","0.3659656834","0.6","0.2","0.4","0.8","0.2451363599","0.1356103494","0.3659656834","0.2224653457","","","","","","","","","","","75","K","2","","","150","main_expt"
"323","","bandit","229","922292","0.0-190.0-0.0","44688841","wem/bandit_either","AMUV60QYHNUR3","either","3","","","","","","","0","0","1","","0.36397653","0.6","0.2","0.4","0.8","0.2053737132","0.1621229287","0.36397653","0.2387237716","","","","","","","","","","","75","K","2","","","151","main_expt"
"1565","","bandit","230","925364","0.0-191.0-0.0","44688841","wem/bandit_either","AMUV60QYHNUR3","either","3","","","","","","","0","0","1","","0.3710672623","0.6","0.2","0.4","0.8","0.2396242378","0.1412745606","0.3710672623","0.2519133504","","","","","","","","","","","75","K","2","","","152","main_expt"
"381","","bandit","231","927256","0.0-192.0-0.0","44688841","wem/bandit_either","AMUV60QYHNUR3","either","3","","","","","","","0","0","1","","0.3828607765","0.6","0.2","0.4","0.8","0.2923277395","0.1707580034","0.3828607765","0.3078499427","","","","","","","","","","","75","K","2","","","153","main_expt"
"536","","bandit","232","929300","0.0-193.0-0.0","44688841","wem/bandit_either","AMUV60QYHNUR3","either","3","","","","","","","0","0","1","","0.3526468527","0.6","0.2","0.4","0.8","0.3166515581","0.1717455462","0.3526468527","0.3283820497","","","","","","","","","","","75","K","2","","","154","main_expt"
"834","","bandit","233","931645","0.0-194.0-0.0","44688841","wem/bandit_either","AMUV60QYHNUR3","either","3","","","","","","","0","0","1","0.3303057687","","0.6","0.2","0.4","0.8","","","","","0.3194616596","0.1785539081","0.3865981945","0.3303057687","","","","","","","76","L","3","","","155","main_expt"
"348","","bandit","234","933500","0.0-195.0-0.0","44688841","wem/bandit_either","AMUV60QYHNUR3","either","3","","","","","","","0","0","1","","0.3178912443","0.6","0.2","0.4","0.8","0.3767011333","0.2175815231","0.4328422877","0.3178912443","","","","","","","","","","","76","L","3","","","156","main_expt"
"371","","bandit","235","935381","0.0-196.0-0.0","44688841","wem/bandit_either","AMUV60QYHNUR3","either","3","","","","","","","0","0","1","","0.3236874272","0.6","0.2","0.4","0.8","0.3853144204","0.216674397","0.4224906378","0.3236874272","","","","","","","","","","","76","L","3","","","157","main_expt"
"453","","bandit","236","937343","0.0-197.0-0.0","44688841","wem/bandit_either","AMUV60QYHNUR3","either","3","","","","","","","1","0","0","0.3731337511","","0.6","0.2","0.4","0.8","","","","","0.3519128793","0.2184316938","0.4428847078","0.3731337511","","","","","","","76","L","3","","","158","main_expt"
"416","","bandit","237","939268","0.0-198.0-0.0","44688841","wem/bandit_either","AMUV60QYHNUR3","either","3","","","","","","","1","0","0","0.3758107074","","0.6","0.2","0.4","0.8","","","","","0.3255157266","0.2603966468","0.4498083842","0.3758107074","","","","","","","76","L","3","","","159","main_expt"
"461","","bandit","238","941238","0.0-199.0-0.0","44688841","wem/bandit_either","AMUV60QYHNUR3","either","3","","","","","","","0","0","1","0.3494215766","","0.6","0.2","0.4","0.8","","","","","0.379238532","0.2242017374","0.4319550234","0.3494215766","","","","","","","76","L","3","","","160","main_expt"
"402","","bandit","239","943150","0.0-200.0-0.0","44688841","wem/bandit_either","AMUV60QYHNUR3","either","3","","","","","","","1","0","0","0.3327111917","","0.6","0.2","0.4","0.8","","","","","0.3776335756","0.2014027125","0.4417514389","0.3327111917","","","","","","","76","L","3","","","161","main_expt"
"419","","bandit","240","945076","0.0-201.0-0.0","44688841","wem/bandit_either","AMUV60QYHNUR3","either","3","","","","","","","0","0","1","0.3171011618","","0.6","0.2","0.4","0.8","","","","","0.2955751891","0.2038621466","0.4081293495","0.3171011618","","","","","","","76","L","3","","","162","main_expt"
"331","","bandit","241","946918","0.0-202.0-0.0","44688841","wem/bandit_either","AMUV60QYHNUR3","either","3","","","","","","","0","0","1","0.364183239","","0.6","0.2","0.4","0.8","","","","","0.30851492","0.1238136799","0.4265776113","0.364183239","","","","","","","76","L","3","","","163","main_expt"
"348","","bandit","242","948773","0.0-203.0-0.0","44688841","wem/bandit_either","AMUV60QYHNUR3","either","3","","","","","","","0","0","1","0.3917374524","","0.6","0.2","0.4","0.8","","","","","0.3074756362","0.1104941302","0.427472809","0.3917374524","","","","","","","76","L","3","","","164","main_expt"
"273","","bandit","243","950556","0.0-204.0-0.0","44688841","wem/bandit_either","AMUV60QYHNUR3","either","3","","","","","","","0","0","1","0.3629360172","","0.6","0.2","0.4","0.8","","","","","0.2743039079","0.1099358877","0.4016343469","0.3629360172","","","","","","","76","L","3","","","165","main_expt"
"91","","bandit","244","952156","0.0-205.0-0.0","44688841","wem/bandit_either","AMUV60QYHNUR3","either","3","","","","","","","0","0","1","","0.3578169927","0.6","0.2","0.4","0.8","0.2900226329","0.08082918558","0.3578169927","0.3697042915","","","","","","","","","","","75","K","2","","","166","main_expt"
"179","","bandit","245","953844","0.0-206.0-0.0","44688841","wem/bandit_either","AMUV60QYHNUR3","either","3","","","","","","","1","0","0","0.3346076013","","0.6","0.2","0.4","0.8","","","","","0.3444017494","0.08539074978","0.3346076013","0.3626443337","","","","","","","75","K","2","","","167","main_expt"
"429","","bandit","246","955780","0.0-207.0-0.0","44688841","wem/bandit_either","AMUV60QYHNUR3","either","3","","","","","","","0","0","1","0.36326211","","0.6","0.2","0.4","0.8","","","","","0.3934904689","0.1307687804","0.36326211","0.3488380128","","","","","","","75","K","2","","","168","main_expt"
"363","","bandit","247","957654","0.0-208.0-0.0","44688841","wem/bandit_either","AMUV60QYHNUR3","either","3","","","","","","","0","0","1","","0.3389060657","0.6","0.2","0.4","0.8","0.3712778229","0.09435724838","0.3389060657","0.3338465455","","","","","","","","","","","75","K","2","","","169","main_expt"
"3","","bandit","248","959167","0.0-209.0-0.0","44688841","wem/bandit_either","AMUV60QYHNUR3","either","3","","","","","","","0","1","0","","0.3820287301","0.6","0.2","0.4","0.8","0.3348119161","0.09371103674","0.3820287301","0.3675902536","","","","","","","","","","","75","K","2","","","170","main_expt"
"337","","bandit","249","961012","0.0-210.0-0.0","44688841","wem/bandit_either","AMUV60QYHNUR3","either","3","","","","","","","0","1","0","","0.3738350687","0.6","0.2","0.4","0.8","0.3697689907","0.0912992704","0.3738350687","0.3663425941","","","","","","","","","","","75","K","2","","","171","main_expt"
"347","","bandit","250","962870","0.0-211.0-0.0","44688841","wem/bandit_either","AMUV60QYHNUR3","either","3","","","","","","","0","0","1","0.3449486646","","0.6","0.2","0.4","0.8","","","","","0.3438364448","0.1053216192","0.3449486646","0.3571019768","","","","","","","75","K","2","","","172","main_expt"
"449","","bandit","251","964830","0.0-212.0-0.0","44688841","wem/bandit_either","AMUV60QYHNUR3","either","3","","","","","","","1","0","0","0.4064517123","","0.6","0.2","0.4","0.8","","","","","0.4064517123","0.1119971747","0.3754463001","0.383943734","","","","","","","72","H","0","img/none_selected.jpg","","173","main_expt"
"347","","bandit","252","966685","0.0-213.0-0.0","44688841","wem/bandit_either","AMUV60QYHNUR3","either","3","","","","","","","1","0","0","0.4266345201","","0.6","0.2","0.4","0.8","","","","","0.4266345201","0.1049574405","0.3983783957","0.378453819","","","","","","","72","H","0","img/none_selected.jpg","","174","main_expt"
"369","","bandit","253","968566","0.0-214.0-0.0","44688841","wem/bandit_either","AMUV60QYHNUR3","either","3","","","","","","","0","0","1","0.4413212306","","0.6","0.2","0.4","0.8","","","","","0.4413212306","0.07351671593","0.4176958341","0.3577460836","","","","","","","72","H","0","img/none_selected.jpg","","175","main_expt"
"186","","bandit","254","970262","0.0-215.0-0.0","44688841","wem/bandit_either","AMUV60QYHNUR3","either","3","","","","","","","0","0","1","","0.438548454","0.6","0.2","0.4","0.8","0.438548454","0.06097876817","0.4336280271","0.3346789668","","","","","","","","","","","72","H","0","img/none_selected.jpg","","176","main_expt"
"353","","bandit","255","972126","0.0-216.0-0.0","44688841","wem/bandit_either","AMUV60QYHNUR3","either","3","","","","","","","1","0","0","0.4350726265","","0.6","0.2","0.4","0.8","","","","","0.4350726265","0.05873143133","0.3863917124","0.3720341948","","","","","","","72","H","0","img/none_selected.jpg","","177","main_expt"
"403","","bandit","256","974037","0.0-217.0-0.0","44688841","wem/bandit_either","AMUV60QYHNUR3","either","3","","","","","","","0","1","0","","0.4029859975","0.6","0.2","0.4","0.8","0.4029859975","0.07829718294","0.3826512014","0.4243236705","","","","","","","","","","","72","H","0","img/none_selected.jpg","","178","main_expt"
"371","","bandit","257","975917","0.0-218.0-0.0","44688841","wem/bandit_either","AMUV60QYHNUR3","either","3","","","","","","","0","0","1","0.3738585124","","0.6","0.2","0.4","0.8","","","","","0.3738585124","0.05868413977","0.3681046487","0.4396564102","","","","","","","72","H","0","img/none_selected.jpg","","179","main_expt"
"211","","bandit","258","977638","0.0-219.0-0.0","44688841","wem/bandit_either","AMUV60QYHNUR3","either","3","","","","","","","0","0","1","0.3884150149","","0.6","0.2","0.4","0.8","","","","","0.3884150149","0.04540529238","0.374340785","0.4501825932","","","","","","","72","H","0","img/none_selected.jpg","","180","main_expt"
"355","","bandit","259","979501","0.0-220.0-0.0","44688841","wem/bandit_either","AMUV60QYHNUR3","either","3","","","","","","","1","0","0","0.3977335033","","0.6","0.2","0.4","0.8","","","","","0.3977335033","0.04810206047","0.3844034803","0.4527537228","","","","","","","72","H","0","img/none_selected.jpg","","181","main_expt"
"356","","bandit","260","981366","0.0-221.0-0.0","44688841","wem/bandit_either","AMUV60QYHNUR3","either","3","","","","","","","0","1","0","","0.4194204302","0.6","0.2","0.4","0.8","0.4194204302","0.0564969073","0.3569363444","0.4733821952","","","","","","","","","","","72","H","0","img/none_selected.jpg","","182","main_expt"
"289","","bandit","261","983166","0.0-222.0-0.0","44688841","wem/bandit_either","AMUV60QYHNUR3","either","3","","","","","","","0","1","0","","0.4050300101","0.6","0.2","0.4","0.8","0.4050300101","0.06674959941","0.3930074682","0.4741352064","","","","","","","","","","","72","H","0","img/none_selected.jpg","","183","main_expt"
"363","","bandit","262","985036","0.0-223.0-0.0","44688841","wem/bandit_either","AMUV60QYHNUR3","either","3","","","","","","","0","1","0","","0.4272992256","0.6","0.2","0.4","0.8","0.4272992256","0.05730522946","0.4105724965","0.4835015011","","","","","","","","","","","72","H","0","img/none_selected.jpg","","184","main_expt"
"347","","bandit","263","986893","0.0-224.0-0.0","44688841","wem/bandit_either","AMUV60QYHNUR3","either","3","","","","","","","0","0","1","","0.4213026748","0.6","0.2","0.4","0.8","0.4213026748","0.0759668512","0.4230276401","0.4907566516","","","","","","","","","","","72","H","0","img/none_selected.jpg","","185","main_expt"
"371","","bandit","264","988775","0.0-225.0-0.0","44688841","wem/bandit_either","AMUV60QYHNUR3","either","3","","","","","","","0","0","1","0.3729626057","","0.6","0.2","0.4","0.8","","","","","0.3729626057","0.0736669194","0.4243078066","0.4777100538","","","","","","","72","H","0","img/none_selected.jpg","","186","main_expt"
"520","","bandit","265","990806","0.0-226.0-0.0","44688841","wem/bandit_either","AMUV60QYHNUR3","either","3","","","","","","","0","0","1","0.4022080601","","0.6","0.2","0.4","0.8","","","","","0.4022080601","0.1020870739","0.419104652","0.4751658893","","","","","","","72","H","0","img/none_selected.jpg","","187","main_expt"
"332","","bandit","266","992648","0.0-227.0-0.0","44688841","wem/bandit_either","AMUV60QYHNUR3","either","3","","","","","","","0","0","1","","0.4218987807","0.6","0.2","0.4","0.8","0.4218987807","0.110066606","0.3917910895","0.4711403756","","","","","","","","","","","72","H","0","img/none_selected.jpg","","188","main_expt"
"639","","bandit","267","994798","0.0-228.0-0.0","44688841","wem/bandit_either","AMUV60QYHNUR3","either","3","","","","","","","0","0","1","","0.4284519853","0.6","0.2","0.4","0.8","0.4284519853","0.1616324423","0.3696037293","0.4848283219","","","","","","","","","","","72","H","0","img/none_selected.jpg","","189","main_expt"
"659","","bandit","268","996965","0.0-229.0-0.0","44688841","wem/bandit_either","AMUV60QYHNUR3","either","3","","","","","","","0","0","1","0.4906713727","","0.6","0.2","0.4","0.8","","","","","0.4104863902","0.1401199573","0.3722688899","0.4906713727","","","","","","","76","L","3","","","190","main_expt"
"346","","bandit","269","998821","0.0-230.0-0.0","44688841","wem/bandit_either","AMUV60QYHNUR3","either","3","","","","","","","0","0","1","0.4944082075","","0.6","0.2","0.4","0.8","","","","","0.4071825693","0.1782786715","0.3956575009","0.4944082075","","","","","","","76","L","3","","","191","main_expt"
"235","","bandit","270","1000567","0.0-231.0-0.0","44688841","wem/bandit_either","AMUV60QYHNUR3","either","3","","","","","","","0","0","1","","0.4922337742","0.6","0.2","0.4","0.8","0.4172763132","0.203517815","0.3843500594","0.4922337742","","","","","","","","","","","76","L","3","","","192","main_expt"
"448","","bandit","271","1002525","0.0-232.0-0.0","44688841","wem/bandit_either","AMUV60QYHNUR3","either","3","","","","","","","1","0","0","0.4887356563","","0.6","0.2","0.4","0.8","","","","","0.3965334946","0.172030281","0.3801723293","0.4887356563","","","","","","","76","L","3","","","193","main_expt"
"636","","bandit","272","1004672","0.0-233.0-0.0","44688841","wem/bandit_either","AMUV60QYHNUR3","either","3","","","","","","","1","0","0","0.4850955297","","0.6","0.2","0.4","0.8","","","","","0.383316574","0.1813301739","0.3871645121","0.4850955297","","","","","","","76","L","3","","","194","main_expt"
"440","","bandit","273","1006621","0.0-234.0-0.0","44688841","wem/bandit_either","AMUV60QYHNUR3","either","3","","","","","","","1","0","0","0.4848341758","","0.6","0.2","0.4","0.8","","","","","0.3965345796","0.2284295163","0.3633903175","0.4848341758","","","","","","","76","L","3","","","195","main_expt"
"395","","bandit","274","1008527","0.0-235.0-0.0","44688841","wem/bandit_either","AMUV60QYHNUR3","either","3","","","","","","","0","0","1","0.490049139","","0.6","0.2","0.4","0.8","","","","","0.3978469093","0.2501246714","0.3811675741","0.490049139","","","","","","","76","L","3","","","196","main_expt"
"376","","bandit","275","1010412","0.0-236.0-0.0","44688841","wem/bandit_either","AMUV60QYHNUR3","either","3","","","","","","","1","0","0","0.4912643012","","0.6","0.2","0.4","0.8","","","","","0.3172926233","0.3150809007","0.3487868089","0.4912643012","","","","","","","76","L","3","","","197","main_expt"
"420","","bandit","276","1012341","0.0-237.0-0.0","44688841","wem/bandit_either","AMUV60QYHNUR3","either","3","","","","","","","0","0","1","0.4793615714","","0.6","0.2","0.4","0.8","","","","","0.3113170709","0.3442077965","0.2986771554","0.4793615714","","","","","","","76","L","3","","","198","main_expt"
"217","","bandit","277","1014069","0.0-238.0-0.0","44688841","wem/bandit_either","AMUV60QYHNUR3","either","3","","","","","","","1","0","0","0.4661622676","","0.6","0.2","0.4","0.8","","","","","0.3066116159","0.3675051223","0.3481418533","0.4661622676","","","","","","","76","L","3","","","199","main_expt"
"348","","bandit","278","1015927","0.0-239.0-0.0","44688841","wem/bandit_either","AMUV60QYHNUR3","either","3","","","","","","","1","0","0","0.4479238565","","0.6","0.2","0.4","0.8","","","","","0.2521122026","0.3044821291","0.353319573","0.4479238565","","","","","","","76","L","3","","","200","main_expt"
"377","","bandit","279","1017812","0.0-240.0-0.0","44688841","wem/bandit_either","AMUV60QYHNUR3","either","3","","","","","","","1","0","0","0.4429166455","","0.6","0.2","0.4","0.8","","","","","0.2679963248","0.3013824411","0.3676338631","0.4429166455","","","","","","","76","L","3","","","201","main_expt"
"372","","bandit","280","1019693","0.0-241.0-0.0","44688841","wem/bandit_either","AMUV60QYHNUR3","either","3","","","","","","","1","0","0","0.442820363","","0.6","0.2","0.4","0.8","","","","","0.2076546236","0.3001954661","0.311657493","0.442820363","","","","","","","76","L","3","","","202","main_expt"
"338","","bandit","281","1021542","0.0-242.0-0.0","44688841","wem/bandit_either","AMUV60QYHNUR3","either","3","","","","","","","1","0","0","0.4539008368","","0.6","0.2","0.4","0.8","","","","","0.1881707852","0.3189156814","0.3364041998","0.4539008368","","","","","","","76","L","3","","","203","main_expt"
"394","","bandit","282","1023451","0.0-243.0-0.0","44688841","wem/bandit_either","AMUV60QYHNUR3","either","3","","","","","","","0","1","0","","0.4163307037","0.6","0.2","0.4","0.8","0.2057853427","0.3162062407","0.3148670147","0.4163307037","","","","","","","","","","","76","L","3","","","204","main_expt"
"388","","bandit","283","1025349","0.0-244.0-0.0","44688841","wem/bandit_either","AMUV60QYHNUR3","either","3","","","","","","","0","0","1","0.4045388199","","0.6","0.2","0.4","0.8","","","","","0.2564451259","0.347278619","0.3293187519","0.4045388199","","","","","","","76","L","3","","","205","main_expt"
"235","","bandit","284","1027093","0.0-245.0-0.0","44688841","wem/bandit_either","AMUV60QYHNUR3","either","3","","","","","","","1","0","0","0.4083422121","","0.6","0.2","0.4","0.8","","","","","0.3082896296","0.2970129147","0.2705077244","0.4083422121","","","","","","","76","L","3","","","206","main_expt"
"297","","bandit","285","1028901","0.0-246.0-0.0","44688841","wem/bandit_either","AMUV60QYHNUR3","either","3","","","","","","","0","0","1","0.4033585138","","0.6","0.2","0.4","0.8","","","","","0.3235103938","0.3331481178","0.3083591011","0.4033585138","","","","","","","76","L","3","","","207","main_expt"
"122","","bandit","286","1030533","0.0-247.0-0.0","44688841","wem/bandit_either","AMUV60QYHNUR3","either","3","","","","","","","0","0","1","0.3753320851","","0.6","0.2","0.4","0.8","","","","","0.3563539536","0.3195917859","0.2489273718","0.3753320851","","","","","","","76","L","3","","","208","main_expt"
"296","","bandit","287","1032342","0.0-248.0-0.0","44688841","wem/bandit_either","AMUV60QYHNUR3","either","3","","","","","","","0","1","0","","0.3864970555","0.6","0.2","0.4","0.8","0.3821305916","0.3642345195","0.2224321457","0.3864970555","","","","","","","","","","","76","L","3","","","209","main_expt"
"297","","bandit","288","1034152","0.0-249.0-0.0","44688841","wem/bandit_either","AMUV60QYHNUR3","either","3","","","","","","","0","0","1","0.3894881908","","0.6","0.2","0.4","0.8","","","","","0.4067483812","0.3518797164","0.2184729634","0.3894881908","","","","","","","76","L","3","","","210","main_expt"
"432","","bandit","289","1036094","0.0-250.0-0.0","44688841","wem/bandit_either","AMUV60QYHNUR3","either","3","","","","","","","0","0","1","0.4052823736","","0.6","0.2","0.4","0.8","","","","","0.376825818","0.3781537602","0.2178464352","0.4052823736","","","","","","","76","L","3","","","211","main_expt"
"388","","bandit","290","1037991","0.0-251.0-0.0","44688841","wem/bandit_either","AMUV60QYHNUR3","either","3","","","","","","","0","1","0","","0.3783189977","0.6","0.2","0.4","0.8","0.3481764155","0.3773353051","0.1644702768","0.3783189977","","","","","","","","","","","76","L","3","","","212","main_expt"
"88","","bandit","291","1039589","0.0-252.0-0.0","44688841","wem/bandit_either","AMUV60QYHNUR3","either","3","","","","","","","0","0","1","","0.3804187243","0.6","0.2","0.4","0.8","0.3239198888","0.3448860985","0.1271660564","0.3804187243","","","","","","","","","","","76","L","3","","","213","main_expt"
"233","","bandit","292","1041334","0.0-253.0-0.0","44688841","wem/bandit_either","AMUV60QYHNUR3","either","3","","","","","","","0","0","1","0.3964056757","","0.6","0.2","0.4","0.8","","","","","0.3592643085","0.3622000499","0.1368129038","0.3964056757","","","","","","","76","L","3","","","214","main_expt"
"825","","bandit","293","1043670","0.0-254.0-0.0","44688841","wem/bandit_either","AMUV60QYHNUR3","either","3","","","","","","","0","0","1","","0.3939862607","0.6","0.2","0.4","0.8","0.3482739819","0.3408682726","0.07615368859","0.3939862607","","","","","","","","","","","76","L","3","","","215","main_expt"
"362","","bandit","294","1045541","0.0-255.0-0.0","44688841","wem/bandit_either","AMUV60QYHNUR3","either","3","","","","","","","0","0","1","","0.07711559412","0.6","0.2","0.4","0.8","0.2972527025","0.328819006","0.07711559412","0.4062496234","","","","","","","","","","","75","K","2","","","216","main_expt"
"274","","bandit","295","1047326","0.0-256.0-0.0","44688841","wem/bandit_either","AMUV60QYHNUR3","either","3","","","","","","","0","0","1","0.07728173513","","0.6","0.2","0.4","0.8","","","","","0.2850944341","0.3229374792","0.07728173513","0.3440498305","","","","","","","75","K","2","","","217","main_expt"
"297","","bandit","296","1049134","0.0-257.0-0.0","44688841","wem/bandit_either","AMUV60QYHNUR3","either","3","","","","","","","0","0","1","","0.07919919155","0.6","0.2","0.4","0.8","0.2483413171","0.3616220652","0.07919919155","0.3198020565","","","","","","","","","","","75","K","2","","","218","main_expt"
"457","","bandit","297","1051102","0.0-258.0-0.0","44688841","wem/bandit_either","AMUV60QYHNUR3","either","3","","","","","","","0","0","1","0.1270410367","","0.6","0.2","0.4","0.8","","","","","0.2680513607","0.3591176528","0.1270410367","0.3078290176","","","","","","","75","K","2","","","219","main_expt"
"347","","bandit","298","1052958","0.0-259.0-0.0","44688841","wem/bandit_either","AMUV60QYHNUR3","either","3","","","","","","","0","0","1","","0.2758994579","0.6","0.2","0.4","0.8","0.304668496","0.2758994579","0.1117499599","0.2961895162","","","","","","","","","","","74","J","1","","","220","main_expt"
"418","","bandit","299","1054884","0.0-260.0-0.0","44688841","wem/bandit_either","AMUV60QYHNUR3","either","3","","","","","","","1","0","0","0.3119987931","","0.6","0.2","0.4","0.8","","","","","0.2773284289","0.3119987931","0.1186324211","0.2658603678","","","","","","","74","J","1","","","221","main_expt"
"353","","bandit","300","1056748","0.0-261.0-0.0","44688841","wem/bandit_either","AMUV60QYHNUR3","either","3","","","","","","","0","0","1","","0.3106374463","0.6","0.2","0.4","0.8","0.2152506718","0.3106374463","0.1141050397","0.274695037","","","","","","","","","","","74","J","1","","","222","main_expt"
"475","","bandit","301","1058732","0.0-262.0-0.0","44688841","wem/bandit_either","AMUV60QYHNUR3","either","3","","","","","","","0","0","1","","0.3131570504","0.6","0.2","0.4","0.8","0.2445797097","0.3131570504","0.1007228699","0.2210940289","","","","","","","","","","","74","J","1","","","223","main_expt"
"131","","bandit","302","1060373","0.0-263.0-0.0","44688841","wem/bandit_either","AMUV60QYHNUR3","either","3","","","","","","","0","1","0","","0.3025994915","0.6","0.2","0.4","0.8","0.2559263424","0.3025994915","0.1380584308","0.1843933297","","","","","","","","","","","74","J","1","","","224","main_expt"
"296","","bandit","303","1062181","0.0-264.0-0.0","44688841","wem/bandit_either","AMUV60QYHNUR3","either","3","","","","","","","0","0","1","","0.2994132709","0.6","0.2","0.4","0.8","0.2702522324","0.2994132709","0.1393521225","0.212211923","","","","","","","","","","","74","J","1","","","225","main_expt"
"410","","bandit","304","1064101","0.0-265.0-0.0","44688841","wem/bandit_either","AMUV60QYHNUR3","either","3","","","","","","","0","0","1","","0.2866794375","0.6","0.2","0.4","0.8","0.2646860425","0.2866794375","0.2094269877","0.2315036379","","","","","","","","","","","74","J","1","","","226","main_expt"
"336","","bandit","305","1065948","0.0-266.0-0.0","44688841","wem/bandit_either","AMUV60QYHNUR3","either","3","","","","","","","1","0","0","0.2299222882","","0.6","0.2","0.4","0.8","","","","","0.269556559","0.2299222882","0.2959232149","0.2646353212","","","","","","","74","J","1","","","227","main_expt"
"353","","bandit","306","1067814","0.0-267.0-0.0","44688841","wem/bandit_either","AMUV60QYHNUR3","either","3","","","","","","","1","0","0","0.2991813551","","0.6","0.2","0.4","0.8","","","","","0.2498152532","0.2991813551","0.374355758","0.2443517867","","","","","","","74","J","1","","","228","main_expt"
"449","","bandit","307","1069772","0.0-268.0-0.0","44688841","wem/bandit_either","AMUV60QYHNUR3","either","3","","","","","","","0","0","1","","0.3295538921","0.6","0.2","0.4","0.8","0.2495566458","0.3295538921","0.3876740502","0.2569692975","","","","","","","","","","","74","J","1","","","229","main_expt"
"467","","bandit","308","1071750","0.0-269.0-0.0","44688841","wem/bandit_either","AMUV60QYHNUR3","either","3","","","","","","","0","0","1","0.2713593359","","0.6","0.2","0.4","0.8","","","","","0.2134382902","0.2713593359","0.3341674595","0.2490290172","","","","","","","74","J","1","","","230","main_expt"
"360","","bandit","309","1073622","0.0-270.0-0.0","44688841","wem/bandit_either","AMUV60QYHNUR3","either","3","","","","","","","0","0","1","","0.2746975787","0.6","0.2","0.4","0.8","0.2099205747","0.2746975787","0.3558281537","0.2368643707","","","","","","","","","","","74","J","1","","","231","main_expt"
"696","","bandit","310","1075831","0.0-271.0-0.0","44688841","wem/bandit_either","AMUV60QYHNUR3","either","3","","","","","","","0","0","1","","0.2817934899","0.6","0.2","0.4","0.8","0.1598609145","0.2817934899","0.3293076861","0.2857324616","","","","","","","","","","","74","J","1","","","232","main_expt"
"423","","bandit","311","1077765","0.0-272.0-0.0","44688841","wem/bandit_either","AMUV60QYHNUR3","either","3","","","","","","","0","0","1","","0.1472569172","0.6","0.2","0.4","0.8","0.1472569172","0.3139736629","0.3271309306","0.226619475","","","","","","","","","","","72","H","0","img/none_selected.jpg","","233","main_expt"
"393","","bandit","312","1079669","0.0-273.0-0.0","44688841","wem/bandit_either","AMUV60QYHNUR3","either","3","","","","","","","0","0","1","0.1123375355","","0.6","0.2","0.4","0.8","","","","","0.1123375355","0.3332560948","0.3510228885","0.2448251662","","","","","","","72","H","0","img/none_selected.jpg","","234","main_expt"
"328","","bandit","313","1081508","0.0-274.0-0.0","44688841","wem/bandit_either","AMUV60QYHNUR3","either","3","","","","","","","0","0","1","0.1562424728","","0.6","0.2","0.4","0.8","","","","","0.1562424728","0.3475281657","0.3346663699","0.2996798263","","","","","","","72","H","0","img/none_selected.jpg","","235","main_expt"
"755","","bandit","314","1083773","0.0-275.0-0.0","44688841","wem/bandit_either","AMUV60QYHNUR3","either","3","","","","","","","0","1","0","","0.1623269298","0.6","0.2","0.4","0.8","0.1623269298","0.3170984437","0.332043614","0.3220329496","","","","","","","","","","","72","H","0","img/none_selected.jpg","","236","main_expt"
"408","","bandit","315","1085693","0.0-276.0-0.0","44688841","wem/bandit_either","AMUV60QYHNUR3","either","3","","","","","","","0","0","1","0.1362759337","","0.6","0.2","0.4","0.8","","","","","0.1362759337","0.3611259067","0.2780661838","0.3672390457","","","","","","","72","H","0","img/none_selected.jpg","","237","main_expt"
"337","","bandit","316","1087540","0.0-277.0-0.0","44688841","wem/bandit_either","AMUV60QYHNUR3","either","3","","","","","","","0","0","1","0.1282223372","","0.6","0.2","0.4","0.8","","","","","0.1282223372","0.3449339383","0.3071002506","0.3702030288","","","","","","","72","H","0","img/none_selected.jpg","","238","main_expt"
"498","","bandit","317","1089549","0.0-278.0-0.0","44688841","wem/bandit_either","AMUV60QYHNUR3","either","3","","","","","","","0","0","1","0.08262393641","","0.6","0.2","0.4","0.8","","","","","0.08262393641","0.3006984684","0.3101279526","0.3486367063","","","","","","","72","H","0","img/none_selected.jpg","","239","main_expt"
"17","","bandit","318","1091076","0.0-279.0-0.0","44688841","wem/bandit_either","AMUV60QYHNUR3","either","3","","","","","","","0","0","1","","0.09366491666","0.6","0.2","0.4","0.8","0.09366491666","0.3355390738","0.3071576631","0.3422639114","","","","","","","","","","","72","H","0","img/none_selected.jpg","","240","main_expt"
"201","","bandit","319","1092788","0.0-280.0-0.0","44688841","wem/bandit_either","AMUV60QYHNUR3","either","3","","","","","","","0","0","1","0.09778426954","","0.6","0.2","0.4","0.8","","","","","0.09778426954","0.3513118525","0.3213727252","0.3703795114","","","","","","","72","H","0","img/none_selected.jpg","","241","main_expt"
"378","","bandit","320","1094677","0.0-281.0-0.0","44688841","wem/bandit_either","AMUV60QYHNUR3","either","3","","","","","","","0","0","1","0.3362310887","","0.6","0.2","0.4","0.8","","","","","0.0684580113","0.2871404103","0.3303042821","0.3362310887","","","","","","","76","L","3","","","242","main_expt"
"12425","","bandit","321","1108612","0.0-282.0-0.0","44688841","wem/bandit_either","AMUV60QYHNUR3","either","3","","","","","","","0","0","1","0.3855302341","","0.6","0.2","0.4","0.8","","","","","0.05756719403","0.2582353252","0.386578507","0.3855302341","","","","","","","76","L","3","","","243","main_expt"
"463","","bandit","322","1110589","0.0-283.0-0.0","44688841","wem/bandit_either","AMUV60QYHNUR3","either","3","","","","","","","0","0","1","0.3504604058","","0.6","0.2","0.4","0.8","","","","","0.07954378931","0.2108553612","0.3582196724","0.3504604058","","","","","","","76","L","3","","","244","main_expt"
"510","","bandit","323","1112612","0.0-284.0-0.0","44688841","wem/bandit_either","AMUV60QYHNUR3","either","3","","","","","","","1","0","0","0.3586275713","","0.6","0.2","0.4","0.8","","","","","0.07668718344","0.190308294","0.3626170977","0.3586275713","","","","","","","76","L","3","","","245","main_expt"
"415","","bandit","324","1114540","0.0-285.0-0.0","44688841","wem/bandit_either","AMUV60QYHNUR3","either","3","","","","","","","0","0","1","0.3202710015","","0.6","0.2","0.4","0.8","","","","","0.08627194322","0.2079876503","0.2778980274","0.3202710015","","","","","","","76","L","3","","","246","main_expt"
"832","","bandit","325","1116883","0.0-286.0-0.0","44688841","wem/bandit_either","AMUV60QYHNUR3","either","3","","","","","","","0","0","1","0.2874587678","","0.6","0.2","0.4","0.8","","","","","0.1009858539","0.2053262284","0.2864864277","0.2874587678","","","","","","","76","L","3","","","247","main_expt"
"417","","bandit","326","1118813","0.0-287.0-0.0","44688841","wem/bandit_either","AMUV60QYHNUR3","either","3","","","","","","","0","0","1","0.2703076155","","0.6","0.2","0.4","0.8","","","","","0.1044033157","0.2699327364","0.2883304048","0.2703076155","","","","","","","76","L","3","","","248","main_expt"
"431","","bandit","327","1120757","0.0-288.0-0.0","44688841","wem/bandit_either","AMUV60QYHNUR3","either","3","","","","","","","0","1","0","","0.2212833967","0.6","0.2","0.4","0.8","0.07254640656","0.2917851334","0.3034325887","0.2212833967","","","","","","","","","","","76","L","3","","","249","main_expt"
"310","","bandit","328","1122580","0.0-289.0-0.0","44688841","wem/bandit_either","AMUV60QYHNUR3","either","3","","","","","","","1","0","0","0.2174917034","","0.6","0.2","0.4","0.8","","","","","0.09512939239","0.2530543584","0.2582013927","0.2174917034","","","","","","","76","L","3","","","250","main_expt"
"23","","bandit","329","1124115","0.0-290.0-0.0","44688841","wem/bandit_either","AMUV60QYHNUR3","either","3","","","","","","","0","0","1","0.2008338107","","0.6","0.2","0.4","0.8","","","","","0.06759478125","0.2345859063","0.2337836179","0.2008338107","","","","","","","76","L","3","","","251","main_expt"
"1347","","bandit","330","1126979","0.0-291.0-0.0","44688841","wem/bandit_either","AMUV60QYHNUR3","either","3","","","","","","","0","0","1","0.2294508047","","0.6","0.2","0.4","0.8","","","","","0.05682902113","0.2407419433","0.2477033955","0.2294508047","","","","","","","76","L","3","","","252","main_expt"
"769","","bandit","331","1129261","0.0-292.0-0.0","44688841","wem/bandit_either","AMUV60QYHNUR3","either","3","","","","","","","0","0","1","0.2678406235","","0.6","0.2","0.4","0.8","","","","","0.04662337877","0.2016139721","0.2187012899","0.2678406235","","","","","","","76","L","3","","","253","main_expt"
"423","","bandit","332","1131196","0.0-293.0-0.0","44688841","wem/bandit_either","AMUV60QYHNUR3","either","3","","","","","","","0","0","1","0.3248943382","","0.6","0.2","0.4","0.8","","","","","0.05613237953","0.2204455337","0.2247734494","0.3248943382","","","","","","","76","L","3","","","254","main_expt"
