"rt","responses","trial_type","trial_index","time_elapsed","internal_node_id","subjID","study","MID","cond","drift","key_press","expt_phase","target","like","value","connected","gems","bombs","no_reward","GemPrChosen","BombPrChosen","GainOverPainPr_0","GainOverPainPr_1","GainOverPainPr_2","GainOverPainPr_3","LosePr_0","LosePr_1","LosePr_2","LosePr_3","WinPr_0","WinPr_1","WinPr_2","WinPr_3","Q0","Q1","Q2","gender","age","ethnicity","respCharCode","respKey","respChoiceNum","respChoice","practice","trial_counter","trial_label"
"34623","{""Q0"":""AU8YVB738G6C""}","survey-text","0","34629","0.0-0.0","44930780","wem/bandit_either","AU8YVB738G6C","either","3","","","","","","","","","","","","","","","","","","","","","","","","","","","","","","","","","","","",""
"34953","","text","1","70593","0.0-1.0","44930780","wem/bandit_either","AU8YVB738G6C","either","3","32","","","","","","","","","","","","","","","","","","","","","","","","","","","","","","","","","","",""
"8016","","text","2","78610","0.0-2.0","44930780","wem/bandit_either","AU8YVB738G6C","either","3","32","","","","","","","","","","","","","","","","","","","","","","","","","","","","","","","","","","",""
"20767","","text","3","99377","0.0-3.0","44930780","wem/bandit_either","AU8YVB738G6C","either","3","32","","","","","","","","","","","","","","","","","","","","","","","","","","","","","","","","","","",""
"15194","","text","4","114573","0.0-4.0","44930780","wem/bandit_either","AU8YVB738G6C","either","3","32","","","","","","","","","","","","","","","","","","","","","","","","","","","","","","","","","","",""
"17872","","text","5","132446","0.0-5.0","44930780","wem/bandit_either","AU8YVB738G6C","either","3","32","","","","","","","","","","","","","","","","","","","","","","","","","","","","","","","","","","",""
"11547","","text","6","143995","0.0-6.0","44930780","wem/bandit_either","AU8YVB738G6C","either","3","32","","","","","","","","","","","","","","","","","","","","","","","","","","","","","","","","","","",""
"9569","","text","7","153565","0.0-7.0","44930780","wem/bandit_either","AU8YVB738G6C","either","3","32","","","","","","","","","","","","","","","","","","","","","","","","","","","","","","","","","","",""
"18508","","identification","8","172094","0.0-8.0-0.0","44930780","wem/bandit_either","AU8YVB738G6C","either","3","","identification_pre","the village of Zur","","","","","","","","","","","","","","","","","","","","","","","","","","","","","","","","",""
"8163","","identification","9","181274","0.0-8.0-1.0","44930780","wem/bandit_either","AU8YVB738G6C","either","3","","identification_pre","the village of Nyx","","","","","","","","","","","","","","","","","","","","","","","","","","","","","","","","",""
"14919","","text","10","197207","0.0-9.0","44930780","wem/bandit_either","AU8YVB738G6C","either","3","32","","","","","","","","","","","","","","","","","","","","","","","","","","","","","","","","","","",""
"5165","","text","11","202372","0.0-10.0","44930780","wem/bandit_either","AU8YVB738G6C","either","3","32","","","","","","","","","","","","","","","","","","","","","","","","","","","","","","","","","","",""
"4105","","text","12","206477","0.0-11.0","44930780","wem/bandit_either","AU8YVB738G6C","either","3","32","","","","","","","","","","","","","","","","","","","","","","","","","","","","","","","","","","",""
"21683","","text","13","228161","0.0-12.0","44930780","wem/bandit_either","AU8YVB738G6C","either","3","32","","","","","","","","","","","","","","","","","","","","","","","","","","","","","","","","","","",""
"7849","","bandit","14","237544","0.0-13.0-0.0","44930780","wem/bandit_either","AU8YVB738G6C","either","3","","","","","","","0","0","1","0","0","","","","","0","","","","0","","","","","","","","","","74","J","0","img/none_selected_demo.jpg","true","0",""
"2136","","bandit","15","241199","0.0-14.0-0.0","44930780","wem/bandit_either","AU8YVB738G6C","either","3","","","","","","","0","0","1","0","0","","","","","0","","","","0","","","","","","","","","","75","K","0","img/none_selected_demo.jpg","true","0",""
"12061","","text","16","253261","0.0-15.0","44930780","wem/bandit_either","AU8YVB738G6C","either","3","32","","","","","","","","","","","","","","","","","","","","","","","","","","","","","","","","","","",""
"38493","","text","17","291754","0.0-16.0","44930780","wem/bandit_either","AU8YVB738G6C","either","3","32","","","","","","","","","","","","","","","","","","","","","","","","","","","","","","","","","","",""
"7190","","text","18","298946","0.0-17.0","44930780","wem/bandit_either","AU8YVB738G6C","either","3","32","","","","","","","","","","","","","","","","","","","","","","","","","","","","","","","","","","",""
"6329","","text","19","305277","0.0-18.0","44930780","wem/bandit_either","AU8YVB738G6C","either","3","32","","","","","","","","","","","","","","","","","","","","","","","","","","","","","","","","","","",""
"2654","","bandit","20","309457","0.0-19.0-0.0","44930780","wem/bandit_either","AU8YVB738G6C","either","3","","","","","","","0","1","0","","0.8","0.5","0.5","","","0.8","0.2","","","","","","","","","","","","","74","J","0","img/none_selected_demo.jpg","true","0","80_20_practice"
"3403","","bandit","21","314373","0.0-19.0-1.0","44930780","wem/bandit_either","AU8YVB738G6C","either","3","","","","","","","0","0","1","","0.2","0.5","0.5","","","0.8","0.2","","","","","","","","","","","","","75","K","1","","true","0","80_20_practice"
"679","","bandit","22","316569","0.0-19.0-2.0","44930780","wem/bandit_either","AU8YVB738G6C","either","3","","","","","","","1","0","0","0.2","","0.5","0.5","","","","","","","0.8","0.2","","","","","","","","","75","K","1","","true","0","80_20_practice"
"1698","","bandit","23","319780","0.0-19.0-3.0","44930780","wem/bandit_either","AU8YVB738G6C","either","3","","","","","","","0","0","1","0.8","","0.5","0.5","","","","","","","0.8","0.2","","","","","","","","","74","J","0","img/none_selected_demo.jpg","true","0","80_20_practice"
"540","","bandit","24","321839","0.0-19.0-4.0","44930780","wem/bandit_either","AU8YVB738G6C","either","3","","","","","","","0","0","1","","0.2","0.5","0.5","","","0.8","0.2","","","","","","","","","","","","","75","K","1","","true","0","80_20_practice"
"431","","bandit","25","323790","0.0-19.0-5.0","44930780","wem/bandit_either","AU8YVB738G6C","either","3","","","","","","","0","1","0","","0.2","0.5","0.5","","","0.8","0.2","","","","","","","","","","","","","75","K","1","","true","0","80_20_practice"
"549","","bandit","26","325864","0.0-19.0-6.0","44930780","wem/bandit_either","AU8YVB738G6C","either","3","","","","","","","0","0","1","0.2","","0.5","0.5","","","","","","","0.8","0.2","","","","","","","","","75","K","1","","true","0","80_20_practice"
"296","","bandit","27","327674","0.0-19.0-7.0","44930780","wem/bandit_either","AU8YVB738G6C","either","3","","","","","","","1","0","0","0.8","","0.5","0.5","","","","","","","0.8","0.2","","","","","","","","","74","J","0","img/none_selected_demo.jpg","true","0","80_20_practice"
"639","","bandit","28","329837","0.0-19.0-8.0","44930780","wem/bandit_either","AU8YVB738G6C","either","3","","","","","","","0","1","0","","0.8","0.5","0.5","","","0.8","0.2","","","","","","","","","","","","","74","J","0","img/none_selected_demo.jpg","true","0","80_20_practice"
"387","","bandit","29","331736","0.0-19.0-9.0","44930780","wem/bandit_either","AU8YVB738G6C","either","3","","","","","","","0","1","0","","0.2","0.5","0.5","","","0.8","0.2","","","","","","","","","","","","","75","K","1","","true","0","80_20_practice"
"387","","bandit","30","333634","0.0-19.0-10.0","44930780","wem/bandit_either","AU8YVB738G6C","either","3","","","","","","","0","1","0","","0.8","0.5","0.5","","","0.8","0.2","","","","","","","","","","","","","74","J","0","img/none_selected_demo.jpg","true","0","80_20_practice"
"307","","bandit","31","335455","0.0-19.0-11.0","44930780","wem/bandit_either","AU8YVB738G6C","either","3","","","","","","","1","0","0","0.8","","0.5","0.5","","","","","","","0.8","0.2","","","","","","","","","74","J","0","img/none_selected_demo.jpg","true","0","80_20_practice"
"599","","bandit","32","337575","0.0-19.0-12.0","44930780","wem/bandit_either","AU8YVB738G6C","either","3","","","","","","","1","0","0","0.8","","0.5","0.5","","","","","","","0.8","0.2","","","","","","","","","74","J","0","img/none_selected_demo.jpg","true","0","80_20_practice"
"970","","bandit","33","340063","0.0-19.0-13.0","44930780","wem/bandit_either","AU8YVB738G6C","either","3","","","","","","","0","0","1","","0.8","0.5","0.5","","","0.8","0.2","","","","","","","","","","","","","74","J","0","img/none_selected_demo.jpg","true","0","80_20_practice"
"458","","bandit","34","342028","0.0-19.0-14.0","44930780","wem/bandit_either","AU8YVB738G6C","either","3","","","","","","","0","0","1","","0.2","0.5","0.5","","","0.8","0.2","","","","","","","","","","","","","75","K","1","","true","0","80_20_practice"
"866","","bandit","35","344413","0.0-19.0-15.0","44930780","wem/bandit_either","AU8YVB738G6C","either","3","","","","","","","0","0","1","","0.2","0.5","0.5","","","0.8","0.2","","","","","","","","","","","","","75","K","1","","true","0","80_20_practice"
"302","","bandit","36","346241","0.0-19.0-16.0","44930780","wem/bandit_either","AU8YVB738G6C","either","3","","","","","","","1","0","0","0.8","","0.5","0.5","","","","","","","0.8","0.2","","","","","","","","","74","J","0","img/none_selected_demo.jpg","true","0","80_20_practice"
"513","","bandit","37","348268","0.0-19.0-17.0","44930780","wem/bandit_either","AU8YVB738G6C","either","3","","","","","","","1","0","0","0.8","","0.5","0.5","","","","","","","0.8","0.2","","","","","","","","","74","J","0","img/none_selected_demo.jpg","true","0","80_20_practice"
"411","","bandit","38","350194","0.0-19.0-18.0","44930780","wem/bandit_either","AU8YVB738G6C","either","3","","","","","","","1","0","0","0.8","","0.5","0.5","","","","","","","0.8","0.2","","","","","","","","","74","J","0","img/none_selected_demo.jpg","true","0","80_20_practice"
"1405","","bandit","39","353102","0.0-19.0-19.0","44930780","wem/bandit_either","AU8YVB738G6C","either","3","","","","","","","0","0","1","0.8","","0.5","0.5","","","","","","","0.8","0.2","","","","","","","","","74","J","0","img/none_selected_demo.jpg","true","0","80_20_practice"
"12720","","text","40","365823","0.0-20.0","44930780","wem/bandit_either","AU8YVB738G6C","either","3","32","","","","","","","","","","","","","","","","","","","","","","","","","","","","","","","","","","",""
"2296","","bandit","41","369630","0.0-21.0-0.0","44930780","wem/bandit_either","AU8YVB738G6C","either","3","","","","","","","1","0","0","1","0","","","","","0","1","","","1","0","","","","","","","","","74","J","0","img/none_selected_demo.jpg","true","0",""
"6482","","text","42","376114","0.0-22.0","44930780","wem/bandit_either","AU8YVB738G6C","either","3","32","","","","","","","","","","","","","","","","","","","","","","","","","","","","","","","","","","",""
"6374","","text","43","382489","0.0-23.0","44930780","wem/bandit_either","AU8YVB738G6C","either","3","32","","","","","","","","","","","","","","","","","","","","","","","","","","","","","","","","","","",""
"4268","","text","44","386758","0.0-24.0","44930780","wem/bandit_either","AU8YVB738G6C","either","3","32","","","","","","","","","","","","","","","","","","","","","","","","","","","","","","","","","","",""
"4289","","text","45","391049","0.0-25.0","44930780","wem/bandit_either","AU8YVB738G6C","either","3","32","","","","","","","","","","","","","","","","","","","","","","","","","","","","","","","","","","",""
"9201","","text","46","400251","0.0-26.0","44930780","wem/bandit_either","AU8YVB738G6C","either","3","32","","","","","","","","","","","","","","","","","","","","","","","","","","","","","","","","","","",""
"3744","","text","47","403997","0.0-27.0","44930780","wem/bandit_either","AU8YVB738G6C","either","3","32","","","","","","","","","","","","","","","","","","","","","","","","","","","","","","","","","","",""
"4015","","text","48","408013","0.0-28.0","44930780","wem/bandit_either","AU8YVB738G6C","either","3","32","","","","","","","","","","","","","","","","","","","","","","","","","","","","","","","","","","",""
"7924","","text","49","415938","0.0-29.0","44930780","wem/bandit_either","AU8YVB738G6C","either","3","32","","","","","","","","","","","","","","","","","","","","","","","","","","","","","","","","","","",""
"4826","","text","50","420766","0.0-30.0","44930780","wem/bandit_either","AU8YVB738G6C","either","3","32","","","","","","","","","","","","","","","","","","","","","","","","","","","","","","","","","","",""
"2492","","text","51","423258","0.0-31.0","44930780","wem/bandit_either","AU8YVB738G6C","either","3","32","","","","","","","","","","","","","","","","","","","","","","","","","","","","","","","","","","",""
"4469","","text","52","427729","0.0-32.0","44930780","wem/bandit_either","AU8YVB738G6C","either","3","32","","","","","","","","","","","","","","","","","","","","","","","","","","","","","","","","","","",""
"1101","","bandit","53","430355","0.0-33.0-0.0","44930780","wem/bandit_either","AU8YVB738G6C","either","3","","","","","","","1","0","0","0.8","","0.5","0.5","0.5","0.5","","","","","0.8","0.2","0.6","0.2","","","","","","","72","H","0","img/none_selected.jpg","true","0","full_practice"
"812","","bandit","54","432684","0.0-33.0-1.0","44930780","wem/bandit_either","AU8YVB738G6C","either","3","","","","","","","0","0","1","0.2","","0.5","0.5","0.5","0.5","","","","","0.8","0.2","0.6","0.2","","","","","","","74","J","1","","true","0","full_practice"
"1108","","bandit","55","435315","0.0-33.0-2.0","44930780","wem/bandit_either","AU8YVB738G6C","either","3","","","","","","","0","0","1","0.8","","0.5","0.5","0.5","0.5","","","","","0.8","0.2","0.6","0.2","","","","","","","72","H","0","img/none_selected.jpg","true","0","full_practice"
"558","","bandit","56","437400","0.0-33.0-3.0","44930780","wem/bandit_either","AU8YVB738G6C","either","3","","","","","","","0","0","1","","0.2","0.5","0.5","0.5","0.5","0.8","0.2","0.6","0.2","","","","","","","","","","","76","L","3","","true","0","full_practice"
"746","","bandit","57","439665","0.0-33.0-4.0","44930780","wem/bandit_either","AU8YVB738G6C","either","3","","","","","","","1","0","0","0.6","","0.5","0.5","0.5","0.5","","","","","0.8","0.2","0.6","0.2","","","","","","","75","K","2","","true","0","full_practice"
"639","","bandit","58","441822","0.0-33.0-5.0","44930780","wem/bandit_either","AU8YVB738G6C","either","3","","","","","","","1","0","0","0.6","","0.5","0.5","0.5","0.5","","","","","0.8","0.2","0.6","0.2","","","","","","","75","K","2","","true","0","full_practice"
"691","","bandit","59","444021","0.0-33.0-6.0","44930780","wem/bandit_either","AU8YVB738G6C","either","3","","","","","","","0","0","1","0.6","","0.5","0.5","0.5","0.5","","","","","0.8","0.2","0.6","0.2","","","","","","","75","K","2","","true","0","full_practice"
"496","","bandit","60","446028","0.0-33.0-7.0","44930780","wem/bandit_either","AU8YVB738G6C","either","3","","","","","","","0","1","0","","0.6","0.5","0.5","0.5","0.5","0.8","0.2","0.6","0.2","","","","","","","","","","","75","K","2","","true","0","full_practice"
"373","","bandit","61","447912","0.0-33.0-8.0","44930780","wem/bandit_either","AU8YVB738G6C","either","3","","","","","","","0","0","1","0.2","","0.5","0.5","0.5","0.5","","","","","0.8","0.2","0.6","0.2","","","","","","","76","L","3","","true","0","full_practice"
"719","","bandit","62","450136","0.0-33.0-9.0","44930780","wem/bandit_either","AU8YVB738G6C","either","3","","","","","","","0","0","1","","0.2","0.5","0.5","0.5","0.5","0.8","0.2","0.6","0.2","","","","","","","","","","","74","J","1","","true","0","full_practice"
"569","","bandit","63","452225","0.0-33.0-10.0","44930780","wem/bandit_either","AU8YVB738G6C","either","3","","","","","","","1","0","0","0.8","","0.5","0.5","0.5","0.5","","","","","0.8","0.2","0.6","0.2","","","","","","","72","H","0","img/none_selected.jpg","true","0","full_practice"
"402","","bandit","64","454146","0.0-33.0-11.0","44930780","wem/bandit_either","AU8YVB738G6C","either","3","","","","","","","1","0","0","0.8","","0.5","0.5","0.5","0.5","","","","","0.8","0.2","0.6","0.2","","","","","","","72","H","0","img/none_selected.jpg","true","0","full_practice"
"376","","bandit","65","456040","0.0-33.0-12.0","44930780","wem/bandit_either","AU8YVB738G6C","either","3","","","","","","","0","1","0","","0.8","0.5","0.5","0.5","0.5","0.8","0.2","0.6","0.2","","","","","","","","","","","72","H","0","img/none_selected.jpg","true","0","full_practice"
"755","","bandit","66","458313","0.0-33.0-13.0","44930780","wem/bandit_either","AU8YVB738G6C","either","3","","","","","","","0","0","1","0.2","","0.5","0.5","0.5","0.5","","","","","0.8","0.2","0.6","0.2","","","","","","","74","J","1","","true","0","full_practice"
"897","","bandit","67","460726","0.0-33.0-14.0","44930780","wem/bandit_either","AU8YVB738G6C","either","3","","","","","","","0","0","1","0.6","","0.5","0.5","0.5","0.5","","","","","0.8","0.2","0.6","0.2","","","","","","","75","K","2","","true","0","full_practice"
"277","","bandit","68","462530","0.0-33.0-15.0","44930780","wem/bandit_either","AU8YVB738G6C","either","3","","","","","","","0","0","1","","0.2","0.5","0.5","0.5","0.5","0.8","0.2","0.6","0.2","","","","","","","","","","","76","L","3","","true","0","full_practice"
"2014","","bandit","69","466053","0.0-33.0-16.0","44930780","wem/bandit_either","AU8YVB738G6C","either","3","","","","","","","1","0","0","0.8","","0.5","0.5","0.5","0.5","","","","","0.8","0.2","0.6","0.2","","","","","","","72","H","0","img/none_selected.jpg","true","0","full_practice"
"426","","bandit","70","467993","0.0-33.0-17.0","44930780","wem/bandit_either","AU8YVB738G6C","either","3","","","","","","","1","0","0","0.8","","0.5","0.5","0.5","0.5","","","","","0.8","0.2","0.6","0.2","","","","","","","72","H","0","img/none_selected.jpg","true","0","full_practice"
"618","","bandit","71","470134","0.0-33.0-18.0","44930780","wem/bandit_either","AU8YVB738G6C","either","3","","","","","","","1","0","0","0.8","","0.5","0.5","0.5","0.5","","","","","0.8","0.2","0.6","0.2","","","","","","","72","H","0","img/none_selected.jpg","true","0","full_practice"
"432","","bandit","72","472082","0.0-33.0-19.0","44930780","wem/bandit_either","AU8YVB738G6C","either","3","","","","","","","1","0","0","0.8","","0.5","0.5","0.5","0.5","","","","","0.8","0.2","0.6","0.2","","","","","","","72","H","0","img/none_selected.jpg","true","0","full_practice"
"4208","","text","73","476294","0.0-34.0","44930780","wem/bandit_either","AU8YVB738G6C","either","3","32","","","","","","","","","","","","","","","","","","","","","","","","","","","","","","","","","","",""
"24791","","text","74","502101","0.0-35.0","44930780","wem/bandit_either","AU8YVB738G6C","either","3","32","","","","","","","","","","","","","","","","","","","","","","","","","","","","","","","","","","",""
"10864","","text","75","512967","0.0-36.0","44930780","wem/bandit_either","AU8YVB738G6C","either","3","32","","","","","","","","","","","","","","","","","","","","","","","","","","","","","","","","","","",""
"6013","","text","76","518982","0.0-37.0","44930780","wem/bandit_either","AU8YVB738G6C","either","3","32","","","","","","","","","","","","","","","","","","","","","","","","","","","","","","","","","","",""
"5788","","text","77","524772","0.0-38.0","44930780","wem/bandit_either","AU8YVB738G6C","either","3","32","","","","","","","","","","","","","","","","","","","","","","","","","","","","","","","","","","",""
"6643","","text","78","531417","0.0-39.0","44930780","wem/bandit_either","AU8YVB738G6C","either","3","32","","","","","","","","","","","","","","","","","","","","","","","","","","","","","","","","","","",""
"803","","bandit","79","533737","0.0-40.0-0.0","44930780","wem/bandit_either","AU8YVB738G6C","either","3","","","","","","","0","0","1","","0.4870892339","0.2","0.4","0.6","0.8","0.4870892339","0.1426046982","0.1646489015","0.07685641067","","","","","","","","","","","72","H","0","img/none_selected.jpg","","1","main_expt"
"326","","bandit","80","535590","0.0-41.0-0.0","44930780","wem/bandit_either","AU8YVB738G6C","either","3","","","","","","","0","0","1","","0.4875162112","0.2","0.4","0.6","0.8","0.4875162112","0.1597004976","0.2180431119","0.08388143876","","","","","","","","","","","72","H","0","img/none_selected.jpg","","2","main_expt"
"590","","bandit","81","537707","0.0-42.0-0.0","44930780","wem/bandit_either","AU8YVB738G6C","either","3","","","","","","","0","0","1","","0.1381850853","0.2","0.4","0.6","0.8","0.4909945117","0.1381850853","0.2294217256","0.06528774038","","","","","","","","","","","74","J","1","","","3","main_expt"
"345","","bandit","82","539562","0.0-43.0-0.0","44930780","wem/bandit_either","AU8YVB738G6C","either","3","","","","","","","0","0","1","0.2162119515","","0.2","0.4","0.6","0.8","","","","","0.482579304","0.1787932262","0.2162119515","0.07987899881","","","","","","","75","K","2","","","4","main_expt"
"229","","bandit","83","541300","0.0-44.0-0.0","44930780","wem/bandit_either","AU8YVB738G6C","either","3","","","","","","","0","0","1","0.0432391811","","0.2","0.4","0.6","0.8","","","","","0.4887913002","0.1795032464","0.2246316054","0.0432391811","","","","","","","76","L","3","","","5","main_expt"
"361","","bandit","84","543174","0.0-45.0-0.0","44930780","wem/bandit_either","AU8YVB738G6C","either","3","","","","","","","0","0","1","0.03467601655","","0.2","0.4","0.6","0.8","","","","","0.4887860333","0.164375756","0.2061018479","0.03467601655","","","","","","","76","L","3","","","6","main_expt"
"120","","bandit","85","544822","0.0-46.0-0.0","44930780","wem/bandit_either","AU8YVB738G6C","either","3","","","","","","","0","0","1","0.1795347326","","0.2","0.4","0.6","0.8","","","","","0.4901971563","0.204957223","0.1795347326","0.05033951668","","","","","","","75","K","2","","","7","main_expt"
"236","","bandit","86","546589","0.0-47.0-0.0","44930780","wem/bandit_either","AU8YVB738G6C","either","3","","","","","","","0","0","1","","0.2162036531","0.2","0.4","0.6","0.8","0.4862230721","0.2162036531","0.1290452752","0.07676355645","","","","","","","","","","","74","J","1","","","8","main_expt"
"345","","bandit","87","548460","0.0-48.0-0.0","44930780","wem/bandit_either","AU8YVB738G6C","either","3","","","","","","","0","1","0","","0.4759730645","0.2","0.4","0.6","0.8","0.4759730645","0.2167418122","0.1559184374","0.08620859221","","","","","","","","","","","72","H","0","img/none_selected.jpg","","9","main_expt"
"798","","bandit","88","550779","0.0-49.0-0.0","44930780","wem/bandit_either","AU8YVB738G6C","either","3","","","","","","","0","0","1","0.1607923637","","0.2","0.4","0.6","0.8","","","","","0.4560980466","0.1607923637","0.1381514788","0.1103839657","","","","","","","74","J","1","","","10","main_expt"
"240","","bandit","89","552539","0.0-50.0-0.0","44930780","wem/bandit_either","AU8YVB738G6C","either","3","","","","","","","0","1","0","","0.1386410957","0.2","0.4","0.6","0.8","0.4775116046","0.1386410957","0.1271140015","0.1334948588","","","","","","","","","","","74","J","1","","","11","main_expt"
"13","","bandit","90","554060","0.0-51.0-0.0","44930780","wem/bandit_either","AU8YVB738G6C","either","3","","","","","","","0","0","1","0.1854664659","","0.2","0.4","0.6","0.8","","","","","0.4705073552","0.1718380738","0.1854664659","0.1535602519","","","","","","","75","K","2","","","12","main_expt"
"257","","bandit","91","555828","0.0-52.0-0.0","44930780","wem/bandit_either","AU8YVB738G6C","either","3","","","","","","","0","0","1","0.1869952656","","0.2","0.4","0.6","0.8","","","","","0.4851887342","0.1686303413","0.1869952656","0.127854239","","","","","","","75","K","2","","","13","main_expt"
"250","","bandit","92","557584","0.0-53.0-0.0","44930780","wem/bandit_either","AU8YVB738G6C","either","3","","","","","","","0","0","1","0.2035171393","","0.2","0.4","0.6","0.8","","","","","0.4731273917","0.1460019496","0.2035171393","0.1507911491","","","","","","","75","K","2","","","14","main_expt"
"316","","bandit","93","559418","0.0-54.0-0.0","44930780","wem/bandit_either","AU8YVB738G6C","either","3","","","","","","","0","0","1","0.2800299461","","0.2","0.4","0.6","0.8","","","","","0.4585867004","0.1667614464","0.2800299461","0.1741212098","","","","","","","75","K","2","","","15","main_expt"
"685","","bandit","94","561608","0.0-55.0-0.0","44930780","wem/bandit_either","AU8YVB738G6C","either","3","","","","","","","0","0","1","0.1918308831","","0.2","0.4","0.6","0.8","","","","","0.4366533258","0.1973644546","0.2725454461","0.1918308831","","","","","","","76","L","3","","","16","main_expt"
"290","","bandit","95","563422","0.0-56.0-0.0","44930780","wem/bandit_either","AU8YVB738G6C","either","3","","","","","","","0","0","1","0.1950212473","","0.2","0.4","0.6","0.8","","","","","0.4405228744","0.1873415792","0.1570621471","0.1950212473","","","","","","","76","L","3","","","17","main_expt"
"669","","bandit","96","565623","0.0-57.0-0.0","44930780","wem/bandit_either","AU8YVB738G6C","either","3","","","","","","","0","0","1","0.2094813194","","0.2","0.4","0.6","0.8","","","","","0.4678551263","0.1875860444","0.1968188506","0.2094813194","","","","","","","76","L","3","","","18","main_expt"
"1143","","bandit","97","568279","0.0-58.0-0.0","44930780","wem/bandit_either","AU8YVB738G6C","either","3","","","","","","","0","0","1","0.2439518204","","0.2","0.4","0.6","0.8","","","","","0.466140525","0.1988439388","0.2439518204","0.2628959394","","","","","","","75","K","2","","","19","main_expt"
"679","","bandit","98","570464","0.0-59.0-0.0","44930780","wem/bandit_either","AU8YVB738G6C","either","3","","","","","","","0","0","1","0.1813993393","","0.2","0.4","0.6","0.8","","","","","0.4094087999","0.1813993393","0.2806117898","0.2116504525","","","","","","","74","J","1","","","20","main_expt"
"284","","bandit","99","572267","0.0-60.0-0.0","44930780","wem/bandit_either","AU8YVB738G6C","either","3","","","","","","","0","0","1","0.4386974508","","0.2","0.4","0.6","0.8","","","","","0.4386974508","0.2012004452","0.2658005831","0.1904426465","","","","","","","72","H","0","img/none_selected.jpg","","21","main_expt"
"336","","bandit","100","574122","0.0-61.0-0.0","44930780","wem/bandit_either","AU8YVB738G6C","either","3","","","","","","","0","1","0","","0.4505723784","0.2","0.4","0.6","0.8","0.4505723784","0.1958646163","0.2774390086","0.1581796968","","","","","","","","","","","72","H","0","img/none_selected.jpg","","22","main_expt"
"297","","bandit","101","575927","0.0-62.0-0.0","44930780","wem/bandit_either","AU8YVB738G6C","either","3","","","","","","","0","0","1","0.2626819079","","0.2","0.4","0.6","0.8","","","","","0.4568000239","0.2626819079","0.2795917474","0.2039009352","","","","","","","74","J","1","","","23","main_expt"
"309","","bandit","102","577741","0.0-63.0-0.0","44930780","wem/bandit_either","AU8YVB738G6C","either","3","","","","","","","0","0","1","","0.2906682881","0.2","0.4","0.6","0.8","0.4518339256","0.2906682881","0.2981059477","0.228339491","","","","","","","","","","","74","J","1","","","24","main_expt"
"44","","bandit","103","579303","0.0-64.0-0.0","44930780","wem/bandit_either","AU8YVB738G6C","either","3","","","","","","","0","0","1","","0.3272059922","0.2","0.4","0.6","0.8","0.4120159309","0.3270173502","0.3272059922","0.2602465224","","","","","","","","","","","75","K","2","","","25","main_expt"
"260","","bandit","104","581076","0.0-65.0-0.0","44930780","wem/bandit_either","AU8YVB738G6C","either","3","","","","","","","0","0","1","0.3369826645","","0.2","0.4","0.6","0.8","","","","","0.4134154185","0.2951289915","0.3369826645","0.1939420306","","","","","","","75","K","2","","","26","main_expt"
"932","","bandit","105","583535","0.0-66.0-0.0","44930780","wem/bandit_either","AU8YVB738G6C","either","3","","","","","","","1","0","0","0.2387331149","","0.2","0.4","0.6","0.8","","","","","0.4031068294","0.3520126272","0.2531212506","0.2387331149","","","","","","","76","L","3","","","27","main_expt"
"313","","bandit","106","585368","0.0-67.0-0.0","44930780","wem/bandit_either","AU8YVB738G6C","either","3","","","","","","","1","0","0","0.2183458617","","0.2","0.4","0.6","0.8","","","","","0.4305883772","0.3369287003","0.2170461037","0.2183458617","","","","","","","76","L","3","","","28","main_expt"
"282","","bandit","107","587159","0.0-68.0-0.0","44930780","wem/bandit_either","AU8YVB738G6C","either","3","","","","","","","0","0","1","0.2151501268","","0.2","0.4","0.6","0.8","","","","","0.4383329838","0.3591799128","0.2346211465","0.2151501268","","","","","","","76","L","3","","","29","main_expt"
"315","","bandit","108","588994","0.0-69.0-0.0","44930780","wem/bandit_either","AU8YVB738G6C","either","3","","","","","","","1","0","0","0.2267233056","","0.2","0.4","0.6","0.8","","","","","0.4233276099","0.3324285477","0.2450860663","0.2267233056","","","","","","","76","L","3","","","30","main_expt"
"330","","bandit","109","590830","0.0-70.0-0.0","44930780","wem/bandit_either","AU8YVB738G6C","either","3","","","","","","","0","0","1","0.2663701676","","0.2","0.4","0.6","0.8","","","","","0.4016185005","0.327032362","0.2141169407","0.2663701676","","","","","","","76","L","3","","","31","main_expt"
"1414","","bandit","110","593767","0.0-71.0-0.0","44930780","wem/bandit_either","AU8YVB738G6C","either","3","","","","","","","1","0","0","0.275969473","","0.2","0.4","0.6","0.8","","","","","0.4134940178","0.3230905041","0.2347854155","0.275969473","","","","","","","76","L","3","","","32","main_expt"
"330","","bandit","111","595614","0.0-72.0-0.0","44930780","wem/bandit_either","AU8YVB738G6C","either","3","","","","","","","1","0","0","0.3365270118","","0.2","0.4","0.6","0.8","","","","","0.4331174495","0.2969008969","0.246596708","0.3365270118","","","","","","","76","L","3","","","33","main_expt"
"276","","bandit","112","597407","0.0-73.0-0.0","44930780","wem/bandit_either","AU8YVB738G6C","either","3","","","","","","","0","0","1","0.2916301021","","0.2","0.4","0.6","0.8","","","","","0.4454497031","0.2536392951","0.1914370393","0.2916301021","","","","","","","76","L","3","","","34","main_expt"
"1331","","bandit","113","600263","0.0-74.0-0.0","44930780","wem/bandit_either","AU8YVB738G6C","either","3","","","","","","","0","0","1","0.3236538836","","0.2","0.4","0.6","0.8","","","","","0.4419706984","0.2336030597","0.1408207185","0.3236538836","","","","","","","76","L","3","","","35","main_expt"
"1070","","bandit","114","602844","0.0-75.0-0.0","44930780","wem/bandit_either","AU8YVB738G6C","either","3","","","","","","","1","0","0","0.3317439785","","0.2","0.4","0.6","0.8","","","","","0.4205940312","0.3110392291","0.09539735145","0.3317439785","","","","","","","76","L","3","","","36","main_expt"
"1079","","bandit","115","605447","0.0-76.0-0.0","44930780","wem/bandit_either","AU8YVB738G6C","either","3","","","","","","","1","0","0","0.3620900841","","0.2","0.4","0.6","0.8","","","","","0.4227305347","0.3354302382","0.08867332122","0.3620900841","","","","","","","76","L","3","","","37","main_expt"
"952","","bandit","116","607909","0.0-77.0-0.0","44930780","wem/bandit_either","AU8YVB738G6C","either","3","","","","","","","0","0","1","0.3649119955","","0.2","0.4","0.6","0.8","","","","","0.3904174821","0.3359947902","0.0804097964","0.3649119955","","","","","","","76","L","3","","","38","main_expt"
"667","","bandit","117","610098","0.0-78.0-0.0","44930780","wem/bandit_either","AU8YVB738G6C","either","3","","","","","","","1","0","0","0.3993258453","","0.2","0.4","0.6","0.8","","","","","0.3704092514","0.3719467902","0.1092906338","0.3993258453","","","","","","","76","L","3","","","39","main_expt"
"570","","bandit","118","612182","0.0-79.0-0.0","44930780","wem/bandit_either","AU8YVB738G6C","either","3","","","","","","","0","0","1","","0.43145226","0.2","0.4","0.6","0.8","0.3250394812","0.37180955","0.08771014895","0.43145226","","","","","","","","","","","76","L","3","","","40","main_expt"
"485","","bandit","119","614185","0.0-80.0-0.0","44930780","wem/bandit_either","AU8YVB738G6C","either","3","","","","","","","1","0","0","0.3925837484","","0.2","0.4","0.6","0.8","","","","","0.3633775572","0.3972707938","0.1065106481","0.3925837484","","","","","","","76","L","3","","","41","main_expt"
"539","","bandit","120","616240","0.0-81.0-0.0","44930780","wem/bandit_either","AU8YVB738G6C","either","3","","","","","","","0","0","1","0.4020613291","","0.2","0.4","0.6","0.8","","","","","0.3708570881","0.3981555674","0.0926848955","0.4020613291","","","","","","","76","L","3","","","42","main_expt"
"597","","bandit","121","618351","0.0-82.0-0.0","44930780","wem/bandit_either","AU8YVB738G6C","either","3","","","","","","","0","0","1","0.4199094288","","0.2","0.4","0.6","0.8","","","","","0.3852030547","0.3698022864","0.09213729174","0.4199094288","","","","","","","76","L","3","","","43","main_expt"
"609","","bandit","122","620484","0.0-83.0-0.0","44930780","wem/bandit_either","AU8YVB738G6C","either","3","","","","","","","1","0","0","0.4362917367","","0.2","0.4","0.6","0.8","","","","","0.3653477133","0.3278340923","0.0950319608","0.4362917367","","","","","","","76","L","3","","","44","main_expt"
"543","","bandit","123","622548","0.0-84.0-0.0","44930780","wem/bandit_either","AU8YVB738G6C","either","3","","","","","","","1","0","0","0.4310393502","","0.2","0.4","0.6","0.8","","","","","0.3423722135","0.4004869948","0.07917944011","0.4310393502","","","","","","","76","L","3","","","45","main_expt"
"457","","bandit","124","624536","0.0-85.0-0.0","44930780","wem/bandit_either","AU8YVB738G6C","either","3","","","","","","","0","0","1","0.4301719659","","0.2","0.4","0.6","0.8","","","","","0.2713785315","0.4389658195","0.08528552535","0.4301719659","","","","","","","76","L","3","","","46","main_expt"
"448","","bandit","125","626498","0.0-86.0-0.0","44930780","wem/bandit_either","AU8YVB738G6C","either","3","","","","","","","1","0","0","0.4274268526","","0.2","0.4","0.6","0.8","","","","","0.2675382036","0.4294918489","0.08303267599","0.4274268526","","","","","","","76","L","3","","","47","main_expt"
"528","","bandit","126","628544","0.0-87.0-0.0","44930780","wem/bandit_either","AU8YVB738G6C","either","3","","","","","","","1","0","0","0.4559220927","","0.2","0.4","0.6","0.8","","","","","0.3006553151","0.3948346084","0.1183490009","0.4559220927","","","","","","","76","L","3","","","48","main_expt"
"526","","bandit","127","630575","0.0-88.0-0.0","44930780","wem/bandit_either","AU8YVB738G6C","either","3","","","","","","","1","0","0","0.4362936898","","0.2","0.4","0.6","0.8","","","","","0.2865645246","0.4226663974","0.09831357925","0.4362936898","","","","","","","76","L","3","","","49","main_expt"
"478","","bandit","128","632581","0.0-89.0-0.0","44930780","wem/bandit_either","AU8YVB738G6C","either","3","","","","","","","0","0","1","","0.4001593617","0.2","0.4","0.6","0.8","0.2842330123","0.3943232949","0.0896163698","0.4001593617","","","","","","","","","","","76","L","3","","","50","main_expt"
"625","","bandit","129","634727","0.0-90.0-0.0","44930780","wem/bandit_either","AU8YVB738G6C","either","3","","","","","","","0","0","1","0.3737598101","","0.2","0.4","0.6","0.8","","","","","0.2933637591","0.3911898034","0.08239790895","0.3737598101","","","","","","","76","L","3","","","51","main_expt"
"559","","bandit","130","636810","0.0-91.0-0.0","44930780","wem/bandit_either","AU8YVB738G6C","either","3","","","","","","","1","0","0","0.3490564905","","0.2","0.4","0.6","0.8","","","","","0.2802127762","0.3897106723","0.06509061927","0.3490564905","","","","","","","76","L","3","","","52","main_expt"
"517","","bandit","131","638850","0.0-92.0-0.0","44930780","wem/bandit_either","AU8YVB738G6C","either","3","","","","","","","0","0","1","","0.3606416198","0.2","0.4","0.6","0.8","0.2567133084","0.3977919118","0.05503049918","0.3606416198","","","","","","","","","","","76","L","3","","","53","main_expt"
"780","","bandit","132","641158","0.0-93.0-0.0","44930780","wem/bandit_either","AU8YVB738G6C","either","3","","","","","","","1","0","0","0.3920172378","","0.2","0.4","0.6","0.8","","","","","0.304436262","0.3803623479","0.06606451817","0.3920172378","","","","","","","76","L","3","","","54","main_expt"
"551","","bandit","133","643240","0.0-94.0-0.0","44930780","wem/bandit_either","AU8YVB738G6C","either","3","","","","","","","0","0","1","0.3841867886","","0.2","0.4","0.6","0.8","","","","","0.3050376594","0.3898030924","0.0812436444","0.3841867886","","","","","","","76","L","3","","","55","main_expt"
"456","","bandit","134","645225","0.0-95.0-0.0","44930780","wem/bandit_either","AU8YVB738G6C","either","3","","","","","","","0","0","1","0.3752679739","","0.2","0.4","0.6","0.8","","","","","0.2874076515","0.4332266089","0.05752214818","0.3752679739","","","","","","","76","L","3","","","56","main_expt"
"434","","bandit","135","647173","0.0-96.0-0.0","44930780","wem/bandit_either","AU8YVB738G6C","either","3","","","","","","","0","0","1","0.3595388075","","0.2","0.4","0.6","0.8","","","","","0.2633226407","0.4598680415","0.05957573693","0.3595388075","","","","","","","76","L","3","","","57","main_expt"
"535","","bandit","136","649226","0.0-97.0-0.0","44930780","wem/bandit_either","AU8YVB738G6C","either","3","","","","","","","0","0","1","0.2926617498","","0.2","0.4","0.6","0.8","","","","","0.282557186","0.4510058242","0.08347810371","0.2926617498","","","","","","","76","L","3","","","58","main_expt"
"510","","bandit","137","651259","0.0-98.0-0.0","44930780","wem/bandit_either","AU8YVB738G6C","either","3","","","","","","","0","0","1","0.2854140482","","0.2","0.4","0.6","0.8","","","","","0.2675679041","0.4587464736","0.1166757522","0.2854140482","","","","","","","76","L","3","","","59","main_expt"
"518","","bandit","138","653297","0.0-99.0-0.0","44930780","wem/bandit_either","AU8YVB738G6C","either","3","","","","","","","0","0","1","","0.1223048521","0.2","0.4","0.6","0.8","0.2654645802","0.4534111386","0.1223048521","0.2767785787","","","","","","","","","","","75","K","2","","","60","main_expt"
"331","","bandit","139","655157","0.0-100.0-0.0","44930780","wem/bandit_either","AU8YVB738G6C","either","3","","","","","","","0","0","1","","0.1341525672","0.2","0.4","0.6","0.8","0.2326588137","0.4581751116","0.1341525672","0.3110110239","","","","","","","","","","","75","K","2","","","61","main_expt"
"360","","bandit","140","657027","0.0-101.0-0.0","44930780","wem/bandit_either","AU8YVB738G6C","either","3","","","","","","","1","0","0","0.4447189615","","0.2","0.4","0.6","0.8","","","","","0.2430345153","0.4447189615","0.1748443247","0.2739379344","","","","","","","74","J","1","","","62","main_expt"
"585","","bandit","141","659141","0.0-102.0-0.0","44930780","wem/bandit_either","AU8YVB738G6C","either","3","","","","","","","0","1","0","","0.4351057758","0.2","0.4","0.6","0.8","0.2682261916","0.4351057758","0.1872250423","0.2518438402","","","","","","","","","","","74","J","1","","","63","main_expt"
"936","","bandit","142","661592","0.0-103.0-0.0","44930780","wem/bandit_either","AU8YVB738G6C","either","3","","","","","","","0","0","1","0.4559228662","","0.2","0.4","0.6","0.8","","","","","0.3136585585","0.4559228662","0.1592276408","0.216118181","","","","","","","74","J","1","","","64","main_expt"
"356","","bandit","143","663462","0.0-104.0-0.0","44930780","wem/bandit_either","AU8YVB738G6C","either","3","","","","","","","1","0","0","0.4526438492","","0.2","0.4","0.6","0.8","","","","","0.3208042698","0.4526438492","0.1881419285","0.1961712117","","","","","","","74","J","1","","","65","main_expt"
"328","","bandit","144","665313","0.0-105.0-0.0","44930780","wem/bandit_either","AU8YVB738G6C","either","3","","","","","","","1","0","0","0.4604690516","","0.2","0.4","0.6","0.8","","","","","0.3550213758","0.4604690516","0.2075830042","0.1821057022","","","","","","","74","J","1","","","66","main_expt"
"309","","bandit","145","667143","0.0-106.0-0.0","44930780","wem/bandit_either","AU8YVB738G6C","either","3","","","","","","","0","0","1","","0.4479534522","0.2","0.4","0.6","0.8","0.2883445083","0.4479534522","0.210321401","0.2221692745","","","","","","","","","","","74","J","1","","","67","main_expt"
"578","","bandit","146","669243","0.0-107.0-0.0","44930780","wem/bandit_either","AU8YVB738G6C","either","3","","","","","","","0","0","1","","0.4420076102","0.2","0.4","0.6","0.8","0.2492112051","0.4420076102","0.1740681144","0.2385328342","","","","","","","","","","","74","J","1","","","68","main_expt"
"385","","bandit","147","671145","0.0-108.0-0.0","44930780","wem/bandit_either","AU8YVB738G6C","either","3","","","","","","","0","0","1","0.3840886122","","0.2","0.4","0.6","0.8","","","","","0.1725364023","0.3840886122","0.1495678232","0.2693988132","","","","","","","74","J","1","","","69","main_expt"
"308","","bandit","148","672970","0.0-109.0-0.0","44930780","wem/bandit_either","AU8YVB738G6C","either","3","","","","","","","0","1","0","","0.3764426572","0.2","0.4","0.6","0.8","0.2081322216","0.3764426572","0.1594524764","0.2633889128","","","","","","","","","","","74","J","1","","","70","main_expt"
"318","","bandit","149","674799","0.0-110.0-0.0","44930780","wem/bandit_either","AU8YVB738G6C","either","3","","","","","","","0","0","1","0.1308665948","","0.2","0.4","0.6","0.8","","","","","0.2222096595","0.3925575972","0.1308665948","0.2881785301","","","","","","","75","K","2","","","71","main_expt"
"261","","bandit","150","676577","0.0-111.0-0.0","44930780","wem/bandit_either","AU8YVB738G6C","either","3","","","","","","","0","0","1","0.1413665491","","0.2","0.4","0.6","0.8","","","","","0.2276413934","0.4055717031","0.1413665491","0.3496752211","","","","","","","75","K","2","","","72","main_expt"
"310","","bandit","151","678417","0.0-112.0-0.0","44930780","wem/bandit_either","AU8YVB738G6C","either","3","","","","","","","0","0","1","","0.202726327","0.2","0.4","0.6","0.8","0.202726327","0.4313753627","0.1562096843","0.3662649551","","","","","","","","","","","72","H","0","img/none_selected.jpg","","73","main_expt"
"567","","bandit","152","680503","0.0-113.0-0.0","44930780","wem/bandit_either","AU8YVB738G6C","either","3","","","","","","","0","0","1","","0.2465356434","0.2","0.4","0.6","0.8","0.2465356434","0.4294283137","0.1601549975","0.3318597218","","","","","","","","","","","72","H","0","img/none_selected.jpg","","74","main_expt"
"397","","bandit","153","682418","0.0-114.0-0.0","44930780","wem/bandit_either","AU8YVB738G6C","either","3","","","","","","","0","0","1","","0.2780880013","0.2","0.4","0.6","0.8","0.2780880013","0.4114775526","0.1962365409","0.3129946244","","","","","","","","","","","72","H","0","img/none_selected.jpg","","75","main_expt"
"333","","bandit","154","684268","0.0-115.0-0.0","44930780","wem/bandit_either","AU8YVB738G6C","either","3","","","","","","","1","0","0","0.3299880354","","0.2","0.4","0.6","0.8","","","","","0.230570622","0.4038916894","0.2315068675","0.3299880354","","","","","","","76","L","3","","","76","main_expt"
"317","","bandit","155","686105","0.0-116.0-0.0","44930780","wem/bandit_either","AU8YVB738G6C","either","3","","","","","","","0","0","1","0.2704336052","","0.2","0.4","0.6","0.8","","","","","0.1747897532","0.4028298088","0.1749603823","0.2704336052","","","","","","","76","L","3","","","77","main_expt"
"289","","bandit","156","687904","0.0-117.0-0.0","44930780","wem/bandit_either","AU8YVB738G6C","either","3","","","","","","","0","0","1","0.2489008917","","0.2","0.4","0.6","0.8","","","","","0.2009150394","0.4004321452","0.2091975686","0.2489008917","","","","","","","76","L","3","","","78","main_expt"
"319","","bandit","157","689737","0.0-118.0-0.0","44930780","wem/bandit_either","AU8YVB738G6C","either","3","","","","","","","0","0","1","0.2182462247","","0.2","0.4","0.6","0.8","","","","","0.2090883318","0.3909827091","0.2699334682","0.2182462247","","","","","","","76","L","3","","","79","main_expt"
"285","","bandit","158","691549","0.0-119.0-0.0","44930780","wem/bandit_either","AU8YVB738G6C","either","3","","","","","","","0","1","0","","0.4289339141","0.2","0.4","0.6","0.8","0.215522018","0.4289339141","0.2712134299","0.1591694045","","","","","","","","","","","74","J","1","","","80","main_expt"
"273","","bandit","159","693338","0.0-120.0-0.0","44930780","wem/bandit_either","AU8YVB738G6C","either","3","","","","","","","0","0","1","0.2563236188","","0.2","0.4","0.6","0.8","","","","","0.2655955182","0.4256341571","0.2563236188","0.1661146317","","","","","","","75","K","2","","","81","main_expt"
"343","","bandit","160","695208","0.0-121.0-0.0","44930780","wem/bandit_either","AU8YVB738G6C","either","3","","","","","","","0","0","1","0.2474856626","","0.2","0.4","0.6","0.8","","","","","0.2642342948","0.4153375647","0.2474856626","0.2249160828","","","","","","","75","K","2","","","82","main_expt"
"203","","bandit","161","696935","0.0-122.0-0.0","44930780","wem/bandit_either","AU8YVB738G6C","either","3","","","","","","","1","0","0","0.2194800234","","0.2","0.4","0.6","0.8","","","","","0.2615040017","0.4239102097","0.2338037125","0.2194800234","","","","","","","76","L","3","","","83","main_expt"
"325","","bandit","162","698772","0.0-123.0-0.0","44930780","wem/bandit_either","AU8YVB738G6C","either","3","","","","","","","0","0","1","0.2020024956","","0.2","0.4","0.6","0.8","","","","","0.3136368113","0.4021041833","0.2929655049","0.2020024956","","","","","","","76","L","3","","","84","main_expt"
"240","","bandit","163","700537","0.0-124.0-0.0","44930780","wem/bandit_either","AU8YVB738G6C","either","3","","","","","","","0","0","1","0.1639230135","","0.2","0.4","0.6","0.8","","","","","0.2433538552","0.4322374594","0.2755572306","0.1639230135","","","","","","","76","L","3","","","85","main_expt"
"247","","bandit","164","702299","0.0-125.0-0.0","44930780","wem/bandit_either","AU8YVB738G6C","either","3","","","","","","","0","0","1","","0.1423092638","0.2","0.4","0.6","0.8","0.2583740773","0.4247618508","0.2706615249","0.1423092638","","","","","","","","","","","76","L","3","","","86","main_expt"
"281","","bandit","165","704103","0.0-126.0-0.0","44930780","wem/bandit_either","AU8YVB738G6C","either","3","","","","","","","0","0","1","0.1623313408","","0.2","0.4","0.6","0.8","","","","","0.2656778135","0.4130492334","0.3259805539","0.1623313408","","","","","","","76","L","3","","","87","main_expt"
"399","","bandit","166","706018","0.0-127.0-0.0","44930780","wem/bandit_either","AU8YVB738G6C","either","3","","","","","","","0","1","0","","0.2565525481","0.2","0.4","0.6","0.8","0.2565525481","0.3883747858","0.3471137027","0.1459946163","","","","","","","","","","","72","H","0","img/none_selected.jpg","","88","main_expt"
"632","","bandit","167","708180","0.0-128.0-0.0","44930780","wem/bandit_either","AU8YVB738G6C","either","3","","","","","","","0","0","1","0.3950807547","","0.2","0.4","0.6","0.8","","","","","0.2471999074","0.3950807547","0.3715311126","0.1684807643","","","","","","","74","J","1","","","89","main_expt"
"304","","bandit","168","709997","0.0-129.0-0.0","44930780","wem/bandit_either","AU8YVB738G6C","either","3","","","","","","","0","0","1","","0.420982679","0.2","0.4","0.6","0.8","0.2204199549","0.420982679","0.3571728809","0.1937692241","","","","","","","","","","","74","J","1","","","90","main_expt"
"308","","bandit","169","711818","0.0-130.0-0.0","44930780","wem/bandit_either","AU8YVB738G6C","either","3","","","","","","","1","0","0","0.4012606491","","0.2","0.4","0.6","0.8","","","","","0.2013548925","0.4012606491","0.3348642023","0.1670397906","","","","","","","74","J","1","","","91","main_expt"
"303","","bandit","170","713637","0.0-131.0-0.0","44930780","wem/bandit_either","AU8YVB738G6C","either","3","","","","","","","0","0","1","","0.3950870333","0.2","0.4","0.6","0.8","0.174921714","0.3950870333","0.3551195155","0.1936095216","","","","","","","","","","","74","J","1","","","92","main_expt"
"319","","bandit","171","715475","0.0-132.0-0.0","44930780","wem/bandit_either","AU8YVB738G6C","either","3","","","","","","","1","0","0","0.3797372222","","0.2","0.4","0.6","0.8","","","","","0.1972058505","0.3797372222","0.3494458231","0.2399824117","","","","","","","74","J","1","","","93","main_expt"
"325","","bandit","172","717320","0.0-133.0-0.0","44930780","wem/bandit_either","AU8YVB738G6C","either","3","","","","","","","0","0","1","0.3346339076","","0.2","0.4","0.6","0.8","","","","","0.2144007407","0.3346339076","0.3759818745","0.242536602","","","","","","","74","J","1","","","94","main_expt"
"298","","bandit","173","719140","0.0-134.0-0.0","44930780","wem/bandit_either","AU8YVB738G6C","either","3","","","","","","","0","0","1","","0.3433005441","0.2","0.4","0.6","0.8","0.2025691914","0.3433005441","0.3467088588","0.3081296623","","","","","","","","","","","74","J","1","","","95","main_expt"
"250","","bandit","174","720920","0.0-135.0-0.0","44930780","wem/bandit_either","AU8YVB738G6C","either","3","","","","","","","0","1","0","","0.2900415689","0.2","0.4","0.6","0.8","0.1750118246","0.2900415689","0.3520186383","0.371766452","","","","","","","","","","","74","J","1","","","96","main_expt"
"288","","bandit","175","722725","0.0-136.0-0.0","44930780","wem/bandit_either","AU8YVB738G6C","either","3","","","","","","","1","0","0","0.342216001","","0.2","0.4","0.6","0.8","","","","","0.2433812568","0.3136050561","0.342216001","0.3737721809","","","","","","","75","K","2","","","97","main_expt"
"279","","bandit","176","724525","0.0-137.0-0.0","44930780","wem/bandit_either","AU8YVB738G6C","either","3","","","","","","","0","0","1","","0.3775958225","0.2","0.4","0.6","0.8","0.1834100281","0.3236610102","0.3775958225","0.3662625892","","","","","","","","","","","75","K","2","","","98","main_expt"
"1310","","bandit","177","727357","0.0-138.0-0.0","44930780","wem/bandit_either","AU8YVB738G6C","either","3","","","","","","","1","0","0","0.3490624926","","0.2","0.4","0.6","0.8","","","","","0.146161558","0.3116662608","0.3490624926","0.3912879072","","","","","","","75","K","2","","","99","main_expt"
"252","","bandit","178","729126","0.0-139.0-0.0","44930780","wem/bandit_either","AU8YVB738G6C","either","3","","","","","","","0","0","1","0.3418910903","","0.2","0.4","0.6","0.8","","","","","0.1186266926","0.3806420769","0.3418910903","0.3916888764","","","","","","","75","K","2","","","100","main_expt"
"686","","bandit","179","731341","0.0-140.0-0.0","44930780","wem/bandit_either","AU8YVB738G6C","either","3","","","","","","","0","0","1","0.3544055354","","0.2","0.4","0.6","0.8","","","","","0.1467879228","0.3825052475","0.3544055354","0.3803758031","","","","","","","75","K","2","","","101","main_expt"
"498","","bandit","180","733369","0.0-141.0-0.0","44930780","wem/bandit_either","AU8YVB738G6C","either","3","","","","","","","0","0","1","0.3580864163","","0.2","0.4","0.6","0.8","","","","","0.1336514036","0.3799327693","0.3580864163","0.3685266224","","","","","","","75","K","2","","","102","main_expt"
"387","","bandit","181","735284","0.0-142.0-0.0","44930780","wem/bandit_either","AU8YVB738G6C","either","3","","","","","","","1","0","0","0.336528594","","0.2","0.4","0.6","0.8","","","","","0.1325092095","0.3502018886","0.336528594","0.3754978655","","","","","","","75","K","2","","","103","main_expt"
"295","","bandit","182","737094","0.0-143.0-0.0","44930780","wem/bandit_either","AU8YVB738G6C","either","3","","","","","","","0","0","1","0.3190078166","","0.2","0.4","0.6","0.8","","","","","0.1162839287","0.3443431466","0.3190078166","0.4033056484","","","","","","","75","K","2","","","104","main_expt"
"288","","bandit","183","738904","0.0-144.0-0.0","44930780","wem/bandit_either","AU8YVB738G6C","either","3","","","","","","","0","0","1","0.3100940773","","0.2","0.4","0.6","0.8","","","","","0.115620258","0.3551378046","0.3100940773","0.3617388181","","","","","","","75","K","2","","","105","main_expt"
"287","","bandit","184","740718","0.0-145.0-0.0","44930780","wem/bandit_either","AU8YVB738G6C","either","3","","","","","","","0","0","1","0.2964842485","","0.2","0.4","0.6","0.8","","","","","0.1102569517","0.3177956882","0.2964842485","0.3656875331","","","","","","","75","K","2","","","106","main_expt"
"294","","bandit","185","742541","0.0-146.0-0.0","44930780","wem/bandit_either","AU8YVB738G6C","either","3","","","","","","","0","0","1","0.3224579283","","0.2","0.4","0.6","0.8","","","","","0.110599846","0.3463124521","0.3224579283","0.3478183852","","","","","","","75","K","2","","","107","main_expt"
"293","","bandit","186","744359","0.0-147.0-0.0","44930780","wem/bandit_either","AU8YVB738G6C","either","3","","","","","","","1","0","0","0.3365568187","","0.2","0.4","0.6","0.8","","","","","0.1647947233","0.330790185","0.3365568187","0.3715517583","","","","","","","75","K","2","","","108","main_expt"
"289","","bandit","187","746161","0.0-148.0-0.0","44930780","wem/bandit_either","AU8YVB738G6C","either","3","","","","","","","0","0","1","0.3200824859","","0.2","0.4","0.6","0.8","","","","","0.146095753","0.3259779601","0.3200824859","0.3713851569","","","","","","","75","K","2","","","109","main_expt"
"353","","bandit","188","748038","0.0-149.0-0.0","44930780","wem/bandit_either","AU8YVB738G6C","either","3","","","","","","","0","0","1","0.3179471713","","0.2","0.4","0.6","0.8","","","","","0.1691954855","0.3169053314","0.3179471713","0.3401672382","","","","","","","75","K","2","","","110","main_expt"
"305","","bandit","189","749860","0.0-150.0-0.0","44930780","wem/bandit_either","AU8YVB738G6C","either","3","","","","","","","0","0","1","0.3168158386","","0.2","0.4","0.6","0.8","","","","","0.1690298198","0.342138516","0.3168158386","0.3242328008","","","","","","","75","K","2","","","111","main_expt"
"278","","bandit","190","751662","0.0-151.0-0.0","44930780","wem/bandit_either","AU8YVB738G6C","either","3","","","","","","","0","1","0","","0.3551606626","0.2","0.4","0.6","0.8","0.2196992501","0.3597886873","0.3551606626","0.2991119965","","","","","","","","","","","75","K","2","","","112","main_expt"
"302","","bandit","191","753491","0.0-152.0-0.0","44930780","wem/bandit_either","AU8YVB738G6C","either","3","","","","","","","0","0","1","","0.3364281798","0.2","0.4","0.6","0.8","0.2723467559","0.3580549124","0.3615444015","0.3364281798","","","","","","","","","","","76","L","3","","","113","main_expt"
"286","","bandit","192","755287","0.0-153.0-0.0","44930780","wem/bandit_either","AU8YVB738G6C","either","3","","","","","","","1","0","0","0.3495122724","","0.2","0.4","0.6","0.8","","","","","0.2470985199","0.3556181037","0.4043222556","0.3495122724","","","","","","","76","L","3","","","114","main_expt"
"332","","bandit","193","757128","0.0-154.0-0.0","44930780","wem/bandit_either","AU8YVB738G6C","either","3","","","","","","","0","0","1","0.324938203","","0.2","0.4","0.6","0.8","","","","","0.2482590513","0.3489042174","0.4179696435","0.324938203","","","","","","","76","L","3","","","115","main_expt"
"204","","bandit","194","758865","0.0-155.0-0.0","44930780","wem/bandit_either","AU8YVB738G6C","either","3","","","","","","","1","0","0","0.3227512736","","0.2","0.4","0.6","0.8","","","","","0.1992012358","0.3466245191","0.4324393975","0.3227512736","","","","","","","76","L","3","","","116","main_expt"
"424","","bandit","195","760797","0.0-156.0-0.0","44930780","wem/bandit_either","AU8YVB738G6C","either","3","","","","","","","1","0","0","0.2585209305","","0.2","0.4","0.6","0.8","","","","","0.216355905","0.3581754781","0.4290779421","0.2585209305","","","","","","","76","L","3","","","117","main_expt"
"353","","bandit","196","762664","0.0-157.0-0.0","44930780","wem/bandit_either","AU8YVB738G6C","either","3","","","","","","","0","0","1","0.2817260076","","0.2","0.4","0.6","0.8","","","","","0.1715453935","0.283939031","0.4459264202","0.2817260076","","","","","","","76","L","3","","","118","main_expt"
"1400","","bandit","197","765583","0.0-158.0-0.0","44930780","wem/bandit_either","AU8YVB738G6C","either","3","","","","","","","0","0","1","0.328214026","","0.2","0.4","0.6","0.8","","","","","0.1843456939","0.2992634423","0.436995295","0.328214026","","","","","","","76","L","3","","","119","main_expt"
"1205","","bandit","198","768312","0.0-159.0-0.0","44930780","wem/bandit_either","AU8YVB738G6C","either","3","","","","","","","0","0","1","","0.3355603121","0.2","0.4","0.6","0.8","0.1848061615","0.1878150733","0.4151314625","0.3355603121","","","","","","","","","","","76","L","3","","","120","main_expt"
"698","","bandit","199","770522","0.0-160.0-0.0","44930780","wem/bandit_either","AU8YVB738G6C","either","3","","","","","","","0","0","1","0.3829587724","","0.2","0.4","0.6","0.8","","","","","0.1679578636","0.1447458933","0.4384064527","0.3829587724","","","","","","","76","L","3","","","121","main_expt"
"353","","bandit","200","772400","0.0-161.0-0.0","44930780","wem/bandit_either","AU8YVB738G6C","either","3","","","","","","","1","0","0","0.197295971","","0.2","0.4","0.6","0.8","","","","","0.197295971","0.1176060398","0.4417589501","0.3995678287","","","","","","","72","H","0","img/none_selected.jpg","","122","main_expt"
"4","","bandit","201","773918","0.0-162.0-0.0","44930780","wem/bandit_either","AU8YVB738G6C","either","3","","","","","","","0","0","1","","0.2184653352","0.2","0.4","0.6","0.8","0.2184653352","0.1097677055","0.4017154396","0.3656739583","","","","","","","","","","","72","H","0","img/none_selected.jpg","","123","main_expt"
"926","","bandit","202","776360","0.0-163.0-0.0","44930780","wem/bandit_either","AU8YVB738G6C","either","3","","","","","","","0","0","1","0.2147868977","","0.2","0.4","0.6","0.8","","","","","0.2147868977","0.08048168986","0.3619070526","0.3862549257","","","","","","","72","H","0","img/none_selected.jpg","","124","main_expt"
"506","","bandit","203","778387","0.0-164.0-0.0","44930780","wem/bandit_either","AU8YVB738G6C","either","3","","","","","","","0","0","1","","0.1667936559","0.2","0.4","0.6","0.8","0.1667936559","0.07842900555","0.3567490645","0.3593796239","","","","","","","","","","","72","H","0","img/none_selected.jpg","","125","main_expt"
"467","","bandit","204","780380","0.0-165.0-0.0","44930780","wem/bandit_either","AU8YVB738G6C","either","3","","","","","","","0","0","1","","0.1453295256","0.2","0.4","0.6","0.8","0.1453295256","0.08318363027","0.3558473019","0.3413194209","","","","","","","","","","","72","H","0","img/none_selected.jpg","","126","main_expt"
"967","","bandit","205","782865","0.0-166.0-0.0","44930780","wem/bandit_either","AU8YVB738G6C","either","3","","","","","","","1","0","0","0.06812438963","","0.2","0.4","0.6","0.8","","","","","0.1635755653","0.06812438963","0.3543069734","0.3369929262","","","","","","","74","J","1","","","127","main_expt"
"439","","bandit","206","784821","0.0-167.0-0.0","44930780","wem/bandit_either","AU8YVB738G6C","either","3","","","","","","","0","0","1","0.08303766286","","0.2","0.4","0.6","0.8","","","","","0.1872639566","0.08303766286","0.3328374851","0.2922989636","","","","","","","74","J","1","","","128","main_expt"
"447","","bandit","207","786797","0.0-168.0-0.0","44930780","wem/bandit_either","AU8YVB738G6C","either","3","","","","","","","0","0","1","0.09047360051","","0.2","0.4","0.6","0.8","","","","","0.2032718864","0.09047360051","0.3238683282","0.3095146075","","","","","","","74","J","1","","","129","main_expt"
"344","","bandit","208","788664","0.0-169.0-0.0","44930780","wem/bandit_either","AU8YVB738G6C","either","3","","","","","","","0","0","1","","0.131542256","0.2","0.4","0.6","0.8","0.2025864764","0.131542256","0.2750329062","0.3068425872","","","","","","","","","","","74","J","1","","","130","main_expt"
"319","","bandit","209","790502","0.0-170.0-0.0","44930780","wem/bandit_either","AU8YVB738G6C","either","3","","","","","","","0","0","1","","0.2751886228","0.2","0.4","0.6","0.8","0.2158584071","0.1492019489","0.2751886228","0.3112504131","","","","","","","","","","","75","K","2","","","131","main_expt"
"276","","bandit","210","792302","0.0-171.0-0.0","44930780","wem/bandit_either","AU8YVB738G6C","either","3","","","","","","","0","0","1","","0.2729729886","0.2","0.4","0.6","0.8","0.2105840197","0.1571188116","0.2729729886","0.3595653039","","","","","","","","","","","75","K","2","","","132","main_expt"
"358","","bandit","211","794180","0.0-172.0-0.0","44930780","wem/bandit_either","AU8YVB738G6C","either","3","","","","","","","0","0","1","0.3873527377","","0.2","0.4","0.6","0.8","","","","","0.2328486735","0.2021073832","0.3248088544","0.3873527377","","","","","","","76","L","3","","","133","main_expt"
"339","","bandit","212","796026","0.0-173.0-0.0","44930780","wem/bandit_either","AU8YVB738G6C","either","3","","","","","","","1","0","0","0.3973884711","","0.2","0.4","0.6","0.8","","","","","0.2589092944","0.2693148074","0.3596446835","0.3973884711","","","","","","","76","L","3","","","134","main_expt"
"585","","bandit","213","798127","0.0-174.0-0.0","44930780","wem/bandit_either","AU8YVB738G6C","either","3","","","","","","","0","0","1","0.4080523157","","0.2","0.4","0.6","0.8","","","","","0.2637326353","0.2625780805","0.318377279","0.4080523157","","","","","","","76","L","3","","","135","main_expt"
"325","","bandit","214","799980","0.0-175.0-0.0","44930780","wem/bandit_either","AU8YVB738G6C","either","3","","","","","","","0","0","1","0.4176503084","","0.2","0.4","0.6","0.8","","","","","0.2718680576","0.2981707722","0.3160887017","0.4176503084","","","","","","","76","L","3","","","136","main_expt"
"312","","bandit","215","801803","0.0-176.0-0.0","44930780","wem/bandit_either","AU8YVB738G6C","either","3","","","","","","","0","0","1","0.2919957672","","0.2","0.4","0.6","0.8","","","","","0.2919957672","0.3148158286","0.2883225013","0.3859803947","","","","","","","72","H","0","img/none_selected.jpg","","137","main_expt"
"363","","bandit","216","803696","0.0-177.0-0.0","44930780","wem/bandit_either","AU8YVB738G6C","either","3","","","","","","","1","0","0","0.3193993407","","0.2","0.4","0.6","0.8","","","","","0.3193993407","0.3111523267","0.3009152141","0.358492916","","","","","","","72","H","0","img/none_selected.jpg","","138","main_expt"
"422","","bandit","217","805627","0.0-178.0-0.0","44930780","wem/bandit_either","AU8YVB738G6C","either","3","","","","","","","0","0","1","","0.3404434035","0.2","0.4","0.6","0.8","0.3404434035","0.3034593298","0.293720077","0.3608756281","","","","","","","","","","","72","H","0","img/none_selected.jpg","","139","main_expt"
"282","","bandit","218","807426","0.0-179.0-0.0","44930780","wem/bandit_either","AU8YVB738G6C","either","3","","","","","","","0","0","1","","0.3278052243","0.2","0.4","0.6","0.8","0.3278052243","0.2507495005","0.286059761","0.3421836092","","","","","","","","","","","72","H","0","img/none_selected.jpg","","140","main_expt"
"269","","bandit","219","809212","0.0-180.0-0.0","44930780","wem/bandit_either","AU8YVB738G6C","either","3","","","","","","","0","0","1","","0.3038906839","0.2","0.4","0.6","0.8","0.3038906839","0.2220694513","0.2931724706","0.3737340371","","","","","","","","","","","72","H","0","img/none_selected.jpg","","141","main_expt"
"321","","bandit","220","811054","0.0-181.0-0.0","44930780","wem/bandit_either","AU8YVB738G6C","either","3","","","","","","","0","0","1","","0.2924195757","0.2","0.4","0.6","0.8","0.2924195757","0.2119249064","0.2182180164","0.3461121542","","","","","","","","","","","72","H","0","img/none_selected.jpg","","142","main_expt"
"497","","bandit","221","813078","0.0-182.0-0.0","44930780","wem/bandit_either","AU8YVB738G6C","either","3","","","","","","","0","0","1","","0.2665135591","0.2","0.4","0.6","0.8","0.2816149275","0.2665135591","0.2015475508","0.3305931074","","","","","","","","","","","74","J","1","","","143","main_expt"
"470","","bandit","222","815076","0.0-183.0-0.0","44930780","wem/bandit_either","AU8YVB738G6C","either","3","","","","","","","0","0","1","","0.2074070562","0.2","0.4","0.6","0.8","0.2355525614","0.2854155153","0.2074070562","0.3561039987","","","","","","","","","","","75","K","2","","","144","main_expt"
"319","","bandit","223","816926","0.0-184.0-0.0","44930780","wem/bandit_either","AU8YVB738G6C","either","3","","","","","","","0","0","1","0.3648023512","","0.2","0.4","0.6","0.8","","","","","0.2185662272","0.2521048148","0.1415368311","0.3648023512","","","","","","","76","L","3","","","145","main_expt"
"293","","bandit","224","818738","0.0-185.0-0.0","44930780","wem/bandit_either","AU8YVB738G6C","either","3","","","","","","","1","0","0","0.3450315","","0.2","0.4","0.6","0.8","","","","","0.2209315791","0.2321266643","0.1549520657","0.3450315","","","","","","","76","L","3","","","146","main_expt"
"390","","bandit","225","820656","0.0-186.0-0.0","44930780","wem/bandit_either","AU8YVB738G6C","either","3","","","","","","","0","0","1","","0.2720321141","0.2","0.4","0.6","0.8","0.2889766311","0.3159383216","0.1469310363","0.2720321141","","","","","","","","","","","76","L","3","","","147","main_expt"
"296","","bandit","226","822471","0.0-187.0-0.0","44930780","wem/bandit_either","AU8YVB738G6C","either","3","","","","","","","0","0","1","0.2598972664","","0.2","0.4","0.6","0.8","","","","","0.2859466156","0.2673485129","0.1332828417","0.2598972664","","","","","","","76","L","3","","","148","main_expt"
"309","","bandit","227","824305","0.0-188.0-0.0","44930780","wem/bandit_either","AU8YVB738G6C","either","3","","","","","","","0","0","1","0.2343157719","","0.2","0.4","0.6","0.8","","","","","0.2588478233","0.3348600541","0.1102010463","0.2343157719","","","","","","","76","L","3","","","149","main_expt"
"394","","bandit","228","826207","0.0-189.0-0.0","44930780","wem/bandit_either","AU8YVB738G6C","either","3","","","","","","","0","0","1","0.1356103494","","0.2","0.4","0.6","0.8","","","","","0.2224653457","0.3659656834","0.1356103494","0.2451363599","","","","","","","75","K","2","","","150","main_expt"
"338","","bandit","229","828082","0.0-190.0-0.0","44930780","wem/bandit_either","AU8YVB738G6C","either","3","","","","","","","0","1","0","","0.36397653","0.2","0.4","0.6","0.8","0.2387237716","0.36397653","0.1621229287","0.2053737132","","","","","","","","","","","74","J","1","","","151","main_expt"
"352","","bandit","230","829947","0.0-191.0-0.0","44930780","wem/bandit_either","AU8YVB738G6C","either","3","","","","","","","0","0","1","","0.2519133504","0.2","0.4","0.6","0.8","0.2519133504","0.3710672623","0.1412745606","0.2396242378","","","","","","","","","","","72","H","0","img/none_selected.jpg","","152","main_expt"
"317","","bandit","231","831792","0.0-192.0-0.0","44930780","wem/bandit_either","AU8YVB738G6C","either","3","","","","","","","0","0","1","","0.3078499427","0.2","0.4","0.6","0.8","0.3078499427","0.3828607765","0.1707580034","0.2923277395","","","","","","","","","","","72","H","0","img/none_selected.jpg","","153","main_expt"
"339","","bandit","232","833666","0.0-193.0-0.0","44930780","wem/bandit_either","AU8YVB738G6C","either","3","","","","","","","0","0","1","0.3166515581","","0.2","0.4","0.6","0.8","","","","","0.3283820497","0.3526468527","0.1717455462","0.3166515581","","","","","","","76","L","3","","","154","main_expt"
"337","","bandit","233","835529","0.0-194.0-0.0","44930780","wem/bandit_either","AU8YVB738G6C","either","3","","","","","","","0","0","1","0.3194616596","","0.2","0.4","0.6","0.8","","","","","0.3303057687","0.3865981945","0.1785539081","0.3194616596","","","","","","","76","L","3","","","155","main_expt"
"367","","bandit","234","837428","0.0-195.0-0.0","44930780","wem/bandit_either","AU8YVB738G6C","either","3","","","","","","","0","0","1","0.3767011333","","0.2","0.4","0.6","0.8","","","","","0.3178912443","0.4328422877","0.2175815231","0.3767011333","","","","","","","76","L","3","","","156","main_expt"
"297","","bandit","235","839254","0.0-196.0-0.0","44930780","wem/bandit_either","AU8YVB738G6C","either","3","","","","","","","0","1","0","","0.3236874272","0.2","0.4","0.6","0.8","0.3236874272","0.4224906378","0.216674397","0.3853144204","","","","","","","","","","","72","H","0","img/none_selected.jpg","","157","main_expt"
"763","","bandit","236","841540","0.0-197.0-0.0","44930780","wem/bandit_either","AU8YVB738G6C","either","3","","","","","","","1","0","0","0.3519128793","","0.2","0.4","0.6","0.8","","","","","0.3731337511","0.4428847078","0.2184316938","0.3519128793","","","","","","","76","L","3","","","158","main_expt"
"337","","bandit","237","843391","0.0-198.0-0.0","44930780","wem/bandit_either","AU8YVB738G6C","either","3","","","","","","","1","0","0","0.3255157266","","0.2","0.4","0.6","0.8","","","","","0.3758107074","0.4498083842","0.2603966468","0.3255157266","","","","","","","76","L","3","","","159","main_expt"
"403","","bandit","238","845314","0.0-199.0-0.0","44930780","wem/bandit_either","AU8YVB738G6C","either","3","","","","","","","0","0","1","0.379238532","","0.2","0.4","0.6","0.8","","","","","0.3494215766","0.4319550234","0.2242017374","0.379238532","","","","","","","76","L","3","","","160","main_expt"
"266","","bandit","239","847106","0.0-200.0-0.0","44930780","wem/bandit_either","AU8YVB738G6C","either","3","","","","","","","0","0","1","0.3776335756","","0.2","0.4","0.6","0.8","","","","","0.3327111917","0.4417514389","0.2014027125","0.3776335756","","","","","","","76","L","3","","","161","main_expt"
"190","","bandit","240","848824","0.0-201.0-0.0","44930780","wem/bandit_either","AU8YVB738G6C","either","3","","","","","","","0","0","1","0.2955751891","","0.2","0.4","0.6","0.8","","","","","0.3171011618","0.4081293495","0.2038621466","0.2955751891","","","","","","","76","L","3","","","162","main_expt"
"391","","bandit","241","850739","0.0-202.0-0.0","44930780","wem/bandit_either","AU8YVB738G6C","either","3","","","","","","","0","0","1","0.30851492","","0.2","0.4","0.6","0.8","","","","","0.364183239","0.4265776113","0.1238136799","0.30851492","","","","","","","76","L","3","","","163","main_expt"
"372","","bandit","242","852632","0.0-203.0-0.0","44930780","wem/bandit_either","AU8YVB738G6C","either","3","","","","","","","0","0","1","0.1104941302","","0.2","0.4","0.6","0.8","","","","","0.3917374524","0.427472809","0.1104941302","0.3074756362","","","","","","","75","K","2","","","164","main_expt"
"293","","bandit","243","854445","0.0-204.0-0.0","44930780","wem/bandit_either","AU8YVB738G6C","either","3","","","","","","","0","0","1","0.1099358877","","0.2","0.4","0.6","0.8","","","","","0.3629360172","0.4016343469","0.1099358877","0.2743039079","","","","","","","75","K","2","","","165","main_expt"
"94","","bandit","244","856047","0.0-205.0-0.0","44930780","wem/bandit_either","AU8YVB738G6C","either","3","","","","","","","0","0","1","","0.08082918558","0.2","0.4","0.6","0.8","0.3697042915","0.3578169927","0.08082918558","0.2900226329","","","","","","","","","","","75","K","2","","","166","main_expt"
"311","","bandit","245","857881","0.0-206.0-0.0","44930780","wem/bandit_either","AU8YVB738G6C","either","3","","","","","","","0","0","1","0.3444017494","","0.2","0.4","0.6","0.8","","","","","0.3626443337","0.3346076013","0.08539074978","0.3444017494","","","","","","","76","L","3","","","167","main_expt"
"314","","bandit","246","859712","0.0-207.0-0.0","44930780","wem/bandit_either","AU8YVB738G6C","either","3","","","","","","","0","0","1","0.3934904689","","0.2","0.4","0.6","0.8","","","","","0.3488380128","0.36326211","0.1307687804","0.3934904689","","","","","","","76","L","3","","","168","main_expt"
"333","","bandit","247","861570","0.0-208.0-0.0","44930780","wem/bandit_either","AU8YVB738G6C","either","3","","","","","","","1","0","0","0.3338465455","","0.2","0.4","0.6","0.8","","","","","0.3338465455","0.3389060657","0.09435724838","0.3712778229","","","","","","","72","H","0","img/none_selected.jpg","","169","main_expt"
"477","","bandit","248","863569","0.0-209.0-0.0","44930780","wem/bandit_either","AU8YVB738G6C","either","3","","","","","","","0","1","0","","0.3675902536","0.2","0.4","0.6","0.8","0.3675902536","0.3820287301","0.09371103674","0.3348119161","","","","","","","","","","","72","H","0","img/none_selected.jpg","","170","main_expt"
"323","","bandit","249","865406","0.0-210.0-0.0","44930780","wem/bandit_either","AU8YVB738G6C","either","3","","","","","","","0","0","1","","0.3738350687","0.2","0.4","0.6","0.8","0.3663425941","0.3738350687","0.0912992704","0.3697689907","","","","","","","","","","","74","J","1","","","171","main_expt"
"274","","bandit","250","867211","0.0-211.0-0.0","44930780","wem/bandit_either","AU8YVB738G6C","either","3","","","","","","","0","1","0","","0.3449486646","0.2","0.4","0.6","0.8","0.3571019768","0.3449486646","0.1053216192","0.3438364448","","","","","","","","","","","74","J","1","","","172","main_expt"
"295","","bandit","251","869034","0.0-212.0-0.0","44930780","wem/bandit_either","AU8YVB738G6C","either","3","","","","","","","0","0","1","0.1119971747","","0.2","0.4","0.6","0.8","","","","","0.383943734","0.3754463001","0.1119971747","0.4064517123","","","","","","","75","K","2","","","173","main_expt"
"1364","","bandit","252","871920","0.0-213.0-0.0","44930780","wem/bandit_either","AU8YVB738G6C","either","3","","","","","","","0","0","1","0.1049574405","","0.2","0.4","0.6","0.8","","","","","0.378453819","0.3983783957","0.1049574405","0.4266345201","","","","","","","75","K","2","","","174","main_expt"
"289","","bandit","253","873734","0.0-214.0-0.0","44930780","wem/bandit_either","AU8YVB738G6C","either","3","","","","","","","0","0","1","","0.07351671593","0.2","0.4","0.6","0.8","0.3577460836","0.4176958341","0.07351671593","0.4413212306","","","","","","","","","","","75","K","2","","","175","main_expt"
"291","","bandit","254","875546","0.0-215.0-0.0","44930780","wem/bandit_either","AU8YVB738G6C","either","3","","","","","","","0","0","1","","0.438548454","0.2","0.4","0.6","0.8","0.3346789668","0.4336280271","0.06097876817","0.438548454","","","","","","","","","","","76","L","3","","","176","main_expt"
"292","","bandit","255","877360","0.0-216.0-0.0","44930780","wem/bandit_either","AU8YVB738G6C","either","3","","","","","","","0","0","1","0.4350726265","","0.2","0.4","0.6","0.8","","","","","0.3720341948","0.3863917124","0.05873143133","0.4350726265","","","","","","","76","L","3","","","177","main_expt"
"280","","bandit","256","879167","0.0-217.0-0.0","44930780","wem/bandit_either","AU8YVB738G6C","either","3","","","","","","","1","0","0","0.4029859975","","0.2","0.4","0.6","0.8","","","","","0.4243236705","0.3826512014","0.07829718294","0.4029859975","","","","","","","76","L","3","","","178","main_expt"
"241","","bandit","257","880937","0.0-218.0-0.0","44930780","wem/bandit_either","AU8YVB738G6C","either","3","","","","","","","0","0","1","0.3738585124","","0.2","0.4","0.6","0.8","","","","","0.4396564102","0.3681046487","0.05868413977","0.3738585124","","","","","","","76","L","3","","","179","main_expt"
"417","","bandit","258","882872","0.0-219.0-0.0","44930780","wem/bandit_either","AU8YVB738G6C","either","3","","","","","","","0","0","1","0.3884150149","","0.2","0.4","0.6","0.8","","","","","0.4501825932","0.374340785","0.04540529238","0.3884150149","","","","","","","76","L","3","","","180","main_expt"
"305","","bandit","259","884703","0.0-220.0-0.0","44930780","wem/bandit_either","AU8YVB738G6C","either","3","","","","","","","1","0","0","0.3977335033","","0.2","0.4","0.6","0.8","","","","","0.4527537228","0.3844034803","0.04810206047","0.3977335033","","","","","","","76","L","3","","","181","main_expt"
"310","","bandit","260","886539","0.0-221.0-0.0","44930780","wem/bandit_either","AU8YVB738G6C","either","3","","","","","","","1","0","0","0.4194204302","","0.2","0.4","0.6","0.8","","","","","0.4733821952","0.3569363444","0.0564969073","0.4194204302","","","","","","","76","L","3","","","182","main_expt"
"779","","bandit","261","888826","0.0-222.0-0.0","44930780","wem/bandit_either","AU8YVB738G6C","either","3","","","","","","","0","1","0","","0.4050300101","0.2","0.4","0.6","0.8","0.4741352064","0.3930074682","0.06674959941","0.4050300101","","","","","","","","","","","76","L","3","","","183","main_expt"
"215","","bandit","262","890576","0.0-223.0-0.0","44930780","wem/bandit_either","AU8YVB738G6C","either","3","","","","","","","0","0","1","","0.4835015011","0.2","0.4","0.6","0.8","0.4835015011","0.4105724965","0.05730522946","0.4272992256","","","","","","","","","","","72","H","0","img/none_selected.jpg","","184","main_expt"
"136","","bandit","263","892232","0.0-224.0-0.0","44930780","wem/bandit_either","AU8YVB738G6C","either","3","","","","","","","0","1","0","","0.4907566516","0.2","0.4","0.6","0.8","0.4907566516","0.4230276401","0.0759668512","0.4213026748","","","","","","","","","","","72","H","0","img/none_selected.jpg","","185","main_expt"
"98","","bandit","264","893851","0.0-225.0-0.0","44930780","wem/bandit_either","AU8YVB738G6C","either","3","","","","","","","0","0","1","0.4243078066","","0.2","0.4","0.6","0.8","","","","","0.4777100538","0.4243078066","0.0736669194","0.3729626057","","","","","","","74","J","1","","","186","main_expt"
"652","","bandit","265","896032","0.0-226.0-0.0","44930780","wem/bandit_either","AU8YVB738G6C","either","3","","","","","","","0","0","1","","0.419104652","0.2","0.4","0.6","0.8","0.4751658893","0.419104652","0.1020870739","0.4022080601","","","","","","","","","","","74","J","1","","","187","main_expt"
"334","","bandit","266","897882","0.0-227.0-0.0","44930780","wem/bandit_either","AU8YVB738G6C","either","3","","","","","","","0","0","1","","0.3917910895","0.2","0.4","0.6","0.8","0.4711403756","0.3917910895","0.110066606","0.4218987807","","","","","","","","","","","74","J","1","","","188","main_expt"
"378","","bandit","267","899773","0.0-228.0-0.0","44930780","wem/bandit_either","AU8YVB738G6C","either","3","","","","","","","0","1","0","","0.3696037293","0.2","0.4","0.6","0.8","0.4848283219","0.3696037293","0.1616324423","0.4284519853","","","","","","","","","","","74","J","1","","","189","main_expt"
"570","","bandit","268","901866","0.0-229.0-0.0","44930780","wem/bandit_either","AU8YVB738G6C","either","3","","","","","","","0","0","1","","0.1401199573","0.2","0.4","0.6","0.8","0.4906713727","0.3722688899","0.1401199573","0.4104863902","","","","","","","","","","","75","K","2","","","190","main_expt"
"303","","bandit","269","903686","0.0-230.0-0.0","44930780","wem/bandit_either","AU8YVB738G6C","either","3","","","","","","","0","0","1","0.1782786715","","0.2","0.4","0.6","0.8","","","","","0.4944082075","0.3956575009","0.1782786715","0.4071825693","","","","","","","75","K","2","","","191","main_expt"
"280","","bandit","270","905482","0.0-231.0-0.0","44930780","wem/bandit_either","AU8YVB738G6C","either","3","","","","","","","0","0","1","","0.203517815","0.2","0.4","0.6","0.8","0.4922337742","0.3843500594","0.203517815","0.4172763132","","","","","","","","","","","75","K","2","","","192","main_expt"
"238","","bandit","271","907230","0.0-232.0-0.0","44930780","wem/bandit_either","AU8YVB738G6C","either","3","","","","","","","0","0","1","0.172030281","","0.2","0.4","0.6","0.8","","","","","0.4887356563","0.3801723293","0.172030281","0.3965334946","","","","","","","75","K","2","","","193","main_expt"
"297","","bandit","272","909053","0.0-233.0-0.0","44930780","wem/bandit_either","AU8YVB738G6C","either","3","","","","","","","0","0","1","0.383316574","","0.2","0.4","0.6","0.8","","","","","0.4850955297","0.3871645121","0.1813301739","0.383316574","","","","","","","76","L","3","","","194","main_expt"
"316","","bandit","273","910881","0.0-234.0-0.0","44930780","wem/bandit_either","AU8YVB738G6C","either","3","","","","","","","1","0","0","0.3965345796","","0.2","0.4","0.6","0.8","","","","","0.4848341758","0.3633903175","0.2284295163","0.3965345796","","","","","","","76","L","3","","","195","main_expt"
"304","","bandit","274","912703","0.0-235.0-0.0","44930780","wem/bandit_either","AU8YVB738G6C","either","3","","","","","","","0","0","1","0.3978469093","","0.2","0.4","0.6","0.8","","","","","0.490049139","0.3811675741","0.2501246714","0.3978469093","","","","","","","76","L","3","","","196","main_expt"
"289","","bandit","275","914512","0.0-236.0-0.0","44930780","wem/bandit_either","AU8YVB738G6C","either","3","","","","","","","0","0","1","0.3172926233","","0.2","0.4","0.6","0.8","","","","","0.4912643012","0.3487868089","0.3150809007","0.3172926233","","","","","","","76","L","3","","","197","main_expt"
"313","","bandit","276","916346","0.0-237.0-0.0","44930780","wem/bandit_either","AU8YVB738G6C","either","3","","","","","","","0","0","1","0.3113170709","","0.2","0.4","0.6","0.8","","","","","0.4793615714","0.2986771554","0.3442077965","0.3113170709","","","","","","","76","L","3","","","198","main_expt"
"313","","bandit","277","918189","0.0-238.0-0.0","44930780","wem/bandit_either","AU8YVB738G6C","either","3","","","","","","","0","0","1","0.3066116159","","0.2","0.4","0.6","0.8","","","","","0.4661622676","0.3481418533","0.3675051223","0.3066116159","","","","","","","76","L","3","","","199","main_expt"
"319","","bandit","278","920036","0.0-239.0-0.0","44930780","wem/bandit_either","AU8YVB738G6C","either","3","","","","","","","0","0","1","0.2521122026","","0.2","0.4","0.6","0.8","","","","","0.4479238565","0.353319573","0.3044821291","0.2521122026","","","","","","","76","L","3","","","200","main_expt"
"317","","bandit","279","921872","0.0-240.0-0.0","44930780","wem/bandit_either","AU8YVB738G6C","either","3","","","","","","","1","0","0","0.2679963248","","0.2","0.4","0.6","0.8","","","","","0.4429166455","0.3676338631","0.3013824411","0.2679963248","","","","","","","76","L","3","","","201","main_expt"
"272","","bandit","280","923663","0.0-241.0-0.0","44930780","wem/bandit_either","AU8YVB738G6C","either","3","","","","","","","0","0","1","0.2076546236","","0.2","0.4","0.6","0.8","","","","","0.442820363","0.311657493","0.3001954661","0.2076546236","","","","","","","76","L","3","","","202","main_expt"
"326","","bandit","281","925514","0.0-242.0-0.0","44930780","wem/bandit_either","AU8YVB738G6C","either","3","","","","","","","0","0","1","0.1881707852","","0.2","0.4","0.6","0.8","","","","","0.4539008368","0.3364041998","0.3189156814","0.1881707852","","","","","","","76","L","3","","","203","main_expt"
"263","","bandit","282","927297","0.0-243.0-0.0","44930780","wem/bandit_either","AU8YVB738G6C","either","3","","","","","","","0","0","1","0.2057853427","","0.2","0.4","0.6","0.8","","","","","0.4163307037","0.3148670147","0.3162062407","0.2057853427","","","","","","","76","L","3","","","204","main_expt"
"334","","bandit","283","929150","0.0-244.0-0.0","44930780","wem/bandit_either","AU8YVB738G6C","either","3","","","","","","","0","0","1","","0.2564451259","0.2","0.4","0.6","0.8","0.4045388199","0.3293187519","0.347278619","0.2564451259","","","","","","","","","","","76","L","3","","","205","main_expt"
"271","","bandit","284","930944","0.0-245.0-0.0","44930780","wem/bandit_either","AU8YVB738G6C","either","3","","","","","","","0","0","1","0.3082896296","","0.2","0.4","0.6","0.8","","","","","0.4083422121","0.2705077244","0.2970129147","0.3082896296","","","","","","","76","L","3","","","206","main_expt"
"277","","bandit","285","932751","0.0-246.0-0.0","44930780","wem/bandit_either","AU8YVB738G6C","either","3","","","","","","","0","1","0","","0.4033585138","0.2","0.4","0.6","0.8","0.4033585138","0.3083591011","0.3331481178","0.3235103938","","","","","","","","","","","72","H","0","img/none_selected.jpg","","207","main_expt"
"307","","bandit","286","934579","0.0-247.0-0.0","44930780","wem/bandit_either","AU8YVB738G6C","either","3","","","","","","","0","0","1","0.2489273718","","0.2","0.4","0.6","0.8","","","","","0.3753320851","0.2489273718","0.3195917859","0.3563539536","","","","","","","74","J","1","","","208","main_expt"
"323","","bandit","287","936428","0.0-248.0-0.0","44930780","wem/bandit_either","AU8YVB738G6C","either","3","","","","","","","0","1","0","","0.2224321457","0.2","0.4","0.6","0.8","0.3864970555","0.2224321457","0.3642345195","0.3821305916","","","","","","","","","","","74","J","1","","","209","main_expt"
"315","","bandit","288","938265","0.0-249.0-0.0","44930780","wem/bandit_either","AU8YVB738G6C","either","3","","","","","","","0","0","1","0.3518797164","","0.2","0.4","0.6","0.8","","","","","0.3894881908","0.2184729634","0.3518797164","0.4067483812","","","","","","","75","K","2","","","210","main_expt"
"314","","bandit","289","940092","0.0-250.0-0.0","44930780","wem/bandit_either","AU8YVB738G6C","either","3","","","","","","","1","0","0","0.3781537602","","0.2","0.4","0.6","0.8","","","","","0.4052823736","0.2178464352","0.3781537602","0.376825818","","","","","","","75","K","2","","","211","main_expt"
"311","","bandit","290","941932","0.0-251.0-0.0","44930780","wem/bandit_either","AU8YVB738G6C","either","3","","","","","","","0","1","0","","0.3773353051","0.2","0.4","0.6","0.8","0.3783189977","0.1644702768","0.3773353051","0.3481764155","","","","","","","","","","","75","K","2","","","212","main_expt"
"64","","bandit","291","943530","0.0-252.0-0.0","44930780","wem/bandit_either","AU8YVB738G6C","either","3","","","","","","","0","0","1","0.3239198888","","0.2","0.4","0.6","0.8","","","","","0.3804187243","0.1271660564","0.3448860985","0.3239198888","","","","","","","76","L","3","","","213","main_expt"
"244","","bandit","292","945292","0.0-253.0-0.0","44930780","wem/bandit_either","AU8YVB738G6C","either","3","","","","","","","0","0","1","0.3592643085","","0.2","0.4","0.6","0.8","","","","","0.3964056757","0.1368129038","0.3622000499","0.3592643085","","","","","","","76","L","3","","","214","main_expt"
"266","","bandit","293","947091","0.0-254.0-0.0","44930780","wem/bandit_either","AU8YVB738G6C","either","3","","","","","","","0","0","1","0.3482739819","","0.2","0.4","0.6","0.8","","","","","0.3939862607","0.07615368859","0.3408682726","0.3482739819","","","","","","","76","L","3","","","215","main_expt"
"256","","bandit","294","948870","0.0-255.0-0.0","44930780","wem/bandit_either","AU8YVB738G6C","either","3","","","","","","","0","0","1","0.2972527025","","0.2","0.4","0.6","0.8","","","","","0.4062496234","0.07711559412","0.328819006","0.2972527025","","","","","","","76","L","3","","","216","main_expt"
"278","","bandit","295","950680","0.0-256.0-0.0","44930780","wem/bandit_either","AU8YVB738G6C","either","3","","","","","","","0","0","1","0.2850944341","","0.2","0.4","0.6","0.8","","","","","0.3440498305","0.07728173513","0.3229374792","0.2850944341","","","","","","","76","L","3","","","217","main_expt"
"309","","bandit","296","952515","0.0-257.0-0.0","44930780","wem/bandit_either","AU8YVB738G6C","either","3","","","","","","","0","0","1","0.2483413171","","0.2","0.4","0.6","0.8","","","","","0.3198020565","0.07919919155","0.3616220652","0.2483413171","","","","","","","76","L","3","","","218","main_expt"
"580","","bandit","297","954614","0.0-258.0-0.0","44930780","wem/bandit_either","AU8YVB738G6C","either","3","","","","","","","0","0","1","0.3591176528","","0.2","0.4","0.6","0.8","","","","","0.3078290176","0.1270410367","0.3591176528","0.2680513607","","","","","","","75","K","2","","","219","main_expt"
"414","","bandit","298","956561","0.0-259.0-0.0","44930780","wem/bandit_either","AU8YVB738G6C","either","3","","","","","","","0","0","1","0.2758994579","","0.2","0.4","0.6","0.8","","","","","0.2961895162","0.1117499599","0.2758994579","0.304668496","","","","","","","75","K","2","","","220","main_expt"
"412","","bandit","299","958500","0.0-260.0-0.0","44930780","wem/bandit_either","AU8YVB738G6C","either","3","","","","","","","0","0","1","0.3119987931","","0.2","0.4","0.6","0.8","","","","","0.2658603678","0.1186324211","0.3119987931","0.2773284289","","","","","","","75","K","2","","","221","main_expt"
"529","","bandit","300","960558","0.0-261.0-0.0","44930780","wem/bandit_either","AU8YVB738G6C","either","3","","","","","","","0","0","1","0.1141050397","","0.2","0.4","0.6","0.8","","","","","0.274695037","0.1141050397","0.3106374463","0.2152506718","","","","","","","74","J","1","","","222","main_expt"
"372","","bandit","301","962462","0.0-262.0-0.0","44930780","wem/bandit_either","AU8YVB738G6C","either","3","","","","","","","0","0","1","0.1007228699","","0.2","0.4","0.6","0.8","","","","","0.2210940289","0.1007228699","0.3131570504","0.2445797097","","","","","","","74","J","1","","","223","main_expt"
"546","","bandit","302","964527","0.0-263.0-0.0","44930780","wem/bandit_either","AU8YVB738G6C","either","3","","","","","","","0","0","1","","0.2559263424","0.2","0.4","0.6","0.8","0.1843933297","0.1380584308","0.3025994915","0.2559263424","","","","","","","","","","","76","L","3","","","224","main_expt"
"276","","bandit","303","966327","0.0-264.0-0.0","44930780","wem/bandit_either","AU8YVB738G6C","either","3","","","","","","","0","0","1","0.2994132709","","0.2","0.4","0.6","0.8","","","","","0.212211923","0.1393521225","0.2994132709","0.2702522324","","","","","","","75","K","2","","","225","main_expt"
"312","","bandit","304","968150","0.0-265.0-0.0","44930780","wem/bandit_either","AU8YVB738G6C","either","3","","","","","","","0","0","1","0.2094269877","","0.2","0.4","0.6","0.8","","","","","0.2315036379","0.2094269877","0.2866794375","0.2646860425","","","","","","","74","J","1","","","226","main_expt"
"376","","bandit","305","970044","0.0-266.0-0.0","44930780","wem/bandit_either","AU8YVB738G6C","either","3","","","","","","","0","0","1","","0.2646353212","0.2","0.4","0.6","0.8","0.2646353212","0.2959232149","0.2299222882","0.269556559","","","","","","","","","","","72","H","0","img/none_selected.jpg","","227","main_expt"
"286","","bandit","306","971848","0.0-267.0-0.0","44930780","wem/bandit_either","AU8YVB738G6C","either","3","","","","","","","0","0","1","","0.2443517867","0.2","0.4","0.6","0.8","0.2443517867","0.374355758","0.2991813551","0.2498152532","","","","","","","","","","","72","H","0","img/none_selected.jpg","","228","main_expt"
"245","","bandit","307","973615","0.0-268.0-0.0","44930780","wem/bandit_either","AU8YVB738G6C","either","3","","","","","","","0","0","1","0.2569692975","","0.2","0.4","0.6","0.8","","","","","0.2569692975","0.3876740502","0.3295538921","0.2495566458","","","","","","","72","H","0","img/none_selected.jpg","","229","main_expt"
"449","","bandit","308","975580","0.0-269.0-0.0","44930780","wem/bandit_either","AU8YVB738G6C","either","3","","","","","","","1","0","0","0.3341674595","","0.2","0.4","0.6","0.8","","","","","0.2490290172","0.3341674595","0.2713593359","0.2134382902","","","","","","","74","J","1","","","230","main_expt"
"373","","bandit","309","977481","0.0-270.0-0.0","44930780","wem/bandit_either","AU8YVB738G6C","either","3","","","","","","","0","0","1","","0.3558281537","0.2","0.4","0.6","0.8","0.2368643707","0.3558281537","0.2746975787","0.2099205747","","","","","","","","","","","74","J","1","","","231","main_expt"
"355","","bandit","310","979360","0.0-271.0-0.0","44930780","wem/bandit_either","AU8YVB738G6C","either","3","","","","","","","1","0","0","0.3293076861","","0.2","0.4","0.6","0.8","","","","","0.2857324616","0.3293076861","0.2817934899","0.1598609145","","","","","","","74","J","1","","","232","main_expt"
"359","","bandit","311","981229","0.0-272.0-0.0","44930780","wem/bandit_either","AU8YVB738G6C","either","3","","","","","","","0","0","1","","0.3271309306","0.2","0.4","0.6","0.8","0.226619475","0.3271309306","0.3139736629","0.1472569172","","","","","","","","","","","74","J","1","","","233","main_expt"
"1446","","bandit","312","984196","0.0-273.0-0.0","44930780","wem/bandit_either","AU8YVB738G6C","either","3","","","","","","","0","0","1","","0.3510228885","0.2","0.4","0.6","0.8","0.2448251662","0.3510228885","0.3332560948","0.1123375355","","","","","","","","","","","74","J","1","","","234","main_expt"
"291","","bandit","313","986006","0.0-274.0-0.0","44930780","wem/bandit_either","AU8YVB738G6C","either","3","","","","","","","0","0","1","0.3346663699","","0.2","0.4","0.6","0.8","","","","","0.2996798263","0.3346663699","0.3475281657","0.1562424728","","","","","","","74","J","1","","","235","main_expt"
"637","","bandit","314","988174","0.0-275.0-0.0","44930780","wem/bandit_either","AU8YVB738G6C","either","3","","","","","","","0","0","1","0.1623269298","","0.2","0.4","0.6","0.8","","","","","0.3220329496","0.332043614","0.3170984437","0.1623269298","","","","","","","76","L","3","","","236","main_expt"
"352","","bandit","315","990050","0.0-276.0-0.0","44930780","wem/bandit_either","AU8YVB738G6C","either","3","","","","","","","0","0","1","0.1362759337","","0.2","0.4","0.6","0.8","","","","","0.3672390457","0.2780661838","0.3611259067","0.1362759337","","","","","","","76","L","3","","","237","main_expt"
"353","","bandit","316","991927","0.0-277.0-0.0","44930780","wem/bandit_either","AU8YVB738G6C","either","3","","","","","","","0","0","1","0.1282223372","","0.2","0.4","0.6","0.8","","","","","0.3702030288","0.3071002506","0.3449339383","0.1282223372","","","","","","","76","L","3","","","238","main_expt"
"345","","bandit","317","993804","0.0-278.0-0.0","44930780","wem/bandit_either","AU8YVB738G6C","either","3","","","","","","","0","0","1","","0.3101279526","0.2","0.4","0.6","0.8","0.3486367063","0.3101279526","0.3006984684","0.08262393641","","","","","","","","","","","74","J","1","","","239","main_expt"
"315","","bandit","318","995643","0.0-279.0-0.0","44930780","wem/bandit_either","AU8YVB738G6C","either","3","","","","","","","0","1","0","","0.3071576631","0.2","0.4","0.6","0.8","0.3422639114","0.3071576631","0.3355390738","0.09366491666","","","","","","","","","","","74","J","1","","","240","main_expt"
"291","","bandit","319","997459","0.0-280.0-0.0","44930780","wem/bandit_either","AU8YVB738G6C","either","3","","","","","","","0","0","1","","0.3513118525","0.2","0.4","0.6","0.8","0.3703795114","0.3213727252","0.3513118525","0.09778426954","","","","","","","","","","","75","K","2","","","241","main_expt"
"308","","bandit","320","999292","0.0-281.0-0.0","44930780","wem/bandit_either","AU8YVB738G6C","either","3","","","","","","","1","0","0","0.2871404103","","0.2","0.4","0.6","0.8","","","","","0.3362310887","0.3303042821","0.2871404103","0.0684580113","","","","","","","75","K","2","","","242","main_expt"
"301","","bandit","321","1001114","0.0-282.0-0.0","44930780","wem/bandit_either","AU8YVB738G6C","either","3","","","","","","","0","0","1","","0.2582353252","0.2","0.4","0.6","0.8","0.3855302341","0.386578507","0.2582353252","0.05756719403","","","","","","","","","","","75","K","2","","","243","main_expt"
"1434","","bandit","322","1004075","0.0-283.0-0.0","44930780","wem/bandit_either","AU8YVB738G6C","either","3","","","","","","","0","0","1","0.2108553612","","0.2","0.4","0.6","0.8","","","","","0.3504604058","0.3582196724","0.2108553612","0.07954378931","","","","","","","75","K","2","","","244","main_expt"
"272","","bandit","323","1005873","0.0-284.0-0.0","44930780","wem/bandit_either","AU8YVB738G6C","either","3","","","","","","","0","0","1","","0.190308294","0.2","0.4","0.6","0.8","0.3586275713","0.3626170977","0.190308294","0.07668718344","","","","","","","","","","","75","K","2","","","245","main_expt"
"314","","bandit","324","1007705","0.0-285.0-0.0","44930780","wem/bandit_either","AU8YVB738G6C","either","3","","","","","","","1","0","0","0.2079876503","","0.2","0.4","0.6","0.8","","","","","0.3202710015","0.2778980274","0.2079876503","0.08627194322","","","","","","","75","K","2","","","246","main_expt"
"312","","bandit","325","1009533","0.0-286.0-0.0","44930780","wem/bandit_either","AU8YVB738G6C","either","3","","","","","","","0","0","1","0.2053262284","","0.2","0.4","0.6","0.8","","","","","0.2874587678","0.2864864277","0.2053262284","0.1009858539","","","","","","","75","K","2","","","247","main_expt"
"349","","bandit","326","1011397","0.0-287.0-0.0","44930780","wem/bandit_either","AU8YVB738G6C","either","3","","","","","","","0","0","1","","0.2699327364","0.2","0.4","0.6","0.8","0.2703076155","0.2883304048","0.2699327364","0.1044033157","","","","","","","","","","","75","K","2","","","248","main_expt"
"338","","bandit","327","1013256","0.0-288.0-0.0","44930780","wem/bandit_either","AU8YVB738G6C","either","3","","","","","","","0","1","0","","0.2917851334","0.2","0.4","0.6","0.8","0.2212833967","0.3034325887","0.2917851334","0.07254640656","","","","","","","","","","","75","K","2","","","249","main_expt"
"290","","bandit","328","1015071","0.0-289.0-0.0","44930780","wem/bandit_either","AU8YVB738G6C","either","3","","","","","","","0","0","1","0.09512939239","","0.2","0.4","0.6","0.8","","","","","0.2174917034","0.2582013927","0.2530543584","0.09512939239","","","","","","","76","L","3","","","250","main_expt"
"294","","bandit","329","1016889","0.0-290.0-0.0","44930780","wem/bandit_either","AU8YVB738G6C","either","3","","","","","","","1","0","0","0.06759478125","","0.2","0.4","0.6","0.8","","","","","0.2008338107","0.2337836179","0.2345859063","0.06759478125","","","","","","","76","L","3","","","251","main_expt"
"310","","bandit","330","1018723","0.0-291.0-0.0","44930780","wem/bandit_either","AU8YVB738G6C","either","3","","","","","","","0","0","1","0.05682902113","","0.2","0.4","0.6","0.8","","","","","0.2294508047","0.2477033955","0.2407419433","0.05682902113","","","","","","","76","L","3","","","252","main_expt"
"308","","bandit","331","1020547","0.0-292.0-0.0","44930780","wem/bandit_either","AU8YVB738G6C","either","3","","","","","","","0","0","1","0.04662337877","","0.2","0.4","0.6","0.8","","","","","0.2678406235","0.2187012899","0.2016139721","0.04662337877","","","","","","","76","L","3","","","253","main_expt"
"291","","bandit","332","1022372","0.0-293.0-0.0","44930780","wem/bandit_either","AU8YVB738G6C","either","3","","","","","","","0","0","1","0.05613237953","","0.2","0.4","0.6","0.8","","","","","0.3248943382","0.2247734494","0.2204455337","0.05613237953","","","","","","","76","L","3","","","254","main_expt"
"271","","bandit","333","1024178","0.0-294.0-0.0","44930780","wem/bandit_either","AU8YVB738G6C","either","3","","","","","","","0","0","1","0.05644163561","","0.2","0.4","0.6","0.8","","","","","0.2917783391","0.2421740144","0.2064376997","0.05644163561","","","","","","","76","L","3","","","255","main_expt"
"253","","bandit","334","1025956","0.0-295.0-0.0","44930780","wem/bandit_either","AU8YVB738G6C","either","3","","","","","","","0","0","1","0.0822638557","","0.2","0.4","0.6","0.8","","","","","0.2890466427","0.1607391421","0.2475065377","0.0822638557","","","","","","","76","L","3","","","256","main_expt"
"283","","bandit","335","1027748","0.0-296.0-0.0","44930780","wem/bandit_either","AU8YVB738G6C","either","3","","","","","","","0","0","1","","0.1670427545","0.2","0.4","0.6","0.8","0.2606634298","0.1396226214","0.2406261574","0.1670427545","","","","","","","","","","","76","L","3","","","257","main_expt"
"374","","bandit","336","1029643","0.0-297.0-0.0","44930780","wem/bandit_either","AU8YVB738G6C","either","3","","","","","","","1","0","0","0.210007045","","0.2","0.4","0.6","0.8","","","","","0.2337832043","0.1071467304","0.2986563671","0.210007045","","","","","","","76","L","3","","","258","main_expt"
