"rt","responses","trial_type","trial_index","time_elapsed","internal_node_id","subjID","study","MID","cond","drift","key_press","expt_phase","target","like","value","connected","gems","bombs","no_reward","GemPrChosen","BombPrChosen","GainOverPainPr_0","GainOverPainPr_1","GainOverPainPr_2","GainOverPainPr_3","LosePr_0","LosePr_1","LosePr_2","LosePr_3","WinPr_0","WinPr_1","WinPr_2","WinPr_3","Q0","Q1","Q2","gender","age","ethnicity","respCharCode","respKey","respChoiceNum","respChoice","practice","trial_counter","trial_label"
"7328","{""Q0"":""A3G5IPGLH1IIZN""}","survey-text","0","7348","0.0-0.0","45397727","wem/bandit_either","A3G5IPGLH1IIZN","either","7","","","","","","","","","","","","","","","","","","","","","","","","","","","","","","","","","","","",""
"29901","","text","1","38261","0.0-1.0","45397727","wem/bandit_either","A3G5IPGLH1IIZN","either","7","32","","","","","","","","","","","","","","","","","","","","","","","","","","","","","","","","","","",""
"9789","","text","2","48055","0.0-2.0","45397727","wem/bandit_either","A3G5IPGLH1IIZN","either","7","32","","","","","","","","","","","","","","","","","","","","","","","","","","","","","","","","","","",""
"30861","","text","3","78923","0.0-3.0","45397727","wem/bandit_either","A3G5IPGLH1IIZN","either","7","32","","","","","","","","","","","","","","","","","","","","","","","","","","","","","","","","","","",""
"31610","","text","4","110537","0.0-4.0","45397727","wem/bandit_either","A3G5IPGLH1IIZN","either","7","32","","","","","","","","","","","","","","","","","","","","","","","","","","","","","","","","","","",""
"24114","","text","5","134655","0.0-5.0","45397727","wem/bandit_either","A3G5IPGLH1IIZN","either","7","32","","","","","","","","","","","","","","","","","","","","","","","","","","","","","","","","","","",""
"9490","","text","6","144150","0.0-6.0","45397727","wem/bandit_either","A3G5IPGLH1IIZN","either","7","32","","","","","","","","","","","","","","","","","","","","","","","","","","","","","","","","","","",""
"6495","","text","7","150649","0.0-7.0","45397727","wem/bandit_either","A3G5IPGLH1IIZN","either","7","32","","","","","","","","","","","","","","","","","","","","","","","","","","","","","","","","","","",""
"8916","","identification","8","159645","0.0-8.0-0.0","45397727","wem/bandit_either","A3G5IPGLH1IIZN","either","7","","identification_pre","the village of Zur","","","","","","","","","","","","","","","","","","","","","","","","","","","","","","","","",""
"6719","","identification","9","167418","0.0-8.0-1.0","45397727","wem/bandit_either","A3G5IPGLH1IIZN","either","7","","identification_pre","the village of Nyx","","","","","","","","","","","","","","","","","","","","","","","","","","","","","","","","",""
"4206","","text","10","172630","0.0-9.0","45397727","wem/bandit_either","A3G5IPGLH1IIZN","either","7","32","","","","","","","","","","","","","","","","","","","","","","","","","","","","","","","","","","",""
"2989","","text","11","175627","0.0-10.0","45397727","wem/bandit_either","A3G5IPGLH1IIZN","either","7","32","","","","","","","","","","","","","","","","","","","","","","","","","","","","","","","","","","",""
"3005","","text","12","178637","0.0-11.0","45397727","wem/bandit_either","A3G5IPGLH1IIZN","either","7","32","","","","","","","","","","","","","","","","","","","","","","","","","","","","","","","","","","",""
"115473","","text","13","294114","0.0-12.0","45397727","wem/bandit_either","A3G5IPGLH1IIZN","either","7","32","","","","","","","","","","","","","","","","","","","","","","","","","","","","","","","","","","",""
"13707","","bandit","14","309341","0.0-13.0-0.0","45397727","wem/bandit_either","A3G5IPGLH1IIZN","either","7","","","","","","","0","0","1","0","0","","","","","0","","","","0","","","","","","","","","","74","J","0","img/none_selected_demo.jpg","true","0",""
"2427","","bandit","15","313287","0.0-14.0-0.0","45397727","wem/bandit_either","A3G5IPGLH1IIZN","either","7","","","","","","","0","0","1","0","0","","","","","0","","","","0","","","","","","","","","","75","K","0","img/none_selected_demo.jpg","true","0",""
"18486","","text","16","331779","0.0-15.0","45397727","wem/bandit_either","A3G5IPGLH1IIZN","either","7","32","","","","","","","","","","","","","","","","","","","","","","","","","","","","","","","","","","",""
"12004","","text","17","343802","0.0-16.0","45397727","wem/bandit_either","A3G5IPGLH1IIZN","either","7","32","","","","","","","","","","","","","","","","","","","","","","","","","","","","","","","","","","",""
"5438","","text","18","349251","0.0-17.0","45397727","wem/bandit_either","A3G5IPGLH1IIZN","either","7","32","","","","","","","","","","","","","","","","","","","","","","","","","","","","","","","","","","",""
"14169","","text","19","363424","0.0-18.0","45397727","wem/bandit_either","A3G5IPGLH1IIZN","either","7","32","","","","","","","","","","","","","","","","","","","","","","","","","","","","","","","","","","",""
"2664","","bandit","20","367608","0.0-19.0-0.0","45397727","wem/bandit_either","A3G5IPGLH1IIZN","either","7","","","","","","","0","0","1","","0.8","0.5","0.5","","","0.8","0.2","","","","","","","","","","","","","74","J","0","img/none_selected_demo.jpg","true","0","80_20_practice"
"785","","bandit","21","369917","0.0-19.0-1.0","45397727","wem/bandit_either","A3G5IPGLH1IIZN","either","7","","","","","","","0","0","1","0.2","","0.5","0.5","","","","","","","0.8","0.2","","","","","","","","","75","K","1","","true","0","80_20_practice"
"497","","bandit","22","371930","0.0-19.0-2.0","45397727","wem/bandit_either","A3G5IPGLH1IIZN","either","7","","","","","","","0","0","1","","0.2","0.5","0.5","","","0.8","0.2","","","","","","","","","","","","","75","K","1","","true","0","80_20_practice"
"468","","bandit","23","373910","0.0-19.0-3.0","45397727","wem/bandit_either","A3G5IPGLH1IIZN","either","7","","","","","","","0","0","1","0.2","","0.5","0.5","","","","","","","0.8","0.2","","","","","","","","","75","K","1","","true","0","80_20_practice"
"423","","bandit","24","375849","0.0-19.0-4.0","45397727","wem/bandit_either","A3G5IPGLH1IIZN","either","7","","","","","","","0","0","1","0.8","","0.5","0.5","","","","","","","0.8","0.2","","","","","","","","","74","J","0","img/none_selected_demo.jpg","true","0","80_20_practice"
"421","","bandit","25","377789","0.0-19.0-5.0","45397727","wem/bandit_either","A3G5IPGLH1IIZN","either","7","","","","","","","0","1","0","","0.8","0.5","0.5","","","0.8","0.2","","","","","","","","","","","","","74","J","0","img/none_selected_demo.jpg","true","0","80_20_practice"
"673","","bandit","26","379978","0.0-19.0-6.0","45397727","wem/bandit_either","A3G5IPGLH1IIZN","either","7","","","","","","","1","0","0","0.8","","0.5","0.5","","","","","","","0.8","0.2","","","","","","","","","74","J","0","img/none_selected_demo.jpg","true","0","80_20_practice"
"480","","bandit","27","381972","0.0-19.0-7.0","45397727","wem/bandit_either","A3G5IPGLH1IIZN","either","7","","","","","","","0","1","0","","0.8","0.5","0.5","","","0.8","0.2","","","","","","","","","","","","","74","J","0","img/none_selected_demo.jpg","true","0","80_20_practice"
"239","","bandit","28","383731","0.0-19.0-8.0","45397727","wem/bandit_either","A3G5IPGLH1IIZN","either","7","","","","","","","1","0","0","0.8","","0.5","0.5","","","","","","","0.8","0.2","","","","","","","","","74","J","0","img/none_selected_demo.jpg","true","0","80_20_practice"
"335","","bandit","29","385592","0.0-19.0-9.0","45397727","wem/bandit_either","A3G5IPGLH1IIZN","either","7","","","","","","","0","1","0","","0.8","0.5","0.5","","","0.8","0.2","","","","","","","","","","","","","74","J","0","img/none_selected_demo.jpg","true","0","80_20_practice"
"1814","","bandit","30","388918","0.0-19.0-10.0","45397727","wem/bandit_either","A3G5IPGLH1IIZN","either","7","","","","","","","0","1","0","","0.8","0.5","0.5","","","0.8","0.2","","","","","","","","","","","","","74","J","0","img/none_selected_demo.jpg","true","0","80_20_practice"
"257","","bandit","31","390692","0.0-19.0-11.0","45397727","wem/bandit_either","A3G5IPGLH1IIZN","either","7","","","","","","","0","1","0","","0.8","0.5","0.5","","","0.8","0.2","","","","","","","","","","","","","74","J","0","img/none_selected_demo.jpg","true","0","80_20_practice"
"370","","bandit","32","392603","0.0-19.0-12.0","45397727","wem/bandit_either","A3G5IPGLH1IIZN","either","7","","","","","","","0","1","0","","0.8","0.5","0.5","","","0.8","0.2","","","","","","","","","","","","","74","J","0","img/none_selected_demo.jpg","true","0","80_20_practice"
"1145","","bandit","33","395276","0.0-19.0-13.0","45397727","wem/bandit_either","A3G5IPGLH1IIZN","either","7","","","","","","","1","0","0","0.8","","0.5","0.5","","","","","","","0.8","0.2","","","","","","","","","74","J","0","img/none_selected_demo.jpg","true","0","80_20_practice"
"790","","bandit","34","397592","0.0-19.0-14.0","45397727","wem/bandit_either","A3G5IPGLH1IIZN","either","7","","","","","","","1","0","0","0.8","","0.5","0.5","","","","","","","0.8","0.2","","","","","","","","","74","J","0","img/none_selected_demo.jpg","true","0","80_20_practice"
"488","","bandit","35","399602","0.0-19.0-15.0","45397727","wem/bandit_either","A3G5IPGLH1IIZN","either","7","","","","","","","1","0","0","0.8","","0.5","0.5","","","","","","","0.8","0.2","","","","","","","","","74","J","0","img/none_selected_demo.jpg","true","0","80_20_practice"
"790","","bandit","36","401917","0.0-19.0-16.0","45397727","wem/bandit_either","A3G5IPGLH1IIZN","either","7","","","","","","","1","0","0","0.8","","0.5","0.5","","","","","","","0.8","0.2","","","","","","","","","74","J","0","img/none_selected_demo.jpg","true","0","80_20_practice"
"366","","bandit","37","403802","0.0-19.0-17.0","45397727","wem/bandit_either","A3G5IPGLH1IIZN","either","7","","","","","","","1","0","0","0.8","","0.5","0.5","","","","","","","0.8","0.2","","","","","","","","","74","J","0","img/none_selected_demo.jpg","true","0","80_20_practice"
"412","","bandit","38","405741","0.0-19.0-18.0","45397727","wem/bandit_either","A3G5IPGLH1IIZN","either","7","","","","","","","1","0","0","0.8","","0.5","0.5","","","","","","","0.8","0.2","","","","","","","","","74","J","0","img/none_selected_demo.jpg","true","0","80_20_practice"
"1558","","bandit","39","408820","0.0-19.0-19.0","45397727","wem/bandit_either","A3G5IPGLH1IIZN","either","7","","","","","","","1","0","0","0.8","","0.5","0.5","","","","","","","0.8","0.2","","","","","","","","","74","J","0","img/none_selected_demo.jpg","true","0","80_20_practice"
"6221","","text","40","415055","0.0-20.0","45397727","wem/bandit_either","A3G5IPGLH1IIZN","either","7","32","","","","","","","","","","","","","","","","","","","","","","","","","","","","","","","","","","",""
"1157","","bandit","41","417731","0.0-21.0-0.0","45397727","wem/bandit_either","A3G5IPGLH1IIZN","either","7","","","","","","","1","0","0","1","0","","","","","0","1","","","1","0","","","","","","","","","74","J","0","img/none_selected_demo.jpg","true","0",""
"11323","","text","42","429104","0.0-22.0","45397727","wem/bandit_either","A3G5IPGLH1IIZN","either","7","32","","","","","","","","","","","","","","","","","","","","","","","","","","","","","","","","","","",""
"3123","","text","43","432233","0.0-23.0","45397727","wem/bandit_either","A3G5IPGLH1IIZN","either","7","32","","","","","","","","","","","","","","","","","","","","","","","","","","","","","","","","","","",""
"3949","","text","44","436190","0.0-24.0","45397727","wem/bandit_either","A3G5IPGLH1IIZN","either","7","32","","","","","","","","","","","","","","","","","","","","","","","","","","","","","","","","","","",""
"3171","","text","45","439369","0.0-25.0","45397727","wem/bandit_either","A3G5IPGLH1IIZN","either","7","32","","","","","","","","","","","","","","","","","","","","","","","","","","","","","","","","","","",""
"14944","","text","46","454318","0.0-26.0","45397727","wem/bandit_either","A3G5IPGLH1IIZN","either","7","32","","","","","","","","","","","","","","","","","","","","","","","","","","","","","","","","","","",""
"5470","","text","47","459793","0.0-27.0","45397727","wem/bandit_either","A3G5IPGLH1IIZN","either","7","32","","","","","","","","","","","","","","","","","","","","","","","","","","","","","","","","","","",""
"53896","","text","48","513700","0.0-28.0","45397727","wem/bandit_either","A3G5IPGLH1IIZN","either","7","32","","","","","","","","","","","","","","","","","","","","","","","","","","","","","","","","","","",""
"4599","","text","49","518307","0.0-29.0","45397727","wem/bandit_either","A3G5IPGLH1IIZN","either","7","32","","","","","","","","","","","","","","","","","","","","","","","","","","","","","","","","","","",""
"4750","","text","50","523070","0.0-30.0","45397727","wem/bandit_either","A3G5IPGLH1IIZN","either","7","32","","","","","","","","","","","","","","","","","","","","","","","","","","","","","","","","","","",""
"3278","","text","51","526355","0.0-31.0","45397727","wem/bandit_either","A3G5IPGLH1IIZN","either","7","32","","","","","","","","","","","","","","","","","","","","","","","","","","","","","","","","","","",""
"11292","","text","52","537653","0.0-32.0","45397727","wem/bandit_either","A3G5IPGLH1IIZN","either","7","32","","","","","","","","","","","","","","","","","","","","","","","","","","","","","","","","","","",""
"1670","","bandit","53","540845","0.0-33.0-0.0","45397727","wem/bandit_either","A3G5IPGLH1IIZN","either","7","","","","","","","0","0","1","","0.6","0.5","0.5","0.5","0.5","0.8","0.2","0.6","0.2","","","","","","","","","","","75","K","2","","true","0","full_practice"
"307","","bandit","54","542681","0.0-33.0-1.0","45397727","wem/bandit_either","A3G5IPGLH1IIZN","either","7","","","","","","","0","0","1","0.2","","0.5","0.5","0.5","0.5","","","","","0.8","0.2","0.6","0.2","","","","","","","76","L","3","","true","0","full_practice"
"1221","","bandit","55","545429","0.0-33.0-2.0","45397727","wem/bandit_either","A3G5IPGLH1IIZN","either","7","","","","","","","0","0","1","","0.2","0.5","0.5","0.5","0.5","0.8","0.2","0.6","0.2","","","","","","","","","","","74","J","1","","true","0","full_practice"
"498","","bandit","56","547445","0.0-33.0-3.0","45397727","wem/bandit_either","A3G5IPGLH1IIZN","either","7","","","","","","","0","1","0","","0.8","0.5","0.5","0.5","0.5","0.8","0.2","0.6","0.2","","","","","","","","","","","72","H","0","img/none_selected.jpg","true","0","full_practice"
"541","","bandit","57","549500","0.0-33.0-4.0","45397727","wem/bandit_either","A3G5IPGLH1IIZN","either","7","","","","","","","1","0","0","0.8","","0.5","0.5","0.5","0.5","","","","","0.8","0.2","0.6","0.2","","","","","","","72","H","0","img/none_selected.jpg","true","0","full_practice"
"461","","bandit","58","551481","0.0-33.0-5.0","45397727","wem/bandit_either","A3G5IPGLH1IIZN","either","7","","","","","","","1","0","0","0.8","","0.5","0.5","0.5","0.5","","","","","0.8","0.2","0.6","0.2","","","","","","","72","H","0","img/none_selected.jpg","true","0","full_practice"
"181","","bandit","59","553192","0.0-33.0-6.0","45397727","wem/bandit_either","A3G5IPGLH1IIZN","either","7","","","","","","","1","0","0","0.8","","0.5","0.5","0.5","0.5","","","","","0.8","0.2","0.6","0.2","","","","","","","72","H","0","img/none_selected.jpg","true","0","full_practice"
"215","","bandit","60","554926","0.0-33.0-7.0","45397727","wem/bandit_either","A3G5IPGLH1IIZN","either","7","","","","","","","1","0","0","0.8","","0.5","0.5","0.5","0.5","","","","","0.8","0.2","0.6","0.2","","","","","","","72","H","0","img/none_selected.jpg","true","0","full_practice"
"1702","","bandit","61","558146","0.0-33.0-8.0","45397727","wem/bandit_either","A3G5IPGLH1IIZN","either","7","","","","","","","0","1","0","","0.8","0.5","0.5","0.5","0.5","0.8","0.2","0.6","0.2","","","","","","","","","","","72","H","0","img/none_selected.jpg","true","0","full_practice"
"498","","bandit","62","560175","0.0-33.0-9.0","45397727","wem/bandit_either","A3G5IPGLH1IIZN","either","7","","","","","","","1","0","0","0.8","","0.5","0.5","0.5","0.5","","","","","0.8","0.2","0.6","0.2","","","","","","","72","H","0","img/none_selected.jpg","true","0","full_practice"
"604","","bandit","63","562307","0.0-33.0-10.0","45397727","wem/bandit_either","A3G5IPGLH1IIZN","either","7","","","","","","","0","1","0","","0.8","0.5","0.5","0.5","0.5","0.8","0.2","0.6","0.2","","","","","","","","","","","72","H","0","img/none_selected.jpg","true","0","full_practice"
"488","","bandit","64","564311","0.0-33.0-11.0","45397727","wem/bandit_either","A3G5IPGLH1IIZN","either","7","","","","","","","0","0","1","","0.8","0.5","0.5","0.5","0.5","0.8","0.2","0.6","0.2","","","","","","","","","","","72","H","0","img/none_selected.jpg","true","0","full_practice"
"745","","bandit","65","566576","0.0-33.0-12.0","45397727","wem/bandit_either","A3G5IPGLH1IIZN","either","7","","","","","","","0","0","1","","0.2","0.5","0.5","0.5","0.5","0.8","0.2","0.6","0.2","","","","","","","","","","","74","J","1","","true","0","full_practice"
"15","","bandit","66","568113","0.0-33.0-13.0","45397727","wem/bandit_either","A3G5IPGLH1IIZN","either","7","","","","","","","1","0","0","0.6","","0.5","0.5","0.5","0.5","","","","","0.8","0.2","0.6","0.2","","","","","","","75","K","2","","true","0","full_practice"
"167","","bandit","67","569801","0.0-33.0-14.0","45397727","wem/bandit_either","A3G5IPGLH1IIZN","either","7","","","","","","","0","0","1","0.6","","0.5","0.5","0.5","0.5","","","","","0.8","0.2","0.6","0.2","","","","","","","75","K","2","","true","0","full_practice"
"506","","bandit","68","571844","0.0-33.0-15.0","45397727","wem/bandit_either","A3G5IPGLH1IIZN","either","7","","","","","","","0","1","0","","0.6","0.5","0.5","0.5","0.5","0.8","0.2","0.6","0.2","","","","","","","","","","","75","K","2","","true","0","full_practice"
"679","","bandit","69","574044","0.0-33.0-16.0","45397727","wem/bandit_either","A3G5IPGLH1IIZN","either","7","","","","","","","1","0","0","0.6","","0.5","0.5","0.5","0.5","","","","","0.8","0.2","0.6","0.2","","","","","","","75","K","2","","true","0","full_practice"
"474","","bandit","70","576038","0.0-33.0-17.0","45397727","wem/bandit_either","A3G5IPGLH1IIZN","either","7","","","","","","","1","0","0","0.6","","0.5","0.5","0.5","0.5","","","","","0.8","0.2","0.6","0.2","","","","","","","75","K","2","","true","0","full_practice"
"358","","bandit","71","577915","0.0-33.0-18.0","45397727","wem/bandit_either","A3G5IPGLH1IIZN","either","7","","","","","","","1","0","0","0.6","","0.5","0.5","0.5","0.5","","","","","0.8","0.2","0.6","0.2","","","","","","","75","K","2","","true","0","full_practice"
"341","","bandit","72","579781","0.0-33.0-19.0","45397727","wem/bandit_either","A3G5IPGLH1IIZN","either","7","","","","","","","1","0","0","0.6","","0.5","0.5","0.5","0.5","","","","","0.8","0.2","0.6","0.2","","","","","","","75","K","2","","true","0","full_practice"
"3979","","text","73","583799","0.0-34.0","45397727","wem/bandit_either","A3G5IPGLH1IIZN","either","7","32","","","","","","","","","","","","","","","","","","","","","","","","","","","","","","","","","","",""
"14502","","text","74","599323","0.0-35.0","45397727","wem/bandit_either","A3G5IPGLH1IIZN","either","7","32","","","","","","","","","","","","","","","","","","","","","","","","","","","","","","","","","","",""
"11316","","text","75","610647","0.0-36.0","45397727","wem/bandit_either","A3G5IPGLH1IIZN","either","7","32","","","","","","","","","","","","","","","","","","","","","","","","","","","","","","","","","","",""
"43396","","text","76","654056","0.0-37.0","45397727","wem/bandit_either","A3G5IPGLH1IIZN","either","7","32","","","","","","","","","","","","","","","","","","","","","","","","","","","","","","","","","","",""
"5666","","text","77","659731","0.0-38.0","45397727","wem/bandit_either","A3G5IPGLH1IIZN","either","7","32","","","","","","","","","","","","","","","","","","","","","","","","","","","","","","","","","","",""
"9164","","text","78","668909","0.0-39.0","45397727","wem/bandit_either","A3G5IPGLH1IIZN","either","7","32","","","","","","","","","","","","","","","","","","","","","","","","","","","","","","","","","","",""
"2421","","bandit","79","672847","0.0-40.0-0.0","45397727","wem/bandit_either","A3G5IPGLH1IIZN","either","7","","","","","","","0","1","0","","0.1952616071","0.6","0.8","0.2","0.4","0.01738065524","0.1952616071","0.1480066451","0.06530018083","","","","","","","","","","","74","J","1","","","1","main_expt"
"1303","","bandit","80","675672","0.0-41.0-0.0","45397727","wem/bandit_either","A3G5IPGLH1IIZN","either","7","","","","","","","0","0","1","0.1652234336","","0.6","0.8","0.2","0.4","","","","","0.0196943787","0.1652234336","0.1053714073","0.1011701763","","","","","","","74","J","1","","","2","main_expt"
"600","","bandit","81","677803","0.0-42.0-0.0","45397727","wem/bandit_either","A3G5IPGLH1IIZN","either","7","","","","","","","0","0","1","0.1347382479","","0.6","0.8","0.2","0.4","","","","","0.01678573497","0.1347382479","0.1460078221","0.09486719381","","","","","","","74","J","1","","","3","main_expt"
"471","","bandit","82","679810","0.0-43.0-0.0","45397727","wem/bandit_either","A3G5IPGLH1IIZN","either","7","","","","","","","0","0","1","0.1866138214","","0.6","0.8","0.2","0.4","","","","","0.02981965743","0.1684625442","0.1866138214","0.06705802814","","","","","","","75","K","2","","","4","main_expt"
"662","","bandit","83","681991","0.0-44.0-0.0","45397727","wem/bandit_either","A3G5IPGLH1IIZN","either","7","","","","","","","0","0","1","0.0822298525","","0.6","0.8","0.2","0.4","","","","","0.02600208211","0.1792029032","0.2445348717","0.0822298525","","","","","","","76","L","3","","","5","main_expt"
"646","","bandit","84","684159","0.0-45.0-0.0","45397727","wem/bandit_either","A3G5IPGLH1IIZN","either","7","","","","","","","0","0","1","0.02332436933","","0.6","0.8","0.2","0.4","","","","","0.02332436933","0.2153873139","0.2546962146","0.09162209411","","","","","","","72","H","0","img/none_selected.jpg","","6","main_expt"
"524","","bandit","85","686241","0.0-46.0-0.0","45397727","wem/bandit_either","A3G5IPGLH1IIZN","either","7","","","","","","","0","0","1","0.1757762721","","0.6","0.8","0.2","0.4","","","","","0.02864040813","0.1757762721","0.2344841702","0.1028820098","","","","","","","74","J","1","","","7","main_expt"
"545","","bandit","86","688308","0.0-47.0-0.0","45397727","wem/bandit_either","A3G5IPGLH1IIZN","either","7","","","","","","","0","0","1","0.2241229746","","0.6","0.8","0.2","0.4","","","","","0.02951264166","0.2241229746","0.2473344203","0.1532270122","","","","","","","74","J","1","","","8","main_expt"
"494","","bandit","87","690324","0.0-48.0-0.0","45397727","wem/bandit_either","A3G5IPGLH1IIZN","either","7","","","","","","","0","0","1","0.2642160399","","0.6","0.8","0.2","0.4","","","","","0.02997011939","0.2199426203","0.2642160399","0.2131450397","","","","","","","75","K","2","","","9","main_expt"
"518","","bandit","88","692366","0.0-49.0-0.0","45397727","wem/bandit_either","A3G5IPGLH1IIZN","either","7","","","","","","","0","0","1","","0.2985754635","0.6","0.8","0.2","0.4","0.02489651457","0.1520686932","0.2104627424","0.2985754635","","","","","","","","","","","76","L","3","","","10","main_expt"
"59","","bandit","89","693947","0.0-50.0-0.0","45397727","wem/bandit_either","A3G5IPGLH1IIZN","either","7","","","","","","","0","0","1","0.01651058827","","0.6","0.8","0.2","0.4","","","","","0.01651058827","0.2013349999","0.219372878","0.2924640086","","","","","","","72","H","0","img/none_selected.jpg","","11","main_expt"
"1092","","bandit","90","696564","0.0-51.0-0.0","45397727","wem/bandit_either","A3G5IPGLH1IIZN","either","7","","","","","","","0","0","1","0.2156800105","","0.6","0.8","0.2","0.4","","","","","0.02341729431","0.2156800105","0.2105839871","0.3264291113","","","","","","","74","J","1","","","12","main_expt"
"506","","bandit","91","698599","0.0-52.0-0.0","45397727","wem/bandit_either","A3G5IPGLH1IIZN","either","7","","","","","","","0","0","1","0.1833947696","","0.6","0.8","0.2","0.4","","","","","0.0257410372","0.1833947696","0.2511698571","0.3254913314","","","","","","","74","J","1","","","13","main_expt"
"563","","bandit","92","700693","0.0-53.0-0.0","45397727","wem/bandit_either","A3G5IPGLH1IIZN","either","7","","","","","","","0","0","1","0.2158977649","","0.6","0.8","0.2","0.4","","","","","0.02570014082","0.243643366","0.2158977649","0.3428504842","","","","","","","75","K","2","","","14","main_expt"
"431","","bandit","93","702654","0.0-54.0-0.0","45397727","wem/bandit_either","A3G5IPGLH1IIZN","either","7","","","","","","","1","0","0","0.3244047679","","0.6","0.8","0.2","0.4","","","","","0.04268316416","0.2265365198","0.2762480727","0.3244047679","","","","","","","76","L","3","","","15","main_expt"
"502","","bandit","94","704692","0.0-55.0-0.0","45397727","wem/bandit_either","A3G5IPGLH1IIZN","either","7","","","","","","","1","0","0","0.3025313629","","0.6","0.8","0.2","0.4","","","","","0.04667408308","0.2484951132","0.3202890724","0.3025313629","","","","","","","76","L","3","","","16","main_expt"
"590","","bandit","95","706808","0.0-56.0-0.0","45397727","wem/bandit_either","A3G5IPGLH1IIZN","either","7","","","","","","","0","0","1","0.3291216938","","0.6","0.8","0.2","0.4","","","","","0.0506688767","0.2570267238","0.3680552247","0.3291216938","","","","","","","76","L","3","","","17","main_expt"
"536","","bandit","96","708871","0.0-57.0-0.0","45397727","wem/bandit_either","A3G5IPGLH1IIZN","either","7","","","","","","","0","1","0","","0.2987881532","0.6","0.8","0.2","0.4","0.02988526167","0.287418789","0.3968593921","0.2987881532","","","","","","","","","","","76","L","3","","","18","main_expt"
"371","","bandit","97","710779","0.0-58.0-0.0","45397727","wem/bandit_either","A3G5IPGLH1IIZN","either","7","","","","","","","0","1","0","","0.281207523","0.6","0.8","0.2","0.4","0.03476350355","0.2338710899","0.4192996399","0.281207523","","","","","","","","","","","76","L","3","","","19","main_expt"
"712","","bandit","98","713031","0.0-59.0-0.0","45397727","wem/bandit_either","A3G5IPGLH1IIZN","either","7","","","","","","","0","0","1","","0.291129981","0.6","0.8","0.2","0.4","0.0233687216","0.2335293464","0.4362768361","0.291129981","","","","","","","","","","","76","L","3","","","20","main_expt"
"463","","bandit","99","715018","0.0-60.0-0.0","45397727","wem/bandit_either","A3G5IPGLH1IIZN","either","7","","","","","","","0","0","1","","0.2729578326","0.6","0.8","0.2","0.4","0.01272547494","0.2434826965","0.4599691003","0.2729578326","","","","","","","","","","","76","L","3","","","21","main_expt"
"427","","bandit","100","716973","0.0-61.0-0.0","45397727","wem/bandit_either","A3G5IPGLH1IIZN","either","7","","","","","","","0","0","1","0.2805141014","","0.6","0.8","0.2","0.4","","","","","0.01739491555","0.2702300591","0.44353765","0.2805141014","","","","","","","76","L","3","","","22","main_expt"
"128","","bandit","101","718620","0.0-62.0-0.0","45397727","wem/bandit_either","A3G5IPGLH1IIZN","either","7","","","","","","","0","0","1","","0.3016389313","0.6","0.8","0.2","0.4","0.006692102231","0.2424740502","0.4105594395","0.3016389313","","","","","","","","","","","76","L","3","","","23","main_expt"
"515","","bandit","102","720660","0.0-63.0-0.0","45397727","wem/bandit_either","A3G5IPGLH1IIZN","either","7","","","","","","","0","0","1","","0.4243351486","0.6","0.8","0.2","0.4","0.01209419849","0.1754503809","0.4243351486","0.2475621169","","","","","","","","","","","75","K","2","","","24","main_expt"
"746","","bandit","103","722927","0.0-64.0-0.0","45397727","wem/bandit_either","A3G5IPGLH1IIZN","either","7","","","","","","","0","0","1","","0.009734580702","0.6","0.8","0.2","0.4","0.009734580702","0.2023019753","0.4172780312","0.2607476102","","","","","","","","","","","72","H","0","img/none_selected.jpg","","25","main_expt"
"495","","bandit","104","724937","0.0-65.0-0.0","45397727","wem/bandit_either","A3G5IPGLH1IIZN","either","7","","","","","","","0","0","1","0.008596148908","","0.6","0.8","0.2","0.4","","","","","0.008596148908","0.1887270612","0.3981062588","0.292589008","","","","","","","72","H","0","img/none_selected.jpg","","26","main_expt"
"523","","bandit","105","726973","0.0-66.0-0.0","45397727","wem/bandit_either","A3G5IPGLH1IIZN","either","7","","","","","","","0","1","0","","0.3889188119","0.6","0.8","0.2","0.4","0.01380650739","0.2526986378","0.3889188119","0.2978950393","","","","","","","","","","","75","K","2","","","27","main_expt"
"677","","bandit","106","729170","0.0-67.0-0.0","45397727","wem/bandit_either","A3G5IPGLH1IIZN","either","7","","","","","","","0","1","0","","0.3699095679","0.6","0.8","0.2","0.4","0.01160852189","0.2536033627","0.3699095679","0.337392419","","","","","","","","","","","75","K","2","","","28","main_expt"
"662","","bandit","107","731355","0.0-68.0-0.0","45397727","wem/bandit_either","A3G5IPGLH1IIZN","either","7","","","","","","","0","0","1","0.4087832773","","0.6","0.8","0.2","0.4","","","","","0.02858314752","0.258258936","0.4087832773","0.3830759015","","","","","","","75","K","2","","","29","main_expt"
"639","","bandit","108","733522","0.0-69.0-0.0","45397727","wem/bandit_either","A3G5IPGLH1IIZN","either","7","","","","","","","0","0","1","0.4162513677","","0.6","0.8","0.2","0.4","","","","","0.0265596094","0.3152574144","0.4162513677","0.3778881599","","","","","","","75","K","2","","","30","main_expt"
"419","","bandit","109","735473","0.0-70.0-0.0","45397727","wem/bandit_either","A3G5IPGLH1IIZN","either","7","","","","","","","0","0","1","","0.3585458117","0.6","0.8","0.2","0.4","0.02828816112","0.3508579725","0.43337534","0.3585458117","","","","","","","","","","","76","L","3","","","31","main_expt"
"347","","bandit","110","737338","0.0-71.0-0.0","45397727","wem/bandit_either","A3G5IPGLH1IIZN","either","7","","","","","","","0","0","1","0.3902021543","","0.6","0.8","0.2","0.4","","","","","0.03857304495","0.3902021543","0.4399105216","0.3511664436","","","","","","","74","J","1","","","32","main_expt"
"372","","bandit","111","739227","0.0-72.0-0.0","45397727","wem/bandit_either","A3G5IPGLH1IIZN","either","7","","","","","","","0","1","0","","0.3859623535","0.6","0.8","0.2","0.4","0.02642959278","0.4112626521","0.3859623535","0.3924960189","","","","","","","","","","","75","K","2","","","33","main_expt"
"638","","bandit","112","741422","0.0-73.0-0.0","45397727","wem/bandit_either","A3G5IPGLH1IIZN","either","7","","","","","","","0","0","1","0.4231921331","","0.6","0.8","0.2","0.4","","","","","0.06800028167","0.3912589523","0.4231921331","0.3713907517","","","","","","","75","K","2","","","34","main_expt"
"572","","bandit","113","743518","0.0-74.0-0.0","45397727","wem/bandit_either","A3G5IPGLH1IIZN","either","7","","","","","","","0","0","1","","0.3950458867","0.6","0.8","0.2","0.4","0.05710280771","0.3663646496","0.3950458867","0.3929004689","","","","","","","","","","","75","K","2","","","35","main_expt"
"339","","bandit","114","745391","0.0-75.0-0.0","45397727","wem/bandit_either","A3G5IPGLH1IIZN","either","7","","","","","","","0","1","0","","0.4005306787","0.6","0.8","0.2","0.4","0.07756943076","0.3045225128","0.4005306787","0.3820467604","","","","","","","","","","","75","K","2","","","36","main_expt"
"1012","","bandit","115","747923","0.0-76.0-0.0","45397727","wem/bandit_either","A3G5IPGLH1IIZN","either","7","","","","","","","0","1","0","","0.3972735937","0.6","0.8","0.2","0.4","0.06074629621","0.2806474599","0.3972735937","0.3948022939","","","","","","","","","","","75","K","2","","","37","main_expt"
"383","","bandit","116","749822","0.0-77.0-0.0","45397727","wem/bandit_either","A3G5IPGLH1IIZN","either","7","","","","","","","0","1","0","","0.38339591","0.6","0.8","0.2","0.4","0.07063042774","0.3558759705","0.38339591","0.3769579019","","","","","","","","","","","75","K","2","","","38","main_expt"
"85","","bandit","117","751433","0.0-78.0-0.0","45397727","wem/bandit_either","A3G5IPGLH1IIZN","either","7","","","","","","","0","0","1","","0.3906354184","0.6","0.8","0.2","0.4","0.06209293178","0.3194138052","0.3906354184","0.4030344636","","","","","","","","","","","75","K","2","","","39","main_expt"
"597","","bandit","118","753555","0.0-79.0-0.0","45397727","wem/bandit_either","A3G5IPGLH1IIZN","either","7","","","","","","","0","1","0","","0.3623676206","0.6","0.8","0.2","0.4","0.06952578958","0.3549086085","0.3623676206","0.3622335218","","","","","","","","","","","75","K","2","","","40","main_expt"
"735","","bandit","119","755824","0.0-80.0-0.0","45397727","wem/bandit_either","A3G5IPGLH1IIZN","either","7","","","","","","","0","1","0","","0.3873704927","0.6","0.8","0.2","0.4","0.1291245709","0.3452113815","0.3873704927","0.3911596719","","","","","","","","","","","75","K","2","","","41","main_expt"
"788","","bandit","120","758150","0.0-81.0-0.0","45397727","wem/bandit_either","A3G5IPGLH1IIZN","either","7","","","","","","","0","0","1","","0.359823116","0.6","0.8","0.2","0.4","0.1174523948","0.3522960267","0.359823116","0.3921858285","","","","","","","","","","","75","K","2","","","42","main_expt"
"513","","bandit","121","760199","0.0-82.0-0.0","45397727","wem/bandit_either","A3G5IPGLH1IIZN","either","7","","","","","","","1","0","0","0.3710191411","","0.6","0.8","0.2","0.4","","","","","0.1201484523","0.3093122096","0.3710191411","0.3831213528","","","","","","","75","K","2","","","43","main_expt"
"484","","bandit","122","762209","0.0-83.0-0.0","45397727","wem/bandit_either","A3G5IPGLH1IIZN","either","7","","","","","","","0","0","1","","0.3874065465","0.6","0.8","0.2","0.4","0.09958360536","0.3026159556","0.3874065465","0.3518708159","","","","","","","","","","","75","K","2","","","44","main_expt"
"323","","bandit","123","764058","0.0-84.0-0.0","45397727","wem/bandit_either","A3G5IPGLH1IIZN","either","7","","","","","","","0","0","1","","0.3851533971","0.6","0.8","0.2","0.4","0.05173655998","0.3336294247","0.3851533971","0.3122870636","","","","","","","","","","","75","K","2","","","45","main_expt"
"852","","bandit","124","766442","0.0-85.0-0.0","45397727","wem/bandit_either","A3G5IPGLH1IIZN","either","7","","","","","","","0","0","1","0.2635721956","","0.6","0.8","0.2","0.4","","","","","0.05945041096","0.3400222736","0.4055883719","0.2635721956","","","","","","","76","L","3","","","46","main_expt"
"803","","bandit","125","768780","0.0-86.0-0.0","45397727","wem/bandit_either","A3G5IPGLH1IIZN","either","7","","","","","","","0","0","1","0.328707825","","0.6","0.8","0.2","0.4","","","","","0.04375763727","0.328707825","0.3671593179","0.2856785865","","","","","","","74","J","1","","","47","main_expt"
"496","","bandit","126","770818","0.0-87.0-0.0","45397727","wem/bandit_either","A3G5IPGLH1IIZN","either","7","","","","","","","0","0","1","","0.3198203038","0.6","0.8","0.2","0.4","0.0666370861","0.3307690822","0.3198203038","0.2649087478","","","","","","","","","","","75","K","2","","","48","main_expt"
"858","","bandit","127","773207","0.0-88.0-0.0","45397727","wem/bandit_either","A3G5IPGLH1IIZN","either","7","","","","","","","0","0","1","0.08266213623","","0.6","0.8","0.2","0.4","","","","","0.08266213623","0.3438067684","0.3111357295","0.2462979357","","","","","","","72","H","0","img/none_selected.jpg","","49","main_expt"
"376","","bandit","128","775107","0.0-89.0-0.0","45397727","wem/bandit_either","A3G5IPGLH1IIZN","either","7","","","","","","","0","1","0","","0.08795051988","0.6","0.8","0.2","0.4","0.08795051988","0.4037002216","0.3196682981","0.2490076798","","","","","","","","","","","72","H","0","img/none_selected.jpg","","50","main_expt"
"669","","bandit","129","777304","0.0-90.0-0.0","45397727","wem/bandit_either","A3G5IPGLH1IIZN","either","7","","","","","","","1","0","0","0.07533366945","","0.6","0.8","0.2","0.4","","","","","0.07533366945","0.3557518394","0.3088596379","0.305209751","","","","","","","72","H","0","img/none_selected.jpg","","51","main_expt"
"723","","bandit","130","779557","0.0-91.0-0.0","45397727","wem/bandit_either","A3G5IPGLH1IIZN","either","7","","","","","","","0","0","1","","0.06506638851","0.6","0.8","0.2","0.4","0.06506638851","0.3254324358","0.3060924957","0.3087204988","","","","","","","","","","","72","H","0","img/none_selected.jpg","","52","main_expt"
"679","","bandit","131","781786","0.0-92.0-0.0","45397727","wem/bandit_either","A3G5IPGLH1IIZN","either","7","","","","","","","0","0","1","","0.06562792832","0.6","0.8","0.2","0.4","0.06562792832","0.2952150256","0.3229319808","0.2984188648","","","","","","","","","","","72","H","0","img/none_selected.jpg","","53","main_expt"
"371","","bandit","132","783705","0.0-93.0-0.0","45397727","wem/bandit_either","A3G5IPGLH1IIZN","either","7","","","","","","","0","0","1","0.04630081711","","0.6","0.8","0.2","0.4","","","","","0.04630081711","0.300320608","0.3280138586","0.3353917468","","","","","","","72","H","0","img/none_selected.jpg","","54","main_expt"
"1433","","bandit","133","786673","0.0-94.0-0.0","45397727","wem/bandit_either","A3G5IPGLH1IIZN","either","7","","","","","","","1","0","0","0.2985084879","","0.6","0.8","0.2","0.4","","","","","0.03868373719","0.2985084879","0.2777260571","0.3259144651","","","","","","","74","J","1","","","55","main_expt"
"674","","bandit","134","788884","0.0-95.0-0.0","45397727","wem/bandit_either","A3G5IPGLH1IIZN","either","7","","","","","","","0","0","1","0.2607009345","","0.6","0.8","0.2","0.4","","","","","0.06235362297","0.2607009345","0.1791004868","0.3259049121","","","","","","","74","J","1","","","56","main_expt"
"191","","bandit","135","790599","0.0-96.0-0.0","45397727","wem/bandit_either","A3G5IPGLH1IIZN","either","7","","","","","","","0","1","0","","0.2565854794","0.6","0.8","0.2","0.4","0.04639461243","0.2565854794","0.2182265394","0.3687904078","","","","","","","","","","","74","J","1","","","57","main_expt"
"665","","bandit","136","792785","0.0-97.0-0.0","45397727","wem/bandit_either","A3G5IPGLH1IIZN","either","7","","","","","","","1","0","0","0.319121847","","0.6","0.8","0.2","0.4","","","","","0.08954448139","0.319121847","0.2970860181","0.3422038875","","","","","","","74","J","1","","","58","main_expt"
"653","","bandit","137","794977","0.0-98.0-0.0","45397727","wem/bandit_either","A3G5IPGLH1IIZN","either","7","","","","","","","1","0","0","0.3269923399","","0.6","0.8","0.2","0.4","","","","","0.07390342289","0.3269923399","0.3249685468","0.3771421139","","","","","","","74","J","1","","","59","main_expt"
"587","","bandit","138","797088","0.0-99.0-0.0","45397727","wem/bandit_either","A3G5IPGLH1IIZN","either","7","","","","","","","0","0","1","","0.3150968823","0.6","0.8","0.2","0.4","0.05801548519","0.3150968823","0.2931470039","0.3620124399","","","","","","","","","","","74","J","1","","","60","main_expt"
"1041","","bandit","139","799654","0.0-100.0-0.0","45397727","wem/bandit_either","A3G5IPGLH1IIZN","either","7","","","","","","","0","0","1","","0.324539239","0.6","0.8","0.2","0.4","0.07333263924","0.324539239","0.2646536279","0.3958116198","","","","","","","","","","","74","J","1","","","61","main_expt"
"843","","bandit","140","802017","0.0-101.0-0.0","45397727","wem/bandit_either","A3G5IPGLH1IIZN","either","7","","","","","","","1","0","0","0.3066306166","","0.6","0.8","0.2","0.4","","","","","0.07563430262","0.3066306166","0.242461968","0.3615218546","","","","","","","74","J","1","","","62","main_expt"
"882","","bandit","141","804419","0.0-102.0-0.0","45397727","wem/bandit_either","A3G5IPGLH1IIZN","either","7","","","","","","","0","0","1","","0.3068900116","0.6","0.8","0.2","0.4","0.06826526778","0.3068900116","0.2206683029","0.3574266064","","","","","","","","","","","74","J","1","","","63","main_expt"
"459","","bandit","142","806398","0.0-103.0-0.0","45397727","wem/bandit_either","A3G5IPGLH1IIZN","either","7","","","","","","","0","0","1","0.2936494982","","0.6","0.8","0.2","0.4","","","","","0.1175271989","0.2936494982","0.2288959862","0.3541915859","","","","","","","74","J","1","","","64","main_expt"
"448","","bandit","143","808373","0.0-104.0-0.0","45397727","wem/bandit_either","A3G5IPGLH1IIZN","either","7","","","","","","","0","0","1","","0.2346523549","0.6","0.8","0.2","0.4","0.1273865191","0.290236101","0.2346523549","0.3339820985","","","","","","","","","","","75","K","2","","","65","main_expt"
"280","","bandit","144","810180","0.0-105.0-0.0","45397727","wem/bandit_either","A3G5IPGLH1IIZN","either","7","","","","","","","0","0","1","","0.2512036594","0.6","0.8","0.2","0.4","0.09075088943","0.2512036594","0.1881688105","0.3195467083","","","","","","","","","","","74","J","1","","","66","main_expt"
"758","","bandit","145","812468","0.0-106.0-0.0","45397727","wem/bandit_either","A3G5IPGLH1IIZN","either","7","","","","","","","0","0","1","","0.3477383846","0.6","0.8","0.2","0.4","0.08077075725","0.263747572","0.231043846","0.3477383846","","","","","","","","","","","76","L","3","","","67","main_expt"
"675","","bandit","146","814667","0.0-107.0-0.0","45397727","wem/bandit_either","A3G5IPGLH1IIZN","either","7","","","","","","","0","0","1","","0.3365352069","0.6","0.8","0.2","0.4","0.08810311296","0.2892519303","0.2576664243","0.3365352069","","","","","","","","","","","76","L","3","","","68","main_expt"
"414","","bandit","147","816614","0.0-108.0-0.0","45397727","wem/bandit_either","A3G5IPGLH1IIZN","either","7","","","","","","","0","0","1","","0.1260156682","0.6","0.8","0.2","0.4","0.1260156682","0.2383664846","0.2183283259","0.3148812039","","","","","","","","","","","72","H","0","img/none_selected.jpg","","69","main_expt"
"361","","bandit","148","818497","0.0-109.0-0.0","45397727","wem/bandit_either","A3G5IPGLH1IIZN","either","7","","","","","","","0","0","1","0.08773951932","","0.6","0.8","0.2","0.4","","","","","0.08773951932","0.2497111545","0.2260484764","0.3154014692","","","","","","","72","H","0","img/none_selected.jpg","","70","main_expt"
"215","","bandit","149","820237","0.0-110.0-0.0","45397727","wem/bandit_either","A3G5IPGLH1IIZN","either","7","","","","","","","0","0","1","0.2095843002","","0.6","0.8","0.2","0.4","","","","","0.1154304285","0.2095843002","0.3196469567","0.219815459","","","","","","","74","J","1","","","71","main_expt"
"357","","bandit","150","822127","0.0-111.0-0.0","45397727","wem/bandit_either","A3G5IPGLH1IIZN","either","7","","","","","","","0","0","1","","0.3644141189","0.6","0.8","0.2","0.4","0.10097247","0.1972488467","0.3644141189","0.2623730272","","","","","","","","","","","75","K","2","","","72","main_expt"
"344","","bandit","151","823995","0.0-112.0-0.0","45397727","wem/bandit_either","A3G5IPGLH1IIZN","either","7","","","","","","","0","0","1","0.15494396","","0.6","0.8","0.2","0.4","","","","","0.0746930591","0.15494396","0.4081842109","0.2639805735","","","","","","","74","J","1","","","73","main_expt"
"367","","bandit","152","825884","0.0-113.0-0.0","45397727","wem/bandit_either","A3G5IPGLH1IIZN","either","7","","","","","","","0","0","1","","0.2770925356","0.6","0.8","0.2","0.4","0.1124392477","0.1324790415","0.4506698749","0.2770925356","","","","","","","","","","","76","L","3","","","74","main_expt"
"389","","bandit","153","827807","0.0-114.0-0.0","45397727","wem/bandit_either","A3G5IPGLH1IIZN","either","7","","","","","","","1","0","0","0.454520075","","0.6","0.8","0.2","0.4","","","","","0.113494578","0.179195356","0.454520075","0.2796652475","","","","","","","75","K","2","","","75","main_expt"
"425","","bandit","154","829769","0.0-115.0-0.0","45397727","wem/bandit_either","A3G5IPGLH1IIZN","either","7","","","","","","","0","0","1","","0.466199952","0.6","0.8","0.2","0.4","0.1469344428","0.215808919","0.466199952","0.3153427244","","","","","","","","","","","75","K","2","","","76","main_expt"
"432","","bandit","155","831758","0.0-116.0-0.0","45397727","wem/bandit_either","A3G5IPGLH1IIZN","either","7","","","","","","","0","0","1","","0.4402141775","0.6","0.8","0.2","0.4","0.2152215887","0.2312347408","0.4402141775","0.3676911864","","","","","","","","","","","75","K","2","","","77","main_expt"
"274","","bandit","156","833573","0.0-117.0-0.0","45397727","wem/bandit_either","A3G5IPGLH1IIZN","either","7","","","","","","","0","1","0","","0.4525957793","0.6","0.8","0.2","0.4","0.2055177618","0.2197025874","0.4525957793","0.3434277392","","","","","","","","","","","75","K","2","","","78","main_expt"
"450","","bandit","157","835550","0.0-118.0-0.0","45397727","wem/bandit_either","A3G5IPGLH1IIZN","either","7","","","","","","","0","1","0","","0.4630799716","0.6","0.8","0.2","0.4","0.222262525","0.2227420924","0.4630799716","0.3758616161","","","","","","","","","","","75","K","2","","","79","main_expt"
"347","","bandit","158","837422","0.0-119.0-0.0","45397727","wem/bandit_either","A3G5IPGLH1IIZN","either","7","","","","","","","1","0","0","0.423693353","","0.6","0.8","0.2","0.4","","","","","0.2700860438","0.2283057493","0.423693353","0.3862393514","","","","","","","75","K","2","","","80","main_expt"
"413","","bandit","159","839355","0.0-120.0-0.0","45397727","wem/bandit_either","A3G5IPGLH1IIZN","either","7","","","","","","","1","0","0","0.4319112677","","0.6","0.8","0.2","0.4","","","","","0.2642688004","0.2721525977","0.4319112677","0.3593770893","","","","","","","75","K","2","","","81","main_expt"
"404","","bandit","160","841285","0.0-121.0-0.0","45397727","wem/bandit_either","A3G5IPGLH1IIZN","either","7","","","","","","","0","1","0","","0.441827487","0.6","0.8","0.2","0.4","0.2824164754","0.2850237184","0.441827487","0.4035110645","","","","","","","","","","","75","K","2","","","82","main_expt"
"337","","bandit","161","843146","0.0-122.0-0.0","45397727","wem/bandit_either","A3G5IPGLH1IIZN","either","7","","","","","","","0","0","1","","0.4288861504","0.6","0.8","0.2","0.4","0.2819095575","0.3236436683","0.4288861504","0.3719627038","","","","","","","","","","","75","K","2","","","83","main_expt"
"519","","bandit","162","845212","0.0-123.0-0.0","45397727","wem/bandit_either","A3G5IPGLH1IIZN","either","7","","","","","","","0","0","1","","0.4350385517","0.6","0.8","0.2","0.4","0.2589745902","0.3339638593","0.4350385517","0.3349288927","","","","","","","","","","","75","K","2","","","84","main_expt"
"373","","bandit","163","847131","0.0-124.0-0.0","45397727","wem/bandit_either","A3G5IPGLH1IIZN","either","7","","","","","","","0","1","0","","0.4255505645","0.6","0.8","0.2","0.4","0.3626504113","0.3795022601","0.4255505645","0.3247899262","","","","","","","","","","","75","K","2","","","85","main_expt"
"591","","bandit","164","849248","0.0-125.0-0.0","45397727","wem/bandit_either","A3G5IPGLH1IIZN","either","7","","","","","","","0","1","0","","0.4330938692","0.6","0.8","0.2","0.4","0.3598915268","0.3835523064","0.4330938692","0.3443557019","","","","","","","","","","","75","K","2","","","86","main_expt"
"361","","bandit","165","851166","0.0-126.0-0.0","45397727","wem/bandit_either","A3G5IPGLH1IIZN","either","7","","","","","","","0","0","1","0.4548398529","","0.6","0.8","0.2","0.4","","","","","0.3433052933","0.3772514457","0.4548398529","0.3648776167","","","","","","","75","K","2","","","87","main_expt"
"435","","bandit","166","853140","0.0-127.0-0.0","45397727","wem/bandit_either","A3G5IPGLH1IIZN","either","7","","","","","","","0","1","0","","0.4493124031","0.6","0.8","0.2","0.4","0.4022938878","0.3766830519","0.4493124031","0.3609631839","","","","","","","","","","","75","K","2","","","88","main_expt"
"466","","bandit","167","855145","0.0-128.0-0.0","45397727","wem/bandit_either","A3G5IPGLH1IIZN","either","7","","","","","","","1","0","0","0.4161110063","","0.6","0.8","0.2","0.4","","","","","0.4141493151","0.3537755119","0.4161110063","0.3636167192","","","","","","","75","K","2","","","89","main_expt"
"513","","bandit","168","857193","0.0-129.0-0.0","45397727","wem/bandit_either","A3G5IPGLH1IIZN","either","7","","","","","","","0","0","1","","0.405260856","0.6","0.8","0.2","0.4","0.4136124289","0.3014761449","0.405260856","0.3563441379","","","","","","","","","","","75","K","2","","","90","main_expt"
"732","","bandit","169","859483","0.0-130.0-0.0","45397727","wem/bandit_either","A3G5IPGLH1IIZN","either","7","","","","","","","0","0","1","","0.3827048226","0.6","0.8","0.2","0.4","0.4184852842","0.2694038268","0.3827048226","0.3389138503","","","","","","","","","","","75","K","2","","","91","main_expt"
"543","","bandit","170","861561","0.0-131.0-0.0","45397727","wem/bandit_either","A3G5IPGLH1IIZN","either","7","","","","","","","0","1","0","","0.3263360165","0.6","0.8","0.2","0.4","0.4456808576","0.2651536323","0.3552182969","0.3263360165","","","","","","","","","","","76","L","3","","","92","main_expt"
"856","","bandit","171","863946","0.0-132.0-0.0","45397727","wem/bandit_either","A3G5IPGLH1IIZN","either","7","","","","","","","0","0","1","","0.2844131911","0.6","0.8","0.2","0.4","0.4355219805","0.1997208586","0.3286897504","0.2844131911","","","","","","","","","","","76","L","3","","","93","main_expt"
"582","","bandit","172","866048","0.0-133.0-0.0","45397727","wem/bandit_either","A3G5IPGLH1IIZN","either","7","","","","","","","0","0","1","","0.2978465223","0.6","0.8","0.2","0.4","0.4609821192","0.2442555344","0.3422490236","0.2978465223","","","","","","","","","","","76","L","3","","","94","main_expt"
"433","","bandit","173","868010","0.0-134.0-0.0","45397727","wem/bandit_either","A3G5IPGLH1IIZN","either","7","","","","","","","0","0","1","","0.2638723705","0.6","0.8","0.2","0.4","0.4419374505","0.2638839348","0.3160161054","0.2638723705","","","","","","","","","","","76","L","3","","","95","main_expt"
"437","","bandit","174","869969","0.0-135.0-0.0","45397727","wem/bandit_either","A3G5IPGLH1IIZN","either","7","","","","","","","0","1","0","","0.2945538732","0.6","0.8","0.2","0.4","0.39438674","0.2265245807","0.2945538732","0.2276010735","","","","","","","","","","","75","K","2","","","96","main_expt"
"702","","bandit","175","872196","0.0-136.0-0.0","45397727","wem/bandit_either","A3G5IPGLH1IIZN","either","7","","","","","","","0","1","0","","0.393563827","0.6","0.8","0.2","0.4","0.3617668419","0.1969189177","0.393563827","0.2045446072","","","","","","","","","","","75","K","2","","","97","main_expt"
"443","","bandit","176","874181","0.0-137.0-0.0","45397727","wem/bandit_either","A3G5IPGLH1IIZN","either","7","","","","","","","0","1","0","","0.4046254927","0.6","0.8","0.2","0.4","0.3737913853","0.1761144245","0.4046254927","0.2436418828","","","","","","","","","","","75","K","2","","","98","main_expt"
"600","","bandit","177","876309","0.0-138.0-0.0","45397727","wem/bandit_either","A3G5IPGLH1IIZN","either","7","","","","","","","0","0","1","","0.3659012549","0.6","0.8","0.2","0.4","0.4221129479","0.1211630765","0.3659012549","0.2473144087","","","","","","","","","","","75","K","2","","","99","main_expt"
"396","","bandit","178","878229","0.0-139.0-0.0","45397727","wem/bandit_either","A3G5IPGLH1IIZN","either","7","","","","","","","0","0","1","","0.400368336","0.6","0.8","0.2","0.4","0.3857893684","0.1257326749","0.400368336","0.2707360286","","","","","","","","","","","75","K","2","","","100","main_expt"
"500","","bandit","179","880258","0.0-140.0-0.0","45397727","wem/bandit_either","A3G5IPGLH1IIZN","either","7","","","","","","","0","0","1","","0.3250409822","0.6","0.8","0.2","0.4","0.3635527264","0.09975532208","0.4367931528","0.3250409822","","","","","","","","","","","76","L","3","","","101","main_expt"
"598","","bandit","180","882393","0.0-141.0-0.0","45397727","wem/bandit_either","A3G5IPGLH1IIZN","either","7","","","","","","","1","0","0","0.3738375489","","0.6","0.8","0.2","0.4","","","","","0.3738375489","0.1127414424","0.4371155326","0.3088580598","","","","","","","72","H","0","img/none_selected.jpg","","102","main_expt"
"628","","bandit","181","884550","0.0-142.0-0.0","45397727","wem/bandit_either","A3G5IPGLH1IIZN","either","7","","","","","","","0","1","0","","0.3860163181","0.6","0.8","0.2","0.4","0.3860163181","0.1232600734","0.388648264","0.2901001995","","","","","","","","","","","72","H","0","img/none_selected.jpg","","103","main_expt"
"424","","bandit","182","886512","0.0-143.0-0.0","45397727","wem/bandit_either","A3G5IPGLH1IIZN","either","7","","","","","","","0","0","1","0.390692362","","0.6","0.8","0.2","0.4","","","","","0.390692362","0.08156843846","0.3718469433","0.309645936","","","","","","","72","H","0","img/none_selected.jpg","","104","main_expt"
"611","","bandit","183","888655","0.0-144.0-0.0","45397727","wem/bandit_either","A3G5IPGLH1IIZN","either","7","","","","","","","1","0","0","0.4139082553","","0.6","0.8","0.2","0.4","","","","","0.4139082553","0.08245659199","0.3920304628","0.3386062745","","","","","","","72","H","0","img/none_selected.jpg","","105","main_expt"
"499","","bandit","184","890707","0.0-145.0-0.0","45397727","wem/bandit_either","A3G5IPGLH1IIZN","either","7","","","","","","","1","0","0","0.3295275825","","0.6","0.8","0.2","0.4","","","","","0.3295275825","0.1276639339","0.3733497125","0.3827539061","","","","","","","72","H","0","img/none_selected.jpg","","106","main_expt"
"683","","bandit","185","892939","0.0-146.0-0.0","45397727","wem/bandit_either","A3G5IPGLH1IIZN","either","7","","","","","","","0","1","0","","0.3499712774","0.6","0.8","0.2","0.4","0.3499712774","0.1812689745","0.3878439861","0.3401355396","","","","","","","","","","","72","H","0","img/none_selected.jpg","","107","main_expt"
"680","","bandit","186","895144","0.0-147.0-0.0","45397727","wem/bandit_either","A3G5IPGLH1IIZN","either","7","","","","","","","1","0","0","0.2666891207","","0.6","0.8","0.2","0.4","","","","","0.2666891207","0.2187982558","0.3529013302","0.3258039352","","","","","","","72","H","0","img/none_selected.jpg","","108","main_expt"
"743","","bandit","187","897439","0.0-148.0-0.0","45397727","wem/bandit_either","A3G5IPGLH1IIZN","either","7","","","","","","","1","0","0","0.2575067634","","0.6","0.8","0.2","0.4","","","","","0.2575067634","0.2201216928","0.3457683734","0.374919859","","","","","","","72","H","0","img/none_selected.jpg","","109","main_expt"
"547","","bandit","188","899504","0.0-149.0-0.0","45397727","wem/bandit_either","A3G5IPGLH1IIZN","either","7","","","","","","","1","0","0","0.2664913793","","0.6","0.8","0.2","0.4","","","","","0.2664913793","0.1789817232","0.3316873257","0.3656186065","","","","","","","72","H","0","img/none_selected.jpg","","110","main_expt"
"806","","bandit","189","901834","0.0-150.0-0.0","45397727","wem/bandit_either","A3G5IPGLH1IIZN","either","7","","","","","","","0","0","1","0.2233446911","","0.6","0.8","0.2","0.4","","","","","0.2233446911","0.2404947452","0.3434945318","0.3649701027","","","","","","","72","H","0","img/none_selected.jpg","","111","main_expt"
"498","","bandit","190","903860","0.0-151.0-0.0","45397727","wem/bandit_either","A3G5IPGLH1IIZN","either","7","","","","","","","0","0","1","0.2170082082","","0.6","0.8","0.2","0.4","","","","","0.2170082082","0.2959558532","0.2729480053","0.3371716456","","","","","","","72","H","0","img/none_selected.jpg","","112","main_expt"
"54","","bandit","191","905438","0.0-152.0-0.0","45397727","wem/bandit_either","A3G5IPGLH1IIZN","either","7","","","","","","","0","0","1","","0.1912277411","0.6","0.8","0.2","0.4","0.1912277411","0.2966985553","0.2579672073","0.2587224119","","","","","","","","","","","72","H","0","img/none_selected.jpg","","113","main_expt"
"421","","bandit","192","907385","0.0-153.0-0.0","45397727","wem/bandit_either","A3G5IPGLH1IIZN","either","7","","","","","","","1","0","0","0.3289730608","","0.6","0.8","0.2","0.4","","","","","0.1691995451","0.3289730608","0.24654084","0.2384324947","","","","","","","74","J","1","","","114","main_expt"
"819","","bandit","193","909739","0.0-154.0-0.0","45397727","wem/bandit_either","A3G5IPGLH1IIZN","either","7","","","","","","","0","0","1","0.2783705844","","0.6","0.8","0.2","0.4","","","","","0.1263730162","0.2783705844","0.246649757","0.2705755989","","","","","","","74","J","1","","","115","main_expt"
"450","","bandit","194","911741","0.0-155.0-0.0","45397727","wem/bandit_either","A3G5IPGLH1IIZN","either","7","","","","","","","1","0","0","0.2990421824","","0.6","0.8","0.2","0.4","","","","","0.1130092975","0.2990421824","0.2190482835","0.2666822","","","","","","","74","J","1","","","116","main_expt"
"430","","bandit","195","913723","0.0-156.0-0.0","45397727","wem/bandit_either","A3G5IPGLH1IIZN","either","7","","","","","","","1","0","0","0.3214730448","","0.6","0.8","0.2","0.4","","","","","0.1317362661","0.3214730448","0.1860086181","0.2664749026","","","","","","","74","J","1","","","117","main_expt"
"447","","bandit","196","915692","0.0-157.0-0.0","45397727","wem/bandit_either","A3G5IPGLH1IIZN","either","7","","","","","","","1","0","0","0.3996160597","","0.6","0.8","0.2","0.4","","","","","0.08460291254","0.3996160597","0.1765749983","0.285497096","","","","","","","74","J","1","","","118","main_expt"
"356","","bandit","197","917586","0.0-158.0-0.0","45397727","wem/bandit_either","A3G5IPGLH1IIZN","either","7","","","","","","","1","0","0","0.4143362638","","0.6","0.8","0.2","0.4","","","","","0.09168363065","0.4143362638","0.1840588368","0.3004427434","","","","","","","74","J","1","","","119","main_expt"
"448","","bandit","198","919597","0.0-159.0-0.0","45397727","wem/bandit_either","A3G5IPGLH1IIZN","either","7","","","","","","","0","1","0","","0.372340151","0.6","0.8","0.2","0.4","0.06729372802","0.372340151","0.1988357929","0.2419855731","","","","","","","","","","","74","J","1","","","120","main_expt"
"388","","bandit","199","921529","0.0-160.0-0.0","45397727","wem/bandit_either","A3G5IPGLH1IIZN","either","7","","","","","","","0","0","1","0.3910424524","","0.6","0.8","0.2","0.4","","","","","0.08346408207","0.3910424524","0.2315674","0.3054132847","","","","","","","74","J","1","","","121","main_expt"
"537","","bandit","200","923599","0.0-161.0-0.0","45397727","wem/bandit_either","A3G5IPGLH1IIZN","either","7","","","","","","","0","0","1","0.05632743158","","0.6","0.8","0.2","0.4","","","","","0.05632743158","0.3813410711","0.2041322171","0.2473202095","","","","","","","72","H","0","img/none_selected.jpg","","122","main_expt"
"651","","bandit","201","925778","0.0-162.0-0.0","45397727","wem/bandit_either","A3G5IPGLH1IIZN","either","7","","","","","","","0","0","1","0.4247291795","","0.6","0.8","0.2","0.4","","","","","0.05516745574","0.4247291795","0.1945268209","0.2909195989","","","","","","","74","J","1","","","123","main_expt"
"492","","bandit","202","927823","0.0-163.0-0.0","45397727","wem/bandit_either","A3G5IPGLH1IIZN","either","7","","","","","","","0","0","1","","0.05528311039","0.6","0.8","0.2","0.4","0.05528311039","0.4311179713","0.2206749142","0.3493750294","","","","","","","","","","","72","H","0","img/none_selected.jpg","","124","main_expt"
"453","","bandit","203","929821","0.0-164.0-0.0","45397727","wem/bandit_either","A3G5IPGLH1IIZN","either","7","","","","","","","1","0","0","0.4085782939","","0.6","0.8","0.2","0.4","","","","","0.07149807259","0.4085782939","0.212012295","0.3883668019","","","","","","","74","J","1","","","125","main_expt"
"400","","bandit","204","931775","0.0-165.0-0.0","45397727","wem/bandit_either","A3G5IPGLH1IIZN","either","7","","","","","","","1","0","0","0.4110861309","","0.6","0.8","0.2","0.4","","","","","0.1137803622","0.4110861309","0.1656684785","0.3888129637","","","","","","","74","J","1","","","126","main_expt"
"383","","bandit","205","933717","0.0-166.0-0.0","45397727","wem/bandit_either","A3G5IPGLH1IIZN","either","7","","","","","","","0","0","1","0.4214671818","","0.6","0.8","0.2","0.4","","","","","0.1003054442","0.4214671818","0.1685301808","0.3659195129","","","","","","","74","J","1","","","127","main_expt"
"508","","bandit","206","935780","0.0-167.0-0.0","45397727","wem/bandit_either","A3G5IPGLH1IIZN","either","7","","","","","","","1","0","0","0.36889317","","0.6","0.8","0.2","0.4","","","","","0.1378169536","0.36889317","0.1703551811","0.3689954399","","","","","","","74","J","1","","","128","main_expt"
"471","","bandit","207","937802","0.0-168.0-0.0","45397727","wem/bandit_either","A3G5IPGLH1IIZN","either","7","","","","","","","1","0","0","0.3840267129","","0.6","0.8","0.2","0.4","","","","","0.1333081235","0.3840267129","0.1624753709","0.3600340942","","","","","","","74","J","1","","","129","main_expt"
"1449","","bandit","208","940786","0.0-169.0-0.0","45397727","wem/bandit_either","A3G5IPGLH1IIZN","either","7","","","","","","","0","0","1","0.3809677701","","0.6","0.8","0.2","0.4","","","","","0.1682212827","0.3809677701","0.2335662737","0.3580797835","","","","","","","74","J","1","","","130","main_expt"
"34","","bandit","209","942384","0.0-170.0-0.0","45397727","wem/bandit_either","A3G5IPGLH1IIZN","either","7","","","","","","","0","0","1","0.3681933818","","0.6","0.8","0.2","0.4","","","","","0.2193829955","0.3681933818","0.240441026","0.3785893338","","","","","","","74","J","1","","","131","main_expt"
"505","","bandit","210","944416","0.0-171.0-0.0","45397727","wem/bandit_either","A3G5IPGLH1IIZN","either","7","","","","","","","1","0","0","0.3664045944","","0.6","0.8","0.2","0.4","","","","","0.2693349046","0.3664045944","0.2266699971","0.3764735404","","","","","","","74","J","1","","","132","main_expt"
"588","","bandit","211","946532","0.0-172.0-0.0","45397727","wem/bandit_either","A3G5IPGLH1IIZN","either","7","","","","","","","0","0","1","0.4046437197","","0.6","0.8","0.2","0.4","","","","","0.2576546077","0.4046437197","0.1994193025","0.3433534211","","","","","","","74","J","1","","","133","main_expt"
"242","","bandit","212","948300","0.0-173.0-0.0","45397727","wem/bandit_either","A3G5IPGLH1IIZN","either","7","","","","","","","0","0","1","0.364490756","","0.6","0.8","0.2","0.4","","","","","0.2412372273","0.364490756","0.1891464922","0.3606247271","","","","","","","74","J","1","","","134","main_expt"
"336","","bandit","213","950167","0.0-174.0-0.0","45397727","wem/bandit_either","A3G5IPGLH1IIZN","either","7","","","","","","","0","0","1","0.311914316","","0.6","0.8","0.2","0.4","","","","","0.2198641054","0.311914316","0.1614798668","0.3268624306","","","","","","","74","J","1","","","135","main_expt"
"79","","bandit","214","951784","0.0-175.0-0.0","45397727","wem/bandit_either","A3G5IPGLH1IIZN","either","7","","","","","","","0","0","1","","0.1880386222","0.6","0.8","0.2","0.4","0.2504132697","0.2653901568","0.1880386222","0.2854606769","","","","","","","","","","","75","K","2","","","136","main_expt"
"1424","","bandit","215","954749","0.0-176.0-0.0","45397727","wem/bandit_either","A3G5IPGLH1IIZN","either","7","","","","","","","0","0","1","0.1961818793","","0.6","0.8","0.2","0.4","","","","","0.1912230989","0.2413295316","0.1961818793","0.3311747399","","","","","","","75","K","2","","","137","main_expt"
"909","","bandit","216","957219","0.0-177.0-0.0","45397727","wem/bandit_either","A3G5IPGLH1IIZN","either","7","","","","","","","0","0","1","0.2570785188","","0.6","0.8","0.2","0.4","","","","","0.1576256809","0.2060295423","0.2857678963","0.2570785188","","","","","","","76","L","3","","","138","main_expt"
"221","","bandit","217","958989","0.0-178.0-0.0","45397727","wem/bandit_either","A3G5IPGLH1IIZN","either","7","","","","","","","0","0","1","0.2858060749","","0.6","0.8","0.2","0.4","","","","","0.1019788138","0.1809645164","0.3449131854","0.2858060749","","","","","","","76","L","3","","","139","main_expt"
"524","","bandit","218","961046","0.0-179.0-0.0","45397727","wem/bandit_either","A3G5IPGLH1IIZN","either","7","","","","","","","0","0","1","0.2975559752","","0.6","0.8","0.2","0.4","","","","","0.07754087054","0.1843216893","0.2537716732","0.2975559752","","","","","","","76","L","3","","","140","main_expt"
"550","","bandit","219","963123","0.0-180.0-0.0","45397727","wem/bandit_either","A3G5IPGLH1IIZN","either","7","","","","","","","0","0","1","0.09489610577","","0.6","0.8","0.2","0.4","","","","","0.09489610577","0.1651876155","0.2858111263","0.2802168405","","","","","","","72","H","0","img/none_selected.jpg","","141","main_expt"
"783","","bandit","220","965434","0.0-181.0-0.0","45397727","wem/bandit_either","A3G5IPGLH1IIZN","either","7","","","","","","","0","0","1","","0.1536427928","0.6","0.8","0.2","0.4","0.09601428546","0.1536427928","0.303049367","0.2231986748","","","","","","","","","","","74","J","1","","","142","main_expt"
"395","","bandit","221","967356","0.0-182.0-0.0","45397727","wem/bandit_either","A3G5IPGLH1IIZN","either","7","","","","","","","0","0","1","0.1546140226","","0.6","0.8","0.2","0.4","","","","","0.08301142993","0.1546140226","0.2969419413","0.2032880393","","","","","","","74","J","1","","","143","main_expt"
"525","","bandit","222","969406","0.0-183.0-0.0","45397727","wem/bandit_either","A3G5IPGLH1IIZN","either","7","","","","","","","0","0","1","0.1746031107","","0.6","0.8","0.2","0.4","","","","","0.09599686985","0.1746031107","0.3128690494","0.1967741464","","","","","","","74","J","1","","","144","main_expt"
"540","","bandit","223","971469","0.0-184.0-0.0","45397727","wem/bandit_either","A3G5IPGLH1IIZN","either","7","","","","","","","0","1","0","","0.2991796355","0.6","0.8","0.2","0.4","0.07499383622","0.2021387556","0.2991796355","0.2283154954","","","","","","","","","","","75","K","2","","","145","main_expt"
"592","","bandit","224","973591","0.0-185.0-0.0","45397727","wem/bandit_either","A3G5IPGLH1IIZN","either","7","","","","","","","0","0","1","","0.3163763193","0.6","0.8","0.2","0.4","0.09566861","0.2504344391","0.3163763193","0.2118700154","","","","","","","","","","","75","K","2","","","146","main_expt"
"633","","bandit","225","975784","0.0-186.0-0.0","45397727","wem/bandit_either","A3G5IPGLH1IIZN","either","7","","","","","","","0","0","1","","0.3198025905","0.6","0.8","0.2","0.4","0.08578591382","0.2437718569","0.3198025905","0.210437557","","","","","","","","","","","75","K","2","","","147","main_expt"
"263","","bandit","226","977606","0.0-187.0-0.0","45397727","wem/bandit_either","A3G5IPGLH1IIZN","either","7","","","","","","","0","0","1","","0.2588245921","0.6","0.8","0.2","0.4","0.1147887709","0.2446677265","0.2588245921","0.2370661354","","","","","","","","","","","75","K","2","","","148","main_expt"
"462","","bandit","227","979620","0.0-188.0-0.0","45397727","wem/bandit_either","A3G5IPGLH1IIZN","either","7","","","","","","","0","0","1","0.2911002833","","0.6","0.8","0.2","0.4","","","","","0.1378203382","0.2911002833","0.248712437","0.2430363771","","","","","","","74","J","1","","","149","main_expt"
"529","","bandit","228","981708","0.0-189.0-0.0","45397727","wem/bandit_either","A3G5IPGLH1IIZN","either","7","","","","","","","1","0","0","0.1414499273","","0.6","0.8","0.2","0.4","","","","","0.1414499273","0.3529655025","0.179144869","0.2242182381","","","","","","","72","H","0","img/none_selected.jpg","","150","main_expt"
"739","","bandit","229","983998","0.0-190.0-0.0","45397727","wem/bandit_either","A3G5IPGLH1IIZN","either","7","","","","","","","0","0","1","0.07852348772","","0.6","0.8","0.2","0.4","","","","","0.07852348772","0.3885741111","0.1545669956","0.1997145133","","","","","","","72","H","0","img/none_selected.jpg","","151","main_expt"
"787","","bandit","230","986313","0.0-191.0-0.0","45397727","wem/bandit_either","A3G5IPGLH1IIZN","either","7","","","","","","","0","0","1","0.08485793113","","0.6","0.8","0.2","0.4","","","","","0.08485793113","0.3690499696","0.1651714415","0.2195927633","","","","","","","72","H","0","img/none_selected.jpg","","152","main_expt"
"55","","bandit","231","987910","0.0-192.0-0.0","45397727","wem/bandit_either","A3G5IPGLH1IIZN","either","7","","","","","","","0","0","1","","0.1083789561","0.6","0.8","0.2","0.4","0.1083789561","0.3710492515","0.2396245514","0.2121816628","","","","","","","","","","","72","H","0","img/none_selected.jpg","","153","main_expt"
"154","","bandit","232","989600","0.0-193.0-0.0","45397727","wem/bandit_either","A3G5IPGLH1IIZN","either","7","","","","","","","1","0","0","0.3483335413","","0.6","0.8","0.2","0.4","","","","","0.109098481","0.3483335413","0.2085838567","0.1830588608","","","","","","","74","J","1","","","154","main_expt"
"350","","bandit","233","991490","0.0-194.0-0.0","45397727","wem/bandit_either","A3G5IPGLH1IIZN","either","7","","","","","","","0","0","1","0.3343760247","","0.6","0.8","0.2","0.4","","","","","0.1758262092","0.3343760247","0.1864274254","0.2031423662","","","","","","","74","J","1","","","155","main_expt"
"172","","bandit","234","993192","0.0-195.0-0.0","45397727","wem/bandit_either","A3G5IPGLH1IIZN","either","7","","","","","","","1","0","0","0.3742013553","","0.6","0.8","0.2","0.4","","","","","0.2046597001","0.3742013553","0.1750870897","0.2022731065","","","","","","","74","J","1","","","156","main_expt"
"145","","bandit","235","994885","0.0-196.0-0.0","45397727","wem/bandit_either","A3G5IPGLH1IIZN","either","7","","","","","","","0","0","1","","0.3620366094","0.6","0.8","0.2","0.4","0.1774751899","0.3620366094","0.1321985386","0.1826661219","","","","","","","","","","","74","J","1","","","157","main_expt"
"323","","bandit","236","996736","0.0-197.0-0.0","45397727","wem/bandit_either","A3G5IPGLH1IIZN","either","7","","","","","","","1","0","0","0.3671714071","","0.6","0.8","0.2","0.4","","","","","0.1612033886","0.3671714071","0.1341899746","0.1658993888","","","","","","","74","J","1","","","158","main_expt"
"267","","bandit","237","998565","0.0-198.0-0.0","45397727","wem/bandit_either","A3G5IPGLH1IIZN","either","7","","","","","","","0","0","1","","0.4015988616","0.6","0.8","0.2","0.4","0.1586838935","0.4015988616","0.1567784951","0.1620079643","","","","","","","","","","","74","J","1","","","159","main_expt"
"461","","bandit","238","1000570","0.0-199.0-0.0","45397727","wem/bandit_either","A3G5IPGLH1IIZN","either","7","","","","","","","1","0","0","0.4004877553","","0.6","0.8","0.2","0.4","","","","","0.2159944071","0.4004877553","0.1615549635","0.2453635642","","","","","","","74","J","1","","","160","main_expt"
"151","","bandit","239","1002263","0.0-200.0-0.0","45397727","wem/bandit_either","A3G5IPGLH1IIZN","either","7","","","","","","","0","0","1","0.4095849454","","0.6","0.8","0.2","0.4","","","","","0.2105769377","0.4095849454","0.1854631015","0.2456373749","","","","","","","74","J","1","","","161","main_expt"
"335","","bandit","240","1004125","0.0-201.0-0.0","45397727","wem/bandit_either","A3G5IPGLH1IIZN","either","7","","","","","","","1","0","0","0.3978002783","","0.6","0.8","0.2","0.4","","","","","0.2006925765","0.3978002783","0.21229469","0.2460125232","","","","","","","74","J","1","","","162","main_expt"
"286","","bandit","241","1005970","0.0-202.0-0.0","45397727","wem/bandit_either","A3G5IPGLH1IIZN","either","7","","","","","","","1","0","0","0.4180552148","","0.6","0.8","0.2","0.4","","","","","0.2365124807","0.4180552148","0.162194177","0.2013568893","","","","","","","74","J","1","","","163","main_expt"
"322","","bandit","242","1007824","0.0-203.0-0.0","45397727","wem/bandit_either","A3G5IPGLH1IIZN","either","7","","","","","","","1","0","0","0.4407560021","","0.6","0.8","0.2","0.4","","","","","0.2157370886","0.4407560021","0.1535707797","0.1933595846","","","","","","","74","J","1","","","164","main_expt"
"459","","bandit","243","1009833","0.0-204.0-0.0","45397727","wem/bandit_either","A3G5IPGLH1IIZN","either","7","","","","","","","0","0","1","","0.4582960521","0.6","0.8","0.2","0.4","0.2166787898","0.4582960521","0.2315934193","0.167552211","","","","","","","","","","","74","J","1","","","165","main_expt"
"64","","bandit","244","1011430","0.0-205.0-0.0","45397727","wem/bandit_either","A3G5IPGLH1IIZN","either","7","","","","","","","0","0","1","","0.4337500892","0.6","0.8","0.2","0.4","0.1846262972","0.4337500892","0.2579087381","0.1311237951","","","","","","","","","","","74","J","1","","","166","main_expt"
"254","","bandit","245","1013210","0.0-206.0-0.0","45397727","wem/bandit_either","A3G5IPGLH1IIZN","either","7","","","","","","","0","0","1","0.4537582576","","0.6","0.8","0.2","0.4","","","","","0.1888750078","0.4537582576","0.2496457694","0.1714029316","","","","","","","74","J","1","","","167","main_expt"
"744","","bandit","246","1015483","0.0-207.0-0.0","45397727","wem/bandit_either","A3G5IPGLH1IIZN","either","7","","","","","","","0","0","1","0.2315683769","","0.6","0.8","0.2","0.4","","","","","0.2315683769","0.4473485534","0.234558796","0.1494402723","","","","","","","72","H","0","img/none_selected.jpg","","168","main_expt"
"179","","bandit","247","1017191","0.0-208.0-0.0","45397727","wem/bandit_either","A3G5IPGLH1IIZN","either","7","","","","","","","0","0","1","0.2018123945","","0.6","0.8","0.2","0.4","","","","","0.2018123945","0.4471591033","0.2458600006","0.1819888556","","","","","","","72","H","0","img/none_selected.jpg","","169","main_expt"
"252","","bandit","248","1018993","0.0-209.0-0.0","45397727","wem/bandit_either","A3G5IPGLH1IIZN","either","7","","","","","","","1","0","0","0.4581839475","","0.6","0.8","0.2","0.4","","","","","0.139238222","0.4581839475","0.2214583157","0.2329206984","","","","","","","74","J","1","","","170","main_expt"
"283","","bandit","249","1020811","0.0-210.0-0.0","45397727","wem/bandit_either","A3G5IPGLH1IIZN","either","7","","","","","","","1","0","0","0.4674995421","","0.6","0.8","0.2","0.4","","","","","0.1466511374","0.4674995421","0.296208115","0.2000607923","","","","","","","74","J","1","","","171","main_expt"
"38","","bandit","250","1022384","0.0-211.0-0.0","45397727","wem/bandit_either","A3G5IPGLH1IIZN","either","7","","","","","","","0","0","1","","0.4455620345","0.6","0.8","0.2","0.4","0.1348290388","0.4455620345","0.3062379281","0.2342957318","","","","","","","","","","","74","J","1","","","172","main_expt"
"287","","bandit","251","1024204","0.0-212.0-0.0","45397727","wem/bandit_either","A3G5IPGLH1IIZN","either","7","","","","","","","1","0","0","0.4471610379","","0.6","0.8","0.2","0.4","","","","","0.1521691919","0.4471610379","0.2498067723","0.2189308077","","","","","","","74","J","1","","","173","main_expt"
"70","","bandit","252","1025812","0.0-213.0-0.0","45397727","wem/bandit_either","A3G5IPGLH1IIZN","either","7","","","","","","","1","0","0","0.4496576915","","0.6","0.8","0.2","0.4","","","","","0.2191935525","0.4496576915","0.1803522277","0.2373932689","","","","","","","74","J","1","","","174","main_expt"
"58","","bandit","253","1027409","0.0-214.0-0.0","45397727","wem/bandit_either","A3G5IPGLH1IIZN","either","7","","","","","","","1","0","0","0.4715297358","","0.6","0.8","0.2","0.4","","","","","0.219961305","0.4715297358","0.2014319342","0.2160264752","","","","","","","74","J","1","","","175","main_expt"
"341","","bandit","254","1029287","0.0-215.0-0.0","45397727","wem/bandit_either","A3G5IPGLH1IIZN","either","7","","","","","","","1","0","0","0.477956151","","0.6","0.8","0.2","0.4","","","","","0.1882485239","0.477956151","0.2122003168","0.1990604306","","","","","","","74","J","1","","","176","main_expt"
"345","","bandit","255","1031168","0.0-216.0-0.0","45397727","wem/bandit_either","A3G5IPGLH1IIZN","either","7","","","","","","","1","0","0","0.4563721206","","0.6","0.8","0.2","0.4","","","","","0.1644902553","0.4563721206","0.2629069455","0.1729978196","","","","","","","74","J","1","","","177","main_expt"
"399","","bandit","256","1033111","0.0-217.0-0.0","45397727","wem/bandit_either","A3G5IPGLH1IIZN","either","7","","","","","","","1","0","0","0.4409869931","","0.6","0.8","0.2","0.4","","","","","0.1713669852","0.4409869931","0.2336104206","0.1633080779","","","","","","","74","J","1","","","178","main_expt"
"318","","bandit","257","1034970","0.0-218.0-0.0","45397727","wem/bandit_either","A3G5IPGLH1IIZN","either","7","","","","","","","1","0","0","0.4243126063","","0.6","0.8","0.2","0.4","","","","","0.2263400462","0.4243126063","0.1887504226","0.1243251356","","","","","","","74","J","1","","","179","main_expt"
"405","","bandit","258","1036905","0.0-219.0-0.0","45397727","wem/bandit_either","A3G5IPGLH1IIZN","either","7","","","","","","","0","0","1","0.4312830743","","0.6","0.8","0.2","0.4","","","","","0.2036870175","0.4312830743","0.138376641","0.1150149055","","","","","","","74","J","1","","","180","main_expt"
"172","","bandit","259","1038607","0.0-220.0-0.0","45397727","wem/bandit_either","A3G5IPGLH1IIZN","either","7","","","","","","","0","1","0","","0.4433127893","0.6","0.8","0.2","0.4","0.1934599198","0.4433127893","0.1883992559","0.1407924877","","","","","","","","","","","74","J","1","","","181","main_expt"
"353","","bandit","260","1040513","0.0-221.0-0.0","45397727","wem/bandit_either","A3G5IPGLH1IIZN","either","7","","","","","","","0","0","1","0.440136403","","0.6","0.8","0.2","0.4","","","","","0.2424515525","0.440136403","0.128889003","0.09672650852","","","","","","","74","J","1","","","182","main_expt"
"408","","bandit","261","1042466","0.0-222.0-0.0","45397727","wem/bandit_either","A3G5IPGLH1IIZN","either","7","","","","","","","0","0","1","0.4347693449","","0.6","0.8","0.2","0.4","","","","","0.1961777535","0.4347693449","0.1748769843","0.09888002855","","","","","","","74","J","1","","","183","main_expt"
"315","","bandit","262","1044314","0.0-223.0-0.0","45397727","wem/bandit_either","A3G5IPGLH1IIZN","either","7","","","","","","","1","0","0","0.4277130926","","0.6","0.8","0.2","0.4","","","","","0.1489283113","0.4277130926","0.1945994373","0.07200145298","","","","","","","74","J","1","","","184","main_expt"
"428","","bandit","263","1046285","0.0-224.0-0.0","45397727","wem/bandit_either","A3G5IPGLH1IIZN","either","7","","","","","","","0","1","0","","0.3956248437","0.6","0.8","0.2","0.4","0.1499965078","0.3956248437","0.1644748654","0.09476413333","","","","","","","","","","","74","J","1","","","185","main_expt"
"371","","bandit","264","1048241","0.0-225.0-0.0","45397727","wem/bandit_either","A3G5IPGLH1IIZN","either","7","","","","","","","0","0","1","0.3748928266","","0.6","0.8","0.2","0.4","","","","","0.2169832988","0.3748928266","0.1504635592","0.06556422103","","","","","","","74","J","1","","","186","main_expt"
"327","","bandit","265","1050106","0.0-226.0-0.0","45397727","wem/bandit_either","A3G5IPGLH1IIZN","either","7","","","","","","","1","0","0","0.3848139325","","0.6","0.8","0.2","0.4","","","","","0.2655186329","0.3848139325","0.1760039214","0.08901149072","","","","","","","74","J","1","","","187","main_expt"
"369","","bandit","266","1052003","0.0-227.0-0.0","45397727","wem/bandit_either","A3G5IPGLH1IIZN","either","7","","","","","","","0","0","1","","0.3990176401","0.6","0.8","0.2","0.4","0.2738785118","0.3990176401","0.1203267588","0.09471428588","","","","","","","","","","","74","J","1","","","188","main_expt"
"119","","bandit","267","1053658","0.0-228.0-0.0","45397727","wem/bandit_either","A3G5IPGLH1IIZN","either","7","","","","","","","1","0","0","0.3581396838","","0.6","0.8","0.2","0.4","","","","","0.3041874674","0.3581396838","0.1171540391","0.05118235823","","","","","","","74","J","1","","","189","main_expt"
"296","","bandit","268","1055508","0.0-229.0-0.0","45397727","wem/bandit_either","A3G5IPGLH1IIZN","either","7","","","","","","","0","0","1","0.2882972244","","0.6","0.8","0.2","0.4","","","","","0.3229453735","0.2882972244","0.1535230761","0.05788318751","","","","","","","74","J","1","","","190","main_expt"
"18","","bandit","269","1057058","0.0-230.0-0.0","45397727","wem/bandit_either","A3G5IPGLH1IIZN","either","7","","","","","","","1","0","0","0.3145326233","","0.6","0.8","0.2","0.4","","","","","0.3818249757","0.3145326233","0.1372750947","0.08736915481","","","","","","","74","J","1","","","191","main_expt"
"388","","bandit","270","1058983","0.0-231.0-0.0","45397727","wem/bandit_either","A3G5IPGLH1IIZN","either","7","","","","","","","0","0","1","","0.3270603702","0.6","0.8","0.2","0.4","0.4157726243","0.3270603702","0.1047771501","0.08251019118","","","","","","","","","","","74","J","1","","","192","main_expt"
"231","","bandit","271","1060751","0.0-232.0-0.0","45397727","wem/bandit_either","A3G5IPGLH1IIZN","either","7","","","","","","","0","0","1","0.3604030797","","0.6","0.8","0.2","0.4","","","","","0.4611608212","0.3604030797","0.1100845432","0.06897628064","","","","","","","74","J","1","","","193","main_expt"
"200","","bandit","272","1062514","0.0-233.0-0.0","45397727","wem/bandit_either","A3G5IPGLH1IIZN","either","7","","","","","","","0","1","0","","0.357423186","0.6","0.8","0.2","0.4","0.4508818777","0.357423186","0.1468163818","0.06801266305","","","","","","","","","","","74","J","1","","","194","main_expt"
"273","","bandit","273","1064324","0.0-234.0-0.0","45397727","wem/bandit_either","A3G5IPGLH1IIZN","either","7","","","","","","","0","0","1","0.3697779856","","0.6","0.8","0.2","0.4","","","","","0.4278921451","0.3697779856","0.1495594621","0.09923709358","","","","","","","74","J","1","","","195","main_expt"
"330","","bandit","274","1066181","0.0-235.0-0.0","45397727","wem/bandit_either","A3G5IPGLH1IIZN","either","7","","","","","","","0","0","1","","0.3617177512","0.6","0.8","0.2","0.4","0.4256293003","0.3617177512","0.2263220537","0.1103063831","","","","","","","","","","","74","J","1","","","196","main_expt"
"379","","bandit","275","1068085","0.0-236.0-0.0","45397727","wem/bandit_either","A3G5IPGLH1IIZN","either","7","","","","","","","0","0","1","0.3775990084","","0.6","0.8","0.2","0.4","","","","","0.4476975038","0.3775990084","0.2204718804","0.07377144043","","","","","","","74","J","1","","","197","main_expt"
"86","","bandit","276","1069719","0.0-237.0-0.0","45397727","wem/bandit_either","A3G5IPGLH1IIZN","either","7","","","","","","","0","0","1","0.4144042571","","0.6","0.8","0.2","0.4","","","","","0.4434357272","0.4144042571","0.2401118457","0.08863448313","","","","","","","74","J","1","","","198","main_expt"
"481","","bandit","277","1071779","0.0-238.0-0.0","45397727","wem/bandit_either","A3G5IPGLH1IIZN","either","7","","","","","","","0","0","1","","0.4245114622","0.6","0.8","0.2","0.4","0.4245114622","0.4081775392","0.2673724497","0.1082179128","","","","","","","","","","","72","H","0","img/none_selected.jpg","","199","main_expt"
"429","","bandit","278","1073784","0.0-239.0-0.0","45397727","wem/bandit_either","A3G5IPGLH1IIZN","either","7","","","","","","","0","0","1","","0.3125307902","0.6","0.8","0.2","0.4","0.4087100315","0.4166156547","0.3125307902","0.09350688576","","","","","","","","","","","75","K","2","","","200","main_expt"
"262","","bandit","279","1075598","0.0-240.0-0.0","45397727","wem/bandit_either","A3G5IPGLH1IIZN","either","7","","","","","","","0","0","1","","0.2914574258","0.6","0.8","0.2","0.4","0.4361521275","0.4306537176","0.2914574258","0.1036625099","","","","","","","","","","","75","K","2","","","201","main_expt"
"429","","bandit","280","1077559","0.0-241.0-0.0","45397727","wem/bandit_either","A3G5IPGLH1IIZN","either","7","","","","","","","0","1","0","","0.2550600684","0.6","0.8","0.2","0.4","0.3332596158","0.449382563","0.2550600684","0.1216733889","","","","","","","","","","","75","K","2","","","202","main_expt"
"763","","bandit","281","1079882","0.0-242.0-0.0","45397727","wem/bandit_either","A3G5IPGLH1IIZN","either","7","","","","","","","0","1","0","","0.2769745997","0.6","0.8","0.2","0.4","0.3581848779","0.4506576586","0.2769745997","0.120655788","","","","","","","","","","","75","K","2","","","203","main_expt"
"1350","","bandit","282","1082759","0.0-243.0-0.0","45397727","wem/bandit_either","A3G5IPGLH1IIZN","either","7","","","","","","","0","0","1","","0.2752990059","0.6","0.8","0.2","0.4","0.3597133043","0.454839243","0.2752990059","0.1082970726","","","","","","","","","","","75","K","2","","","204","main_expt"
"201","","bandit","283","1084530","0.0-244.0-0.0","45397727","wem/bandit_either","A3G5IPGLH1IIZN","either","7","","","","","","","0","0","1","0.2901512169","","0.6","0.8","0.2","0.4","","","","","0.3630183988","0.4512889682","0.2901512169","0.09143681274","","","","","","","75","K","2","","","205","main_expt"
"480","","bandit","284","1086542","0.0-245.0-0.0","45397727","wem/bandit_either","A3G5IPGLH1IIZN","either","7","","","","","","","0","0","1","","0.2823763913","0.6","0.8","0.2","0.4","0.3737494834","0.4591490044","0.2823763913","0.08377413986","","","","","","","","","","","75","K","2","","","206","main_expt"
"345","","bandit","285","1088443","0.0-246.0-0.0","45397727","wem/bandit_either","A3G5IPGLH1IIZN","either","7","","","","","","","0","1","0","","0.2708062506","0.6","0.8","0.2","0.4","0.3668784438","0.4650593633","0.2708062506","0.1585073664","","","","","","","","","","","75","K","2","","","207","main_expt"
"730","","bandit","286","1090717","0.0-247.0-0.0","45397727","wem/bandit_either","A3G5IPGLH1IIZN","either","7","","","","","","","0","0","1","0.2641553663","","0.6","0.8","0.2","0.4","","","","","0.4045351895","0.4641513068","0.2641553663","0.162299901","","","","","","","75","K","2","","","208","main_expt"
"592","","bandit","287","1092871","0.0-248.0-0.0","45397727","wem/bandit_either","A3G5IPGLH1IIZN","either","7","","","","","","","0","1","0","","0.2704675845","0.6","0.8","0.2","0.4","0.4402386934","0.4567807332","0.2704675845","0.1542266077","","","","","","","","","","","75","K","2","","","209","main_expt"
"648","","bandit","288","1095054","0.0-249.0-0.0","45397727","wem/bandit_either","A3G5IPGLH1IIZN","either","7","","","","","","","0","0","1","","0.3420868926","0.6","0.8","0.2","0.4","0.4483623408","0.428253188","0.3420868926","0.1890415559","","","","","","","","","","","75","K","2","","","210","main_expt"
"347","","bandit","289","1096964","0.0-250.0-0.0","45397727","wem/bandit_either","A3G5IPGLH1IIZN","either","7","","","","","","","0","0","1","","0.3069688952","0.6","0.8","0.2","0.4","0.4471415093","0.410271385","0.3069688952","0.1818133019","","","","","","","","","","","75","K","2","","","211","main_expt"
"352","","bandit","290","1098846","0.0-251.0-0.0","45397727","wem/bandit_either","A3G5IPGLH1IIZN","either","7","","","","","","","0","0","1","","0.3005379093","0.6","0.8","0.2","0.4","0.4374655127","0.4065587724","0.3005379093","0.1782747956","","","","","","","","","","","75","K","2","","","212","main_expt"
"542","","bandit","291","1100925","0.0-252.0-0.0","45397727","wem/bandit_either","A3G5IPGLH1IIZN","either","7","","","","","","","0","0","1","","0.1935195711","0.6","0.8","0.2","0.4","0.4381457257","0.4007116542","0.213882915","0.1935195711","","","","","","","","","","","76","L","3","","","213","main_expt"
"538","","bandit","292","1103004","0.0-253.0-0.0","45397727","wem/bandit_either","A3G5IPGLH1IIZN","either","7","","","","","","","0","0","1","","0.2421176173","0.6","0.8","0.2","0.4","0.4643769008","0.4246209323","0.2138557204","0.2421176173","","","","","","","","","","","76","L","3","","","214","main_expt"
"822","","bandit","293","1105351","0.0-254.0-0.0","45397727","wem/bandit_either","A3G5IPGLH1IIZN","either","7","","","","","","","0","0","1","","0.2629876012","0.6","0.8","0.2","0.4","0.4328812357","0.3993057066","0.2142566612","0.2629876012","","","","","","","","","","","76","L","3","","","215","main_expt"
"579","","bandit","294","1107460","0.0-255.0-0.0","45397727","wem/bandit_either","A3G5IPGLH1IIZN","either","7","","","","","","","0","0","1","","0.2977714141","0.6","0.8","0.2","0.4","0.4064507999","0.3987772474","0.1900351118","0.2977714141","","","","","","","","","","","76","L","3","","","216","main_expt"
"558","","bandit","295","1109555","0.0-256.0-0.0","45397727","wem/bandit_either","A3G5IPGLH1IIZN","either","7","","","","","","","0","0","1","","0.2185169477","0.6","0.8","0.2","0.4","0.4197961641","0.4101433534","0.2185169477","0.3017601552","","","","","","","","","","","75","K","2","","","217","main_expt"
"453","","bandit","296","1111544","0.0-257.0-0.0","45397727","wem/bandit_either","A3G5IPGLH1IIZN","either","7","","","","","","","0","0","1","0.4448029092","","0.6","0.8","0.2","0.4","","","","","0.4167397569","0.4448029092","0.2240895604","0.2888566207","","","","","","","74","J","1","","","218","main_expt"
"1217","","bandit","297","1114313","0.0-258.0-0.0","45397727","wem/bandit_either","A3G5IPGLH1IIZN","either","7","","","","","","","0","0","1","","0.4250944588","0.6","0.8","0.2","0.4","0.4250944588","0.4454766299","0.1990808675","0.2844008008","","","","","","","","","","","72","H","0","img/none_selected.jpg","","219","main_expt"
"1217","","bandit","298","1117065","0.0-259.0-0.0","45397727","wem/bandit_either","A3G5IPGLH1IIZN","either","7","","","","","","","0","0","1","0.4610997771","","0.6","0.8","0.2","0.4","","","","","0.4173336587","0.4610997771","0.266602996","0.2225062479","","","","","","","74","J","1","","","220","main_expt"
"682","","bandit","299","1119290","0.0-260.0-0.0","45397727","wem/bandit_either","A3G5IPGLH1IIZN","either","7","","","","","","","0","0","1","","0.3944711005","0.6","0.8","0.2","0.4","0.3944711005","0.4642289789","0.2443661227","0.2409900116","","","","","","","","","","","72","H","0","img/none_selected.jpg","","221","main_expt"
"520","","bandit","300","1121341","0.0-261.0-0.0","45397727","wem/bandit_either","A3G5IPGLH1IIZN","either","7","","","","","","","0","1","0","","0.4641270597","0.6","0.8","0.2","0.4","0.3619306912","0.4641270597","0.2205922116","0.1989678636","","","","","","","","","","","74","J","1","","","222","main_expt"
"1171","","bandit","301","1124045","0.0-262.0-0.0","45397727","wem/bandit_either","A3G5IPGLH1IIZN","either","7","","","","","","","1","0","0","0.4697433819","","0.6","0.8","0.2","0.4","","","","","0.4117842179","0.4697433819","0.1861223506","0.1902867071","","","","","","","74","J","1","","","223","main_expt"
"562","","bandit","302","1126157","0.0-263.0-0.0","45397727","wem/bandit_either","A3G5IPGLH1IIZN","either","7","","","","","","","1","0","0","0.460898083","","0.6","0.8","0.2","0.4","","","","","0.3965092367","0.460898083","0.1668884863","0.2076415522","","","","","","","74","J","1","","","224","main_expt"
"228","","bandit","303","1127938","0.0-264.0-0.0","45397727","wem/bandit_either","A3G5IPGLH1IIZN","either","7","","","","","","","0","1","0","","0.4394890665","0.6","0.8","0.2","0.4","0.4084477862","0.4394890665","0.1481472712","0.2393469174","","","","","","","","","","","74","J","1","","","225","main_expt"
"398","","bandit","304","1129864","0.0-265.0-0.0","45397727","wem/bandit_either","A3G5IPGLH1IIZN","either","7","","","","","","","1","0","0","0.4520955237","","0.6","0.8","0.2","0.4","","","","","0.4104601526","0.4520955237","0.1140846591","0.2425440376","","","","","","","74","J","1","","","226","main_expt"
"340","","bandit","305","1131745","0.0-266.0-0.0","45397727","wem/bandit_either","A3G5IPGLH1IIZN","either","7","","","","","","","0","0","1","0.4324220164","","0.6","0.8","0.2","0.4","","","","","0.3899733519","0.4324220164","0.1074218354","0.2365603363","","","","","","","74","J","1","","","227","main_expt"
"358","","bandit","306","1133679","0.0-267.0-0.0","45397727","wem/bandit_either","A3G5IPGLH1IIZN","either","7","","","","","","","1","0","0","0.4220482421","","0.6","0.8","0.2","0.4","","","","","0.3796730737","0.4220482421","0.08065165665","0.2127958296","","","","","","","74","J","1","","","228","main_expt"
"474","","bandit","307","1135724","0.0-268.0-0.0","45397727","wem/bandit_either","A3G5IPGLH1IIZN","either","7","","","","","","","0","0","1","0.3885749154","","0.6","0.8","0.2","0.4","","","","","0.4046866514","0.3885749154","0.07774059362","0.2207861463","","","","","","","74","J","1","","","229","main_expt"
"305","","bandit","308","1137613","0.0-269.0-0.0","45397727","wem/bandit_either","A3G5IPGLH1IIZN","either","7","","","","","","","1","0","0","0.4023755806","","0.6","0.8","0.2","0.4","","","","","0.3988793555","0.4023755806","0.1109483114","0.2589226453","","","","","","","74","J","1","","","230","main_expt"
"670","","bandit","309","1139838","0.0-270.0-0.0","45397727","wem/bandit_either","A3G5IPGLH1IIZN","either","7","","","","","","","0","0","1","0.3768725222","","0.6","0.8","0.2","0.4","","","","","0.3981898202","0.3768725222","0.05902300203","0.2956158432","","","","","","","74","J","1","","","231","main_expt"
"20","","bandit","310","1141396","0.0-271.0-0.0","45397727","wem/bandit_either","A3G5IPGLH1IIZN","either","7","","","","","","","0","0","1","","0.3619917427","0.6","0.8","0.2","0.4","0.4411941832","0.3619917427","0.06675855664","0.3202484073","","","","","","","","","","","74","J","1","","","232","main_expt"
"120","","bandit","311","1143059","0.0-272.0-0.0","45397727","wem/bandit_either","A3G5IPGLH1IIZN","either","7","","","","","","","0","1","0","","0.3833578816","0.6","0.8","0.2","0.4","0.42967461","0.3833578816","0.06703699679","0.2933644042","","","","","","","","","","","74","J","1","","","233","main_expt"
"479","","bandit","312","1145104","0.0-273.0-0.0","45397727","wem/bandit_either","A3G5IPGLH1IIZN","either","7","","","","","","","1","0","0","0.3552131768","","0.6","0.8","0.2","0.4","","","","","0.4242798354","0.3552131768","0.05331023031","0.3106154811","","","","","","","74","J","1","","","234","main_expt"
"1503","","bandit","313","1148148","0.0-274.0-0.0","45397727","wem/bandit_either","A3G5IPGLH1IIZN","either","7","","","","","","","0","0","1","0.3135084543","","0.6","0.8","0.2","0.4","","","","","0.4617388459","0.3135084543","0.05187545802","0.3158990995","","","","","","","74","J","1","","","235","main_expt"
"176","","bandit","314","1149919","0.0-275.0-0.0","45397727","wem/bandit_either","A3G5IPGLH1IIZN","either","7","","","","","","","0","0","1","","0.244945467","0.6","0.8","0.2","0.4","0.4619510484","0.244945467","0.06939909985","0.3036927748","","","","","","","","","","","74","J","1","","","236","main_expt"
"275","","bandit","315","1151724","0.0-276.0-0.0","45397727","wem/bandit_either","A3G5IPGLH1IIZN","either","7","","","","","","","0","0","1","","0.1823839079","0.6","0.8","0.2","0.4","0.4482398789","0.1823839079","0.1210409879","0.3491021326","","","","","","","","","","","74","J","1","","","237","main_expt"
"282","","bandit","316","1153578","0.0-277.0-0.0","45397727","wem/bandit_either","A3G5IPGLH1IIZN","either","7","","","","","","","0","0","1","0.1685050226","","0.6","0.8","0.2","0.4","","","","","0.4193969143","0.1685050226","0.1147840357","0.3939254097","","","","","","","74","J","1","","","238","main_expt"
"617","","bandit","317","1155742","0.0-278.0-0.0","45397727","wem/bandit_either","A3G5IPGLH1IIZN","either","7","","","","","","","0","0","1","","0.1006463842","0.6","0.8","0.2","0.4","0.4203848948","0.1606472637","0.1006463842","0.379108978","","","","","","","","","","","75","K","2","","","239","main_expt"
"657","","bandit","318","1157950","0.0-279.0-0.0","45397727","wem/bandit_either","A3G5IPGLH1IIZN","either","7","","","","","","","0","0","1","","0.1008771133","0.6","0.8","0.2","0.4","0.4489383263","0.1512795466","0.1008771133","0.3876209848","","","","","","","","","","","75","K","2","","","240","main_expt"
"459","","bandit","319","1159941","0.0-280.0-0.0","45397727","wem/bandit_either","A3G5IPGLH1IIZN","either","7","","","","","","","0","0","1","","0.1916219391","0.6","0.8","0.2","0.4","0.4636195567","0.1916219391","0.09981833296","0.3839625774","","","","","","","","","","","74","J","1","","","241","main_expt"
"447","","bandit","320","1161915","0.0-281.0-0.0","45397727","wem/bandit_either","A3G5IPGLH1IIZN","either","7","","","","","","","0","1","0","","0.4575307695","0.6","0.8","0.2","0.4","0.4575307695","0.1641013935","0.1171772993","0.3477958629","","","","","","","","","","","72","H","0","img/none_selected.jpg","","242","main_expt"
"774","","bandit","321","1164228","0.0-282.0-0.0","45397727","wem/bandit_either","A3G5IPGLH1IIZN","either","7","","","","","","","1","0","0","0.4449554393","","0.6","0.8","0.2","0.4","","","","","0.4449554393","0.2064320789","0.1239984651","0.3500658948","","","","","","","72","H","0","img/none_selected.jpg","","243","main_expt"
"670","","bandit","322","1166464","0.0-283.0-0.0","45397727","wem/bandit_either","A3G5IPGLH1IIZN","either","7","","","","","","","0","0","1","0.4525763452","","0.6","0.8","0.2","0.4","","","","","0.4525763452","0.2205496082","0.1126152289","0.3452717574","","","","","","","72","H","0","img/none_selected.jpg","","244","main_expt"
"689","","bandit","323","1168689","0.0-284.0-0.0","45397727","wem/bandit_either","A3G5IPGLH1IIZN","either","7","","","","","","","0","0","1","0.4753838692","","0.6","0.8","0.2","0.4","","","","","0.4753838692","0.214276823","0.1524829061","0.3162288444","","","","","","","72","H","0","img/none_selected.jpg","","245","main_expt"
"865","","bandit","324","1171104","0.0-285.0-0.0","45397727","wem/bandit_either","A3G5IPGLH1IIZN","either","7","","","","","","","0","1","0","","0.4623654582","0.6","0.8","0.2","0.4","0.4623654582","0.2084567316","0.1921750243","0.2894596967","","","","","","","","","","","72","H","0","img/none_selected.jpg","","246","main_expt"
"471","","bandit","325","1173193","0.0-286.0-0.0","45397727","wem/bandit_either","A3G5IPGLH1IIZN","either","7","","","","","","","0","1","0","","0.2642296388","0.6","0.8","0.2","0.4","0.4331165165","0.2232303491","0.1931065189","0.2642296388","","","","","","","","","","","76","L","3","","","247","main_expt"
"690","","bandit","326","1175437","0.0-287.0-0.0","45397727","wem/bandit_either","A3G5IPGLH1IIZN","either","7","","","","","","","0","0","1","","0.2534255255","0.6","0.8","0.2","0.4","0.4401602984","0.2541796534","0.2189994516","0.2534255255","","","","","","","","","","","76","L","3","","","248","main_expt"
"352","","bandit","327","1177325","0.0-288.0-0.0","45397727","wem/bandit_either","A3G5IPGLH1IIZN","either","7","","","","","","","0","1","0","","0.2252980971","0.6","0.8","0.2","0.4","0.430892824","0.232462199","0.1989243371","0.2252980971","","","","","","","","","","","76","L","3","","","249","main_expt"
"682","","bandit","328","1179545","0.0-289.0-0.0","45397727","wem/bandit_either","A3G5IPGLH1IIZN","either","7","","","","","","","0","0","1","0.298830738","","0.6","0.8","0.2","0.4","","","","","0.4282509168","0.2877664065","0.1635706079","0.298830738","","","","","","","76","L","3","","","250","main_expt"
"551","","bandit","329","1181650","0.0-290.0-0.0","45397727","wem/bandit_either","A3G5IPGLH1IIZN","either","7","","","","","","","1","0","0","0.3113207693","","0.6","0.8","0.2","0.4","","","","","0.4499649657","0.2947451014","0.1738575253","0.3113207693","","","","","","","76","L","3","","","251","main_expt"
"591","","bandit","330","1183790","0.0-291.0-0.0","45397727","wem/bandit_either","A3G5IPGLH1IIZN","either","7","","","","","","","0","0","1","","0.2952600368","0.6","0.8","0.2","0.4","0.458069626","0.2581410112","0.1868362494","0.2952600368","","","","","","","","","","","76","L","3","","","252","main_expt"
"494","","bandit","331","1185851","0.0-292.0-0.0","45397727","wem/bandit_either","A3G5IPGLH1IIZN","either","7","","","","","","","0","0","1","0.2837805879","","0.6","0.8","0.2","0.4","","","","","0.4419078322","0.2526573277","0.1888839862","0.2837805879","","","","","","","76","L","3","","","253","main_expt"
"379","","bandit","332","1187778","0.0-293.0-0.0","45397727","wem/bandit_either","A3G5IPGLH1IIZN","either","7","","","","","","","1","0","0","0.2664224025","","0.6","0.8","0.2","0.4","","","","","0.4374591364","0.2625272406","0.1763585164","0.2664224025","","","","","","","76","L","3","","","254","main_expt"
