"rt","responses","trial_type","trial_index","time_elapsed","internal_node_id","subjID","study","MID","cond","drift","key_press","expt_phase","target","like","value","connected","gems","bombs","no_reward","GemPrChosen","BombPrChosen","GainOverPainPr_0","GainOverPainPr_1","GainOverPainPr_2","GainOverPainPr_3","LosePr_0","LosePr_1","LosePr_2","LosePr_3","WinPr_0","WinPr_1","WinPr_2","WinPr_3","Q0","Q1","Q2","gender","age","ethnicity","respCharCode","respKey","respChoiceNum","respChoice","practice","trial_counter","trial_label"
"12212","{""Q0"":""AJD3JOWNVDZD1""}","survey-text","0","12244","0.0-0.0","45860066","wem/bandit_either","AJD3JOWNVDZD1","either","5","","","","","","","","","","","","","","","","","","","","","","","","","","","","","","","","","","","",""
"22319","","text","1","35572","0.0-1.0","45860066","wem/bandit_either","AJD3JOWNVDZD1","either","5","32","","","","","","","","","","","","","","","","","","","","","","","","","","","","","","","","","","",""
"13515","","text","2","49092","0.0-2.0","45860066","wem/bandit_either","AJD3JOWNVDZD1","either","5","32","","","","","","","","","","","","","","","","","","","","","","","","","","","","","","","","","","",""
"29353","","text","3","78452","0.0-3.0","45860066","wem/bandit_either","AJD3JOWNVDZD1","either","5","32","","","","","","","","","","","","","","","","","","","","","","","","","","","","","","","","","","",""
"19945","","text","4","98404","0.0-4.0","45860066","wem/bandit_either","AJD3JOWNVDZD1","either","5","32","","","","","","","","","","","","","","","","","","","","","","","","","","","","","","","","","","",""
"59805","","text","5","158217","0.0-5.0","45860066","wem/bandit_either","AJD3JOWNVDZD1","either","5","32","","","","","","","","","","","","","","","","","","","","","","","","","","","","","","","","","","",""
"11080","","text","6","169307","0.0-6.0","45860066","wem/bandit_either","AJD3JOWNVDZD1","either","5","32","","","","","","","","","","","","","","","","","","","","","","","","","","","","","","","","","","",""
"3354","","text","7","172668","0.0-7.0","45860066","wem/bandit_either","AJD3JOWNVDZD1","either","5","32","","","","","","","","","","","","","","","","","","","","","","","","","","","","","","","","","","",""
"34472","","identification","8","207214","0.0-8.0-0.0","45860066","wem/bandit_either","AJD3JOWNVDZD1","either","5","","identification_pre","the village of Zur","","","","","","","","","","","","","","","","","","","","","","","","","","","","","","","","",""
"7682","","identification","9","215998","0.0-8.0-1.0","45860066","wem/bandit_either","AJD3JOWNVDZD1","either","5","","identification_pre","the village of Nyx","","","","","","","","","","","","","","","","","","","","","","","","","","","","","","","","",""
"7005","","text","10","224012","0.0-9.0","45860066","wem/bandit_either","AJD3JOWNVDZD1","either","5","32","","","","","","","","","","","","","","","","","","","","","","","","","","","","","","","","","","",""
"7273","","text","11","231294","0.0-10.0","45860066","wem/bandit_either","AJD3JOWNVDZD1","either","5","32","","","","","","","","","","","","","","","","","","","","","","","","","","","","","","","","","","",""
"3364","","text","12","234664","0.0-11.0","45860066","wem/bandit_either","AJD3JOWNVDZD1","either","5","32","","","","","","","","","","","","","","","","","","","","","","","","","","","","","","","","","","",""
"5432","","text","13","240101","0.0-12.0","45860066","wem/bandit_either","AJD3JOWNVDZD1","either","5","32","","","","","","","","","","","","","","","","","","","","","","","","","","","","","","","","","","",""
"3510","","bandit","14","245150","0.0-13.0-0.0","45860066","wem/bandit_either","AJD3JOWNVDZD1","either","5","","","","","","","0","0","1","0","0","","","","","0","","","","0","","","","","","","","","","74","J","0","img/none_selected_demo.jpg","true","0",""
"742","","bandit","15","247417","0.0-14.0-0.0","45860066","wem/bandit_either","AJD3JOWNVDZD1","either","5","","","","","","","0","0","1","0","0","","","","","0","","","","0","","","","","","","","","","75","K","0","img/none_selected_demo.jpg","true","0",""
"12779","","text","16","260204","0.0-15.0","45860066","wem/bandit_either","AJD3JOWNVDZD1","either","5","32","","","","","","","","","","","","","","","","","","","","","","","","","","","","","","","","","","",""
"26398","","text","17","286611","0.0-16.0","45860066","wem/bandit_either","AJD3JOWNVDZD1","either","5","32","","","","","","","","","","","","","","","","","","","","","","","","","","","","","","","","","","",""
"17726","","text","18","304350","0.0-17.0","45860066","wem/bandit_either","AJD3JOWNVDZD1","either","5","32","","","","","","","","","","","","","","","","","","","","","","","","","","","","","","","","","","",""
"8368","","text","19","312728","0.0-18.0","45860066","wem/bandit_either","AJD3JOWNVDZD1","either","5","32","","","","","","","","","","","","","","","","","","","","","","","","","","","","","","","","","","",""
"1827","","bandit","20","316083","0.0-19.0-0.0","45860066","wem/bandit_either","AJD3JOWNVDZD1","either","5","","","","","","","1","0","0","0.8","","0.5","0.5","","","","","","","0.8","0.2","","","","","","","","","74","J","0","img/none_selected_demo.jpg","true","0","80_20_practice"
"2186","","bandit","21","319839","0.0-19.0-1.0","45860066","wem/bandit_either","AJD3JOWNVDZD1","either","5","","","","","","","1","0","0","0.8","","0.5","0.5","","","","","","","0.8","0.2","","","","","","","","","74","J","0","img/none_selected_demo.jpg","true","0","80_20_practice"
"1906","","bandit","22","323322","0.0-19.0-2.0","45860066","wem/bandit_either","AJD3JOWNVDZD1","either","5","","","","","","","1","0","0","0.8","","0.5","0.5","","","","","","","0.8","0.2","","","","","","","","","74","J","0","img/none_selected_demo.jpg","true","0","80_20_practice"
"906","","bandit","23","325783","0.0-19.0-3.0","45860066","wem/bandit_either","AJD3JOWNVDZD1","either","5","","","","","","","0","0","1","0.2","","0.5","0.5","","","","","","","0.8","0.2","","","","","","","","","75","K","1","","true","0","80_20_practice"
"1594","","bandit","24","328900","0.0-19.0-4.0","45860066","wem/bandit_either","AJD3JOWNVDZD1","either","5","","","","","","","0","1","0","","0.2","0.5","0.5","","","0.8","0.2","","","","","","","","","","","","","75","K","1","","true","0","80_20_practice"
"900","","bandit","25","331325","0.0-19.0-5.0","45860066","wem/bandit_either","AJD3JOWNVDZD1","either","5","","","","","","","0","0","1","0.2","","0.5","0.5","","","","","","","0.8","0.2","","","","","","","","","75","K","1","","true","0","80_20_practice"
"1578","","bandit","26","334456","0.0-19.0-6.0","45860066","wem/bandit_either","AJD3JOWNVDZD1","either","5","","","","","","","0","0","1","0.2","","0.5","0.5","","","","","","","0.8","0.2","","","","","","","","","75","K","1","","true","0","80_20_practice"
"1092","","bandit","27","337154","0.0-19.0-7.0","45860066","wem/bandit_either","AJD3JOWNVDZD1","either","5","","","","","","","0","0","1","","0.2","0.5","0.5","","","0.8","0.2","","","","","","","","","","","","","75","K","1","","true","0","80_20_practice"
"567","","bandit","28","339403","0.0-19.0-8.0","45860066","wem/bandit_either","AJD3JOWNVDZD1","either","5","","","","","","","0","1","0","","0.2","0.5","0.5","","","0.8","0.2","","","","","","","","","","","","","75","K","1","","true","0","80_20_practice"
"1214","","bandit","29","343063","0.0-19.0-9.0","45860066","wem/bandit_either","AJD3JOWNVDZD1","either","5","","","","","","","0","0","1","0.8","","0.5","0.5","","","","","","","0.8","0.2","","","","","","","","","74","J","0","img/none_selected_demo.jpg","true","0","80_20_practice"
"1085","","bandit","30","345708","0.0-19.0-10.0","45860066","wem/bandit_either","AJD3JOWNVDZD1","either","5","","","","","","","0","1","0","","0.8","0.5","0.5","","","0.8","0.2","","","","","","","","","","","","","74","J","0","img/none_selected_demo.jpg","true","0","80_20_practice"
"499","","bandit","31","347735","0.0-19.0-11.0","45860066","wem/bandit_either","AJD3JOWNVDZD1","either","5","","","","","","","0","1","0","","0.8","0.5","0.5","","","0.8","0.2","","","","","","","","","","","","","74","J","0","img/none_selected_demo.jpg","true","0","80_20_practice"
"382","","bandit","32","349641","0.0-19.0-12.0","45860066","wem/bandit_either","AJD3JOWNVDZD1","either","5","","","","","","","0","1","0","","0.8","0.5","0.5","","","0.8","0.2","","","","","","","","","","","","","74","J","0","img/none_selected_demo.jpg","true","0","80_20_practice"
"338","","bandit","33","351499","0.0-19.0-13.0","45860066","wem/bandit_either","AJD3JOWNVDZD1","either","5","","","","","","","1","0","0","0.8","","0.5","0.5","","","","","","","0.8","0.2","","","","","","","","","74","J","0","img/none_selected_demo.jpg","true","0","80_20_practice"
"367","","bandit","34","353555","0.0-19.0-14.0","45860066","wem/bandit_either","AJD3JOWNVDZD1","either","5","","","","","","","1","0","0","0.8","","0.5","0.5","","","","","","","0.8","0.2","","","","","","","","","74","J","0","img/none_selected_demo.jpg","true","0","80_20_practice"
"358","","bandit","35","355462","0.0-19.0-15.0","45860066","wem/bandit_either","AJD3JOWNVDZD1","either","5","","","","","","","1","0","0","0.8","","0.5","0.5","","","","","","","0.8","0.2","","","","","","","","","74","J","0","img/none_selected_demo.jpg","true","0","80_20_practice"
"472","","bandit","36","357455","0.0-19.0-16.0","45860066","wem/bandit_either","AJD3JOWNVDZD1","either","5","","","","","","","0","0","1","","0.8","0.5","0.5","","","0.8","0.2","","","","","","","","","","","","","74","J","0","img/none_selected_demo.jpg","true","0","80_20_practice"
"338","","bandit","37","359324","0.0-19.0-17.0","45860066","wem/bandit_either","AJD3JOWNVDZD1","either","5","","","","","","","0","0","1","","0.8","0.5","0.5","","","0.8","0.2","","","","","","","","","","","","","74","J","0","img/none_selected_demo.jpg","true","0","80_20_practice"
"467","","bandit","38","361329","0.0-19.0-18.0","45860066","wem/bandit_either","AJD3JOWNVDZD1","either","5","","","","","","","1","0","0","0.8","","0.5","0.5","","","","","","","0.8","0.2","","","","","","","","","74","J","0","img/none_selected_demo.jpg","true","0","80_20_practice"
"1163","","bandit","39","364013","0.0-19.0-19.0","45860066","wem/bandit_either","AJD3JOWNVDZD1","either","5","","","","","","","1","0","0","0.8","","0.5","0.5","","","","","","","0.8","0.2","","","","","","","","","74","J","0","img/none_selected_demo.jpg","true","0","80_20_practice"
"5834","","text","40","369868","0.0-20.0","45860066","wem/bandit_either","AJD3JOWNVDZD1","either","5","32","","","","","","","","","","","","","","","","","","","","","","","","","","","","","","","","","","",""
"881","","bandit","41","372276","0.0-21.0-0.0","45860066","wem/bandit_either","AJD3JOWNVDZD1","either","5","","","","","","","1","0","0","1","0","","","","","0","1","","","1","0","","","","","","","","","74","J","0","img/none_selected_demo.jpg","true","0",""
"8727","","text","42","381022","0.0-22.0","45860066","wem/bandit_either","AJD3JOWNVDZD1","either","5","32","","","","","","","","","","","","","","","","","","","","","","","","","","","","","","","","","","",""
"2963","","text","43","384002","0.0-23.0","45860066","wem/bandit_either","AJD3JOWNVDZD1","either","5","32","","","","","","","","","","","","","","","","","","","","","","","","","","","","","","","","","","",""
"2982","","text","44","386991","0.0-24.0","45860066","wem/bandit_either","AJD3JOWNVDZD1","either","5","32","","","","","","","","","","","","","","","","","","","","","","","","","","","","","","","","","","",""
"3075","","text","45","390073","0.0-25.0","45860066","wem/bandit_either","AJD3JOWNVDZD1","either","5","32","","","","","","","","","","","","","","","","","","","","","","","","","","","","","","","","","","",""
"13991","","text","46","404072","0.0-26.0","45860066","wem/bandit_either","AJD3JOWNVDZD1","either","5","32","","","","","","","","","","","","","","","","","","","","","","","","","","","","","","","","","","",""
"2785","","text","47","406866","0.0-27.0","45860066","wem/bandit_either","AJD3JOWNVDZD1","either","5","32","","","","","","","","","","","","","","","","","","","","","","","","","","","","","","","","","","",""
"5366","","text","48","412242","0.0-28.0","45860066","wem/bandit_either","AJD3JOWNVDZD1","either","5","32","","","","","","","","","","","","","","","","","","","","","","","","","","","","","","","","","","",""
"3619","","text","49","415877","0.0-29.0","45860066","wem/bandit_either","AJD3JOWNVDZD1","either","5","32","","","","","","","","","","","","","","","","","","","","","","","","","","","","","","","","","","",""
"8365","","text","50","424259","0.0-30.0","45860066","wem/bandit_either","AJD3JOWNVDZD1","either","5","32","","","","","","","","","","","","","","","","","","","","","","","","","","","","","","","","","","",""
"1617","","text","51","425893","0.0-31.0","45860066","wem/bandit_either","AJD3JOWNVDZD1","either","5","32","","","","","","","","","","","","","","","","","","","","","","","","","","","","","","","","","","",""
"7835","","text","52","433743","0.0-32.0","45860066","wem/bandit_either","AJD3JOWNVDZD1","either","5","32","","","","","","","","","","","","","","","","","","","","","","","","","","","","","","","","","","",""
"634","","bandit","53","435914","0.0-33.0-0.0","45860066","wem/bandit_either","AJD3JOWNVDZD1","either","5","","","","","","","0","0","1","0.8","","0.5","0.5","0.5","0.5","","","","","0.8","0.2","0.6","0.2","","","","","","","72","H","0","img/none_selected.jpg","true","0","full_practice"
"1357","","bandit","54","438809","0.0-33.0-1.0","45860066","wem/bandit_either","AJD3JOWNVDZD1","either","5","","","","","","","0","0","1","","0.2","0.5","0.5","0.5","0.5","0.8","0.2","0.6","0.2","","","","","","","","","","","74","J","1","","true","0","full_practice"
"689","","bandit","55","441071","0.0-33.0-2.0","45860066","wem/bandit_either","AJD3JOWNVDZD1","either","5","","","","","","","1","0","0","0.6","","0.5","0.5","0.5","0.5","","","","","0.8","0.2","0.6","0.2","","","","","","","75","K","2","","true","0","full_practice"
"956","","bandit","56","443579","0.0-33.0-3.0","45860066","wem/bandit_either","AJD3JOWNVDZD1","either","5","","","","","","","0","0","1","","0.6","0.5","0.5","0.5","0.5","0.8","0.2","0.6","0.2","","","","","","","","","","","75","K","2","","true","0","full_practice"
"705","","bandit","57","445967","0.0-33.0-4.0","45860066","wem/bandit_either","AJD3JOWNVDZD1","either","5","","","","","","","1","0","0","0.6","","0.5","0.5","0.5","0.5","","","","","0.8","0.2","0.6","0.2","","","","","","","75","K","2","","true","0","full_practice"
"820","","bandit","58","448314","0.0-33.0-5.0","45860066","wem/bandit_either","AJD3JOWNVDZD1","either","5","","","","","","","0","0","1","","0.6","0.5","0.5","0.5","0.5","0.8","0.2","0.6","0.2","","","","","","","","","","","75","K","2","","true","0","full_practice"
"645","","bandit","59","450519","0.0-33.0-6.0","45860066","wem/bandit_either","AJD3JOWNVDZD1","either","5","","","","","","","0","0","1","0.2","","0.5","0.5","0.5","0.5","","","","","0.8","0.2","0.6","0.2","","","","","","","76","L","3","","true","0","full_practice"
"572","","bandit","60","452633","0.0-33.0-7.0","45860066","wem/bandit_either","AJD3JOWNVDZD1","either","5","","","","","","","1","0","0","0.6","","0.5","0.5","0.5","0.5","","","","","0.8","0.2","0.6","0.2","","","","","","","75","K","2","","true","0","full_practice"
"721","","bandit","61","454908","0.0-33.0-8.0","45860066","wem/bandit_either","AJD3JOWNVDZD1","either","5","","","","","","","1","0","0","0.6","","0.5","0.5","0.5","0.5","","","","","0.8","0.2","0.6","0.2","","","","","","","75","K","2","","true","0","full_practice"
"598","","bandit","62","457046","0.0-33.0-9.0","45860066","wem/bandit_either","AJD3JOWNVDZD1","either","5","","","","","","","0","0","1","","0.6","0.5","0.5","0.5","0.5","0.8","0.2","0.6","0.2","","","","","","","","","","","75","K","2","","true","0","full_practice"
"786","","bandit","63","459409","0.0-33.0-10.0","45860066","wem/bandit_either","AJD3JOWNVDZD1","either","5","","","","","","","1","0","0","0.6","","0.5","0.5","0.5","0.5","","","","","0.8","0.2","0.6","0.2","","","","","","","75","K","2","","true","0","full_practice"
"489","","bandit","64","461446","0.0-33.0-11.0","45860066","wem/bandit_either","AJD3JOWNVDZD1","either","5","","","","","","","1","0","0","0.6","","0.5","0.5","0.5","0.5","","","","","0.8","0.2","0.6","0.2","","","","","","","75","K","2","","true","0","full_practice"
"514","","bandit","65","463654","0.0-33.0-12.0","45860066","wem/bandit_either","AJD3JOWNVDZD1","either","5","","","","","","","1","0","0","0.6","","0.5","0.5","0.5","0.5","","","","","0.8","0.2","0.6","0.2","","","","","","","75","K","2","","true","0","full_practice"
"495","","bandit","66","465778","0.0-33.0-13.0","45860066","wem/bandit_either","AJD3JOWNVDZD1","either","5","","","","","","","0","0","1","0.6","","0.5","0.5","0.5","0.5","","","","","0.8","0.2","0.6","0.2","","","","","","","75","K","2","","true","0","full_practice"
"542","","bandit","67","467847","0.0-33.0-14.0","45860066","wem/bandit_either","AJD3JOWNVDZD1","either","5","","","","","","","1","0","0","0.6","","0.5","0.5","0.5","0.5","","","","","0.8","0.2","0.6","0.2","","","","","","","75","K","2","","true","0","full_practice"
"455","","bandit","68","469835","0.0-33.0-15.0","45860066","wem/bandit_either","AJD3JOWNVDZD1","either","5","","","","","","","1","0","0","0.6","","0.5","0.5","0.5","0.5","","","","","0.8","0.2","0.6","0.2","","","","","","","75","K","2","","true","0","full_practice"
"312","","bandit","69","471674","0.0-33.0-16.0","45860066","wem/bandit_either","AJD3JOWNVDZD1","either","5","","","","","","","1","0","0","0.6","","0.5","0.5","0.5","0.5","","","","","0.8","0.2","0.6","0.2","","","","","","","75","K","2","","true","0","full_practice"
"457","","bandit","70","473673","0.0-33.0-17.0","45860066","wem/bandit_either","AJD3JOWNVDZD1","either","5","","","","","","","0","1","0","","0.6","0.5","0.5","0.5","0.5","0.8","0.2","0.6","0.2","","","","","","","","","","","75","K","2","","true","0","full_practice"
"271","","bandit","71","475475","0.0-33.0-18.0","45860066","wem/bandit_either","AJD3JOWNVDZD1","either","5","","","","","","","1","0","0","0.6","","0.5","0.5","0.5","0.5","","","","","0.8","0.2","0.6","0.2","","","","","","","75","K","2","","true","0","full_practice"
"385","","bandit","72","477547","0.0-33.0-19.0","45860066","wem/bandit_either","AJD3JOWNVDZD1","either","5","","","","","","","0","0","1","0.6","","0.5","0.5","0.5","0.5","","","","","0.8","0.2","0.6","0.2","","","","","","","75","K","2","","true","0","full_practice"
"4254","","text","73","481850","0.0-34.0","45860066","wem/bandit_either","AJD3JOWNVDZD1","either","5","32","","","","","","","","","","","","","","","","","","","","","","","","","","","","","","","","","","",""
"15588","","text","74","498459","0.0-35.0","45860066","wem/bandit_either","AJD3JOWNVDZD1","either","5","32","","","","","","","","","","","","","","","","","","","","","","","","","","","","","","","","","","",""
"12054","","text","75","510532","0.0-36.0","45860066","wem/bandit_either","AJD3JOWNVDZD1","either","5","32","","","","","","","","","","","","","","","","","","","","","","","","","","","","","","","","","","",""
"8603","","text","76","519151","0.0-37.0","45860066","wem/bandit_either","AJD3JOWNVDZD1","either","5","32","","","","","","","","","","","","","","","","","","","","","","","","","","","","","","","","","","",""
"5189","","text","77","524354","0.0-38.0","45860066","wem/bandit_either","AJD3JOWNVDZD1","either","5","32","","","","","","","","","","","","","","","","","","","","","","","","","","","","","","","","","","",""
"5145","","text","78","529517","0.0-39.0","45860066","wem/bandit_either","AJD3JOWNVDZD1","either","5","32","","","","","","","","","","","","","","","","","","","","","","","","","","","","","","","","","","",""
"2912","","bandit","79","534003","0.0-40.0-0.0","45860066","wem/bandit_either","AJD3JOWNVDZD1","either","5","","","","","","","1","0","0","0.3340388524","","0.4","0.8","0.2","0.6","","","","","0.3340388524","0.3897275569","0.1165465043","0.4265570961","","","","","","","72","H","0","img/none_selected.jpg","","1","main_expt"
"601","","bandit","80","536215","0.0-41.0-0.0","45860066","wem/bandit_either","AJD3JOWNVDZD1","either","5","","","","","","","0","0","1","","0.3223834482","0.4","0.8","0.2","0.6","0.3223834482","0.3911966266","0.08371899021","0.4177099958","","","","","","","","","","","72","H","0","img/none_selected.jpg","","2","main_expt"
"726","","bandit","81","538473","0.0-42.0-0.0","45860066","wem/bandit_either","AJD3JOWNVDZD1","either","5","","","","","","","0","0","1","","0.3585509001","0.4","0.8","0.2","0.6","0.3585509001","0.4074861021","0.04339790364","0.4192185534","","","","","","","","","","","72","H","0","img/none_selected.jpg","","3","main_expt"
"1105","","bandit","82","541108","0.0-43.0-0.0","45860066","wem/bandit_either","AJD3JOWNVDZD1","either","5","","","","","","","0","0","1","0.3965638453","","0.4","0.8","0.2","0.6","","","","","0.3416436242","0.3965638453","0.04073472785","0.4241610434","","","","","","","74","J","1","","","4","main_expt"
"933","","bandit","83","543573","0.0-44.0-0.0","45860066","wem/bandit_either","AJD3JOWNVDZD1","either","5","","","","","","","0","0","1","","0.04731773769","0.4","0.8","0.2","0.6","0.3444758892","0.3688269119","0.04731773769","0.4284837315","","","","","","","","","","","75","K","2","","","5","main_expt"
"1005","","bandit","84","546113","0.0-45.0-0.0","45860066","wem/bandit_either","AJD3JOWNVDZD1","either","5","","","","","","","0","0","1","","0.4328708062","0.4","0.8","0.2","0.6","0.3574177426","0.3865867917","0.05617088868","0.4328708062","","","","","","","","","","","76","L","3","","","6","main_expt"
"743","","bandit","85","548387","0.0-46.0-0.0","45860066","wem/bandit_either","AJD3JOWNVDZD1","either","5","","","","","","","0","0","1","","0.4176545671","0.4","0.8","0.2","0.6","0.3634052143","0.4294719924","0.05606577856","0.4176545671","","","","","","","","","","","76","L","3","","","7","main_expt"
"720","","bandit","86","550639","0.0-47.0-0.0","45860066","wem/bandit_either","AJD3JOWNVDZD1","either","5","","","","","","","0","0","1","","0.09244853328","0.4","0.8","0.2","0.6","0.3675420607","0.4210378118","0.09244853328","0.4022395488","","","","","","","","","","","75","K","2","","","8","main_expt"
"521","","bandit","87","552697","0.0-48.0-0.0","45860066","wem/bandit_either","AJD3JOWNVDZD1","either","5","","","","","","","0","0","1","","0.4502112583","0.4","0.8","0.2","0.6","0.3921196104","0.4502112583","0.1271341085","0.3929004949","","","","","","","","","","","74","J","1","","","9","main_expt"
"439","","bandit","88","554662","0.0-49.0-0.0","45860066","wem/bandit_either","AJD3JOWNVDZD1","either","5","","","","","","","0","0","1","","0.4026182126","0.4","0.8","0.2","0.6","0.4026182126","0.4452653155","0.1370717255","0.3863711448","","","","","","","","","","","72","H","0","img/none_selected.jpg","","10","main_expt"
"366","","bandit","89","556597","0.0-50.0-0.0","45860066","wem/bandit_either","AJD3JOWNVDZD1","either","5","","","","","","","0","0","1","","0.3543069494","0.4","0.8","0.2","0.6","0.3543069494","0.4352349267","0.1275050207","0.4205849279","","","","","","","","","","","72","H","0","img/none_selected.jpg","","11","main_expt"
"510","","bandit","90","558645","0.0-51.0-0.0","45860066","wem/bandit_either","AJD3JOWNVDZD1","either","5","","","","","","","0","1","0","","0.3504097904","0.4","0.8","0.2","0.6","0.3504097904","0.4029030639","0.122317004","0.4525069231","","","","","","","","","","","72","H","0","img/none_selected.jpg","","12","main_expt"
"327","","bandit","91","560649","0.0-52.0-0.0","45860066","wem/bandit_either","AJD3JOWNVDZD1","either","5","","","","","","","0","1","0","","0.2787441393","0.4","0.8","0.2","0.6","0.2787441393","0.4198147105","0.1251711411","0.4485799753","","","","","","","","","","","72","H","0","img/none_selected.jpg","","13","main_expt"
"636","","bandit","92","564037","0.0-53.0-0.0","45860066","wem/bandit_either","AJD3JOWNVDZD1","either","5","","","","","","","0","0","1","0.2723245106","","0.4","0.8","0.2","0.6","","","","","0.2723245106","0.3761312174","0.1380641988","0.4504049656","","","","","","","72","H","0","img/none_selected.jpg","","14","main_expt"
"2033","","bandit","93","567661","0.0-54.0-0.0","45860066","wem/bandit_either","AJD3JOWNVDZD1","either","5","","","","","","","0","0","1","","0.3687644442","0.4","0.8","0.2","0.6","0.3687644442","0.4017507227","0.2010812313","0.4281165459","","","","","","","","","","","72","H","0","img/none_selected.jpg","","15","main_expt"
"1195","","bandit","94","570401","0.0-55.0-0.0","45860066","wem/bandit_either","AJD3JOWNVDZD1","either","5","","","","","","","1","0","0","0.3992289848","","0.4","0.8","0.2","0.6","","","","","0.3992289848","0.3859888637","0.1747275657","0.4035101098","","","","","","","72","H","0","img/none_selected.jpg","","16","main_expt"
"944","","bandit","95","572980","0.0-56.0-0.0","45860066","wem/bandit_either","AJD3JOWNVDZD1","either","5","","","","","","","0","0","1","","0.4067061876","0.4","0.8","0.2","0.6","0.4067061876","0.3706978481","0.1816524112","0.4063691663","","","","","","","","","","","72","H","0","img/none_selected.jpg","","17","main_expt"
"1065","","bandit","96","575735","0.0-57.0-0.0","45860066","wem/bandit_either","AJD3JOWNVDZD1","either","5","","","","","","","0","0","1","","0.3969002131","0.4","0.8","0.2","0.6","0.3969002131","0.3323991027","0.1700798448","0.4201618032","","","","","","","","","","","72","H","0","img/none_selected.jpg","","18","main_expt"
"1978","","bandit","97","579260","0.0-58.0-0.0","45860066","wem/bandit_either","AJD3JOWNVDZD1","either","5","","","","","","","0","0","1","0.3301718366","","0.4","0.8","0.2","0.6","","","","","0.3930099592","0.3301718366","0.1998500639","0.3868389751","","","","","","","74","J","1","","","19","main_expt"
"1816","","bandit","98","582610","0.0-59.0-0.0","45860066","wem/bandit_either","AJD3JOWNVDZD1","either","5","","","","","","","0","0","1","0.3714618997","","0.4","0.8","0.2","0.6","","","","","0.3791602553","0.3714618997","0.2418808817","0.3868875991","","","","","","","74","J","1","","","20","main_expt"
"1546","","bandit","99","585695","0.0-60.0-0.0","45860066","wem/bandit_either","AJD3JOWNVDZD1","either","5","","","","","","","1","0","0","0.2293341009","","0.4","0.8","0.2","0.6","","","","","0.4127515201","0.3621694591","0.2293341009","0.4253770554","","","","","","","75","K","2","","","21","main_expt"
"1147","","bandit","100","588374","0.0-61.0-0.0","45860066","wem/bandit_either","AJD3JOWNVDZD1","either","5","","","","","","","0","0","1","","0.2074184163","0.4","0.8","0.2","0.6","0.4164833055","0.3648829928","0.2074184163","0.4285762007","","","","","","","","","","","75","K","2","","","22","main_expt"
"1284","","bandit","101","591192","0.0-62.0-0.0","45860066","wem/bandit_either","AJD3JOWNVDZD1","either","5","","","","","","","0","0","1","","0.1832507358","0.4","0.8","0.2","0.6","0.4143027846","0.2856994719","0.1832507358","0.4082522222","","","","","","","","","","","75","K","2","","","23","main_expt"
"1870","","bandit","102","594594","0.0-63.0-0.0","45860066","wem/bandit_either","AJD3JOWNVDZD1","either","5","","","","","","","0","0","1","0.4027270218","","0.4","0.8","0.2","0.6","","","","","0.3649270698","0.3152516524","0.1469425149","0.4027270218","","","","","","","76","L","3","","","24","main_expt"
"1649","","bandit","103","597778","0.0-64.0-0.0","45860066","wem/bandit_either","AJD3JOWNVDZD1","either","5","","","","","","","0","1","0","","0.4100212433","0.4","0.8","0.2","0.6","0.392676409","0.2778145345","0.102794739","0.4100212433","","","","","","","","","","","76","L","3","","","25","main_expt"
"1547","","bandit","104","600861","0.0-65.0-0.0","45860066","wem/bandit_either","AJD3JOWNVDZD1","either","5","","","","","","","0","0","1","0.4190791169","","0.4","0.8","0.2","0.6","","","","","0.4031565401","0.3170506137","0.1173732637","0.4190791169","","","","","","","76","L","3","","","26","main_expt"
"1730","","bandit","105","604127","0.0-66.0-0.0","45860066","wem/bandit_either","AJD3JOWNVDZD1","either","5","","","","","","","0","0","1","","0.4245959001","0.4","0.8","0.2","0.6","0.4245959001","0.3223143746","0.08835016803","0.4527212376","","","","","","","","","","","72","H","0","img/none_selected.jpg","","27","main_expt"
"1630","","bandit","106","607288","0.0-67.0-0.0","45860066","wem/bandit_either","AJD3JOWNVDZD1","either","5","","","","","","","0","1","0","","0.4480998813","0.4","0.8","0.2","0.6","0.4232885055","0.3234472479","0.1134440288","0.4480998813","","","","","","","","","","","76","L","3","","","28","main_expt"
"1240","","bandit","107","610074","0.0-68.0-0.0","45860066","wem/bandit_either","AJD3JOWNVDZD1","either","5","","","","","","","0","1","0","","0.4628669208","0.4","0.8","0.2","0.6","0.4495512981","0.2881425904","0.1982905849","0.4628669208","","","","","","","","","","","76","L","3","","","29","main_expt"
"1109","","bandit","108","612825","0.0-69.0-0.0","45860066","wem/bandit_either","AJD3JOWNVDZD1","either","5","","","","","","","0","0","1","0.4565655028","","0.4","0.8","0.2","0.6","","","","","0.4485299892","0.2326555855","0.2366655967","0.4565655028","","","","","","","76","L","3","","","30","main_expt"
"1362","","bandit","109","615721","0.0-70.0-0.0","45860066","wem/bandit_either","AJD3JOWNVDZD1","either","5","","","","","","","0","0","1","0.4686031056","","0.4","0.8","0.2","0.6","","","","","0.4599237238","0.2364604256","0.1622470467","0.4686031056","","","","","","","76","L","3","","","31","main_expt"
"1306","","bandit","110","618566","0.0-71.0-0.0","45860066","wem/bandit_either","AJD3JOWNVDZD1","either","5","","","","","","","0","0","1","0.4659582456","","0.4","0.8","0.2","0.6","","","","","0.4508116693","0.2451982598","0.1771911602","0.4659582456","","","","","","","76","L","3","","","32","main_expt"
"3572","","bandit","111","623819","0.0-72.0-0.0","45860066","wem/bandit_either","AJD3JOWNVDZD1","either","5","","","","","","","0","0","1","0.45101727","","0.4","0.8","0.2","0.6","","","","","0.45101727","0.2360369815","0.1622836308","0.4810757035","","","","","","","72","H","0","img/none_selected.jpg","","33","main_expt"
"1249","","bandit","112","626598","0.0-73.0-0.0","45860066","wem/bandit_either","AJD3JOWNVDZD1","either","5","","","","","","","0","0","1","","0.1655985557","0.4","0.8","0.2","0.6","0.4340174653","0.2317763892","0.1655985557","0.4842727378","","","","","","","","","","","75","K","2","","","34","main_expt"
"1389","","bandit","113","629546","0.0-74.0-0.0","45860066","wem/bandit_either","AJD3JOWNVDZD1","either","5","","","","","","","1","0","0","0.4745470136","","0.4","0.8","0.2","0.6","","","","","0.4040147441","0.2527891731","0.1492797185","0.4745470136","","","","","","","76","L","3","","","35","main_expt"
"1399","","bandit","114","632502","0.0-75.0-0.0","45860066","wem/bandit_either","AJD3JOWNVDZD1","either","5","","","","","","","0","0","1","0.4440965139","","0.4","0.8","0.2","0.6","","","","","0.4268829696","0.2641283143","0.1504543003","0.4440965139","","","","","","","76","L","3","","","36","main_expt"
"1379","","bandit","115","635434","0.0-76.0-0.0","45860066","wem/bandit_either","AJD3JOWNVDZD1","either","5","","","","","","","0","0","1","0.4544425755","","0.4","0.8","0.2","0.6","","","","","0.4562327564","0.2309310423","0.1064249526","0.4544425755","","","","","","","76","L","3","","","37","main_expt"
"1748","","bandit","116","639194","0.0-77.0-0.0","45860066","wem/bandit_either","AJD3JOWNVDZD1","either","5","","","","","","","0","0","1","","0.4700138218","0.4","0.8","0.2","0.6","0.4481627861","0.2093170459","0.1346530267","0.4700138218","","","","","","","","","","","76","L","3","","","38","main_expt"
"1361","","bandit","117","642102","0.0-78.0-0.0","45860066","wem/bandit_either","AJD3JOWNVDZD1","either","5","","","","","","","0","0","1","0.4475890948","","0.4","0.8","0.2","0.6","","","","","0.4475890948","0.1398625959","0.1303494481","0.466948448","","","","","","","72","H","0","img/none_selected.jpg","","39","main_expt"
"1027","","bandit","118","644756","0.0-79.0-0.0","45860066","wem/bandit_either","AJD3JOWNVDZD1","either","5","","","","","","","0","0","1","0.4501575696","","0.4","0.8","0.2","0.6","","","","","0.4501575696","0.09690087606","0.1492074344","0.4679256248","","","","","","","72","H","0","img/none_selected.jpg","","40","main_expt"
"1317","","bandit","119","647610","0.0-80.0-0.0","45860066","wem/bandit_either","AJD3JOWNVDZD1","either","5","","","","","","","1","0","0","0.4121884666","","0.4","0.8","0.2","0.6","","","","","0.4121884666","0.1129569356","0.1370672299","0.445537573","","","","","","","72","H","0","img/none_selected.jpg","","41","main_expt"
"1240","","bandit","120","650392","0.0-81.0-0.0","45860066","wem/bandit_either","AJD3JOWNVDZD1","either","5","","","","","","","1","0","0","0.4379939247","","0.4","0.8","0.2","0.6","","","","","0.4379939247","0.1227033228","0.08144147181","0.4521531226","","","","","","","72","H","0","img/none_selected.jpg","","42","main_expt"
"1289","","bandit","121","653340","0.0-82.0-0.0","45860066","wem/bandit_either","AJD3JOWNVDZD1","either","5","","","","","","","0","0","1","","0.4271747655","0.4","0.8","0.2","0.6","0.4271747655","0.08393287497","0.06793865388","0.4695072217","","","","","","","","","","","72","H","0","img/none_selected.jpg","","43","main_expt"
"1140","","bandit","122","656093","0.0-83.0-0.0","45860066","wem/bandit_either","AJD3JOWNVDZD1","either","5","","","","","","","1","0","0","0.4480494518","","0.4","0.8","0.2","0.6","","","","","0.4480494518","0.06260074275","0.05295344446","0.4807409838","","","","","","","72","H","0","img/none_selected.jpg","","44","main_expt"
"1191","","bandit","123","658961","0.0-84.0-0.0","45860066","wem/bandit_either","AJD3JOWNVDZD1","either","5","","","","","","","0","1","0","","0.4269729589","0.4","0.8","0.2","0.6","0.4269729589","0.08062123592","0.02744239742","0.4507048108","","","","","","","","","","","72","H","0","img/none_selected.jpg","","45","main_expt"
"1164","","bandit","124","661676","0.0-85.0-0.0","45860066","wem/bandit_either","AJD3JOWNVDZD1","either","5","","","","","","","0","1","0","","0.4475746277","0.4","0.8","0.2","0.6","0.4475746277","0.1110847749","0.02347437243","0.4382321206","","","","","","","","","","","72","H","0","img/none_selected.jpg","","46","main_expt"
"1183","","bandit","125","664400","0.0-86.0-0.0","45860066","wem/bandit_either","AJD3JOWNVDZD1","either","5","","","","","","","1","0","0","0.4295618238","","0.4","0.8","0.2","0.6","","","","","0.4295618238","0.05346849493","0.02418160198","0.4393937913","","","","","","","72","H","0","img/none_selected.jpg","","47","main_expt"
"1193","","bandit","126","667147","0.0-87.0-0.0","45860066","wem/bandit_either","AJD3JOWNVDZD1","either","5","","","","","","","0","0","1","","0.4431907244","0.4","0.8","0.2","0.6","0.4431907244","0.04499733497","0.01182676654","0.440318131","","","","","","","","","","","72","H","0","img/none_selected.jpg","","48","main_expt"
"948","","bandit","127","669739","0.0-88.0-0.0","45860066","wem/bandit_either","AJD3JOWNVDZD1","either","5","","","","","","","0","1","0","","0.4187732916","0.4","0.8","0.2","0.6","0.4187732916","0.07378534534","0.0186287842","0.4362102412","","","","","","","","","","","72","H","0","img/none_selected.jpg","","49","main_expt"
"1120","","bandit","128","672398","0.0-89.0-0.0","45860066","wem/bandit_either","AJD3JOWNVDZD1","either","5","","","","","","","0","1","0","","0.356579213","0.4","0.8","0.2","0.6","0.356579213","0.06168845619","0.02550629551","0.44488671","","","","","","","","","","","72","H","0","img/none_selected.jpg","","50","main_expt"
"910","","bandit","129","674874","0.0-90.0-0.0","45860066","wem/bandit_either","AJD3JOWNVDZD1","either","5","","","","","","","0","1","0","","0.2629404955","0.4","0.8","0.2","0.6","0.2629404955","0.1062028567","0.04366809707","0.4633405548","","","","","","","","","","","72","H","0","img/none_selected.jpg","","51","main_expt"
"1025","","bandit","130","677439","0.0-91.0-0.0","45860066","wem/bandit_either","AJD3JOWNVDZD1","either","5","","","","","","","0","0","1","0.2919747068","","0.4","0.8","0.2","0.6","","","","","0.2919747068","0.1379608546","0.04357168116","0.4528043762","","","","","","","72","H","0","img/none_selected.jpg","","52","main_expt"
"963","","bandit","131","679943","0.0-92.0-0.0","45860066","wem/bandit_either","AJD3JOWNVDZD1","either","5","","","","","","","0","0","1","","0.3809901122","0.4","0.8","0.2","0.6","0.3809901122","0.1356826849","0.03899227154","0.4390431751","","","","","","","","","","","72","H","0","img/none_selected.jpg","","53","main_expt"
"998","","bandit","132","682534","0.0-93.0-0.0","45860066","wem/bandit_either","AJD3JOWNVDZD1","either","5","","","","","","","0","0","1","0.3452518694","","0.4","0.8","0.2","0.6","","","","","0.3452518694","0.1038772241","0.04009146386","0.4549270822","","","","","","","72","H","0","img/none_selected.jpg","","54","main_expt"
"1300","","bandit","133","685369","0.0-94.0-0.0","45860066","wem/bandit_either","AJD3JOWNVDZD1","either","5","","","","","","","0","0","1","","0.3263112327","0.4","0.8","0.2","0.6","0.3263112327","0.1689791829","0.0155768565","0.4710341864","","","","","","","","","","","72","H","0","img/none_selected.jpg","","55","main_expt"
"1255","","bandit","134","688168","0.0-95.0-0.0","45860066","wem/bandit_either","AJD3JOWNVDZD1","either","5","","","","","","","0","0","1","","0.4745834276","0.4","0.8","0.2","0.6","0.3308963945","0.1108888145","0.02112461672","0.4745834276","","","","","","","","","","","76","L","3","","","56","main_expt"
"1396","","bandit","135","691105","0.0-96.0-0.0","45860066","wem/bandit_either","AJD3JOWNVDZD1","either","5","","","","","","","0","0","1","0.0126553198","","0.4","0.8","0.2","0.6","","","","","0.3150326571","0.1206542402","0.0126553198","0.489318572","","","","","","","75","K","2","","","57","main_expt"
"1462","","bandit","136","694105","0.0-97.0-0.0","45860066","wem/bandit_either","AJD3JOWNVDZD1","either","5","","","","","","","0","0","1","","0.01131359515","0.4","0.8","0.2","0.6","0.3049116772","0.09707343937","0.01131359515","0.480037986","","","","","","","","","","","75","K","2","","","58","main_expt"
"1107","","bandit","137","696781","0.0-98.0-0.0","45860066","wem/bandit_either","AJD3JOWNVDZD1","either","5","","","","","","","0","0","1","0.1044384952","","0.4","0.8","0.2","0.6","","","","","0.3050987947","0.1044384952","0.01030075821","0.4593461039","","","","","","","74","J","1","","","59","main_expt"
"1220","","bandit","138","699532","0.0-99.0-0.0","45860066","wem/bandit_either","AJD3JOWNVDZD1","either","5","","","","","","","0","0","1","0.08890369623","","0.4","0.8","0.2","0.6","","","","","0.3274009355","0.08890369623","0.005868957973","0.446051488","","","","","","","74","J","1","","","60","main_expt"
"841","","bandit","139","701930","0.0-100.0-0.0","45860066","wem/bandit_either","AJD3JOWNVDZD1","either","5","","","","","","","1","0","0","0.4391285327","","0.4","0.8","0.2","0.6","","","","","0.3428943983","0.08921221942","0.004361943215","0.4391285327","","","","","","","76","L","3","","","61","main_expt"
"1141","","bandit","140","704780","0.0-101.0-0.0","45860066","wem/bandit_either","AJD3JOWNVDZD1","either","5","","","","","","","0","1","0","","0.4063883723","0.4","0.8","0.2","0.6","0.3549763931","0.09812025034","0.005208412743","0.4063883723","","","","","","","","","","","76","L","3","","","62","main_expt"
"1098","","bandit","141","707461","0.0-102.0-0.0","45860066","wem/bandit_either","AJD3JOWNVDZD1","either","5","","","","","","","0","1","0","","0.4330387396","0.4","0.8","0.2","0.6","0.3496678451","0.09006279409","0.006461011255","0.4330387396","","","","","","","","","","","76","L","3","","","63","main_expt"
"1203","","bandit","142","710530","0.0-103.0-0.0","45860066","wem/bandit_either","AJD3JOWNVDZD1","either","5","","","","","","","1","0","0","0.4207902426","","0.4","0.8","0.2","0.6","","","","","0.3188537263","0.1118976224","0.01267926231","0.4207902426","","","","","","","76","L","3","","","64","main_expt"
"2445","","bandit","143","714577","0.0-104.0-0.0","45860066","wem/bandit_either","AJD3JOWNVDZD1","either","5","","","","","","","0","1","0","","0.3719582347","0.4","0.8","0.2","0.6","0.3191795336","0.1053817613","0.009732787917","0.3719582347","","","","","","","","","","","76","L","3","","","65","main_expt"
"1122","","bandit","144","717508","0.0-105.0-0.0","45860066","wem/bandit_either","AJD3JOWNVDZD1","either","5","","","","","","","0","0","1","","0.3748569955","0.4","0.8","0.2","0.6","0.268616347","0.1307356695","0.01092542651","0.3748569955","","","","","","","","","","","76","L","3","","","66","main_expt"
"1007","","bandit","145","720070","0.0-106.0-0.0","45860066","wem/bandit_either","AJD3JOWNVDZD1","either","5","","","","","","","0","0","1","0.335252031","","0.4","0.8","0.2","0.6","","","","","0.259194563","0.1418436428","0.02125534741","0.335252031","","","","","","","76","L","3","","","67","main_expt"
"1253","","bandit","146","722875","0.0-107.0-0.0","45860066","wem/bandit_either","AJD3JOWNVDZD1","either","5","","","","","","","0","0","1","","0.3199157278","0.4","0.8","0.2","0.6","0.2281204868","0.1459089566","0.02360283027","0.3199157278","","","","","","","","","","","76","L","3","","","68","main_expt"
"1283","","bandit","147","725830","0.0-108.0-0.0","45860066","wem/bandit_either","AJD3JOWNVDZD1","either","5","","","","","","","1","0","0","0.3068525281","","0.4","0.8","0.2","0.6","","","","","0.2195844169","0.1809721424","0.02539305756","0.3068525281","","","","","","","76","L","3","","","69","main_expt"
"1036","","bandit","148","728408","0.0-109.0-0.0","45860066","wem/bandit_either","AJD3JOWNVDZD1","either","5","","","","","","","0","0","1","","0.3181076016","0.4","0.8","0.2","0.6","0.1883338509","0.1784068974","0.05014388586","0.3181076016","","","","","","","","","","","76","L","3","","","70","main_expt"
"1012","","bandit","149","730977","0.0-110.0-0.0","45860066","wem/bandit_either","AJD3JOWNVDZD1","either","5","","","","","","","0","0","1","0.2926426422","","0.4","0.8","0.2","0.6","","","","","0.1639708178","0.1973023396","0.04209054697","0.2926426422","","","","","","","76","L","3","","","71","main_expt"
"1677","","bandit","150","734242","0.0-111.0-0.0","45860066","wem/bandit_either","AJD3JOWNVDZD1","either","5","","","","","","","0","0","1","","0.2380263643","0.4","0.8","0.2","0.6","0.1312842785","0.2436342847","0.05611199342","0.2380263643","","","","","","","","","","","76","L","3","","","72","main_expt"
"1463","","bandit","151","737247","0.0-112.0-0.0","45860066","wem/bandit_either","AJD3JOWNVDZD1","either","5","","","","","","","0","0","1","","0.1805041857","0.4","0.8","0.2","0.6","0.1805041857","0.1992173182","0.05293238473","0.2407197948","","","","","","","","","","","72","H","0","img/none_selected.jpg","","73","main_expt"
"1143","","bandit","152","739934","0.0-113.0-0.0","45860066","wem/bandit_either","AJD3JOWNVDZD1","either","5","","","","","","","0","0","1","","0.1739557812","0.4","0.8","0.2","0.6","0.1739557812","0.2347098304","0.0318456884","0.2317468449","","","","","","","","","","","72","H","0","img/none_selected.jpg","","74","main_expt"
"956","","bandit","153","742430","0.0-114.0-0.0","45860066","wem/bandit_either","AJD3JOWNVDZD1","either","5","","","","","","","0","1","0","","0.2641442137","0.4","0.8","0.2","0.6","0.2434916027","0.2641442137","0.03873230677","0.2545997551","","","","","","","","","","","74","J","1","","","75","main_expt"
"1084","","bandit","154","745057","0.0-115.0-0.0","45860066","wem/bandit_either","AJD3JOWNVDZD1","either","5","","","","","","","0","0","1","0.3192644053","","0.4","0.8","0.2","0.6","","","","","0.2438468568","0.3192644053","0.03304947682","0.2890845388","","","","","","","74","J","1","","","76","main_expt"
"994","","bandit","155","747596","0.0-116.0-0.0","45860066","wem/bandit_either","AJD3JOWNVDZD1","either","5","","","","","","","0","0","1","","0.3351132613","0.4","0.8","0.2","0.6","0.2425324642","0.3351132613","0.02607887458","0.2386362654","","","","","","","","","","","74","J","1","","","77","main_expt"
"1134","","bandit","156","750273","0.0-117.0-0.0","45860066","wem/bandit_either","AJD3JOWNVDZD1","either","5","","","","","","","0","0","1","","0.3086784207","0.4","0.8","0.2","0.6","0.205588479","0.3086784207","0.02492981692","0.2673679704","","","","","","","","","","","74","J","1","","","78","main_expt"
"974","","bandit","157","752910","0.0-118.0-0.0","45860066","wem/bandit_either","AJD3JOWNVDZD1","either","5","","","","","","","0","0","1","","0.01824110002","0.4","0.8","0.2","0.6","0.213062191","0.3076482073","0.01824110002","0.2813811921","","","","","","","","","","","75","K","2","","","79","main_expt"
"1009","","bandit","158","755458","0.0-119.0-0.0","45860066","wem/bandit_either","AJD3JOWNVDZD1","either","5","","","","","","","0","0","1","","0.0202176162","0.4","0.8","0.2","0.6","0.1852926048","0.3605025214","0.0202176162","0.2419447949","","","","","","","","","","","75","K","2","","","80","main_expt"
"1093","","bandit","159","758185","0.0-120.0-0.0","45860066","wem/bandit_either","AJD3JOWNVDZD1","either","5","","","","","","","0","0","1","","0.323481111","0.4","0.8","0.2","0.6","0.2332942271","0.3286166321","0.0252752587","0.323481111","","","","","","","","","","","76","L","3","","","81","main_expt"
"1206","","bandit","160","760932","0.0-121.0-0.0","45860066","wem/bandit_either","AJD3JOWNVDZD1","either","5","","","","","","","0","0","1","0.3097244961","","0.4","0.8","0.2","0.6","","","","","0.2087797338","0.3459677762","0.05668457717","0.3097244961","","","","","","","76","L","3","","","82","main_expt"
"1100","","bandit","161","763574","0.0-122.0-0.0","45860066","wem/bandit_either","AJD3JOWNVDZD1","either","5","","","","","","","0","0","1","0.3092751195","","0.4","0.8","0.2","0.6","","","","","0.2049979043","0.3092751195","0.07760530004","0.2787498647","","","","","","","74","J","1","","","83","main_expt"
"1434","","bandit","162","766552","0.0-123.0-0.0","45860066","wem/bandit_either","AJD3JOWNVDZD1","either","5","","","","","","","0","0","1","0.3044630387","","0.4","0.8","0.2","0.6","","","","","0.2151780091","0.3044630387","0.03696005566","0.2589524449","","","","","","","74","J","1","","","84","main_expt"
"1135","","bandit","163","769295","0.0-124.0-0.0","45860066","wem/bandit_either","AJD3JOWNVDZD1","either","5","","","","","","","0","0","1","","0.1497615914","0.4","0.8","0.2","0.6","0.1497615914","0.2812480587","0.04177257934","0.2769318636","","","","","","","","","","","72","H","0","img/none_selected.jpg","","85","main_expt"
"1397","","bandit","164","772235","0.0-125.0-0.0","45860066","wem/bandit_either","AJD3JOWNVDZD1","either","5","","","","","","","0","0","1","0.1223687677","","0.4","0.8","0.2","0.6","","","","","0.1223687677","0.2506532223","0.0385770192","0.2849222391","","","","","","","72","H","0","img/none_selected.jpg","","86","main_expt"
"1162","","bandit","165","774982","0.0-126.0-0.0","45860066","wem/bandit_either","AJD3JOWNVDZD1","either","5","","","","","","","0","0","1","0.1472857413","","0.4","0.8","0.2","0.6","","","","","0.1472857413","0.2269900387","0.03720252147","0.3131087309","","","","","","","72","H","0","img/none_selected.jpg","","87","main_expt"
"1340","","bandit","166","777930","0.0-127.0-0.0","45860066","wem/bandit_either","AJD3JOWNVDZD1","either","5","","","","","","","0","0","1","0.3038587512","","0.4","0.8","0.2","0.6","","","","","0.1252586248","0.1504729919","0.06746059371","0.3038587512","","","","","","","76","L","3","","","88","main_expt"
"1286","","bandit","167","780884","0.0-128.0-0.0","45860066","wem/bandit_either","AJD3JOWNVDZD1","either","5","","","","","","","0","0","1","","0.3308022157","0.4","0.8","0.2","0.6","0.1194927994","0.1382070302","0.04069757945","0.3308022157","","","","","","","","","","","76","L","3","","","89","main_expt"
"985","","bandit","168","783429","0.0-129.0-0.0","45860066","wem/bandit_either","AJD3JOWNVDZD1","either","5","","","","","","","0","0","1","","0.3574922351","0.4","0.8","0.2","0.6","0.1589750007","0.1364765349","0.07325379503","0.3574922351","","","","","","","","","","","76","L","3","","","90","main_expt"
"1756","","bandit","169","787402","0.0-130.0-0.0","45860066","wem/bandit_either","AJD3JOWNVDZD1","either","5","","","","","","","0","0","1","","0.09318196272","0.4","0.8","0.2","0.6","0.1859960426","0.09318196272","0.06877471811","0.3729517688","","","","","","","","","","","74","J","1","","","91","main_expt"
"1096","","bandit","170","790171","0.0-131.0-0.0","45860066","wem/bandit_either","AJD3JOWNVDZD1","either","5","","","","","","","0","0","1","0.06946097624","","0.4","0.8","0.2","0.6","","","","","0.192419488","0.06946097624","0.04115987362","0.398352994","","","","","","","74","J","1","","","92","main_expt"
"919","","bandit","171","792647","0.0-132.0-0.0","45860066","wem/bandit_either","AJD3JOWNVDZD1","either","5","","","","","","","0","0","1","0.08102832817","","0.4","0.8","0.2","0.6","","","","","0.1716033463","0.08102832817","0.07078892783","0.4135860398","","","","","","","74","J","1","","","93","main_expt"
"993","","bandit","172","795221","0.0-133.0-0.0","45860066","wem/bandit_either","AJD3JOWNVDZD1","either","5","","","","","","","0","0","1","","0.05572868433","0.4","0.8","0.2","0.6","0.1935897604","0.1271360848","0.05572868433","0.3786880174","","","","","","","","","","","75","K","2","","","94","main_expt"
"978","","bandit","173","797755","0.0-134.0-0.0","45860066","wem/bandit_either","AJD3JOWNVDZD1","either","5","","","","","","","0","0","1","","0.05056929995","0.4","0.8","0.2","0.6","0.2193228015","0.1097592989","0.05056929995","0.3823424718","","","","","","","","","","","75","K","2","","","95","main_expt"
"697","","bandit","174","799998","0.0-135.0-0.0","45860066","wem/bandit_either","AJD3JOWNVDZD1","either","5","","","","","","","0","0","1","","0.04159874267","0.4","0.8","0.2","0.6","0.3262643469","0.1085490834","0.04159874267","0.3642725552","","","","","","","","","","","75","K","2","","","96","main_expt"
"1113","","bandit","175","802663","0.0-136.0-0.0","45860066","wem/bandit_either","AJD3JOWNVDZD1","either","5","","","","","","","0","0","1","","0.03654451862","0.4","0.8","0.2","0.6","0.3207405496","0.1049812554","0.03654451862","0.3197717944","","","","","","","","","","","75","K","2","","","97","main_expt"
"973","","bandit","176","805187","0.0-137.0-0.0","45860066","wem/bandit_either","AJD3JOWNVDZD1","either","5","","","","","","","0","0","1","","0.04190300095","0.4","0.8","0.2","0.6","0.3712856991","0.08177978443","0.04190300095","0.2514424369","","","","","","","","","","","75","K","2","","","98","main_expt"
"1142","","bandit","177","807902","0.0-138.0-0.0","45860066","wem/bandit_either","AJD3JOWNVDZD1","either","5","","","","","","","0","0","1","","0.08742990617","0.4","0.8","0.2","0.6","0.3740145378","0.07574087804","0.08742990617","0.2926772137","","","","","","","","","","","75","K","2","","","99","main_expt"
"683","","bandit","178","810400","0.0-139.0-0.0","45860066","wem/bandit_either","AJD3JOWNVDZD1","either","5","","","","","","","0","0","1","","0.234485335","0.4","0.8","0.2","0.6","0.3776295542","0.07829319678","0.08966523481","0.234485335","","","","","","","","","","","76","L","3","","","100","main_expt"
"1421","","bandit","179","813543","0.0-140.0-0.0","45860066","wem/bandit_either","AJD3JOWNVDZD1","either","5","","","","","","","1","0","0","0.250352175","","0.4","0.8","0.2","0.6","","","","","0.3592666398","0.07919243683","0.07849065771","0.250352175","","","","","","","76","L","3","","","101","main_expt"
"720","","bandit","180","815829","0.0-141.0-0.0","45860066","wem/bandit_either","AJD3JOWNVDZD1","either","5","","","","","","","0","0","1","","0.2139972863","0.4","0.8","0.2","0.6","0.3412191773","0.1052753188","0.1054267613","0.2139972863","","","","","","","","","","","76","L","3","","","102","main_expt"
"968","","bandit","181","818359","0.0-142.0-0.0","45860066","wem/bandit_either","AJD3JOWNVDZD1","either","5","","","","","","","0","0","1","","0.20092706","0.4","0.8","0.2","0.6","0.3133100433","0.1248526142","0.1120981937","0.20092706","","","","","","","","","","","76","L","3","","","103","main_expt"
"1026","","bandit","182","821088","0.0-143.0-0.0","45860066","wem/bandit_either","AJD3JOWNVDZD1","either","5","","","","","","","0","0","1","","0.2305366804","0.4","0.8","0.2","0.6","0.3219148419","0.142969925","0.1034740879","0.2305366804","","","","","","","","","","","76","L","3","","","104","main_expt"
"837","","bandit","183","823470","0.0-144.0-0.0","45860066","wem/bandit_either","AJD3JOWNVDZD1","either","5","","","","","","","0","0","1","0.2102135581","","0.4","0.8","0.2","0.6","","","","","0.3300892518","0.13947254","0.07597240327","0.2102135581","","","","","","","76","L","3","","","105","main_expt"
"1112","","bandit","184","826167","0.0-145.0-0.0","45860066","wem/bandit_either","AJD3JOWNVDZD1","either","5","","","","","","","0","1","0","","0.3401839058","0.4","0.8","0.2","0.6","0.3401839058","0.1329526997","0.1124257427","0.2219457329","","","","","","","","","","","72","H","0","img/none_selected.jpg","","106","main_expt"
"883","","bandit","185","828598","0.0-146.0-0.0","45860066","wem/bandit_either","AJD3JOWNVDZD1","either","5","","","","","","","0","0","1","","0.3784706915","0.4","0.8","0.2","0.6","0.3784706915","0.1727290233","0.1133168519","0.3048423019","","","","","","","","","","","72","H","0","img/none_selected.jpg","","107","main_expt"
"822","","bandit","186","830982","0.0-147.0-0.0","45860066","wem/bandit_either","AJD3JOWNVDZD1","either","5","","","","","","","0","0","1","0.3945753887","","0.4","0.8","0.2","0.6","","","","","0.3945753887","0.1864487031","0.1752395656","0.258150515","","","","","","","72","H","0","img/none_selected.jpg","","108","main_expt"
"857","","bandit","187","833540","0.0-148.0-0.0","45860066","wem/bandit_either","AJD3JOWNVDZD1","either","5","","","","","","","0","0","1","","0.356827327","0.4","0.8","0.2","0.6","0.356827327","0.2463216238","0.1862973424","0.1859129148","","","","","","","","","","","72","H","0","img/none_selected.jpg","","109","main_expt"
"774","","bandit","188","836099","0.0-149.0-0.0","45860066","wem/bandit_either","AJD3JOWNVDZD1","either","5","","","","","","","0","0","1","","0.2344179837","0.4","0.8","0.2","0.6","0.2344179837","0.2431522628","0.2015845776","0.1371624404","","","","","","","","","","","72","H","0","img/none_selected.jpg","","110","main_expt"
"884","","bandit","189","838532","0.0-150.0-0.0","45860066","wem/bandit_either","AJD3JOWNVDZD1","either","5","","","","","","","1","0","0","0.1258232978","","0.4","0.8","0.2","0.6","","","","","0.2644823096","0.1757476643","0.2003651753","0.1258232978","","","","","","","76","L","3","","","111","main_expt"
"1033","","bandit","190","841116","0.0-151.0-0.0","45860066","wem/bandit_either","AJD3JOWNVDZD1","either","5","","","","","","","0","0","1","","0.1529967373","0.4","0.8","0.2","0.6","0.28311182","0.2451518953","0.21392293","0.1529967373","","","","","","","","","","","76","L","3","","","112","main_expt"
"738","","bandit","191","843421","0.0-152.0-0.0","45860066","wem/bandit_either","AJD3JOWNVDZD1","either","5","","","","","","","1","0","0","0.148248117","","0.4","0.8","0.2","0.6","","","","","0.2413269532","0.2407836715","0.1606798039","0.148248117","","","","","","","76","L","3","","","113","main_expt"
"1092","","bandit","192","846180","0.0-153.0-0.0","45860066","wem/bandit_either","AJD3JOWNVDZD1","either","5","","","","","","","0","0","1","0.1562208239","","0.4","0.8","0.2","0.6","","","","","0.3100969134","0.3099317417","0.2095980235","0.1562208239","","","","","","","76","L","3","","","114","main_expt"
"654","","bandit","193","848600","0.0-154.0-0.0","45860066","wem/bandit_either","AJD3JOWNVDZD1","either","5","","","","","","","0","0","1","","0.2138032898","0.4","0.8","0.2","0.6","0.329842252","0.3180754701","0.2550279667","0.2138032898","","","","","","","","","","","76","L","3","","","115","main_expt"
"677","","bandit","194","850832","0.0-155.0-0.0","45860066","wem/bandit_either","AJD3JOWNVDZD1","either","5","","","","","","","1","0","0","0.2331260325","","0.4","0.8","0.2","0.6","","","","","0.3223706096","0.2919742107","0.2471764387","0.2331260325","","","","","","","76","L","3","","","116","main_expt"
"600","","bandit","195","852997","0.0-156.0-0.0","45860066","wem/bandit_either","AJD3JOWNVDZD1","either","5","","","","","","","0","0","1","0.1826309729","","0.4","0.8","0.2","0.6","","","","","0.3098408215","0.2799774295","0.2730878341","0.1826309729","","","","","","","76","L","3","","","117","main_expt"
"513","","bandit","196","855067","0.0-157.0-0.0","45860066","wem/bandit_either","AJD3JOWNVDZD1","either","5","","","","","","","0","0","1","","0.1511269107","0.4","0.8","0.2","0.6","0.2974554567","0.2646714695","0.2071462199","0.1511269107","","","","","","","","","","","76","L","3","","","118","main_expt"
"662","","bandit","197","857348","0.0-158.0-0.0","45860066","wem/bandit_either","AJD3JOWNVDZD1","either","5","","","","","","","0","1","0","","0.1559979654","0.4","0.8","0.2","0.6","0.3598468986","0.3179839519","0.2275232499","0.1559979654","","","","","","","","","","","76","L","3","","","119","main_expt"
"779","","bandit","198","859860","0.0-159.0-0.0","45860066","wem/bandit_either","AJD3JOWNVDZD1","either","5","","","","","","","0","0","1","","0.1463004055","0.4","0.8","0.2","0.6","0.2984373086","0.3302262658","0.2767559596","0.1463004055","","","","","","","","","","","76","L","3","","","120","main_expt"
"678","","bandit","199","862109","0.0-160.0-0.0","45860066","wem/bandit_either","AJD3JOWNVDZD1","either","5","","","","","","","0","0","1","0.3500549905","","0.4","0.8","0.2","0.6","","","","","0.2973090059","0.3500549905","0.3448590315","0.1418195479","","","","","","","74","J","1","","","121","main_expt"
"721","","bandit","200","864542","0.0-161.0-0.0","45860066","wem/bandit_either","AJD3JOWNVDZD1","either","5","","","","","","","0","0","1","","0.2686616284","0.4","0.8","0.2","0.6","0.3382791822","0.2686616284","0.3593301016","0.1270782113","","","","","","","","","","","74","J","1","","","122","main_expt"
"587","","bandit","201","866684","0.0-162.0-0.0","45860066","wem/bandit_either","AJD3JOWNVDZD1","either","5","","","","","","","0","0","1","","0.3680529171","0.4","0.8","0.2","0.6","0.3154347028","0.2277230314","0.3680529171","0.1207154071","","","","","","","","","","","75","K","2","","","123","main_expt"
"581","","bandit","202","868815","0.0-163.0-0.0","45860066","wem/bandit_either","AJD3JOWNVDZD1","either","5","","","","","","","0","1","0","","0.3476523483","0.4","0.8","0.2","0.6","0.2966737815","0.3287090939","0.3476523483","0.1229329119","","","","","","","","","","","75","K","2","","","124","main_expt"
"616","","bandit","203","871104","0.0-164.0-0.0","45860066","wem/bandit_either","AJD3JOWNVDZD1","either","5","","","","","","","0","1","0","","0.3564603465","0.4","0.8","0.2","0.6","0.3094831126","0.3687339586","0.3564603465","0.09241122996","","","","","","","","","","","75","K","2","","","125","main_expt"
"663","","bandit","204","873311","0.0-165.0-0.0","45860066","wem/bandit_either","AJD3JOWNVDZD1","either","5","","","","","","","0","0","1","","0.3550684458","0.4","0.8","0.2","0.6","0.2488993205","0.3836195774","0.3550684458","0.08418962236","","","","","","","","","","","75","K","2","","","126","main_expt"
"742","","bandit","205","875790","0.0-166.0-0.0","45860066","wem/bandit_either","AJD3JOWNVDZD1","either","5","","","","","","","0","0","1","","0.3235559827","0.4","0.8","0.2","0.6","0.1953487027","0.3617365958","0.3235559827","0.154715772","","","","","","","","","","","75","K","2","","","127","main_expt"
"770","","bandit","206","878120","0.0-167.0-0.0","45860066","wem/bandit_either","AJD3JOWNVDZD1","either","5","","","","","","","0","0","1","","0.312087491","0.4","0.8","0.2","0.6","0.2171889907","0.3235283493","0.312087491","0.1556709078","","","","","","","","","","","75","K","2","","","128","main_expt"
"738","","bandit","207","880413","0.0-168.0-0.0","45860066","wem/bandit_either","AJD3JOWNVDZD1","either","5","","","","","","","0","1","0","","0.2843272188","0.4","0.8","0.2","0.6","0.2467699801","0.3453830546","0.2843272188","0.1214200615","","","","","","","","","","","75","K","2","","","129","main_expt"
"819","","bandit","208","882815","0.0-169.0-0.0","45860066","wem/bandit_either","AJD3JOWNVDZD1","either","5","","","","","","","0","0","1","0.2128416856","","0.4","0.8","0.2","0.6","","","","","0.2814443482","0.3242747857","0.2128416856","0.1377283829","","","","","","","75","K","2","","","130","main_expt"
"659","","bandit","209","885048","0.0-170.0-0.0","45860066","wem/bandit_either","AJD3JOWNVDZD1","either","5","","","","","","","0","0","1","0.2403879813","","0.4","0.8","0.2","0.6","","","","","0.2834176508","0.3417201858","0.2403879813","0.1397421628","","","","","","","75","K","2","","","131","main_expt"
"890","","bandit","210","887498","0.0-171.0-0.0","45860066","wem/bandit_either","AJD3JOWNVDZD1","either","5","","","","","","","0","0","1","","0.2811421594","0.4","0.8","0.2","0.6","0.2429908031","0.3498614837","0.2811421594","0.1061875113","","","","","","","","","","","75","K","2","","","132","main_expt"
"813","","bandit","211","889877","0.0-172.0-0.0","45860066","wem/bandit_either","AJD3JOWNVDZD1","either","5","","","","","","","0","0","1","","0.3002858371","0.4","0.8","0.2","0.6","0.3053559495","0.3134828643","0.3002858371","0.07774811701","","","","","","","","","","","75","K","2","","","133","main_expt"
"779","","bandit","212","892310","0.0-173.0-0.0","45860066","wem/bandit_either","AJD3JOWNVDZD1","either","5","","","","","","","0","1","0","","0.277406375","0.4","0.8","0.2","0.6","0.2693478067","0.3554593188","0.277406375","0.08211281178","","","","","","","","","","","75","K","2","","","134","main_expt"
"908","","bandit","213","894768","0.0-174.0-0.0","45860066","wem/bandit_either","AJD3JOWNVDZD1","either","5","","","","","","","0","0","1","","0.2897147582","0.4","0.8","0.2","0.6","0.3369166079","0.3150900126","0.2897147582","0.1123817552","","","","","","","","","","","75","K","2","","","135","main_expt"
"914","","bandit","214","897240","0.0-175.0-0.0","45860066","wem/bandit_either","AJD3JOWNVDZD1","either","5","","","","","","","0","0","1","","0.3590576628","0.4","0.8","0.2","0.6","0.268603144","0.3199395785","0.3590576628","0.1478339482","","","","","","","","","","","75","K","2","","","136","main_expt"
"1131","","bandit","215","900047","0.0-176.0-0.0","45860066","wem/bandit_either","AJD3JOWNVDZD1","either","5","","","","","","","0","0","1","0.2373427956","","0.4","0.8","0.2","0.6","","","","","0.2373427956","0.33362357","0.3822427384","0.1374936615","","","","","","","72","H","0","img/none_selected.jpg","","137","main_expt"
"567","","bandit","216","902165","0.0-177.0-0.0","45860066","wem/bandit_either","AJD3JOWNVDZD1","either","5","","","","","","","0","0","1","","0.2206869265","0.4","0.8","0.2","0.6","0.2206869265","0.3611324022","0.3410071165","0.159761955","","","","","","","","","","","72","H","0","img/none_selected.jpg","","138","main_expt"
"720","","bandit","217","904600","0.0-178.0-0.0","45860066","wem/bandit_either","AJD3JOWNVDZD1","either","5","","","","","","","1","0","0","0.3504145086","","0.4","0.8","0.2","0.6","","","","","0.2177966349","0.3504145086","0.3738014659","0.1363721132","","","","","","","74","J","1","","","139","main_expt"
"892","","bandit","218","907059","0.0-179.0-0.0","45860066","wem/bandit_either","AJD3JOWNVDZD1","either","5","","","","","","","1","0","0","0.309774603","","0.4","0.8","0.2","0.6","","","","","0.2387685432","0.309774603","0.422575493","0.1031445192","","","","","","","74","J","1","","","140","main_expt"
"895","","bandit","219","909515","0.0-180.0-0.0","45860066","wem/bandit_either","AJD3JOWNVDZD1","either","5","","","","","","","1","0","0","0.3506531288","","0.4","0.8","0.2","0.6","","","","","0.2575087366","0.3506531288","0.4439129864","0.09805286369","","","","","","","74","J","1","","","141","main_expt"
"1263","","bandit","220","912340","0.0-181.0-0.0","45860066","wem/bandit_either","AJD3JOWNVDZD1","either","5","","","","","","","0","0","1","0.2965027242","","0.4","0.8","0.2","0.6","","","","","0.2392038972","0.2965027242","0.4323802182","0.1149002948","","","","","","","74","J","1","","","142","main_expt"
"1044","","bandit","221","914968","0.0-182.0-0.0","45860066","wem/bandit_either","AJD3JOWNVDZD1","either","5","","","","","","","0","0","1","","0.2087517366","0.4","0.8","0.2","0.6","0.2216470548","0.2087517366","0.4358412593","0.1209542099","","","","","","","","","","","74","J","1","","","143","main_expt"
"776","","bandit","222","917390","0.0-183.0-0.0","45860066","wem/bandit_either","AJD3JOWNVDZD1","either","5","","","","","","","0","0","1","0.2313605626","","0.4","0.8","0.2","0.6","","","","","0.2224896139","0.2313605626","0.4407373256","0.1202521083","","","","","","","74","J","1","","","144","main_expt"
"674","","bandit","223","919889","0.0-184.0-0.0","45860066","wem/bandit_either","AJD3JOWNVDZD1","either","5","","","","","","","1","0","0","0.1785565547","","0.4","0.8","0.2","0.6","","","","","0.1925605464","0.1785565547","0.4661091035","0.1619743669","","","","","","","74","J","1","","","145","main_expt"
"743","","bandit","224","922187","0.0-185.0-0.0","45860066","wem/bandit_either","AJD3JOWNVDZD1","either","5","","","","","","","0","0","1","","0.1770660648","0.4","0.8","0.2","0.6","0.2069800611","0.1770660648","0.4637097668","0.1664631043","","","","","","","","","","","74","J","1","","","146","main_expt"
"807","","bandit","225","924549","0.0-186.0-0.0","45860066","wem/bandit_either","AJD3JOWNVDZD1","either","5","","","","","","","0","0","1","0.1063371611","","0.4","0.8","0.2","0.6","","","","","0.2489662189","0.1063371611","0.4700491642","0.1669241763","","","","","","","74","J","1","","","147","main_expt"
"649","","bandit","226","926746","0.0-187.0-0.0","45860066","wem/bandit_either","AJD3JOWNVDZD1","either","5","","","","","","","0","0","1","0.1216370817","","0.4","0.8","0.2","0.6","","","","","0.1946464158","0.1216370817","0.4648109734","0.1581456949","","","","","","","74","J","1","","","148","main_expt"
"465","","bandit","227","928766","0.0-188.0-0.0","45860066","wem/bandit_either","AJD3JOWNVDZD1","either","5","","","","","","","1","0","0","0.1698392466","","0.4","0.8","0.2","0.6","","","","","0.1826562491","0.1024256959","0.4635511513","0.1698392466","","","","","","","76","L","3","","","149","main_expt"
"760","","bandit","228","931088","0.0-189.0-0.0","45860066","wem/bandit_either","AJD3JOWNVDZD1","either","5","","","","","","","0","0","1","0.2140114634","","0.4","0.8","0.2","0.6","","","","","0.1750473563","0.1371094633","0.4445017148","0.2140114634","","","","","","","76","L","3","","","150","main_expt"
"688","","bandit","229","933356","0.0-190.0-0.0","45860066","wem/bandit_either","AJD3JOWNVDZD1","either","5","","","","","","","1","0","0","0.2392960001","","0.4","0.8","0.2","0.6","","","","","0.1109536645","0.1702433702","0.4434799742","0.2392960001","","","","","","","76","L","3","","","151","main_expt"
"943","","bandit","230","935864","0.0-191.0-0.0","45860066","wem/bandit_either","AJD3JOWNVDZD1","either","5","","","","","","","0","0","1","0.2095863317","","0.4","0.8","0.2","0.6","","","","","0.1143086707","0.1860489046","0.4451665291","0.2095863317","","","","","","","76","L","3","","","152","main_expt"
"664","","bandit","231","938096","0.0-192.0-0.0","45860066","wem/bandit_either","AJD3JOWNVDZD1","either","5","","","","","","","1","0","0","0.2543258611","","0.4","0.8","0.2","0.6","","","","","0.1236290712","0.2117094388","0.4401532833","0.2543258611","","","","","","","76","L","3","","","153","main_expt"
"876","","bandit","232","940681","0.0-193.0-0.0","45860066","wem/bandit_either","AJD3JOWNVDZD1","either","5","","","","","","","0","0","1","0.2602259906","","0.4","0.8","0.2","0.6","","","","","0.1600695342","0.2072389033","0.4516855879","0.2602259906","","","","","","","76","L","3","","","154","main_expt"
"608","","bandit","233","942929","0.0-194.0-0.0","45860066","wem/bandit_either","AJD3JOWNVDZD1","either","5","","","","","","","0","0","1","0.2750581274","","0.4","0.8","0.2","0.6","","","","","0.1770288166","0.1986333914","0.4480264808","0.2750581274","","","","","","","76","L","3","","","155","main_expt"
"674","","bandit","234","945161","0.0-195.0-0.0","45860066","wem/bandit_either","AJD3JOWNVDZD1","either","5","","","","","","","1","0","0","0.2438045727","","0.4","0.8","0.2","0.6","","","","","0.1761817894","0.2054640346","0.4260414265","0.2438045727","","","","","","","76","L","3","","","156","main_expt"
"411","","bandit","235","947146","0.0-196.0-0.0","45860066","wem/bandit_either","AJD3JOWNVDZD1","either","5","","","","","","","0","1","0","","0.2857025143","0.4","0.8","0.2","0.6","0.1998830888","0.1810715383","0.4365201507","0.2857025143","","","","","","","","","","","76","L","3","","","157","main_expt"
"541","","bandit","236","949238","0.0-197.0-0.0","45860066","wem/bandit_either","AJD3JOWNVDZD1","either","5","","","","","","","0","0","1","","0.2887719476","0.4","0.8","0.2","0.6","0.2150354531","0.2118906364","0.4076244479","0.2887719476","","","","","","","","","","","76","L","3","","","158","main_expt"
"990","","bandit","237","951782","0.0-198.0-0.0","45860066","wem/bandit_either","AJD3JOWNVDZD1","either","5","","","","","","","0","0","1","0.2859462397","","0.4","0.8","0.2","0.6","","","","","0.2221069796","0.2293976715","0.403953851","0.2859462397","","","","","","","76","L","3","","","159","main_expt"
"900","","bandit","238","954306","0.0-199.0-0.0","45860066","wem/bandit_either","AJD3JOWNVDZD1","either","5","","","","","","","0","0","1","","0.207432816","0.4","0.8","0.2","0.6","0.2627335039","0.2186051381","0.4282135537","0.207432816","","","","","","","","","","","76","L","3","","","160","main_expt"
"770","","bandit","239","956717","0.0-200.0-0.0","45860066","wem/bandit_either","AJD3JOWNVDZD1","either","5","","","","","","","0","1","0","","0.1611694724","0.4","0.8","0.2","0.6","0.2922457848","0.2175927206","0.4479073124","0.1611694724","","","","","","","","","","","76","L","3","","","161","main_expt"
"856","","bandit","240","959133","0.0-201.0-0.0","45860066","wem/bandit_either","AJD3JOWNVDZD1","either","5","","","","","","","0","0","1","","0.14378348","0.4","0.8","0.2","0.6","0.3040212123","0.2370404117","0.4456201243","0.14378348","","","","","","","","","","","76","L","3","","","162","main_expt"
"852","","bandit","241","961544","0.0-202.0-0.0","45860066","wem/bandit_either","AJD3JOWNVDZD1","either","5","","","","","","","0","0","1","","0.1707099899","0.4","0.8","0.2","0.6","0.2933359027","0.2778780432","0.4384930657","0.1707099899","","","","","","","","","","","76","L","3","","","163","main_expt"
"527","","bandit","242","963667","0.0-203.0-0.0","45860066","wem/bandit_either","AJD3JOWNVDZD1","either","5","","","","","","","0","0","1","","0.2388203062","0.4","0.8","0.2","0.6","0.2388203062","0.2643388611","0.4231568034","0.1933693166","","","","","","","","","","","72","H","0","img/none_selected.jpg","","164","main_expt"
"560","","bandit","243","965929","0.0-204.0-0.0","45860066","wem/bandit_either","AJD3JOWNVDZD1","either","5","","","","","","","0","0","1","","0.2646204916","0.4","0.8","0.2","0.6","0.2646204916","0.1967204453","0.4412535734","0.2406324952","","","","","","","","","","","72","H","0","img/none_selected.jpg","","165","main_expt"
"591","","bandit","244","968211","0.0-205.0-0.0","45860066","wem/bandit_either","AJD3JOWNVDZD1","either","5","","","","","","","0","0","1","","0.1567937345","0.4","0.8","0.2","0.6","0.2591758032","0.1567937345","0.438364003","0.2650462377","","","","","","","","","","","74","J","1","","","166","main_expt"
"573","","bandit","245","970344","0.0-206.0-0.0","45860066","wem/bandit_either","AJD3JOWNVDZD1","either","5","","","","","","","0","0","1","0.1201482918","","0.4","0.8","0.2","0.6","","","","","0.1955934818","0.1201482918","0.4290991351","0.245875583","","","","","","","74","J","1","","","167","main_expt"
"387","","bandit","246","972311","0.0-207.0-0.0","45860066","wem/bandit_either","AJD3JOWNVDZD1","either","5","","","","","","","0","0","1","","0.4510860662","0.4","0.8","0.2","0.6","0.2090603634","0.0936051119","0.4510860662","0.257303599","","","","","","","","","","","75","K","2","","","168","main_expt"
"450","","bandit","247","974323","0.0-208.0-0.0","45860066","wem/bandit_either","AJD3JOWNVDZD1","either","5","","","","","","","0","0","1","","0.4491424364","0.4","0.8","0.2","0.6","0.2678479696","0.08775096918","0.4491424364","0.2993732043","","","","","","","","","","","75","K","2","","","169","main_expt"
"318","","bandit","248","976231","0.0-209.0-0.0","45860066","wem/bandit_either","AJD3JOWNVDZD1","either","5","","","","","","","0","0","1","0.3388977639","","0.4","0.8","0.2","0.6","","","","","0.2532125956","0.06743429675","0.4332244901","0.3388977639","","","","","","","76","L","3","","","170","main_expt"
"554","","bandit","249","978357","0.0-210.0-0.0","45860066","wem/bandit_either","AJD3JOWNVDZD1","either","5","","","","","","","1","0","0","0.2947926635","","0.4","0.8","0.2","0.6","","","","","0.2568627054","0.05979118822","0.4405036994","0.2947926635","","","","","","","76","L","3","","","171","main_expt"
"602","","bandit","250","980687","0.0-211.0-0.0","45860066","wem/bandit_either","AJD3JOWNVDZD1","either","5","","","","","","","0","0","1","0.2892529657","","0.4","0.8","0.2","0.6","","","","","0.2451563353","0.03200499914","0.4358521759","0.2892529657","","","","","","","76","L","3","","","172","main_expt"
"561","","bandit","251","982905","0.0-212.0-0.0","45860066","wem/bandit_either","AJD3JOWNVDZD1","either","5","","","","","","","0","0","1","","0.2571917514","0.4","0.8","0.2","0.6","0.3003395367","0.04613358223","0.4471617722","0.2571917514","","","","","","","","","","","76","L","3","","","173","main_expt"
"646","","bandit","252","985217","0.0-213.0-0.0","45860066","wem/bandit_either","AJD3JOWNVDZD1","either","5","","","","","","","0","0","1","0.244173221","","0.4","0.8","0.2","0.6","","","","","0.2545998681","0.05969677181","0.4560251174","0.244173221","","","","","","","76","L","3","","","174","main_expt"
"733","","bandit","253","987671","0.0-214.0-0.0","45860066","wem/bandit_either","AJD3JOWNVDZD1","either","5","","","","","","","0","0","1","","0.2038098688","0.4","0.8","0.2","0.6","0.3383135611","0.05930066603","0.4379349024","0.2038098688","","","","","","","","","","","76","L","3","","","175","main_expt"
"548","","bandit","254","989772","0.0-215.0-0.0","45860066","wem/bandit_either","AJD3JOWNVDZD1","either","5","","","","","","","0","0","1","","0.2053823003","0.4","0.8","0.2","0.6","0.3880627729","0.08110879181","0.4328841116","0.2053823003","","","","","","","","","","","76","L","3","","","176","main_expt"
"457","","bandit","255","991784","0.0-216.0-0.0","45860066","wem/bandit_either","AJD3JOWNVDZD1","either","5","","","","","","","0","0","1","","0.2193083282","0.4","0.8","0.2","0.6","0.3920994557","0.07611568943","0.3965365967","0.2193083282","","","","","","","","","","","76","L","3","","","177","main_expt"
"412","","bandit","256","993750","0.0-217.0-0.0","45860066","wem/bandit_either","AJD3JOWNVDZD1","either","5","","","","","","","0","0","1","","0.1904263594","0.4","0.8","0.2","0.6","0.3882277994","0.1220467165","0.3899234309","0.1904263594","","","","","","","","","","","76","L","3","","","178","main_expt"
"673","","bandit","257","995982","0.0-218.0-0.0","45860066","wem/bandit_either","AJD3JOWNVDZD1","either","5","","","","","","","0","0","1","","0.4238443777","0.4","0.8","0.2","0.6","0.3939691408","0.1698853315","0.4238443777","0.2212788648","","","","","","","","","","","75","K","2","","","179","main_expt"
"496","","bandit","258","998096","0.0-219.0-0.0","45860066","wem/bandit_either","AJD3JOWNVDZD1","either","5","","","","","","","0","0","1","","0.4487400994","0.4","0.8","0.2","0.6","0.4074656662","0.1374762061","0.4487400994","0.2640717145","","","","","","","","","","","75","K","2","","","180","main_expt"
"573","","bandit","259","1000225","0.0-220.0-0.0","45860066","wem/bandit_either","AJD3JOWNVDZD1","either","5","","","","","","","0","0","1","0.09961924189","","0.4","0.8","0.2","0.6","","","","","0.3724421945","0.09961924189","0.4314573438","0.2426483564","","","","","","","74","J","1","","","181","main_expt"
"581","","bandit","260","1002410","0.0-221.0-0.0","45860066","wem/bandit_either","AJD3JOWNVDZD1","either","5","","","","","","","0","0","1","0.1391043194","","0.4","0.8","0.2","0.6","","","","","0.2998177931","0.1391043194","0.4458059303","0.2001563476","","","","","","","74","J","1","","","182","main_expt"
"620","","bandit","261","1004588","0.0-222.0-0.0","45860066","wem/bandit_either","AJD3JOWNVDZD1","either","5","","","","","","","0","0","1","0.1336424596","","0.4","0.8","0.2","0.6","","","","","0.3629728763","0.1336424596","0.4485460149","0.2167094124","","","","","","","74","J","1","","","183","main_expt"
"416","","bandit","262","1006566","0.0-223.0-0.0","45860066","wem/bandit_either","AJD3JOWNVDZD1","either","5","","","","","","","0","1","0","","0.3763603645","0.4","0.8","0.2","0.6","0.3763603645","0.115911235","0.4078350507","0.2402813617","","","","","","","","","","","72","H","0","img/none_selected.jpg","","184","main_expt"
"496","","bandit","263","1008632","0.0-224.0-0.0","45860066","wem/bandit_either","AJD3JOWNVDZD1","either","5","","","","","","","0","1","0","","0.3472982705","0.4","0.8","0.2","0.6","0.3472982705","0.1394203739","0.3805788675","0.2745112141","","","","","","","","","","","72","H","0","img/none_selected.jpg","","185","main_expt"
"628","","bandit","264","1010821","0.0-225.0-0.0","45860066","wem/bandit_either","AJD3JOWNVDZD1","either","5","","","","","","","0","0","1","0.3095995051","","0.4","0.8","0.2","0.6","","","","","0.3095995051","0.1557479742","0.4236809331","0.2774566956","","","","","","","72","H","0","img/none_selected.jpg","","186","main_expt"
"378","","bandit","265","1012750","0.0-226.0-0.0","45860066","wem/bandit_either","AJD3JOWNVDZD1","either","5","","","","","","","0","1","0","","0.2567332284","0.4","0.8","0.2","0.6","0.2567332284","0.1823611596","0.4058627081","0.2876011691","","","","","","","","","","","72","H","0","img/none_selected.jpg","","187","main_expt"
"500","","bandit","266","1014816","0.0-227.0-0.0","45860066","wem/bandit_either","AJD3JOWNVDZD1","either","5","","","","","","","0","0","1","0.2555256861","","0.4","0.8","0.2","0.6","","","","","0.2555256861","0.1854179297","0.3913346521","0.2947112378","","","","","","","72","H","0","img/none_selected.jpg","","188","main_expt"
"502","","bandit","267","1017018","0.0-228.0-0.0","45860066","wem/bandit_either","AJD3JOWNVDZD1","either","5","","","","","","","0","0","1","","0.2009875262","0.4","0.8","0.2","0.6","0.2009875262","0.1875645599","0.3760164219","0.2581494","","","","","","","","","","","72","H","0","img/none_selected.jpg","","189","main_expt"
"512","","bandit","268","1019127","0.0-229.0-0.0","45860066","wem/bandit_either","AJD3JOWNVDZD1","either","5","","","","","","","1","0","0","0.2055488595","","0.4","0.8","0.2","0.6","","","","","0.2055488595","0.2018323604","0.3327352817","0.1756323468","","","","","","","72","H","0","img/none_selected.jpg","","190","main_expt"
"741","","bandit","269","1021615","0.0-230.0-0.0","45860066","wem/bandit_either","AJD3JOWNVDZD1","either","5","","","","","","","0","1","0","","0.1506387864","0.4","0.8","0.2","0.6","0.1506387864","0.221094727","0.3015177445","0.2521570866","","","","","","","","","","","72","H","0","img/none_selected.jpg","","191","main_expt"
"731","","bandit","270","1023901","0.0-231.0-0.0","45860066","wem/bandit_either","AJD3JOWNVDZD1","either","5","","","","","","","0","0","1","0.2027442266","","0.4","0.8","0.2","0.6","","","","","0.2027442266","0.2320570195","0.2773298268","0.2964739449","","","","","","","72","H","0","img/none_selected.jpg","","192","main_expt"
"758","","bandit","271","1026216","0.0-232.0-0.0","45860066","wem/bandit_either","AJD3JOWNVDZD1","either","5","","","","","","","1","0","0","0.1969137872","","0.4","0.8","0.2","0.6","","","","","0.1969137872","0.2948950962","0.2836613797","0.2612966838","","","","","","","72","H","0","img/none_selected.jpg","","193","main_expt"
"663","","bandit","272","1028534","0.0-233.0-0.0","45860066","wem/bandit_either","AJD3JOWNVDZD1","either","5","","","","","","","0","0","1","","0.2114994946","0.4","0.8","0.2","0.6","0.2114994946","0.2602906927","0.2799350415","0.3292914436","","","","","","","","","","","72","H","0","img/none_selected.jpg","","194","main_expt"
"686","","bandit","273","1030918","0.0-234.0-0.0","45860066","wem/bandit_either","AJD3JOWNVDZD1","either","5","","","","","","","1","0","0","0.2467939011","","0.4","0.8","0.2","0.6","","","","","0.2467939011","0.1771499101","0.2068597772","0.4070308407","","","","","","","72","H","0","img/none_selected.jpg","","195","main_expt"
"715","","bandit","274","1033184","0.0-235.0-0.0","45860066","wem/bandit_either","AJD3JOWNVDZD1","either","5","","","","","","","0","0","1","0.2731811988","","0.4","0.8","0.2","0.6","","","","","0.2731811988","0.1746274925","0.2679469531","0.3494820729","","","","","","","72","H","0","img/none_selected.jpg","","196","main_expt"
"504","","bandit","275","1035395","0.0-236.0-0.0","45860066","wem/bandit_either","AJD3JOWNVDZD1","either","5","","","","","","","0","0","1","0.2512114903","","0.4","0.8","0.2","0.6","","","","","0.2512114903","0.193224684","0.2448078588","0.3571939809","","","","","","","72","H","0","img/none_selected.jpg","","197","main_expt"
"432","","bandit","276","1037386","0.0-237.0-0.0","45860066","wem/bandit_either","AJD3JOWNVDZD1","either","5","","","","","","","0","0","1","","0.190651112","0.4","0.8","0.2","0.6","0.190651112","0.1771509929","0.2433987968","0.382430028","","","","","","","","","","","72","H","0","img/none_selected.jpg","","198","main_expt"
"432","","bandit","277","1039386","0.0-238.0-0.0","45860066","wem/bandit_either","AJD3JOWNVDZD1","either","5","","","","","","","0","0","1","","0.1701189695","0.4","0.8","0.2","0.6","0.1701189695","0.2466668772","0.2653624242","0.3353474301","","","","","","","","","","","72","H","0","img/none_selected.jpg","","199","main_expt"
"568","","bandit","278","1041510","0.0-239.0-0.0","45860066","wem/bandit_either","AJD3JOWNVDZD1","either","5","","","","","","","0","0","1","0.1656975488","","0.4","0.8","0.2","0.6","","","","","0.1656975488","0.2477816141","0.2551376492","0.3321976498","","","","","","","72","H","0","img/none_selected.jpg","","200","main_expt"
"424","","bandit","279","1043506","0.0-240.0-0.0","45860066","wem/bandit_either","AJD3JOWNVDZD1","either","5","","","","","","","0","0","1","0.2660639347","","0.4","0.8","0.2","0.6","","","","","0.1647298582","0.2744817861","0.2660639347","0.3218117355","","","","","","","75","K","2","","","201","main_expt"
"459","","bandit","280","1045617","0.0-241.0-0.0","45860066","wem/bandit_either","AJD3JOWNVDZD1","either","5","","","","","","","0","0","1","","0.2220900594","0.4","0.8","0.2","0.6","0.1242041815","0.3043062986","0.2220900594","0.2949214693","","","","","","","","","","","75","K","2","","","202","main_expt"
"360","","bandit","281","1047537","0.0-242.0-0.0","45860066","wem/bandit_either","AJD3JOWNVDZD1","either","5","","","","","","","0","0","1","0.272185569","","0.4","0.8","0.2","0.6","","","","","0.1684487429","0.272185569","0.1543353204","0.300077299","","","","","","","74","J","1","","","203","main_expt"
"421","","bandit","282","1049563","0.0-243.0-0.0","45860066","wem/bandit_either","AJD3JOWNVDZD1","either","5","","","","","","","0","0","1","0.2610767704","","0.4","0.8","0.2","0.6","","","","","0.1666409686","0.2610767704","0.1605482003","0.2866085977","","","","","","","74","J","1","","","204","main_expt"
"366","","bandit","283","1051682","0.0-244.0-0.0","45860066","wem/bandit_either","AJD3JOWNVDZD1","either","5","","","","","","","0","0","1","","0.2197286508","0.4","0.8","0.2","0.6","0.2197286508","0.2832615928","0.1406914754","0.2695546272","","","","","","","","","","","72","H","0","img/none_selected.jpg","","205","main_expt"
"308","","bandit","284","1053563","0.0-245.0-0.0","45860066","wem/bandit_either","AJD3JOWNVDZD1","either","5","","","","","","","0","0","1","","0.2622178416","0.4","0.8","0.2","0.6","0.2754509052","0.300913322","0.1138947463","0.2622178416","","","","","","","","","","","76","L","3","","","206","main_expt"
"441","","bandit","285","1057004","0.0-246.0-0.0","45860066","wem/bandit_either","AJD3JOWNVDZD1","either","5","","","","","","","1","0","0","0.2498186578","","0.4","0.8","0.2","0.6","","","","","0.2664869377","0.3260258847","0.1096702189","0.2498186578","","","","","","","76","L","3","","","207","main_expt"
"1880","","bandit","286","1060637","0.0-247.0-0.0","45860066","wem/bandit_either","AJD3JOWNVDZD1","either","5","","","","","","","0","0","1","0.2335358635","","0.4","0.8","0.2","0.6","","","","","0.2686565688","0.3173829003","0.09922356593","0.2335358635","","","","","","","76","L","3","","","208","main_expt"
"558","","bandit","287","1062872","0.0-248.0-0.0","45860066","wem/bandit_either","AJD3JOWNVDZD1","either","5","","","","","","","0","0","1","0.2638942681","","0.4","0.8","0.2","0.6","","","","","0.2380255957","0.3153846937","0.101567507","0.2638942681","","","","","","","76","L","3","","","209","main_expt"
"739","","bandit","288","1065195","0.0-249.0-0.0","45860066","wem/bandit_either","AJD3JOWNVDZD1","either","5","","","","","","","0","0","1","","0.2526926237","0.4","0.8","0.2","0.6","0.2507768727","0.3010876552","0.08675379402","0.2526926237","","","","","","","","","","","76","L","3","","","210","main_expt"
"584","","bandit","289","1067475","0.0-250.0-0.0","45860066","wem/bandit_either","AJD3JOWNVDZD1","either","5","","","","","","","0","0","1","","0.2740367769","0.4","0.8","0.2","0.6","0.2685142319","0.2864900033","0.07512021269","0.2740367769","","","","","","","","","","","76","L","3","","","211","main_expt"
"380","","bandit","290","1069620","0.0-251.0-0.0","45860066","wem/bandit_either","AJD3JOWNVDZD1","either","5","","","","","","","0","0","1","","0.260511483","0.4","0.8","0.2","0.6","0.260511483","0.3163372434","0.08144254236","0.2440836191","","","","","","","","","","","72","H","0","img/none_selected.jpg","","212","main_expt"
"409","","bandit","291","1071610","0.0-252.0-0.0","45860066","wem/bandit_either","AJD3JOWNVDZD1","either","5","","","","","","","0","0","1","0.2579605047","","0.4","0.8","0.2","0.6","","","","","0.2579605047","0.2701305136","0.06585574052","0.2341903104","","","","","","","72","H","0","img/none_selected.jpg","","213","main_expt"
"533","","bandit","292","1073775","0.0-253.0-0.0","45860066","wem/bandit_either","AJD3JOWNVDZD1","either","5","","","","","","","0","0","1","","0.2470456849","0.4","0.8","0.2","0.6","0.2470456849","0.302599165","0.08686614453","0.2097526345","","","","","","","","","","","72","H","0","img/none_selected.jpg","","214","main_expt"
"450","","bandit","293","1075918","0.0-254.0-0.0","45860066","wem/bandit_either","AJD3JOWNVDZD1","either","5","","","","","","","0","0","1","0.1068548489","","0.4","0.8","0.2","0.6","","","","","0.3285383036","0.2968005471","0.1068548489","0.1796882487","","","","","","","75","K","2","","","215","main_expt"
"346","","bandit","294","1077848","0.0-255.0-0.0","45860066","wem/bandit_either","AJD3JOWNVDZD1","either","5","","","","","","","0","0","1","","0.1211736082","0.4","0.8","0.2","0.6","0.3780044773","0.2835536598","0.1211736082","0.2237900511","","","","","","","","","","","75","K","2","","","216","main_expt"
"499","","bandit","295","1079912","0.0-256.0-0.0","45860066","wem/bandit_either","AJD3JOWNVDZD1","either","5","","","","","","","0","0","1","","0.09343701815","0.4","0.8","0.2","0.6","0.3939228946","0.2520762718","0.09343701815","0.2265358539","","","","","","","","","","","75","K","2","","","217","main_expt"
"562","","bandit","296","1082060","0.0-257.0-0.0","45860066","wem/bandit_either","AJD3JOWNVDZD1","either","5","","","","","","","0","0","1","0.2562699476","","0.4","0.8","0.2","0.6","","","","","0.3198270803","0.2562699476","0.1001055386","0.2364013437","","","","","","","74","J","1","","","218","main_expt"
"325","","bandit","297","1083950","0.0-258.0-0.0","45860066","wem/bandit_either","AJD3JOWNVDZD1","either","5","","","","","","","0","0","1","0.3002431464","","0.4","0.8","0.2","0.6","","","","","0.3502502288","0.3002431464","0.09524874014","0.2810560361","","","","","","","74","J","1","","","219","main_expt"
"357","","bandit","298","1085873","0.0-259.0-0.0","45860066","wem/bandit_either","AJD3JOWNVDZD1","either","5","","","","","","","0","0","1","0.3365413303","","0.4","0.8","0.2","0.6","","","","","0.3402456168","0.3365413303","0.1304899995","0.3027429446","","","","","","","74","J","1","","","220","main_expt"
"309","","bandit","299","1087834","0.0-260.0-0.0","45860066","wem/bandit_either","AJD3JOWNVDZD1","either","5","","","","","","","1","0","0","0.2946103072","","0.4","0.8","0.2","0.6","","","","","0.3770059732","0.2946103072","0.1272814923","0.3132134988","","","","","","","74","J","1","","","221","main_expt"
"323","","bandit","300","1089735","0.0-261.0-0.0","45860066","wem/bandit_either","AJD3JOWNVDZD1","either","5","","","","","","","0","0","1","","0.3267284332","0.4","0.8","0.2","0.6","0.3864421123","0.3267284332","0.1654407056","0.2424821827","","","","","","","","","","","74","J","1","","","222","main_expt"
"321","","bandit","301","1091622","0.0-262.0-0.0","45860066","wem/bandit_either","AJD3JOWNVDZD1","either","5","","","","","","","0","0","1","0.3175152631","","0.4","0.8","0.2","0.6","","","","","0.4205211408","0.3175152631","0.1788325852","0.2595367495","","","","","","","74","J","1","","","223","main_expt"
"304","","bandit","302","1093483","0.0-263.0-0.0","45860066","wem/bandit_either","AJD3JOWNVDZD1","either","5","","","","","","","0","0","1","0.3192400935","","0.4","0.8","0.2","0.6","","","","","0.4131889957","0.3192400935","0.1736623033","0.328819141","","","","","","","74","J","1","","","224","main_expt"
"399","","bandit","303","1095526","0.0-264.0-0.0","45860066","wem/bandit_either","AJD3JOWNVDZD1","either","5","","","","","","","1","0","0","0.3096750449","","0.4","0.8","0.2","0.6","","","","","0.4001513574","0.3096750449","0.1721911447","0.356121412","","","","","","","74","J","1","","","225","main_expt"
"324","","bandit","304","1097512","0.0-265.0-0.0","45860066","wem/bandit_either","AJD3JOWNVDZD1","either","5","","","","","","","1","0","0","0.3142833063","","0.4","0.8","0.2","0.6","","","","","0.3963688582","0.3142833063","0.2133818582","0.3394019192","","","","","","","74","J","1","","","226","main_expt"
"563","","bandit","305","1099635","0.0-266.0-0.0","45860066","wem/bandit_either","AJD3JOWNVDZD1","either","5","","","","","","","1","0","0","0.3096885674","","0.4","0.8","0.2","0.6","","","","","0.3979714495","0.3096885674","0.2620007467","0.2860553004","","","","","","","74","J","1","","","227","main_expt"
"514","","bandit","306","1101707","0.0-267.0-0.0","45860066","wem/bandit_either","AJD3JOWNVDZD1","either","5","","","","","","","0","0","1","","0.3048295172","0.4","0.8","0.2","0.6","0.3811043637","0.3048295172","0.2961930455","0.2967856672","","","","","","","","","","","74","J","1","","","228","main_expt"
"405","","bandit","307","1103677","0.0-268.0-0.0","45860066","wem/bandit_either","AJD3JOWNVDZD1","either","5","","","","","","","0","0","1","0.2553920021","","0.4","0.8","0.2","0.6","","","","","0.3488149186","0.2553920021","0.3081123415","0.2857745529","","","","","","","74","J","1","","","229","main_expt"
"371","","bandit","308","1105605","0.0-269.0-0.0","45860066","wem/bandit_either","AJD3JOWNVDZD1","either","5","","","","","","","0","0","1","0.2783794412","","0.4","0.8","0.2","0.6","","","","","0.2883621188","0.2783794412","0.3027177586","0.2589404948","","","","","","","74","J","1","","","230","main_expt"
"345","","bandit","309","1107538","0.0-270.0-0.0","45860066","wem/bandit_either","AJD3JOWNVDZD1","either","5","","","","","","","0","0","1","0.2735536708","","0.4","0.8","0.2","0.6","","","","","0.2444465504","0.2735536708","0.2495346478","0.2628441024","","","","","","","74","J","1","","","231","main_expt"
"376","","bandit","310","1109479","0.0-271.0-0.0","45860066","wem/bandit_either","AJD3JOWNVDZD1","either","5","","","","","","","0","0","1","0.2262440502","","0.4","0.8","0.2","0.6","","","","","0.2996930955","0.2262440502","0.2185872191","0.276537748","","","","","","","74","J","1","","","232","main_expt"
"468","","bandit","311","1111655","0.0-272.0-0.0","45860066","wem/bandit_either","AJD3JOWNVDZD1","either","5","","","","","","","0","0","1","","0.2171974885","0.4","0.8","0.2","0.6","0.3103031796","0.2171974885","0.1874863907","0.2485723575","","","","","","","","","","","74","J","1","","","233","main_expt"
"354","","bandit","312","1113595","0.0-273.0-0.0","45860066","wem/bandit_either","AJD3JOWNVDZD1","either","5","","","","","","","0","0","1","","0.2165838284","0.4","0.8","0.2","0.6","0.2971988612","0.2951485073","0.2165838284","0.2172766866","","","","","","","","","","","75","K","2","","","234","main_expt"
"458","","bandit","313","1115697","0.0-274.0-0.0","45860066","wem/bandit_either","AJD3JOWNVDZD1","either","5","","","","","","","0","0","1","","0.1791302586","0.4","0.8","0.2","0.6","0.3266576642","0.3135740045","0.1791302586","0.221542824","","","","","","","","","","","75","K","2","","","235","main_expt"
"483","","bandit","314","1117762","0.0-275.0-0.0","45860066","wem/bandit_either","AJD3JOWNVDZD1","either","5","","","","","","","0","0","1","","0.2200573756","0.4","0.8","0.2","0.6","0.3596878827","0.2945285262","0.2463713802","0.2200573756","","","","","","","","","","","76","L","3","","","236","main_expt"
"441","","bandit","315","1119770","0.0-276.0-0.0","45860066","wem/bandit_either","AJD3JOWNVDZD1","either","5","","","","","","","0","0","1","0.2146478317","","0.4","0.8","0.2","0.6","","","","","0.3951370387","0.2797454337","0.2204623923","0.2146478317","","","","","","","76","L","3","","","237","main_expt"
"977","","bandit","316","1122767","0.0-277.0-0.0","45860066","wem/bandit_either","AJD3JOWNVDZD1","either","5","","","","","","","0","0","1","0.3863552979","","0.4","0.8","0.2","0.6","","","","","0.3863552979","0.266453507","0.2316256556","0.2237656472","","","","","","","72","H","0","img/none_selected.jpg","","238","main_expt"
"1043","","bandit","317","1125433","0.0-278.0-0.0","45860066","wem/bandit_either","AJD3JOWNVDZD1","either","5","","","","","","","0","0","1","","0.3962704677","0.4","0.8","0.2","0.6","0.3962704677","0.310831157","0.2406304147","0.2302611888","","","","","","","","","","","72","H","0","img/none_selected.jpg","","239","main_expt"
"349","","bandit","318","1127361","0.0-279.0-0.0","45860066","wem/bandit_either","AJD3JOWNVDZD1","either","5","","","","","","","0","0","1","","0.331950591","0.4","0.8","0.2","0.6","0.3926977495","0.331950591","0.2624476398","0.2253069634","","","","","","","","","","","74","J","1","","","240","main_expt"
"481","","bandit","319","1129410","0.0-280.0-0.0","45860066","wem/bandit_either","AJD3JOWNVDZD1","either","5","","","","","","","0","0","1","0.3223776605","","0.4","0.8","0.2","0.6","","","","","0.3381110468","0.3223776605","0.2627099727","0.2523404353","","","","","","","74","J","1","","","241","main_expt"
"363","","bandit","320","1131429","0.0-281.0-0.0","45860066","wem/bandit_either","AJD3JOWNVDZD1","either","5","","","","","","","1","0","0","0.3389272588","","0.4","0.8","0.2","0.6","","","","","0.3213381148","0.3389272588","0.2262339403","0.238450381","","","","","","","74","J","1","","","242","main_expt"
"341","","bandit","321","1133335","0.0-282.0-0.0","45860066","wem/bandit_either","AJD3JOWNVDZD1","either","5","","","","","","","1","0","0","0.4023830898","","0.4","0.8","0.2","0.6","","","","","0.3395415742","0.4023830898","0.2511573395","0.2476478509","","","","","","","74","J","1","","","243","main_expt"
"504","","bandit","322","1135425","0.0-283.0-0.0","45860066","wem/bandit_either","AJD3JOWNVDZD1","either","5","","","","","","","0","1","0","","0.4072225753","0.4","0.8","0.2","0.6","0.3077285799","0.4072225753","0.3112309098","0.2603762171","","","","","","","","","","","74","J","1","","","244","main_expt"
"467","","bandit","323","1137467","0.0-284.0-0.0","45860066","wem/bandit_either","AJD3JOWNVDZD1","either","5","","","","","","","0","0","1","0.4047901721","","0.4","0.8","0.2","0.6","","","","","0.269997398","0.4047901721","0.3169667097","0.2778117757","","","","","","","74","J","1","","","245","main_expt"
"332","","bandit","324","1139371","0.0-285.0-0.0","45860066","wem/bandit_either","AJD3JOWNVDZD1","either","5","","","","","","","0","0","1","0.4245844383","","0.4","0.8","0.2","0.6","","","","","0.2896792764","0.4245844383","0.3774934029","0.2571702875","","","","","","","74","J","1","","","246","main_expt"
"475","","bandit","325","1141417","0.0-286.0-0.0","45860066","wem/bandit_either","AJD3JOWNVDZD1","either","5","","","","","","","1","0","0","0.4425022826","","0.4","0.8","0.2","0.6","","","","","0.3079745892","0.4425022826","0.3592590195","0.2790325972","","","","","","","74","J","1","","","247","main_expt"
"610","","bandit","326","1143588","0.0-287.0-0.0","45860066","wem/bandit_either","AJD3JOWNVDZD1","either","5","","","","","","","0","0","1","0.4454461089","","0.4","0.8","0.2","0.6","","","","","0.2306801962","0.4454461089","0.3659800935","0.2665328125","","","","","","","74","J","1","","","248","main_expt"
"489","","bandit","327","1145661","0.0-288.0-0.0","45860066","wem/bandit_either","AJD3JOWNVDZD1","either","5","","","","","","","0","0","1","0.4565985803","","0.4","0.8","0.2","0.6","","","","","0.2363838343","0.4565985803","0.3940863056","0.2666328085","","","","","","","74","J","1","","","249","main_expt"
"597","","bandit","328","1147842","0.0-289.0-0.0","45860066","wem/bandit_either","AJD3JOWNVDZD1","either","5","","","","","","","0","0","1","0.4666950096","","0.4","0.8","0.2","0.6","","","","","0.2865845142","0.4666950096","0.3652193683","0.2637425143","","","","","","","74","J","1","","","250","main_expt"
"573","","bandit","329","1149994","0.0-290.0-0.0","45860066","wem/bandit_either","AJD3JOWNVDZD1","either","5","","","","","","","1","0","0","0.3041279159","","0.4","0.8","0.2","0.6","","","","","0.3527425442","0.4491167865","0.3118516898","0.3041279159","","","","","","","76","L","3","","","251","main_expt"
"611","","bandit","330","1152184","0.0-291.0-0.0","45860066","wem/bandit_either","AJD3JOWNVDZD1","either","5","","","","","","","0","0","1","","0.3054217384","0.4","0.8","0.2","0.6","0.3236638898","0.4512042396","0.3291033061","0.3054217384","","","","","","","","","","","76","L","3","","","252","main_expt"
"725","","bandit","331","1154530","0.0-292.0-0.0","45860066","wem/bandit_either","AJD3JOWNVDZD1","either","5","","","","","","","0","0","1","0.3241125582","","0.4","0.8","0.2","0.6","","","","","0.2905162115","0.4572977034","0.35413613","0.3241125582","","","","","","","76","L","3","","","253","main_expt"
"427","","bandit","332","1156691","0.0-293.0-0.0","45860066","wem/bandit_either","AJD3JOWNVDZD1","either","5","","","","","","","1","0","0","0.3512447021","","0.4","0.8","0.2","0.6","","","","","0.2486268238","0.4550853681","0.2644422317","0.3512447021","","","","","","","76","L","3","","","254","main_expt"
