"rt","responses","trial_type","trial_index","time_elapsed","internal_node_id","subjID","study","MID","cond","drift","key_press","expt_phase","target","like","value","connected","gems","bombs","no_reward","GemPrChosen","BombPrChosen","GainOverPainPr_0","GainOverPainPr_1","GainOverPainPr_2","GainOverPainPr_3","LosePr_0","LosePr_1","LosePr_2","LosePr_3","WinPr_0","WinPr_1","WinPr_2","WinPr_3","Q0","Q1","Q2","gender","age","ethnicity","respCharCode","respKey","respChoiceNum","respChoice","practice","trial_counter","trial_label"
"2835","{""Q0"":""A2W59CL4UQ3S4S""}","survey-text","0","2841","0.0-0.0","47434585","wem/bandit_either","A2W59CL4UQ3S4S","either","2","","","","","","","","","","","","","","","","","","","","","","","","","","","","","","","","","","","",""
"7596","","text","1","11440","0.0-1.0","47434585","wem/bandit_either","A2W59CL4UQ3S4S","either","2","32","","","","","","","","","","","","","","","","","","","","","","","","","","","","","","","","","","",""
"3380","","text","2","14822","0.0-2.0","47434585","wem/bandit_either","A2W59CL4UQ3S4S","either","2","32","","","","","","","","","","","","","","","","","","","","","","","","","","","","","","","","","","",""
"15910","","text","3","30734","0.0-3.0","47434585","wem/bandit_either","A2W59CL4UQ3S4S","either","2","32","","","","","","","","","","","","","","","","","","","","","","","","","","","","","","","","","","",""
"9031","","text","4","39766","0.0-4.0","47434585","wem/bandit_either","A2W59CL4UQ3S4S","either","2","32","","","","","","","","","","","","","","","","","","","","","","","","","","","","","","","","","","",""
"18263","","text","5","58030","0.0-5.0","47434585","wem/bandit_either","A2W59CL4UQ3S4S","either","2","32","","","","","","","","","","","","","","","","","","","","","","","","","","","","","","","","","","",""
"6975","","text","6","65006","0.0-6.0","47434585","wem/bandit_either","A2W59CL4UQ3S4S","either","2","32","","","","","","","","","","","","","","","","","","","","","","","","","","","","","","","","","","",""
"5918","","text","7","70926","0.0-7.0","47434585","wem/bandit_either","A2W59CL4UQ3S4S","either","2","32","","","","","","","","","","","","","","","","","","","","","","","","","","","","","","","","","","",""
"11101","","identification","8","82039","0.0-8.0-0.0","47434585","wem/bandit_either","A2W59CL4UQ3S4S","either","2","","identification_pre","the village of Zur","","","","","","","","","","","","","","","","","","","","","","","","","","","","","","","","",""
"2877","","identification","9","85927","0.0-8.0-1.0","47434585","wem/bandit_either","A2W59CL4UQ3S4S","either","2","","identification_pre","the village of Nyx","","","","","","","","","","","","","","","","","","","","","","","","","","","","","","","","",""
"3278","","text","10","90207","0.0-9.0","47434585","wem/bandit_either","A2W59CL4UQ3S4S","either","2","32","","","","","","","","","","","","","","","","","","","","","","","","","","","","","","","","","","",""
"2422","","text","11","92630","0.0-10.0","47434585","wem/bandit_either","A2W59CL4UQ3S4S","either","2","32","","","","","","","","","","","","","","","","","","","","","","","","","","","","","","","","","","",""
"1407","","text","12","94038","0.0-11.0","47434585","wem/bandit_either","A2W59CL4UQ3S4S","either","2","32","","","","","","","","","","","","","","","","","","","","","","","","","","","","","","","","","","",""
"2447","","text","13","96486","0.0-12.0","47434585","wem/bandit_either","A2W59CL4UQ3S4S","either","2","32","","","","","","","","","","","","","","","","","","","","","","","","","","","","","","","","","","",""
"1556","","bandit","14","99550","0.0-13.0-0.0","47434585","wem/bandit_either","A2W59CL4UQ3S4S","either","2","","","","","","","0","0","1","0","0","","","","","0","","","","0","","","","","","","","","","74","J","0","img/none_selected_demo.jpg","true","0",""
"1326","","bandit","15","102381","0.0-14.0-0.0","47434585","wem/bandit_either","A2W59CL4UQ3S4S","either","2","","","","","","","0","0","1","0","0","","","","","0","","","","0","","","","","","","","","","75","K","0","img/none_selected_demo.jpg","true","0",""
"3311","","text","16","105693","0.0-15.0","47434585","wem/bandit_either","A2W59CL4UQ3S4S","either","2","32","","","","","","","","","","","","","","","","","","","","","","","","","","","","","","","","","","",""
"1103","","text","17","106798","0.0-16.0","47434585","wem/bandit_either","A2W59CL4UQ3S4S","either","2","32","","","","","","","","","","","","","","","","","","","","","","","","","","","","","","","","","","",""
"1847","","text","18","108646","0.0-17.0","47434585","wem/bandit_either","A2W59CL4UQ3S4S","either","2","32","","","","","","","","","","","","","","","","","","","","","","","","","","","","","","","","","","",""
"2807","","text","19","111454","0.0-18.0","47434585","wem/bandit_either","A2W59CL4UQ3S4S","either","2","32","","","","","","","","","","","","","","","","","","","","","","","","","","","","","","","","","","",""
"1413","","bandit","20","114373","0.0-19.0-0.0","47434585","wem/bandit_either","A2W59CL4UQ3S4S","either","2","","","","","","","0","0","1","0.8","","0.5","0.5","","","","","","","0.8","0.2","","","","","","","","","74","J","0","img/none_selected_demo.jpg","true","0","80_20_practice"
"463","","bandit","21","116339","0.0-19.0-1.0","47434585","wem/bandit_either","A2W59CL4UQ3S4S","either","2","","","","","","","1","0","0","0.8","","0.5","0.5","","","","","","","0.8","0.2","","","","","","","","","74","J","0","img/none_selected_demo.jpg","true","0","80_20_practice"
"128","","bandit","22","117973","0.0-19.0-2.0","47434585","wem/bandit_either","A2W59CL4UQ3S4S","either","2","","","","","","","0","0","1","","0.8","0.5","0.5","","","0.8","0.2","","","","","","","","","","","","","74","J","0","img/none_selected_demo.jpg","true","0","80_20_practice"
"550","","bandit","23","120028","0.0-19.0-3.0","47434585","wem/bandit_either","A2W59CL4UQ3S4S","either","2","","","","","","","0","1","0","","0.8","0.5","0.5","","","0.8","0.2","","","","","","","","","","","","","74","J","0","img/none_selected_demo.jpg","true","0","80_20_practice"
"719","","bandit","24","122253","0.0-19.0-4.0","47434585","wem/bandit_either","A2W59CL4UQ3S4S","either","2","","","","","","","0","0","1","0.2","","0.5","0.5","","","","","","","0.8","0.2","","","","","","","","","75","K","1","","true","0","80_20_practice"
"62","","bandit","25","123819","0.0-19.0-5.0","47434585","wem/bandit_either","A2W59CL4UQ3S4S","either","2","","","","","","","0","0","1","0.2","","0.5","0.5","","","","","","","0.8","0.2","","","","","","","","","75","K","1","","true","0","80_20_practice"
"328","","bandit","26","125652","0.0-19.0-6.0","47434585","wem/bandit_either","A2W59CL4UQ3S4S","either","2","","","","","","","0","0","1","","0.2","0.5","0.5","","","0.8","0.2","","","","","","","","","","","","","75","K","1","","true","0","80_20_practice"
"488","","bandit","27","127643","0.0-19.0-7.0","47434585","wem/bandit_either","A2W59CL4UQ3S4S","either","2","","","","","","","0","0","1","0.2","","0.5","0.5","","","","","","","0.8","0.2","","","","","","","","","75","K","1","","true","0","80_20_practice"
"319","","bandit","28","129467","0.0-19.0-8.0","47434585","wem/bandit_either","A2W59CL4UQ3S4S","either","2","","","","","","","0","0","1","","0.2","0.5","0.5","","","0.8","0.2","","","","","","","","","","","","","75","K","1","","true","0","80_20_practice"
"295","","bandit","29","131268","0.0-19.0-9.0","47434585","wem/bandit_either","A2W59CL4UQ3S4S","either","2","","","","","","","0","0","1","","0.2","0.5","0.5","","","0.8","0.2","","","","","","","","","","","","","75","K","1","","true","0","80_20_practice"
"279","","bandit","30","133052","0.0-19.0-10.0","47434585","wem/bandit_either","A2W59CL4UQ3S4S","either","2","","","","","","","1","0","0","0.8","","0.5","0.5","","","","","","","0.8","0.2","","","","","","","","","74","J","0","img/none_selected_demo.jpg","true","0","80_20_practice"
"312","","bandit","31","134871","0.0-19.0-11.0","47434585","wem/bandit_either","A2W59CL4UQ3S4S","either","2","","","","","","","0","1","0","","0.8","0.5","0.5","","","0.8","0.2","","","","","","","","","","","","","74","J","0","img/none_selected_demo.jpg","true","0","80_20_practice"
"156","","bandit","32","136532","0.0-19.0-12.0","47434585","wem/bandit_either","A2W59CL4UQ3S4S","either","2","","","","","","","0","0","1","","0.2","0.5","0.5","","","0.8","0.2","","","","","","","","","","","","","75","K","1","","true","0","80_20_practice"
"95","","bandit","33","138131","0.0-19.0-13.0","47434585","wem/bandit_either","A2W59CL4UQ3S4S","either","2","","","","","","","0","1","0","","0.8","0.5","0.5","","","0.8","0.2","","","","","","","","","","","","","74","J","0","img/none_selected_demo.jpg","true","0","80_20_practice"
"128","","bandit","34","139764","0.0-19.0-14.0","47434585","wem/bandit_either","A2W59CL4UQ3S4S","either","2","","","","","","","1","0","0","0.2","","0.5","0.5","","","","","","","0.8","0.2","","","","","","","","","75","K","1","","true","0","80_20_practice"
"174","","bandit","35","141443","0.0-19.0-15.0","47434585","wem/bandit_either","A2W59CL4UQ3S4S","either","2","","","","","","","0","0","1","0.2","","0.5","0.5","","","","","","","0.8","0.2","","","","","","","","","75","K","1","","true","0","80_20_practice"
"168","","bandit","36","143115","0.0-19.0-16.0","47434585","wem/bandit_either","A2W59CL4UQ3S4S","either","2","","","","","","","0","0","1","0.2","","0.5","0.5","","","","","","","0.8","0.2","","","","","","","","","75","K","1","","true","0","80_20_practice"
"296","","bandit","37","144918","0.0-19.0-17.0","47434585","wem/bandit_either","A2W59CL4UQ3S4S","either","2","","","","","","","0","0","1","","0.8","0.5","0.5","","","0.8","0.2","","","","","","","","","","","","","74","J","0","img/none_selected_demo.jpg","true","0","80_20_practice"
"118","","bandit","38","146540","0.0-19.0-18.0","47434585","wem/bandit_either","A2W59CL4UQ3S4S","either","2","","","","","","","0","1","0","","0.8","0.5","0.5","","","0.8","0.2","","","","","","","","","","","","","74","J","0","img/none_selected_demo.jpg","true","0","80_20_practice"
"56","","bandit","39","148100","0.0-19.0-19.0","47434585","wem/bandit_either","A2W59CL4UQ3S4S","either","2","","","","","","","0","1","0","","0.8","0.5","0.5","","","0.8","0.2","","","","","","","","","","","","","74","J","0","img/none_selected_demo.jpg","true","0","80_20_practice"
"4104","","text","40","152206","0.0-20.0","47434585","wem/bandit_either","A2W59CL4UQ3S4S","either","2","32","","","","","","","","","","","","","","","","","","","","","","","","","","","","","","","","","","",""
"1230","","bandit","41","154940","0.0-21.0-0.0","47434585","wem/bandit_either","A2W59CL4UQ3S4S","either","2","","","","","","","1","0","0","1","0","","","","","0","1","","","1","0","","","","","","","","","74","J","0","img/none_selected_demo.jpg","true","0",""
"5414","","text","42","160359","0.0-22.0","47434585","wem/bandit_either","A2W59CL4UQ3S4S","either","2","32","","","","","","","","","","","","","","","","","","","","","","","","","","","","","","","","","","",""
"2133","","text","43","162493","0.0-23.0","47434585","wem/bandit_either","A2W59CL4UQ3S4S","either","2","32","","","","","","","","","","","","","","","","","","","","","","","","","","","","","","","","","","",""
"1736","","text","44","164230","0.0-24.0","47434585","wem/bandit_either","A2W59CL4UQ3S4S","either","2","32","","","","","","","","","","","","","","","","","","","","","","","","","","","","","","","","","","",""
"1557","","text","45","165790","0.0-25.0","47434585","wem/bandit_either","A2W59CL4UQ3S4S","either","2","32","","","","","","","","","","","","","","","","","","","","","","","","","","","","","","","","","","",""
"1758","","text","46","167549","0.0-26.0","47434585","wem/bandit_either","A2W59CL4UQ3S4S","either","2","32","","","","","","","","","","","","","","","","","","","","","","","","","","","","","","","","","","",""
"991","","text","47","168541","0.0-27.0","47434585","wem/bandit_either","A2W59CL4UQ3S4S","either","2","32","","","","","","","","","","","","","","","","","","","","","","","","","","","","","","","","","","",""
"2807","","text","48","171349","0.0-28.0","47434585","wem/bandit_either","A2W59CL4UQ3S4S","either","2","32","","","","","","","","","","","","","","","","","","","","","","","","","","","","","","","","","","",""
"2390","","text","49","173741","0.0-29.0","47434585","wem/bandit_either","A2W59CL4UQ3S4S","either","2","32","","","","","","","","","","","","","","","","","","","","","","","","","","","","","","","","","","",""
"1974","","text","50","175718","0.0-30.0","47434585","wem/bandit_either","A2W59CL4UQ3S4S","either","2","32","","","","","","","","","","","","","","","","","","","","","","","","","","","","","","","","","","",""
"1518","","text","51","177238","0.0-31.0","47434585","wem/bandit_either","A2W59CL4UQ3S4S","either","2","32","","","","","","","","","","","","","","","","","","","","","","","","","","","","","","","","","","",""
"2022","","text","52","179261","0.0-32.0","47434585","wem/bandit_either","A2W59CL4UQ3S4S","either","2","32","","","","","","","","","","","","","","","","","","","","","","","","","","","","","","","","","","",""
"539","","bandit","53","181307","0.0-33.0-0.0","47434585","wem/bandit_either","A2W59CL4UQ3S4S","either","2","","","","","","","0","0","1","0.8","","0.5","0.5","0.5","0.5","","","","","0.8","0.2","0.6","0.2","","","","","","","72","H","0","img/none_selected.jpg","true","0","full_practice"
"383","","bandit","54","183195","0.0-33.0-1.0","47434585","wem/bandit_either","A2W59CL4UQ3S4S","either","2","","","","","","","0","0","1","0.2","","0.5","0.5","0.5","0.5","","","","","0.8","0.2","0.6","0.2","","","","","","","74","J","1","","true","0","full_practice"
"15","","bandit","55","184714","0.0-33.0-2.0","47434585","wem/bandit_either","A2W59CL4UQ3S4S","either","2","","","","","","","0","1","0","","0.6","0.5","0.5","0.5","0.5","0.8","0.2","0.6","0.2","","","","","","","","","","","75","K","2","","true","0","full_practice"
"183","","bandit","56","186403","0.0-33.0-3.0","47434585","wem/bandit_either","A2W59CL4UQ3S4S","either","2","","","","","","","0","0","1","","0.2","0.5","0.5","0.5","0.5","0.8","0.2","0.6","0.2","","","","","","","","","","","76","L","3","","true","0","full_practice"
"206","","bandit","57","188116","0.0-33.0-4.0","47434585","wem/bandit_either","A2W59CL4UQ3S4S","either","2","","","","","","","1","0","0","0.6","","0.5","0.5","0.5","0.5","","","","","0.8","0.2","0.6","0.2","","","","","","","75","K","2","","true","0","full_practice"
"335","","bandit","58","189956","0.0-33.0-5.0","47434585","wem/bandit_either","A2W59CL4UQ3S4S","either","2","","","","","","","1","0","0","0.6","","0.5","0.5","0.5","0.5","","","","","0.8","0.2","0.6","0.2","","","","","","","75","K","2","","true","0","full_practice"
"22","","bandit","59","191483","0.0-33.0-6.0","47434585","wem/bandit_either","A2W59CL4UQ3S4S","either","2","","","","","","","0","1","0","","0.6","0.5","0.5","0.5","0.5","0.8","0.2","0.6","0.2","","","","","","","","","","","75","K","2","","true","0","full_practice"
"80","","bandit","60","193067","0.0-33.0-7.0","47434585","wem/bandit_either","A2W59CL4UQ3S4S","either","2","","","","","","","1","0","0","0.6","","0.5","0.5","0.5","0.5","","","","","0.8","0.2","0.6","0.2","","","","","","","75","K","2","","true","0","full_practice"
"0","","bandit","61","194573","0.0-33.0-8.0","47434585","wem/bandit_either","A2W59CL4UQ3S4S","either","2","","","","","","","0","1","0","","0.6","0.5","0.5","0.5","0.5","0.8","0.2","0.6","0.2","","","","","","","","","","","75","K","2","","true","0","full_practice"
"982","","bandit","62","197061","0.0-33.0-9.0","47434585","wem/bandit_either","A2W59CL4UQ3S4S","either","2","","","","","","","1","0","0","0.6","","0.5","0.5","0.5","0.5","","","","","0.8","0.2","0.6","0.2","","","","","","","75","K","2","","true","0","full_practice"
"70","","bandit","63","198636","0.0-33.0-10.0","47434585","wem/bandit_either","A2W59CL4UQ3S4S","either","2","","","","","","","0","0","1","0.6","","0.5","0.5","0.5","0.5","","","","","0.8","0.2","0.6","0.2","","","","","","","75","K","2","","true","0","full_practice"
"38","","bandit","64","200181","0.0-33.0-11.0","47434585","wem/bandit_either","A2W59CL4UQ3S4S","either","2","","","","","","","0","0","1","0.2","","0.5","0.5","0.5","0.5","","","","","0.8","0.2","0.6","0.2","","","","","","","74","J","1","","true","0","full_practice"
"580","","bandit","65","202268","0.0-33.0-12.0","47434585","wem/bandit_either","A2W59CL4UQ3S4S","either","2","","","","","","","0","1","0","","0.8","0.5","0.5","0.5","0.5","0.8","0.2","0.6","0.2","","","","","","","","","","","72","H","0","img/none_selected.jpg","true","0","full_practice"
"278","","bandit","66","204051","0.0-33.0-13.0","47434585","wem/bandit_either","A2W59CL4UQ3S4S","either","2","","","","","","","1","0","0","0.8","","0.5","0.5","0.5","0.5","","","","","0.8","0.2","0.6","0.2","","","","","","","72","H","0","img/none_selected.jpg","true","0","full_practice"
"174","","bandit","67","205731","0.0-33.0-14.0","47434585","wem/bandit_either","A2W59CL4UQ3S4S","either","2","","","","","","","0","1","0","","0.8","0.5","0.5","0.5","0.5","0.8","0.2","0.6","0.2","","","","","","","","","","","72","H","0","img/none_selected.jpg","true","0","full_practice"
"607","","bandit","68","207844","0.0-33.0-15.0","47434585","wem/bandit_either","A2W59CL4UQ3S4S","either","2","","","","","","","1","0","0","0.6","","0.5","0.5","0.5","0.5","","","","","0.8","0.2","0.6","0.2","","","","","","","75","K","2","","true","0","full_practice"
"223","","bandit","69","209572","0.0-33.0-16.0","47434585","wem/bandit_either","A2W59CL4UQ3S4S","either","2","","","","","","","1","0","0","0.6","","0.5","0.5","0.5","0.5","","","","","0.8","0.2","0.6","0.2","","","","","","","75","K","2","","true","0","full_practice"
"461","","bandit","70","211539","0.0-33.0-17.0","47434585","wem/bandit_either","A2W59CL4UQ3S4S","either","2","","","","","","","1","0","0","0.6","","0.5","0.5","0.5","0.5","","","","","0.8","0.2","0.6","0.2","","","","","","","75","K","2","","true","0","full_practice"
"438","","bandit","71","213484","0.0-33.0-18.0","47434585","wem/bandit_either","A2W59CL4UQ3S4S","either","2","","","","","","","0","0","1","","0.6","0.5","0.5","0.5","0.5","0.8","0.2","0.6","0.2","","","","","","","","","","","75","K","2","","true","0","full_practice"
"205","","bandit","72","215196","0.0-33.0-19.0","47434585","wem/bandit_either","A2W59CL4UQ3S4S","either","2","","","","","","","0","0","1","","0.8","0.5","0.5","0.5","0.5","0.8","0.2","0.6","0.2","","","","","","","","","","","72","H","0","img/none_selected.jpg","true","0","full_practice"
"2923","","text","73","218126","0.0-34.0","47434585","wem/bandit_either","A2W59CL4UQ3S4S","either","2","32","","","","","","","","","","","","","","","","","","","","","","","","","","","","","","","","","","",""
"6963","","text","74","226093","0.0-35.0","47434585","wem/bandit_either","A2W59CL4UQ3S4S","either","2","32","","","","","","","","","","","","","","","","","","","","","","","","","","","","","","","","","","",""
"5895","","text","75","231990","0.0-36.0","47434585","wem/bandit_either","A2W59CL4UQ3S4S","either","2","32","","","","","","","","","","","","","","","","","","","","","","","","","","","","","","","","","","",""
"3397","","text","76","235389","0.0-37.0","47434585","wem/bandit_either","A2W59CL4UQ3S4S","either","2","32","","","","","","","","","","","","","","","","","","","","","","","","","","","","","","","","","","",""
"2534","","text","77","237925","0.0-38.0","47434585","wem/bandit_either","A2W59CL4UQ3S4S","either","2","32","","","","","","","","","","","","","","","","","","","","","","","","","","","","","","","","","","",""
"981","","text","78","238909","0.0-39.0","47434585","wem/bandit_either","A2W59CL4UQ3S4S","either","2","32","","","","","","","","","","","","","","","","","","","","","","","","","","","","","","","","","","",""
"1317","","bandit","79","241731","0.0-40.0-0.0","47434585","wem/bandit_either","A2W59CL4UQ3S4S","either","2","","","","","","","0","0","1","0.4781977867","","0.6","0.4","0.2","0.8","","","","","0.4781977867","0.3653736811","0.362799796","0.326135308","","","","","","","72","H","0","img/none_selected.jpg","","1","main_expt"
"320","","bandit","80","243556","0.0-41.0-0.0","47434585","wem/bandit_either","A2W59CL4UQ3S4S","either","2","","","","","","","0","1","0","","0.3999069229","0.6","0.4","0.2","0.8","0.4765481994","0.3999069229","0.3891507205","0.3564958201","","","","","","","","","","","74","J","1","","","2","main_expt"
"293","","bandit","81","245356","0.0-42.0-0.0","47434585","wem/bandit_either","A2W59CL4UQ3S4S","either","2","","","","","","","0","1","0","","0.4363582421","0.6","0.4","0.2","0.8","0.4722158263","0.4363582421","0.3151339382","0.3309056029","","","","","","","","","","","74","J","1","","","3","main_expt"
"309","","bandit","82","247172","0.0-43.0-0.0","47434585","wem/bandit_either","A2W59CL4UQ3S4S","either","2","","","","","","","0","0","1","","0.250648122","0.6","0.4","0.2","0.8","0.4609570051","0.4300921111","0.250648122","0.308467875","","","","","","","","","","","75","K","2","","","4","main_expt"
"454","","bandit","83","249131","0.0-44.0-0.0","47434585","wem/bandit_either","A2W59CL4UQ3S4S","either","2","","","","","","","0","0","1","0.3349995635","","0.6","0.4","0.2","0.8","","","","","0.4707799186","0.3863220662","0.2382585344","0.3349995635","","","","","","","76","L","3","","","5","main_expt"
"78","","bandit","84","250715","0.0-45.0-0.0","47434585","wem/bandit_either","A2W59CL4UQ3S4S","either","2","","","","","","","0","0","1","0.4676743975","","0.6","0.4","0.2","0.8","","","","","0.4676743975","0.4192648028","0.2088101903","0.3743101545","","","","","","","72","H","0","img/none_selected.jpg","","6","main_expt"
"454","","bandit","85","252676","0.0-46.0-0.0","47434585","wem/bandit_either","A2W59CL4UQ3S4S","either","2","","","","","","","0","0","1","","0.4218548145","0.6","0.4","0.2","0.8","0.4767364015","0.4218548145","0.1884279889","0.377506125","","","","","","","","","","","74","J","1","","","7","main_expt"
"70","","bandit","86","254252","0.0-47.0-0.0","47434585","wem/bandit_either","A2W59CL4UQ3S4S","either","2","","","","","","","0","0","1","","0.2297930851","0.6","0.4","0.2","0.8","0.4837409877","0.4298914749","0.2297930851","0.3452849142","","","","","","","","","","","75","K","2","","","8","main_expt"
"140","","bandit","87","255900","0.0-48.0-0.0","47434585","wem/bandit_either","A2W59CL4UQ3S4S","either","2","","","","","","","0","0","1","","0.2219539873","0.6","0.4","0.2","0.8","0.4825212187","0.4215440671","0.2219539873","0.2713567333","","","","","","","","","","","75","K","2","","","9","main_expt"
"108","","bandit","88","257515","0.0-49.0-0.0","47434585","wem/bandit_either","A2W59CL4UQ3S4S","either","2","","","","","","","0","0","1","0.2712708503","","0.6","0.4","0.2","0.8","","","","","0.4791264729","0.3991616263","0.2398128751","0.2712708503","","","","","","","76","L","3","","","10","main_expt"
"254","","bandit","89","259274","0.0-50.0-0.0","47434585","wem/bandit_either","A2W59CL4UQ3S4S","either","2","","","","","","","1","0","0","0.4002673883","","0.6","0.4","0.2","0.8","","","","","0.4762013833","0.4002673883","0.2551733424","0.2635531688","","","","","","","74","J","1","","","11","main_expt"
"238","","bandit","90","261019","0.0-51.0-0.0","47434585","wem/bandit_either","A2W59CL4UQ3S4S","either","2","","","","","","","0","0","1","0.368629831","","0.6","0.4","0.2","0.8","","","","","0.4729837645","0.368629831","0.2593424883","0.2669056975","","","","","","","74","J","1","","","12","main_expt"
"6","","bandit","91","262532","0.0-52.0-0.0","47434585","wem/bandit_either","A2W59CL4UQ3S4S","either","2","","","","","","","0","1","0","","0.4189726289","0.6","0.4","0.2","0.8","0.4749786695","0.4189726289","0.2493591627","0.3204456557","","","","","","","","","","","74","J","1","","","13","main_expt"
"197","","bandit","92","264234","0.0-53.0-0.0","47434585","wem/bandit_either","A2W59CL4UQ3S4S","either","2","","","","","","","0","0","1","","0.4352425359","0.6","0.4","0.2","0.8","0.4810115094","0.4352425359","0.2686446846","0.3466526728","","","","","","","","","","","74","J","1","","","14","main_expt"
"208","","bandit","93","265947","0.0-54.0-0.0","47434585","wem/bandit_either","A2W59CL4UQ3S4S","either","2","","","","","","","0","0","1","0.4705329286","","0.6","0.4","0.2","0.8","","","","","0.4705329286","0.3819090161","0.2690169042","0.3736671224","","","","","","","72","H","0","img/none_selected.jpg","","15","main_expt"
"69","","bandit","94","267522","0.0-55.0-0.0","47434585","wem/bandit_either","A2W59CL4UQ3S4S","either","2","","","","","","","0","0","1","0.3737760256","","0.6","0.4","0.2","0.8","","","","","0.4687419894","0.3737760256","0.2518303543","0.3778143907","","","","","","","74","J","1","","","16","main_expt"
"239","","bandit","95","269267","0.0-56.0-0.0","47434585","wem/bandit_either","A2W59CL4UQ3S4S","either","2","","","","","","","0","0","1","","0.2406549936","0.6","0.4","0.2","0.8","0.4594180265","0.4151791473","0.2406549936","0.3845750066","","","","","","","","","","","75","K","2","","","17","main_expt"
"173","","bandit","96","270947","0.0-57.0-0.0","47434585","wem/bandit_either","A2W59CL4UQ3S4S","either","2","","","","","","","1","0","0","0.4041286345","","0.6","0.4","0.2","0.8","","","","","0.425397146","0.4137363134","0.2670149403","0.4041286345","","","","","","","76","L","3","","","18","main_expt"
"262","","bandit","97","272716","0.0-58.0-0.0","47434585","wem/bandit_either","A2W59CL4UQ3S4S","either","2","","","","","","","0","0","1","0.4127350431","","0.6","0.4","0.2","0.8","","","","","0.4201246927","0.4084056464","0.2658482338","0.4127350431","","","","","","","76","L","3","","","19","main_expt"
"446","","bandit","98","274667","0.0-59.0-0.0","47434585","wem/bandit_either","A2W59CL4UQ3S4S","either","2","","","","","","","0","0","1","0.4107359536","","0.6","0.4","0.2","0.8","","","","","0.3954271328","0.4129175496","0.2452433766","0.4107359536","","","","","","","76","L","3","","","20","main_expt"
"278","","bandit","99","276451","0.0-60.0-0.0","47434585","wem/bandit_either","A2W59CL4UQ3S4S","either","2","","","","","","","1","0","0","0.3954861765","","0.6","0.4","0.2","0.8","","","","","0.4196431029","0.3888488162","0.2298761452","0.3954861765","","","","","","","76","L","3","","","21","main_expt"
"278","","bandit","100","278235","0.0-61.0-0.0","47434585","wem/bandit_either","A2W59CL4UQ3S4S","either","2","","","","","","","0","0","1","0.3805979297","","0.6","0.4","0.2","0.8","","","","","0.3843335182","0.3873149631","0.266827693","0.3805979297","","","","","","","76","L","3","","","22","main_expt"
"0","","bandit","101","279743","0.0-62.0-0.0","47434585","wem/bandit_either","A2W59CL4UQ3S4S","either","2","","","","","","","0","0","1","0.425451992","","0.6","0.4","0.2","0.8","","","","","0.3839977458","0.3659772031","0.2519769849","0.425451992","","","","","","","76","L","3","","","23","main_expt"
"274","","bandit","102","281522","0.0-63.0-0.0","47434585","wem/bandit_either","A2W59CL4UQ3S4S","either","2","","","","","","","0","1","0","","0.4699447661","0.6","0.4","0.2","0.8","0.3338939571","0.3594327093","0.2447613107","0.4699447661","","","","","","","","","","","76","L","3","","","24","main_expt"
"287","","bandit","103","283315","0.0-64.0-0.0","47434585","wem/bandit_either","A2W59CL4UQ3S4S","either","2","","","","","","","0","0","1","0.4484050393","","0.6","0.4","0.2","0.8","","","","","0.324486952","0.3719143394","0.2350413847","0.4484050393","","","","","","","76","L","3","","","25","main_expt"
"1286","","bandit","104","286107","0.0-65.0-0.0","47434585","wem/bandit_either","A2W59CL4UQ3S4S","either","2","","","","","","","0","0","1","","0.207774486","0.6","0.4","0.2","0.8","0.3095710384","0.3690014044","0.207774486","0.4190234423","","","","","","","","","","","75","K","2","","","26","main_expt"
"261","","bandit","105","287876","0.0-66.0-0.0","47434585","wem/bandit_either","A2W59CL4UQ3S4S","either","2","","","","","","","1","0","0","0.3940030818","","0.6","0.4","0.2","0.8","","","","","0.3355629191","0.3940030818","0.2164182795","0.4251478254","","","","","","","74","J","1","","","27","main_expt"
"277","","bandit","106","289658","0.0-67.0-0.0","47434585","wem/bandit_either","A2W59CL4UQ3S4S","either","2","","","","","","","0","1","0","","0.4111080327","0.6","0.4","0.2","0.8","0.3668681485","0.4111080327","0.2164031865","0.4287328697","","","","","","","","","","","74","J","1","","","28","main_expt"
"295","","bandit","107","291460","0.0-68.0-0.0","47434585","wem/bandit_either","A2W59CL4UQ3S4S","either","2","","","","","","","1","0","0","0.41290056","","0.6","0.4","0.2","0.8","","","","","0.343198694","0.41290056","0.2770000278","0.4106025245","","","","","","","74","J","1","","","29","main_expt"
"276","","bandit","108","293244","0.0-69.0-0.0","47434585","wem/bandit_either","A2W59CL4UQ3S4S","either","2","","","","","","","0","1","0","","0.3937480262","0.6","0.4","0.2","0.8","0.326069126","0.3937480262","0.2354797847","0.3942494676","","","","","","","","","","","74","J","1","","","30","main_expt"
"613","","bandit","109","295362","0.0-70.0-0.0","47434585","wem/bandit_either","A2W59CL4UQ3S4S","either","2","","","","","","","0","0","1","","0.3997016236","0.6","0.4","0.2","0.8","0.3390127419","0.3997016236","0.2692030882","0.4285056211","","","","","","","","","","","74","J","1","","","31","main_expt"
"238","","bandit","110","297106","0.0-71.0-0.0","47434585","wem/bandit_either","A2W59CL4UQ3S4S","either","2","","","","","","","0","1","0","","0.3360649894","0.6","0.4","0.2","0.8","0.3360649894","0.3574295763","0.2471118655","0.4249454459","","","","","","","","","","","72","H","0","img/none_selected.jpg","","32","main_expt"
"264","","bandit","111","298876","0.0-72.0-0.0","47434585","wem/bandit_either","A2W59CL4UQ3S4S","either","2","","","","","","","0","0","1","","0.3052602024","0.6","0.4","0.2","0.8","0.3052602024","0.3877818659","0.2879199001","0.416417765","","","","","","","","","","","72","H","0","img/none_selected.jpg","","33","main_expt"
"301","","bandit","112","300682","0.0-73.0-0.0","47434585","wem/bandit_either","A2W59CL4UQ3S4S","either","2","","","","","","","0","0","1","","0.3594788954","0.6","0.4","0.2","0.8","0.3594788954","0.3799496232","0.3180115212","0.4623714429","","","","","","","","","","","72","H","0","img/none_selected.jpg","","34","main_expt"
"158","","bandit","113","302346","0.0-74.0-0.0","47434585","wem/bandit_either","A2W59CL4UQ3S4S","either","2","","","","","","","0","0","1","","0.2524306687","0.6","0.4","0.2","0.8","0.380235832","0.3577573403","0.2524306687","0.4591977302","","","","","","","","","","","75","K","2","","","35","main_expt"
"342","","bandit","114","304193","0.0-75.0-0.0","47434585","wem/bandit_either","A2W59CL4UQ3S4S","either","2","","","","","","","1","0","0","0.3895375856","","0.6","0.4","0.2","0.8","","","","","0.3459989602","0.3895375856","0.2351869563","0.4686235256","","","","","","","74","J","1","","","36","main_expt"
"135","","bandit","115","305835","0.0-76.0-0.0","47434585","wem/bandit_either","A2W59CL4UQ3S4S","either","2","","","","","","","1","0","0","0.3783527007","","0.6","0.4","0.2","0.8","","","","","0.3320905149","0.3783527007","0.2629170466","0.4571547709","","","","","","","74","J","1","","","37","main_expt"
"356","","bandit","116","307698","0.0-77.0-0.0","47434585","wem/bandit_either","A2W59CL4UQ3S4S","either","2","","","","","","","0","0","1","0.284076782","","0.6","0.4","0.2","0.8","","","","","0.3471020919","0.284076782","0.3090194305","0.4688430709","","","","","","","74","J","1","","","38","main_expt"
"205","","bandit","117","309410","0.0-78.0-0.0","47434585","wem/bandit_either","A2W59CL4UQ3S4S","either","2","","","","","","","0","1","0","","0.3388972186","0.6","0.4","0.2","0.8","0.3401763967","0.3388972186","0.2845371228","0.4612923778","","","","","","","","","","","74","J","1","","","39","main_expt"
"141","","bandit","118","311058","0.0-79.0-0.0","47434585","wem/bandit_either","A2W59CL4UQ3S4S","either","2","","","","","","","0","0","1","0.2663655232","","0.6","0.4","0.2","0.8","","","","","0.3260487483","0.2663655232","0.3076259244","0.4576194683","","","","","","","74","J","1","","","40","main_expt"
"189","","bandit","119","312753","0.0-80.0-0.0","47434585","wem/bandit_either","A2W59CL4UQ3S4S","either","2","","","","","","","1","0","0","0.2608266697","","0.6","0.4","0.2","0.8","","","","","0.3390218734","0.2608266697","0.2888769276","0.4473921051","","","","","","","74","J","1","","","41","main_expt"
"247","","bandit","120","314506","0.0-81.0-0.0","47434585","wem/bandit_either","A2W59CL4UQ3S4S","either","2","","","","","","","1","0","0","0.2287676803","","0.6","0.4","0.2","0.8","","","","","0.2889680017","0.2287676803","0.2639198141","0.425470286","","","","","","","74","J","1","","","42","main_expt"
"252","","bandit","121","316265","0.0-82.0-0.0","47434585","wem/bandit_either","A2W59CL4UQ3S4S","either","2","","","","","","","0","0","1","","0.2043112358","0.6","0.4","0.2","0.8","0.2784828801","0.2043112358","0.2255441472","0.4030522017","","","","","","","","","","","74","J","1","","","43","main_expt"
"391","","bandit","122","318160","0.0-83.0-0.0","47434585","wem/bandit_either","A2W59CL4UQ3S4S","either","2","","","","","","","0","0","1","","0.1957049551","0.6","0.4","0.2","0.8","0.2805729819","0.1957049551","0.2050272072","0.4106315797","","","","","","","","","","","74","J","1","","","44","main_expt"
"694","","bandit","123","320362","0.0-84.0-0.0","47434585","wem/bandit_either","A2W59CL4UQ3S4S","either","2","","","","","","","0","0","1","0.2207366272","","0.6","0.4","0.2","0.8","","","","","0.2195119073","0.2207366272","0.239455925","0.4258527362","","","","","","","74","J","1","","","45","main_expt"
"364","","bandit","124","322234","0.0-85.0-0.0","47434585","wem/bandit_either","A2W59CL4UQ3S4S","either","2","","","","","","","0","0","1","0.1727988076","","0.6","0.4","0.2","0.8","","","","","0.2657932304","0.1727988076","0.2414778298","0.4425966235","","","","","","","74","J","1","","","46","main_expt"
"118","","bandit","125","323859","0.0-86.0-0.0","47434585","wem/bandit_either","A2W59CL4UQ3S4S","either","2","","","","","","","1","0","0","0.2678398397","","0.6","0.4","0.2","0.8","","","","","0.2678398397","0.1446735631","0.1884211613","0.4428977597","","","","","","","72","H","0","img/none_selected.jpg","","47","main_expt"
"316","","bandit","126","325680","0.0-87.0-0.0","47434585","wem/bandit_either","A2W59CL4UQ3S4S","either","2","","","","","","","0","0","1","0.2866904938","","0.6","0.4","0.2","0.8","","","","","0.2866904938","0.1681765936","0.1755274282","0.4479964269","","","","","","","72","H","0","img/none_selected.jpg","","48","main_expt"
"199","","bandit","127","327386","0.0-88.0-0.0","47434585","wem/bandit_either","A2W59CL4UQ3S4S","either","2","","","","","","","1","0","0","0.2803848884","","0.6","0.4","0.2","0.8","","","","","0.2803848884","0.1473883531","0.1646396384","0.4660387519","","","","","","","72","H","0","img/none_selected.jpg","","49","main_expt"
"307","","bandit","128","329201","0.0-89.0-0.0","47434585","wem/bandit_either","A2W59CL4UQ3S4S","either","2","","","","","","","0","0","1","0.2587411269","","0.6","0.4","0.2","0.8","","","","","0.2587411269","0.1378170987","0.2024226619","0.4345757832","","","","","","","72","H","0","img/none_selected.jpg","","50","main_expt"
"255","","bandit","129","330963","0.0-90.0-0.0","47434585","wem/bandit_either","A2W59CL4UQ3S4S","either","2","","","","","","","0","0","1","","0.2212901065","0.6","0.4","0.2","0.8","0.2212901065","0.1430360168","0.1976760068","0.4450950844","","","","","","","","","","","72","H","0","img/none_selected.jpg","","51","main_expt"
"260","","bandit","130","332729","0.0-91.0-0.0","47434585","wem/bandit_either","A2W59CL4UQ3S4S","either","2","","","","","","","0","1","0","","0.236006857","0.6","0.4","0.2","0.8","0.236006857","0.1731798725","0.1796352224","0.4475354499","","","","","","","","","","","72","H","0","img/none_selected.jpg","","52","main_expt"
"37","","bandit","131","334273","0.0-92.0-0.0","47434585","wem/bandit_either","A2W59CL4UQ3S4S","either","2","","","","","","","0","1","0","","0.2660825342","0.6","0.4","0.2","0.8","0.2660825342","0.1312409056","0.2451732725","0.4627294295","","","","","","","","","","","72","H","0","img/none_selected.jpg","","53","main_expt"
"93","","bandit","132","335873","0.0-93.0-0.0","47434585","wem/bandit_either","A2W59CL4UQ3S4S","either","2","","","","","","","0","0","1","0.2458345041","","0.6","0.4","0.2","0.8","","","","","0.2458345041","0.1862053218","0.2621482643","0.44829207","","","","","","","72","H","0","img/none_selected.jpg","","54","main_expt"
"303","","bandit","133","337682","0.0-94.0-0.0","47434585","wem/bandit_either","A2W59CL4UQ3S4S","either","2","","","","","","","0","0","1","0.2265690781","","0.6","0.4","0.2","0.8","","","","","0.2265690781","0.1733563037","0.2441780383","0.4505537928","","","","","","","72","H","0","img/none_selected.jpg","","55","main_expt"
"69","","bandit","134","339259","0.0-95.0-0.0","47434585","wem/bandit_either","A2W59CL4UQ3S4S","either","2","","","","","","","0","0","1","","0.199729785","0.6","0.4","0.2","0.8","0.2741820357","0.1728369204","0.199729785","0.4686400132","","","","","","","","","","","75","K","2","","","56","main_expt"
"4","","bandit","135","340770","0.0-96.0-0.0","47434585","wem/bandit_either","A2W59CL4UQ3S4S","either","2","","","","","","","0","0","1","","0.09176359954","0.6","0.4","0.2","0.8","0.2937641054","0.09176359954","0.1945085845","0.4572679106","","","","","","","","","","","74","J","1","","","57","main_expt"
"348","","bandit","136","342625","0.0-97.0-0.0","47434585","wem/bandit_either","A2W59CL4UQ3S4S","either","2","","","","","","","0","0","1","0.4300169527","","0.6","0.4","0.2","0.8","","","","","0.2949827607","0.04991422033","0.2614759052","0.4300169527","","","","","","","76","L","3","","","58","main_expt"
"285","","bandit","137","344417","0.0-98.0-0.0","47434585","wem/bandit_either","A2W59CL4UQ3S4S","either","2","","","","","","","1","0","0","0.4050829606","","0.6","0.4","0.2","0.8","","","","","0.2710075273","0.053239915","0.2426118991","0.4050829606","","","","","","","76","L","3","","","59","main_expt"
"302","","bandit","138","346227","0.0-99.0-0.0","47434585","wem/bandit_either","A2W59CL4UQ3S4S","either","2","","","","","","","0","0","1","","0.4070720156","0.6","0.4","0.2","0.8","0.2766623035","0.06994226662","0.2623750897","0.4070720156","","","","","","","","","","","76","L","3","","","60","main_expt"
"260","","bandit","139","347993","0.0-100.0-0.0","47434585","wem/bandit_either","A2W59CL4UQ3S4S","either","2","","","","","","","0","0","1","","0.3895400789","0.6","0.4","0.2","0.8","0.2574592035","0.07064832373","0.2139103784","0.3895400789","","","","","","","","","","","76","L","3","","","61","main_expt"
"173","","bandit","140","349674","0.0-101.0-0.0","47434585","wem/bandit_either","A2W59CL4UQ3S4S","either","2","","","","","","","1","0","0","0.4050708951","","0.6","0.4","0.2","0.8","","","","","0.2425209234","0.08925217872","0.2566580444","0.4050708951","","","","","","","76","L","3","","","62","main_expt"
"268","","bandit","141","351450","0.0-102.0-0.0","47434585","wem/bandit_either","A2W59CL4UQ3S4S","either","2","","","","","","","0","0","1","0.3765761212","","0.6","0.4","0.2","0.8","","","","","0.2294211584","0.08505035955","0.2393402704","0.3765761212","","","","","","","76","L","3","","","63","main_expt"
"381","","bandit","142","353338","0.0-103.0-0.0","47434585","wem/bandit_either","A2W59CL4UQ3S4S","either","2","","","","","","","0","0","1","0.3859881554","","0.6","0.4","0.2","0.8","","","","","0.2350173232","0.09892528285","0.300105392","0.3859881554","","","","","","","76","L","3","","","64","main_expt"
"268","","bandit","143","355113","0.0-104.0-0.0","47434585","wem/bandit_either","A2W59CL4UQ3S4S","either","2","","","","","","","1","0","0","0.3817039273","","0.6","0.4","0.2","0.8","","","","","0.2775473173","0.1428545766","0.2584268813","0.3817039273","","","","","","","76","L","3","","","65","main_expt"
"301","","bandit","144","356920","0.0-105.0-0.0","47434585","wem/bandit_either","A2W59CL4UQ3S4S","either","2","","","","","","","0","0","1","0.3622232449","","0.6","0.4","0.2","0.8","","","","","0.298861572","0.120440259","0.2536378703","0.3622232449","","","","","","","76","L","3","","","66","main_expt"
"302","","bandit","145","358730","0.0-106.0-0.0","47434585","wem/bandit_either","A2W59CL4UQ3S4S","either","2","","","","","","","1","0","0","0.3768721334","","0.6","0.4","0.2","0.8","","","","","0.3043747659","0.2019700983","0.2548884231","0.3768721334","","","","","","","76","L","3","","","67","main_expt"
"205","","bandit","146","360442","0.0-107.0-0.0","47434585","wem/bandit_either","A2W59CL4UQ3S4S","either","2","","","","","","","0","0","1","0.3826604183","","0.6","0.4","0.2","0.8","","","","","0.2533072519","0.1467862533","0.2105458193","0.3826604183","","","","","","","76","L","3","","","68","main_expt"
"276","","bandit","147","362225","0.0-108.0-0.0","47434585","wem/bandit_either","A2W59CL4UQ3S4S","either","2","","","","","","","0","0","1","","0.3981811202","0.6","0.4","0.2","0.8","0.2451677402","0.09022805221","0.2901666962","0.3981811202","","","","","","","","","","","76","L","3","","","69","main_expt"
"70","","bandit","148","363802","0.0-109.0-0.0","47434585","wem/bandit_either","A2W59CL4UQ3S4S","either","2","","","","","","","0","0","1","0.3936557204","","0.6","0.4","0.2","0.8","","","","","0.2403061491","0.1128827508","0.2973761433","0.3936557204","","","","","","","76","L","3","","","70","main_expt"
"165","","bandit","149","365475","0.0-110.0-0.0","47434585","wem/bandit_either","A2W59CL4UQ3S4S","either","2","","","","","","","1","0","0","0.3949471057","","0.6","0.4","0.2","0.8","","","","","0.1917576795","0.1184182172","0.2737706179","0.3949471057","","","","","","","76","L","3","","","71","main_expt"
"196","","bandit","150","367178","0.0-111.0-0.0","47434585","wem/bandit_either","A2W59CL4UQ3S4S","either","2","","","","","","","1","0","0","0.3888869603","","0.6","0.4","0.2","0.8","","","","","0.1894079546","0.1038133506","0.3005227265","0.3888869603","","","","","","","76","L","3","","","72","main_expt"
"93","","bandit","151","368778","0.0-112.0-0.0","47434585","wem/bandit_either","A2W59CL4UQ3S4S","either","2","","","","","","","0","0","1","","0.4015056825","0.6","0.4","0.2","0.8","0.235909594","0.07830871569","0.3205676235","0.4015056825","","","","","","","","","","","76","L","3","","","73","main_expt"
"196","","bandit","152","370482","0.0-113.0-0.0","47434585","wem/bandit_either","A2W59CL4UQ3S4S","either","2","","","","","","","1","0","0","0.4200542591","","0.6","0.4","0.2","0.8","","","","","0.2772030277","0.09226686474","0.3040473008","0.4200542591","","","","","","","76","L","3","","","74","main_expt"
"148","","bandit","153","372138","0.0-114.0-0.0","47434585","wem/bandit_either","A2W59CL4UQ3S4S","either","2","","","","","","","1","0","0","0.4353174817","","0.6","0.4","0.2","0.8","","","","","0.2237268092","0.07948082514","0.2686744794","0.4353174817","","","","","","","76","L","3","","","75","main_expt"
"101","","bandit","154","373745","0.0-115.0-0.0","47434585","wem/bandit_either","A2W59CL4UQ3S4S","either","2","","","","","","","0","0","1","0.4196821318","","0.6","0.4","0.2","0.8","","","","","0.1739375455","0.1279570505","0.258707356","0.4196821318","","","","","","","76","L","3","","","76","main_expt"
"118","","bandit","155","375370","0.0-116.0-0.0","47434585","wem/bandit_either","A2W59CL4UQ3S4S","either","2","","","","","","","0","0","1","0.3787369199","","0.6","0.4","0.2","0.8","","","","","0.1648796623","0.1202820049","0.3010070056","0.3787369199","","","","","","","76","L","3","","","77","main_expt"
"125","","bandit","156","377003","0.0-117.0-0.0","47434585","wem/bandit_either","A2W59CL4UQ3S4S","either","2","","","","","","","0","0","1","0.4314930014","","0.6","0.4","0.2","0.8","","","","","0.1637798684","0.1054071572","0.2648586626","0.4314930014","","","","","","","76","L","3","","","78","main_expt"
"116","","bandit","157","378626","0.0-118.0-0.0","47434585","wem/bandit_either","A2W59CL4UQ3S4S","either","2","","","","","","","0","0","1","0.4155078174","","0.6","0.4","0.2","0.8","","","","","0.1490076182","0.1403095361","0.1984114041","0.4155078174","","","","","","","76","L","3","","","79","main_expt"
"349","","bandit","158","380482","0.0-119.0-0.0","47434585","wem/bandit_either","A2W59CL4UQ3S4S","either","2","","","","","","","0","1","0","","0.180325551","0.6","0.4","0.2","0.8","0.1093198388","0.1891235553","0.180325551","0.4226243671","","","","","","","","","","","75","K","2","","","80","main_expt"
"237","","bandit","159","382227","0.0-120.0-0.0","47434585","wem/bandit_either","A2W59CL4UQ3S4S","either","2","","","","","","","0","1","0","","0.224531153","0.6","0.4","0.2","0.8","0.08868186825","0.1858030354","0.224531153","0.4474166549","","","","","","","","","","","75","K","2","","","81","main_expt"
"125","","bandit","160","383859","0.0-121.0-0.0","47434585","wem/bandit_either","A2W59CL4UQ3S4S","either","2","","","","","","","0","0","1","","0.2476542501","0.6","0.4","0.2","0.8","0.1073880826","0.2476542501","0.221125015","0.4636297045","","","","","","","","","","","74","J","1","","","82","main_expt"
"116","","bandit","161","385484","0.0-122.0-0.0","47434585","wem/bandit_either","A2W59CL4UQ3S4S","either","2","","","","","","","0","0","1","0.1022587498","","0.6","0.4","0.2","0.8","","","","","0.1022587498","0.2188241074","0.2143237207","0.467509749","","","","","","","72","H","0","img/none_selected.jpg","","83","main_expt"
"356","","bandit","162","387346","0.0-123.0-0.0","47434585","wem/bandit_either","A2W59CL4UQ3S4S","either","2","","","","","","","0","0","1","0.1085807699","","0.6","0.4","0.2","0.8","","","","","0.1085807699","0.2754771977","0.2097367537","0.4551111531","","","","","","","72","H","0","img/none_selected.jpg","","84","main_expt"
"244","","bandit","163","389097","0.0-124.0-0.0","47434585","wem/bandit_either","A2W59CL4UQ3S4S","either","2","","","","","","","0","0","1","","0.2965575968","0.6","0.4","0.2","0.8","0.1263918358","0.2965575968","0.1661536269","0.4621419017","","","","","","","","","","","74","J","1","","","85","main_expt"
"244","","bandit","164","390852","0.0-125.0-0.0","47434585","wem/bandit_either","A2W59CL4UQ3S4S","either","2","","","","","","","0","0","1","","0.4612050897","0.6","0.4","0.2","0.8","0.1481941301","0.257129161","0.1364458955","0.4612050897","","","","","","","","","","","76","L","3","","","86","main_expt"
"227","","bandit","165","392587","0.0-126.0-0.0","47434585","wem/bandit_either","A2W59CL4UQ3S4S","either","2","","","","","","","0","0","1","0.08235553135","","0.6","0.4","0.2","0.8","","","","","0.1447872846","0.2338967043","0.08235553135","0.4334675206","","","","","","","75","K","2","","","87","main_expt"
"188","","bandit","166","394283","0.0-127.0-0.0","47434585","wem/bandit_either","A2W59CL4UQ3S4S","either","2","","","","","","","0","0","1","0.0754832669","","0.6","0.4","0.2","0.8","","","","","0.1391637727","0.2161535794","0.0754832669","0.4397617206","","","","","","","75","K","2","","","88","main_expt"
"69","","bandit","167","395860","0.0-128.0-0.0","47434585","wem/bandit_either","A2W59CL4UQ3S4S","either","2","","","","","","","0","0","1","0.109361408","","0.6","0.4","0.2","0.8","","","","","0.1476089376","0.2043146745","0.109361408","0.4635478967","","","","","","","75","K","2","","","89","main_expt"
"298","","bandit","168","397666","0.0-129.0-0.0","47434585","wem/bandit_either","A2W59CL4UQ3S4S","either","2","","","","","","","0","0","1","","0.07391079866","0.6","0.4","0.2","0.8","0.2081489191","0.2346009907","0.07391079866","0.4234969579","","","","","","","","","","","75","K","2","","","90","main_expt"
"268","","bandit","169","399442","0.0-130.0-0.0","47434585","wem/bandit_either","A2W59CL4UQ3S4S","either","2","","","","","","","0","0","1","","0.4267507071","0.6","0.4","0.2","0.8","0.1834039029","0.2333967219","0.1164594673","0.4267507071","","","","","","","","","","","76","L","3","","","91","main_expt"
"83","","bandit","170","401035","0.0-131.0-0.0","47434585","wem/bandit_either","A2W59CL4UQ3S4S","either","2","","","","","","","0","0","1","0.2150480475","","0.6","0.4","0.2","0.8","","","","","0.2027314649","0.2150480475","0.113043345","0.4089505196","","","","","","","74","J","1","","","92","main_expt"
"292","","bandit","171","402833","0.0-132.0-0.0","47434585","wem/bandit_either","A2W59CL4UQ3S4S","either","2","","","","","","","0","0","1","0.2588080464","","0.6","0.4","0.2","0.8","","","","","0.1738894496","0.2588080464","0.1714352716","0.4112501448","","","","","","","74","J","1","","","93","main_expt"
"309","","bandit","172","404650","0.0-133.0-0.0","47434585","wem/bandit_either","A2W59CL4UQ3S4S","either","2","","","","","","","0","0","1","","0.2748849181","0.6","0.4","0.2","0.8","0.2484708832","0.2748849181","0.1253024032","0.452415855","","","","","","","","","","","74","J","1","","","94","main_expt"
"117","","bandit","173","406274","0.0-134.0-0.0","47434585","wem/bandit_either","A2W59CL4UQ3S4S","either","2","","","","","","","0","0","1","0.2914685715","","0.6","0.4","0.2","0.8","","","","","0.2914685715","0.2791739054","0.1401284447","0.4589197587","","","","","","","72","H","0","img/none_selected.jpg","","95","main_expt"
"324","","bandit","174","408106","0.0-135.0-0.0","47434585","wem/bandit_either","A2W59CL4UQ3S4S","either","2","","","","","","","1","0","0","0.2417524935","","0.6","0.4","0.2","0.8","","","","","0.2417524935","0.3149564315","0.1320491369","0.4481870348","","","","","","","72","H","0","img/none_selected.jpg","","96","main_expt"
"259","","bandit","175","409873","0.0-136.0-0.0","47434585","wem/bandit_either","A2W59CL4UQ3S4S","either","2","","","","","","","0","0","1","","0.2492821404","0.6","0.4","0.2","0.8","0.2492821404","0.372564007","0.1518453759","0.4597072186","","","","","","","","","","","72","H","0","img/none_selected.jpg","","97","main_expt"
"261","","bandit","176","411643","0.0-137.0-0.0","47434585","wem/bandit_either","A2W59CL4UQ3S4S","either","2","","","","","","","0","0","1","","0.3002958449","0.6","0.4","0.2","0.8","0.3002958449","0.393328365","0.2173959583","0.4705619112","","","","","","","","","","","72","H","0","img/none_selected.jpg","","98","main_expt"
"275","","bandit","177","413427","0.0-138.0-0.0","47434585","wem/bandit_either","A2W59CL4UQ3S4S","either","2","","","","","","","0","0","1","0.3544832656","","0.6","0.4","0.2","0.8","","","","","0.3544832656","0.421239771","0.2618725657","0.4800968761","","","","","","","72","H","0","img/none_selected.jpg","","99","main_expt"
"188","","bandit","178","415120","0.0-139.0-0.0","47434585","wem/bandit_either","A2W59CL4UQ3S4S","either","2","","","","","","","0","0","1","","0.3810954338","0.6","0.4","0.2","0.8","0.3810954338","0.4130759476","0.2487788848","0.4780143146","","","","","","","","","","","72","H","0","img/none_selected.jpg","","100","main_expt"
"263","","bandit","179","416890","0.0-140.0-0.0","47434585","wem/bandit_either","A2W59CL4UQ3S4S","either","2","","","","","","","0","0","1","0.4042362267","","0.6","0.4","0.2","0.8","","","","","0.4042362267","0.4089462913","0.2890792313","0.4849002763","","","","","","","72","H","0","img/none_selected.jpg","","101","main_expt"
"212","","bandit","180","418611","0.0-141.0-0.0","47434585","wem/bandit_either","A2W59CL4UQ3S4S","either","2","","","","","","","0","1","0","","0.370330464","0.6","0.4","0.2","0.8","0.4594696392","0.370330464","0.3136369757","0.4886078379","","","","","","","","","","","74","J","1","","","102","main_expt"
"339","","bandit","181","420456","0.0-142.0-0.0","47434585","wem/bandit_either","A2W59CL4UQ3S4S","either","2","","","","","","","0","0","1","0.3306315663","","0.6","0.4","0.2","0.8","","","","","0.4588766667","0.3306315663","0.2364671533","0.47121906","","","","","","","74","J","1","","","103","main_expt"
"142","","bandit","182","422108","0.0-143.0-0.0","47434585","wem/bandit_either","A2W59CL4UQ3S4S","either","2","","","","","","","0","0","1","0.354634178","","0.6","0.4","0.2","0.8","","","","","0.4372785745","0.354634178","0.2202486688","0.4760763377","","","","","","","74","J","1","","","104","main_expt"
"99","","bandit","183","423714","0.0-144.0-0.0","47434585","wem/bandit_either","A2W59CL4UQ3S4S","either","2","","","","","","","0","0","1","","0.3896605338","0.6","0.4","0.2","0.8","0.4063887309","0.3896605338","0.1854418088","0.4701389446","","","","","","","","","","","74","J","1","","","105","main_expt"
"211","","bandit","184","425434","0.0-145.0-0.0","47434585","wem/bandit_either","A2W59CL4UQ3S4S","either","2","","","","","","","0","1","0","","0.414339711","0.6","0.4","0.2","0.8","0.3778019321","0.414339711","0.1596754559","0.471324938","","","","","","","","","","","74","J","1","","","106","main_expt"
"124","","bandit","185","427065","0.0-146.0-0.0","47434585","wem/bandit_either","A2W59CL4UQ3S4S","either","2","","","","","","","0","0","1","","0.137099288","0.6","0.4","0.2","0.8","0.3614143111","0.4164239898","0.137099288","0.4786694594","","","","","","","","","","","75","K","2","","","107","main_expt"
"299","","bandit","186","428872","0.0-147.0-0.0","47434585","wem/bandit_either","A2W59CL4UQ3S4S","either","2","","","","","","","0","0","1","","0.1443984823","0.6","0.4","0.2","0.8","0.3681250399","0.3836571442","0.1443984823","0.4810065258","","","","","","","","","","","75","K","2","","","108","main_expt"
"109","","bandit","187","430490","0.0-148.0-0.0","47434585","wem/bandit_either","A2W59CL4UQ3S4S","either","2","","","","","","","0","0","1","","0.1409511773","0.6","0.4","0.2","0.8","0.3446081275","0.3881214568","0.1409511773","0.4816764674","","","","","","","","","","","75","K","2","","","109","main_expt"
"10","","bandit","188","432010","0.0-149.0-0.0","47434585","wem/bandit_either","A2W59CL4UQ3S4S","either","2","","","","","","","0","0","1","","0.1787750665","0.6","0.4","0.2","0.8","0.3681270965","0.4266873791","0.1787750665","0.4882082215","","","","","","","","","","","75","K","2","","","110","main_expt"
"187","","bandit","189","433705","0.0-150.0-0.0","47434585","wem/bandit_either","A2W59CL4UQ3S4S","either","2","","","","","","","0","0","1","0.1862786225","","0.6","0.4","0.2","0.8","","","","","0.391379093","0.4475699482","0.1862786225","0.478642168","","","","","","","75","K","2","","","111","main_expt"
"644","","bandit","190","435855","0.0-151.0-0.0","47434585","wem/bandit_either","A2W59CL4UQ3S4S","either","2","","","","","","","0","0","1","","0.4190314983","0.6","0.4","0.2","0.8","0.4131544452","0.4190314983","0.1654620982","0.4841415165","","","","","","","","","","","74","J","1","","","112","main_expt"
"421","","bandit","191","437786","0.0-152.0-0.0","47434585","wem/bandit_either","A2W59CL4UQ3S4S","either","2","","","","","","","1","0","0","0.4883212127","","0.6","0.4","0.2","0.8","","","","","0.3963985948","0.3666128881","0.1582981878","0.4883212127","","","","","","","76","L","3","","","113","main_expt"
"298","","bandit","192","439592","0.0-153.0-0.0","47434585","wem/bandit_either","A2W59CL4UQ3S4S","either","2","","","","","","","0","0","1","","0.4883790739","0.6","0.4","0.2","0.8","0.4117985871","0.3866259854","0.1922757069","0.4883790739","","","","","","","","","","","76","L","3","","","114","main_expt"
"182","","bandit","193","441284","0.0-154.0-0.0","47434585","wem/bandit_either","A2W59CL4UQ3S4S","either","2","","","","","","","0","0","1","","0.4902011966","0.6","0.4","0.2","0.8","0.394381103","0.354161152","0.185618385","0.4902011966","","","","","","","","","","","76","L","3","","","115","main_expt"
"153","","bandit","194","442944","0.0-155.0-0.0","47434585","wem/bandit_either","A2W59CL4UQ3S4S","either","2","","","","","","","0","0","1","0.4844723045","","0.6","0.4","0.2","0.8","","","","","0.3762408663","0.3170745426","0.2057277395","0.4844723045","","","","","","","76","L","3","","","116","main_expt"
"180","","bandit","195","444632","0.0-156.0-0.0","47434585","wem/bandit_either","A2W59CL4UQ3S4S","either","2","","","","","","","0","0","1","0.3823674378","","0.6","0.4","0.2","0.8","","","","","0.3823674378","0.304536318","0.2288411079","0.4895589844","","","","","","","72","H","0","img/none_selected.jpg","","117","main_expt"
"356","","bandit","196","446496","0.0-157.0-0.0","47434585","wem/bandit_either","A2W59CL4UQ3S4S","either","2","","","","","","","0","1","0","","0.4050195855","0.6","0.4","0.2","0.8","0.4050195855","0.3411026949","0.2207517482","0.4899729034","","","","","","","","","","","72","H","0","img/none_selected.jpg","","118","main_expt"
"78","","bandit","197","448081","0.0-158.0-0.0","47434585","wem/bandit_either","A2W59CL4UQ3S4S","either","2","","","","","","","0","0","1","","0.4947041593","0.6","0.4","0.2","0.8","0.4227562767","0.3447942488","0.1955286499","0.4947041593","","","","","","","","","","","76","L","3","","","119","main_expt"
"44","","bandit","198","449632","0.0-159.0-0.0","47434585","wem/bandit_either","A2W59CL4UQ3S4S","either","2","","","","","","","0","0","1","","0.4163810796","0.6","0.4","0.2","0.8","0.4163810796","0.3686185352","0.2427950695","0.4916865355","","","","","","","","","","","72","H","0","img/none_selected.jpg","","120","main_expt"
"668","","bandit","199","451808","0.0-160.0-0.0","47434585","wem/bandit_either","A2W59CL4UQ3S4S","either","2","","","","","","","0","0","1","0.406821829","","0.6","0.4","0.2","0.8","","","","","0.406821829","0.3547669752","0.2479682904","0.4860386064","","","","","","","72","H","0","img/none_selected.jpg","","121","main_expt"
"276","","bandit","200","453594","0.0-161.0-0.0","47434585","wem/bandit_either","A2W59CL4UQ3S4S","either","2","","","","","","","0","0","1","","0.3999449125","0.6","0.4","0.2","0.8","0.3999449125","0.365994073","0.3081985406","0.483083859","","","","","","","","","","","72","H","0","img/none_selected.jpg","","122","main_expt"
"274","","bandit","201","455378","0.0-162.0-0.0","47434585","wem/bandit_either","A2W59CL4UQ3S4S","either","2","","","","","","","0","0","1","","0.366626489","0.6","0.4","0.2","0.8","0.366626489","0.3120596142","0.3089359708","0.4791491275","","","","","","","","","","","72","H","0","img/none_selected.jpg","","123","main_expt"
"179","","bandit","202","457066","0.0-163.0-0.0","47434585","wem/bandit_either","A2W59CL4UQ3S4S","either","2","","","","","","","0","0","1","","0.3706278578","0.6","0.4","0.2","0.8","0.3706278578","0.302161917","0.3298338218","0.4776777384","","","","","","","","","","","72","H","0","img/none_selected.jpg","","124","main_expt"
"460","","bandit","203","459033","0.0-164.0-0.0","47434585","wem/bandit_either","A2W59CL4UQ3S4S","either","2","","","","","","","0","1","0","","0.3545504723","0.6","0.4","0.2","0.8","0.3545504723","0.2794370347","0.2795250441","0.478983255","","","","","","","","","","","72","H","0","img/none_selected.jpg","","125","main_expt"
"242","","bandit","204","460784","0.0-165.0-0.0","47434585","wem/bandit_either","A2W59CL4UQ3S4S","either","2","","","","","","","0","0","1","","0.2466154908","0.6","0.4","0.2","0.8","0.3106298006","0.2466154908","0.2184127205","0.4724726719","","","","","","","","","","","74","J","1","","","126","main_expt"
"284","","bandit","205","462577","0.0-166.0-0.0","47434585","wem/bandit_either","A2W59CL4UQ3S4S","either","2","","","","","","","0","0","1","","0.2712823261","0.6","0.4","0.2","0.8","0.3351405197","0.2712823261","0.2488858907","0.4796244369","","","","","","","","","","","74","J","1","","","127","main_expt"
"108","","bandit","206","464193","0.0-167.0-0.0","47434585","wem/bandit_either","A2W59CL4UQ3S4S","either","2","","","","","","","0","1","0","","0.2095517986","0.6","0.4","0.2","0.8","0.2984422464","0.2095517986","0.2850827173","0.4825212971","","","","","","","","","","","74","J","1","","","128","main_expt"
"196","","bandit","207","465896","0.0-168.0-0.0","47434585","wem/bandit_either","A2W59CL4UQ3S4S","either","2","","","","","","","0","0","1","","0.1986866195","0.6","0.4","0.2","0.8","0.2027892291","0.1986866195","0.2867242009","0.4877535013","","","","","","","","","","","74","J","1","","","129","main_expt"
"268","","bandit","208","467673","0.0-169.0-0.0","47434585","wem/bandit_either","A2W59CL4UQ3S4S","either","2","","","","","","","0","0","1","0.172959111","","0.6","0.4","0.2","0.8","","","","","0.13768179","0.172959111","0.2509552002","0.4833646461","","","","","","","74","J","1","","","130","main_expt"
"220","","bandit","209","469400","0.0-170.0-0.0","47434585","wem/bandit_either","A2W59CL4UQ3S4S","either","2","","","","","","","0","0","1","0.163172462","","0.6","0.4","0.2","0.8","","","","","0.1352832961","0.163172462","0.2172434631","0.4790990265","","","","","","","74","J","1","","","131","main_expt"
"356","","bandit","210","471267","0.0-171.0-0.0","47434585","wem/bandit_either","A2W59CL4UQ3S4S","either","2","","","","","","","0","0","1","","0.161148659","0.6","0.4","0.2","0.8","0.08660982753","0.161148659","0.158295755","0.4882311922","","","","","","","","","","","74","J","1","","","132","main_expt"
"377","","bandit","211","473152","0.0-172.0-0.0","47434585","wem/bandit_either","A2W59CL4UQ3S4S","either","2","","","","","","","0","0","1","0.185310911","","0.6","0.4","0.2","0.8","","","","","0.1020907376","0.1735641072","0.185310911","0.4889625365","","","","","","","75","K","2","","","133","main_expt"
"93","","bandit","212","474753","0.0-173.0-0.0","47434585","wem/bandit_either","A2W59CL4UQ3S4S","either","2","","","","","","","0","0","1","","0.1966535246","0.6","0.4","0.2","0.8","0.1231499397","0.1597390633","0.1966535246","0.4916783795","","","","","","","","","","","75","K","2","","","134","main_expt"
"100","","bandit","213","476361","0.0-174.0-0.0","47434585","wem/bandit_either","A2W59CL4UQ3S4S","either","2","","","","","","","0","0","1","","0.2290191974","0.6","0.4","0.2","0.8","0.1524236556","0.1460070414","0.2290191974","0.4904315354","","","","","","","","","","","75","K","2","","","135","main_expt"
"436","","bandit","214","478304","0.0-175.0-0.0","47434585","wem/bandit_either","A2W59CL4UQ3S4S","either","2","","","","","","","0","1","0","","0.2929229053","0.6","0.4","0.2","0.8","0.1954247664","0.105474526","0.2929229053","0.491666595","","","","","","","","","","","75","K","2","","","136","main_expt"
"237","","bandit","215","480049","0.0-176.0-0.0","47434585","wem/bandit_either","A2W59CL4UQ3S4S","either","2","","","","","","","0","0","1","","0.2780805385","0.6","0.4","0.2","0.8","0.1833989084","0.08835118593","0.2780805385","0.4917142499","","","","","","","","","","","75","K","2","","","137","main_expt"
"84","","bandit","216","481641","0.0-177.0-0.0","47434585","wem/bandit_either","A2W59CL4UQ3S4S","either","2","","","","","","","0","0","1","0.217224157","","0.6","0.4","0.2","0.8","","","","","0.1490533902","0.06418360449","0.217224157","0.4870170403","","","","","","","75","K","2","","","138","main_expt"
"187","","bandit","217","483337","0.0-178.0-0.0","47434585","wem/bandit_either","A2W59CL4UQ3S4S","either","2","","","","","","","0","0","1","","0.2323391466","0.6","0.4","0.2","0.8","0.1318817547","0.03554325754","0.2323391466","0.4834992155","","","","","","","","","","","75","K","2","","","139","main_expt"
"43","","bandit","218","484889","0.0-179.0-0.0","47434585","wem/bandit_either","A2W59CL4UQ3S4S","either","2","","","","","","","0","0","1","","0.1877412345","0.6","0.4","0.2","0.8","0.1877412345","0.04477370895","0.244475209","0.4927392517","","","","","","","","","","","72","H","0","img/none_selected.jpg","","140","main_expt"
"268","","bandit","219","486665","0.0-180.0-0.0","47434585","wem/bandit_either","A2W59CL4UQ3S4S","either","2","","","","","","","0","0","1","0.2363671377","","0.6","0.4","0.2","0.8","","","","","0.2363671377","0.03780119019","0.232604034","0.4872377518","","","","","","","72","H","0","img/none_selected.jpg","","141","main_expt"
"34","","bandit","220","488208","0.0-181.0-0.0","47434585","wem/bandit_either","A2W59CL4UQ3S4S","either","2","","","","","","","0","0","1","0.2546402356","","0.6","0.4","0.2","0.8","","","","","0.2546402356","0.03149913875","0.2447345556","0.4846254936","","","","","","","72","H","0","img/none_selected.jpg","","142","main_expt"
"676","","bandit","221","490394","0.0-182.0-0.0","47434585","wem/bandit_either","A2W59CL4UQ3S4S","either","2","","","","","","","0","0","1","","0.2825544685","0.6","0.4","0.2","0.8","0.2825544685","0.04191513266","0.26413271","0.4815328815","","","","","","","","","","","72","H","0","img/none_selected.jpg","","143","main_expt"
"187","","bandit","222","492088","0.0-183.0-0.0","47434585","wem/bandit_either","A2W59CL4UQ3S4S","either","2","","","","","","","0","0","1","0.4854048375","","0.6","0.4","0.2","0.8","","","","","0.2731230023","0.05613120157","0.1988203511","0.4854048375","","","","","","","76","L","3","","","144","main_expt"
"475","","bandit","223","494073","0.0-184.0-0.0","47434585","wem/bandit_either","A2W59CL4UQ3S4S","either","2","","","","","","","0","0","1","","0.03827589539","0.6","0.4","0.2","0.8","0.2943814715","0.03827589539","0.217822638","0.4813029389","","","","","","","","","","","74","J","1","","","145","main_expt"
"108","","bandit","224","495689","0.0-185.0-0.0","47434585","wem/bandit_either","A2W59CL4UQ3S4S","either","2","","","","","","","1","0","0","0.328634005","","0.6","0.4","0.2","0.8","","","","","0.328634005","0.02861175853","0.2009042904","0.4884824202","","","","","","","72","H","0","img/none_selected.jpg","","146","main_expt"
"252","","bandit","225","497448","0.0-186.0-0.0","47434585","wem/bandit_either","A2W59CL4UQ3S4S","either","2","","","","","","","0","0","1","","0.3511209141","0.6","0.4","0.2","0.8","0.3511209141","0.02140640811","0.2080446297","0.4835291327","","","","","","","","","","","72","H","0","img/none_selected.jpg","","147","main_expt"
"156","","bandit","226","499113","0.0-187.0-0.0","47434585","wem/bandit_either","A2W59CL4UQ3S4S","either","2","","","","","","","0","0","1","","0.3874996206","0.6","0.4","0.2","0.8","0.3874996206","0.0202041473","0.1536700415","0.4716003481","","","","","","","","","","","72","H","0","img/none_selected.jpg","","148","main_expt"
"355","","bandit","227","500977","0.0-188.0-0.0","47434585","wem/bandit_either","A2W59CL4UQ3S4S","either","2","","","","","","","0","0","1","0.3476646045","","0.6","0.4","0.2","0.8","","","","","0.3476646045","0.01154190459","0.1593661633","0.4341886607","","","","","","","72","H","0","img/none_selected.jpg","","149","main_expt"
"172","","bandit","228","502656","0.0-189.0-0.0","47434585","wem/bandit_either","A2W59CL4UQ3S4S","either","2","","","","","","","0","0","1","0.3323010919","","0.6","0.4","0.2","0.8","","","","","0.3323010919","0.01291237021","0.144955896","0.4014438172","","","","","","","72","H","0","img/none_selected.jpg","","150","main_expt"
"266","","bandit","229","504433","0.0-190.0-0.0","47434585","wem/bandit_either","A2W59CL4UQ3S4S","either","2","","","","","","","0","1","0","","0.3954477196","0.6","0.4","0.2","0.8","0.3954477196","0.0137789916","0.2123564028","0.3980713407","","","","","","","","","","","72","H","0","img/none_selected.jpg","","151","main_expt"
"244","","bandit","230","506184","0.0-191.0-0.0","47434585","wem/bandit_either","A2W59CL4UQ3S4S","either","2","","","","","","","0","0","1","","0.4186327087","0.6","0.4","0.2","0.8","0.4186327087","0.01985271471","0.2301890466","0.4002357887","","","","","","","","","","","72","H","0","img/none_selected.jpg","","152","main_expt"
"236","","bandit","231","507928","0.0-192.0-0.0","47434585","wem/bandit_either","A2W59CL4UQ3S4S","either","2","","","","","","","0","0","1","0.4029566754","","0.6","0.4","0.2","0.8","","","","","0.4029566754","0.02951100453","0.2295153641","0.388677987","","","","","","","72","H","0","img/none_selected.jpg","","153","main_expt"
"243","","bandit","232","509681","0.0-193.0-0.0","47434585","wem/bandit_either","A2W59CL4UQ3S4S","either","2","","","","","","","0","0","1","","0.4037751878","0.6","0.4","0.2","0.8","0.4037751878","0.02325572033","0.2163321136","0.3817747688","","","","","","","","","","","72","H","0","img/none_selected.jpg","","154","main_expt"
"379","","bandit","233","511569","0.0-194.0-0.0","47434585","wem/bandit_either","A2W59CL4UQ3S4S","either","2","","","","","","","0","0","1","0.4078727314","","0.6","0.4","0.2","0.8","","","","","0.4078727314","0.03925092562","0.2257858177","0.327727533","","","","","","","72","H","0","img/none_selected.jpg","","155","main_expt"
"162","","bandit","234","513241","0.0-195.0-0.0","47434585","wem/bandit_either","A2W59CL4UQ3S4S","either","2","","","","","","","0","0","1","","0.2821504166","0.6","0.4","0.2","0.8","0.3941681487","0.05532081832","0.2077891775","0.2821504166","","","","","","","","","","","76","L","3","","","156","main_expt"
"51","","bandit","235","514800","0.0-196.0-0.0","47434585","wem/bandit_either","A2W59CL4UQ3S4S","either","2","","","","","","","0","0","1","0.2784527126","","0.6","0.4","0.2","0.8","","","","","0.3417147062","0.05983660039","0.1742908387","0.2784527126","","","","","","","76","L","3","","","157","main_expt"
"148","","bandit","236","516457","0.0-197.0-0.0","47434585","wem/bandit_either","A2W59CL4UQ3S4S","either","2","","","","","","","0","1","0","","0.162057643","0.6","0.4","0.2","0.8","0.2963220618","0.09347744845","0.162057643","0.2857058734","","","","","","","","","","","75","K","2","","","158","main_expt"
"116","","bandit","237","518080","0.0-198.0-0.0","47434585","wem/bandit_either","A2W59CL4UQ3S4S","either","2","","","","","","","0","0","1","0.1805514511","","0.6","0.4","0.2","0.8","","","","","0.2961528309","0.09649648717","0.1805514511","0.2349295223","","","","","","","75","K","2","","","159","main_expt"
"371","","bandit","238","519961","0.0-199.0-0.0","47434585","wem/bandit_either","A2W59CL4UQ3S4S","either","2","","","","","","","0","1","0","","0.1724629995","0.6","0.4","0.2","0.8","0.2842772575","0.08382429791","0.1724629995","0.2275717407","","","","","","","","","","","75","K","2","","","160","main_expt"
"252","","bandit","239","521721","0.0-200.0-0.0","47434585","wem/bandit_either","A2W59CL4UQ3S4S","either","2","","","","","","","0","0","1","","0.1660992999","0.6","0.4","0.2","0.8","0.2747674873","0.1466352983","0.1660992999","0.2559884592","","","","","","","","","","","75","K","2","","","161","main_expt"
"130","","bandit","240","523360","0.0-201.0-0.0","47434585","wem/bandit_either","A2W59CL4UQ3S4S","either","2","","","","","","","0","1","0","","0.2281832109","0.6","0.4","0.2","0.8","0.2993190406","0.1569467617","0.2281832109","0.2670526618","","","","","","","","","","","75","K","2","","","162","main_expt"
"308","","bandit","241","525178","0.0-202.0-0.0","47434585","wem/bandit_either","A2W59CL4UQ3S4S","either","2","","","","","","","0","0","1","","0.1437935099","0.6","0.4","0.2","0.8","0.3102408377","0.1437935099","0.2144285545","0.2618894379","","","","","","","","","","","74","J","1","","","163","main_expt"
"114","","bandit","242","526801","0.0-203.0-0.0","47434585","wem/bandit_either","A2W59CL4UQ3S4S","either","2","","","","","","","0","0","1","0.1503677763","","0.6","0.4","0.2","0.8","","","","","0.2607878409","0.1503677763","0.2131293933","0.2977476978","","","","","","","74","J","1","","","164","main_expt"
"35","","bandit","243","528344","0.0-204.0-0.0","47434585","wem/bandit_either","A2W59CL4UQ3S4S","either","2","","","","","","","0","0","1","0.1574825995","","0.6","0.4","0.2","0.8","","","","","0.2470054868","0.1574825995","0.251698227","0.3138636066","","","","","","","74","J","1","","","165","main_expt"
"282","","bandit","244","530137","0.0-205.0-0.0","47434585","wem/bandit_either","A2W59CL4UQ3S4S","either","2","","","","","","","0","0","1","","0.1500633275","0.6","0.4","0.2","0.8","0.2629624785","0.1500633275","0.2831539445","0.3204338644","","","","","","","","","","","74","J","1","","","166","main_expt"
"84","","bandit","245","531728","0.0-206.0-0.0","47434585","wem/bandit_either","A2W59CL4UQ3S4S","either","2","","","","","","","0","0","1","","0.2745713682","0.6","0.4","0.2","0.8","0.2745713682","0.1137242654","0.2496169508","0.3600517585","","","","","","","","","","","72","H","0","img/none_selected.jpg","","167","main_expt"
"410","","bandit","246","533648","0.0-207.0-0.0","47434585","wem/bandit_either","A2W59CL4UQ3S4S","either","2","","","","","","","0","0","1","","0.2557249153","0.6","0.4","0.2","0.8","0.2557249153","0.145192941","0.2315540067","0.3678373827","","","","","","","","","","","72","H","0","img/none_selected.jpg","","168","main_expt"
"258","","bandit","247","535414","0.0-208.0-0.0","47434585","wem/bandit_either","A2W59CL4UQ3S4S","either","2","","","","","","","0","1","0","","0.2016321063","0.6","0.4","0.2","0.8","0.2016321063","0.1863479632","0.1825517174","0.3421512568","","","","","","","","","","","72","H","0","img/none_selected.jpg","","169","main_expt"
"348","","bandit","248","537271","0.0-209.0-0.0","47434585","wem/bandit_either","A2W59CL4UQ3S4S","either","2","","","","","","","0","0","1","0.142304713","","0.6","0.4","0.2","0.8","","","","","0.2210696627","0.142304713","0.2535959064","0.3917895485","","","","","","","74","J","1","","","170","main_expt"
"261","","bandit","249","539040","0.0-210.0-0.0","47434585","wem/bandit_either","A2W59CL4UQ3S4S","either","2","","","","","","","0","0","1","0.1627904758","","0.6","0.4","0.2","0.8","","","","","0.1627904758","0.1739768979","0.3004284576","0.3206692194","","","","","","","72","H","0","img/none_selected.jpg","","171","main_expt"
"267","","bandit","250","540817","0.0-211.0-0.0","47434585","wem/bandit_either","A2W59CL4UQ3S4S","either","2","","","","","","","0","0","1","0.2172659048","","0.6","0.4","0.2","0.8","","","","","0.1421076649","0.2172659048","0.2716191145","0.3198600846","","","","","","","74","J","1","","","172","main_expt"
"315","","bandit","251","542642","0.0-212.0-0.0","47434585","wem/bandit_either","A2W59CL4UQ3S4S","either","2","","","","","","","0","0","1","","0.3253138029","0.6","0.4","0.2","0.8","0.165050165","0.2419731025","0.3253138029","0.2641483633","","","","","","","","","","","75","K","2","","","173","main_expt"
"81","","bandit","252","544232","0.0-213.0-0.0","47434585","wem/bandit_either","A2W59CL4UQ3S4S","either","2","","","","","","","0","0","1","0.2248062597","","0.6","0.4","0.2","0.8","","","","","0.1406738207","0.2239571331","0.3419591401","0.2248062597","","","","","","","76","L","3","","","174","main_expt"
"227","","bandit","253","545969","0.0-214.0-0.0","47434585","wem/bandit_either","A2W59CL4UQ3S4S","either","2","","","","","","","1","0","0","0.2370379408","","0.6","0.4","0.2","0.8","","","","","0.138310495","0.2311410243","0.3442692367","0.2370379408","","","","","","","76","L","3","","","175","main_expt"
"273","","bandit","254","547752","0.0-215.0-0.0","47434585","wem/bandit_either","A2W59CL4UQ3S4S","either","2","","","","","","","0","0","1","0.2157433706","","0.6","0.4","0.2","0.8","","","","","0.1675243642","0.2610077479","0.3397266539","0.2157433706","","","","","","","76","L","3","","","176","main_expt"
"90","","bandit","255","549351","0.0-216.0-0.0","47434585","wem/bandit_either","A2W59CL4UQ3S4S","either","2","","","","","","","0","0","1","0.2014791824","","0.6","0.4","0.2","0.8","","","","","0.1919885971","0.2780938204","0.2997078274","0.2014791824","","","","","","","76","L","3","","","177","main_expt"
"115","","bandit","256","550977","0.0-217.0-0.0","47434585","wem/bandit_either","A2W59CL4UQ3S4S","either","2","","","","","","","0","0","1","0.1913564418","","0.6","0.4","0.2","0.8","","","","","0.2365392944","0.3151752793","0.3064007527","0.1913564418","","","","","","","76","L","3","","","178","main_expt"
"283","","bandit","257","552770","0.0-218.0-0.0","47434585","wem/bandit_either","A2W59CL4UQ3S4S","either","2","","","","","","","0","0","1","","0.1980728016","0.6","0.4","0.2","0.8","0.2509455726","0.2799621139","0.3533432679","0.1980728016","","","","","","","","","","","76","L","3","","","179","main_expt"
"265","","bandit","258","554545","0.0-219.0-0.0","47434585","wem/bandit_either","A2W59CL4UQ3S4S","either","2","","","","","","","0","0","1","","0.1833491223","0.6","0.4","0.2","0.8","0.2767223981","0.3170936092","0.3652522579","0.1833491223","","","","","","","","","","","76","L","3","","","180","main_expt"
"42","","bandit","259","556096","0.0-220.0-0.0","47434585","wem/bandit_either","A2W59CL4UQ3S4S","either","2","","","","","","","0","0","1","0.1342686697","","0.6","0.4","0.2","0.8","","","","","0.314600373","0.28101752","0.3383156657","0.1342686697","","","","","","","76","L","3","","","181","main_expt"
"362","","bandit","260","557967","0.0-221.0-0.0","47434585","wem/bandit_either","A2W59CL4UQ3S4S","either","2","","","","","","","0","0","1","0.1636660304","","0.6","0.4","0.2","0.8","","","","","0.3943610609","0.3043342224","0.2902116232","0.1636660304","","","","","","","76","L","3","","","182","main_expt"
"348","","bandit","261","559825","0.0-222.0-0.0","47434585","wem/bandit_either","A2W59CL4UQ3S4S","either","2","","","","","","","0","0","1","0.3026157476","","0.6","0.4","0.2","0.8","","","","","0.3586422101","0.3192524042","0.3026157476","0.136761637","","","","","","","75","K","2","","","183","main_expt"
"298","","bandit","262","561631","0.0-223.0-0.0","47434585","wem/bandit_either","A2W59CL4UQ3S4S","either","2","","","","","","","0","0","1","","0.3360229169","0.6","0.4","0.2","0.8","0.3879999062","0.3332516821","0.3360229169","0.1685989701","","","","","","","","","","","75","K","2","","","184","main_expt"
"341","","bandit","263","563480","0.0-224.0-0.0","47434585","wem/bandit_either","A2W59CL4UQ3S4S","either","2","","","","","","","0","0","1","","0.1663529744","0.6","0.4","0.2","0.8","0.3831340227","0.3228184693","0.3336456265","0.1663529744","","","","","","","","","","","76","L","3","","","185","main_expt"
"162","","bandit","264","565152","0.0-225.0-0.0","47434585","wem/bandit_either","A2W59CL4UQ3S4S","either","2","","","","","","","0","1","0","","0.3111703144","0.6","0.4","0.2","0.8","0.3999004662","0.3111703144","0.3308881938","0.1916836285","","","","","","","","","","","74","J","1","","","186","main_expt"
"275","","bandit","265","566936","0.0-226.0-0.0","47434585","wem/bandit_either","A2W59CL4UQ3S4S","either","2","","","","","","","0","0","1","","0.3353611299","0.6","0.4","0.2","0.8","0.3875363153","0.3353611299","0.325530054","0.1686829448","","","","","","","","","","","74","J","1","","","187","main_expt"
"210","","bandit","266","568656","0.0-227.0-0.0","47434585","wem/bandit_either","A2W59CL4UQ3S4S","either","2","","","","","","","0","0","1","","0.3646937268","0.6","0.4","0.2","0.8","0.3875691392","0.3646937268","0.3055482451","0.1461675531","","","","","","","","","","","74","J","1","","","188","main_expt"
"147","","bandit","267","570312","0.0-228.0-0.0","47434585","wem/bandit_either","A2W59CL4UQ3S4S","either","2","","","","","","","0","1","0","","0.3891323825","0.6","0.4","0.2","0.8","0.4166866882","0.3891323825","0.3002345065","0.1382971047","","","","","","","","","","","74","J","1","","","189","main_expt"
"306","","bandit","268","572128","0.0-229.0-0.0","47434585","wem/bandit_either","A2W59CL4UQ3S4S","either","2","","","","","","","1","0","0","0.4124474499","","0.6","0.4","0.2","0.8","","","","","0.4124474499","0.3860741766","0.2693931213","0.1898135375","","","","","","","72","H","0","img/none_selected.jpg","","190","main_expt"
"276","","bandit","269","573911","0.0-230.0-0.0","47434585","wem/bandit_either","A2W59CL4UQ3S4S","either","2","","","","","","","0","0","1","","0.3638199534","0.6","0.4","0.2","0.8","0.3638199534","0.3864243721","0.3009284261","0.1264917812","","","","","","","","","","","72","H","0","img/none_selected.jpg","","191","main_expt"
"203","","bandit","270","575624","0.0-231.0-0.0","47434585","wem/bandit_either","A2W59CL4UQ3S4S","either","2","","","","","","","0","0","1","","0.3711146034","0.6","0.4","0.2","0.8","0.3711146034","0.400448014","0.3157917784","0.1185409567","","","","","","","","","","","72","H","0","img/none_selected.jpg","","192","main_expt"
"163","","bandit","271","577298","0.0-232.0-0.0","47434585","wem/bandit_either","A2W59CL4UQ3S4S","either","2","","","","","","","0","0","1","0.3654165885","","0.6","0.4","0.2","0.8","","","","","0.3654165885","0.3895367297","0.2999212614","0.09837948322","","","","","","","72","H","0","img/none_selected.jpg","","193","main_expt"
"168","","bandit","272","578976","0.0-233.0-0.0","47434585","wem/bandit_either","A2W59CL4UQ3S4S","either","2","","","","","","","0","0","1","","0.3537818584","0.6","0.4","0.2","0.8","0.3537818584","0.4032313792","0.3287494418","0.137690802","","","","","","","","","","","72","H","0","img/none_selected.jpg","","194","main_expt"
"243","","bandit","273","580729","0.0-234.0-0.0","47434585","wem/bandit_either","A2W59CL4UQ3S4S","either","2","","","","","","","0","0","1","","0.3597494918","0.6","0.4","0.2","0.8","0.3597494918","0.337234763","0.3031978913","0.1683354775","","","","","","","","","","","72","H","0","img/none_selected.jpg","","195","main_expt"
"162","","bandit","274","582401","0.0-235.0-0.0","47434585","wem/bandit_either","A2W59CL4UQ3S4S","either","2","","","","","","","0","0","1","0.1561951964","","0.6","0.4","0.2","0.8","","","","","0.3479121901","0.3950764453","0.2901303692","0.1561951964","","","","","","","76","L","3","","","196","main_expt"
"51","","bandit","275","583961","0.0-236.0-0.0","47434585","wem/bandit_either","A2W59CL4UQ3S4S","either","2","","","","","","","0","0","1","0.3596292454","","0.6","0.4","0.2","0.8","","","","","0.3596292454","0.4193743727","0.2444781728","0.1329868482","","","","","","","72","H","0","img/none_selected.jpg","","197","main_expt"
"121","","bandit","276","585592","0.0-237.0-0.0","47434585","wem/bandit_either","A2W59CL4UQ3S4S","either","2","","","","","","","0","0","1","0.1730826789","","0.6","0.4","0.2","0.8","","","","","0.3555371828","0.4375347816","0.2140047665","0.1730826789","","","","","","","76","L","3","","","198","main_expt"
"387","","bandit","277","587488","0.0-238.0-0.0","47434585","wem/bandit_either","A2W59CL4UQ3S4S","either","2","","","","","","","0","1","0","","0.4315030007","0.6","0.4","0.2","0.8","0.4016486285","0.4315030007","0.2077842613","0.1385649096","","","","","","","","","","","74","J","1","","","199","main_expt"
"298","","bandit","278","589296","0.0-239.0-0.0","47434585","wem/bandit_either","A2W59CL4UQ3S4S","either","2","","","","","","","0","0","1","0.180488049","","0.6","0.4","0.2","0.8","","","","","0.3871107612","0.4340108373","0.180488049","0.1941139053","","","","","","","75","K","2","","","200","main_expt"
"202","","bandit","279","591008","0.0-240.0-0.0","47434585","wem/bandit_either","A2W59CL4UQ3S4S","either","2","","","","","","","0","0","1","","0.2084987087","0.6","0.4","0.2","0.8","0.3856539452","0.441078118","0.2084987087","0.1825013029","","","","","","","","","","","75","K","2","","","201","main_expt"
"105","","bandit","280","592624","0.0-241.0-0.0","47434585","wem/bandit_either","A2W59CL4UQ3S4S","either","2","","","","","","","0","0","1","0.162440572","","0.6","0.4","0.2","0.8","","","","","0.358588673","0.4143682719","0.1869669721","0.162440572","","","","","","","76","L","3","","","202","main_expt"
"99","","bandit","281","594232","0.0-242.0-0.0","47434585","wem/bandit_either","A2W59CL4UQ3S4S","either","2","","","","","","","1","0","0","0.3460881607","","0.6","0.4","0.2","0.8","","","","","0.3460881607","0.4280720422","0.1383076553","0.1914238456","","","","","","","72","H","0","img/none_selected.jpg","","203","main_expt"
"210","","bandit","282","595951","0.0-243.0-0.0","47434585","wem/bandit_either","A2W59CL4UQ3S4S","either","2","","","","","","","0","0","1","0.3091432968","","0.6","0.4","0.2","0.8","","","","","0.3091432968","0.4113524858","0.1656187697","0.1849793247","","","","","","","72","H","0","img/none_selected.jpg","","204","main_expt"
"76","","bandit","283","597538","0.0-244.0-0.0","47434585","wem/bandit_either","A2W59CL4UQ3S4S","either","2","","","","","","","0","0","1","0.3016396897","","0.6","0.4","0.2","0.8","","","","","0.3016396897","0.4151465815","0.1699285253","0.1722293799","","","","","","","72","H","0","img/none_selected.jpg","","205","main_expt"
"217","","bandit","284","599264","0.0-245.0-0.0","47434585","wem/bandit_either","A2W59CL4UQ3S4S","either","2","","","","","","","0","0","1","0.3300702997","","0.6","0.4","0.2","0.8","","","","","0.3300702997","0.4002359997","0.161732949","0.1625694713","","","","","","","72","H","0","img/none_selected.jpg","","206","main_expt"
"99","","bandit","285","600870","0.0-246.0-0.0","47434585","wem/bandit_either","A2W59CL4UQ3S4S","either","2","","","","","","","0","1","0","","0.2648848683","0.6","0.4","0.2","0.8","0.2648848683","0.3692387261","0.1699017951","0.1079769143","","","","","","","","","","","72","H","0","img/none_selected.jpg","","207","main_expt"
"251","","bandit","286","602630","0.0-247.0-0.0","47434585","wem/bandit_either","A2W59CL4UQ3S4S","either","2","","","","","","","1","0","0","0.2502792914","","0.6","0.4","0.2","0.8","","","","","0.2502792914","0.3283471685","0.1592107695","0.1380178959","","","","","","","72","H","0","img/none_selected.jpg","","208","main_expt"
"237","","bandit","287","604377","0.0-248.0-0.0","47434585","wem/bandit_either","A2W59CL4UQ3S4S","either","2","","","","","","","1","0","0","0.2770073026","","0.6","0.4","0.2","0.8","","","","","0.2770073026","0.2924758898","0.1659907122","0.1538506734","","","","","","","72","H","0","img/none_selected.jpg","","209","main_expt"
"129","","bandit","288","606016","0.0-249.0-0.0","47434585","wem/bandit_either","A2W59CL4UQ3S4S","either","2","","","","","","","0","0","1","","0.3451435735","0.6","0.4","0.2","0.8","0.3451435735","0.2279470939","0.229525517","0.1406222791","","","","","","","","","","","72","H","0","img/none_selected.jpg","","210","main_expt"
"129","","bandit","289","607655","0.0-250.0-0.0","47434585","wem/bandit_either","A2W59CL4UQ3S4S","either","2","","","","","","","0","1","0","","0.3514478275","0.6","0.4","0.2","0.8","0.3514478275","0.2131844406","0.2434605193","0.08987887408","","","","","","","","","","","72","H","0","img/none_selected.jpg","","211","main_expt"
"131","","bandit","290","609297","0.0-251.0-0.0","47434585","wem/bandit_either","A2W59CL4UQ3S4S","either","2","","","","","","","0","0","1","0.3579324364","","0.6","0.4","0.2","0.8","","","","","0.3579324364","0.1601793481","0.1633214123","0.1277875359","","","","","","","72","H","0","img/none_selected.jpg","","212","main_expt"
"17","","bandit","291","610824","0.0-252.0-0.0","47434585","wem/bandit_either","A2W59CL4UQ3S4S","either","2","","","","","","","0","1","0","","0.3231243524","0.6","0.4","0.2","0.8","0.3231243524","0.1354109392","0.1014835246","0.134271297","","","","","","","","","","","72","H","0","img/none_selected.jpg","","213","main_expt"
"298","","bandit","292","612632","0.0-253.0-0.0","47434585","wem/bandit_either","A2W59CL4UQ3S4S","either","2","","","","","","","0","0","1","0.2798540136","","0.6","0.4","0.2","0.8","","","","","0.2798540136","0.1142105534","0.09587264096","0.1385204111","","","","","","","72","H","0","img/none_selected.jpg","","214","main_expt"
"170","","bandit","293","614311","0.0-254.0-0.0","47434585","wem/bandit_either","A2W59CL4UQ3S4S","either","2","","","","","","","0","1","0","","0.2469391402","0.6","0.4","0.2","0.8","0.2469391402","0.1031311673","0.08342689115","0.1089132689","","","","","","","","","","","72","H","0","img/none_selected.jpg","","215","main_expt"
"43","","bandit","294","615865","0.0-255.0-0.0","47434585","wem/bandit_either","A2W59CL4UQ3S4S","either","2","","","","","","","0","0","1","","0.3211823944","0.6","0.4","0.2","0.8","0.3211823944","0.1031732366","0.05361264496","0.1299508563","","","","","","","","","","","72","H","0","img/none_selected.jpg","","216","main_expt"
"264","","bandit","295","617638","0.0-256.0-0.0","47434585","wem/bandit_either","A2W59CL4UQ3S4S","either","2","","","","","","","0","0","1","0.3545519007","","0.6","0.4","0.2","0.8","","","","","0.3545519007","0.1188097379","0.09912420903","0.131109262","","","","","","","72","H","0","img/none_selected.jpg","","217","main_expt"
"252","","bandit","296","619399","0.0-257.0-0.0","47434585","wem/bandit_either","A2W59CL4UQ3S4S","either","2","","","","","","","0","0","1","","0.3781539282","0.6","0.4","0.2","0.8","0.3781539282","0.1096623481","0.1021137889","0.1039495344","","","","","","","","","","","72","H","0","img/none_selected.jpg","","218","main_expt"
"323","","bandit","297","621232","0.0-258.0-0.0","47434585","wem/bandit_either","A2W59CL4UQ3S4S","either","2","","","","","","","0","0","1","","0.3674409598","0.6","0.4","0.2","0.8","0.3674409598","0.08679630722","0.1025207236","0.09488552944","","","","","","","","","","","72","H","0","img/none_selected.jpg","","219","main_expt"
"290","","bandit","298","623031","0.0-259.0-0.0","47434585","wem/bandit_either","A2W59CL4UQ3S4S","either","2","","","","","","","0","0","1","0.315237632","","0.6","0.4","0.2","0.8","","","","","0.315237632","0.1482089448","0.1049734862","0.1311925698","","","","","","","72","H","0","img/none_selected.jpg","","220","main_expt"
"306","","bandit","299","624848","0.0-260.0-0.0","47434585","wem/bandit_either","A2W59CL4UQ3S4S","either","2","","","","","","","0","0","1","0.08224132258","","0.6","0.4","0.2","0.8","","","","","0.3572442142","0.217172314","0.08244295151","0.08224132258","","","","","","","76","L","3","","","221","main_expt"
"267","","bandit","300","626623","0.0-261.0-0.0","47434585","wem/bandit_either","A2W59CL4UQ3S4S","either","2","","","","","","","0","0","1","0.06870998364","","0.6","0.4","0.2","0.8","","","","","0.2796125419","0.2227738938","0.09815111748","0.06870998364","","","","","","","76","L","3","","","222","main_expt"
"346","","bandit","301","628479","0.0-262.0-0.0","47434585","wem/bandit_either","A2W59CL4UQ3S4S","either","2","","","","","","","0","0","1","0.111762886","","0.6","0.4","0.2","0.8","","","","","0.2265565182","0.2768694491","0.09925351505","0.111762886","","","","","","","76","L","3","","","223","main_expt"
"75","","bandit","302","630064","0.0-263.0-0.0","47434585","wem/bandit_either","A2W59CL4UQ3S4S","either","2","","","","","","","0","0","1","","0.07842644678","0.6","0.4","0.2","0.8","0.1727872262","0.2895694018","0.07842644678","0.09652303785","","","","","","","","","","","75","K","2","","","224","main_expt"
"528","","bandit","303","632104","0.0-264.0-0.0","47434585","wem/bandit_either","A2W59CL4UQ3S4S","either","2","","","","","","","0","1","0","","0.3515154126","0.6","0.4","0.2","0.8","0.1580797834","0.3515154126","0.05284632075","0.09424892582","","","","","","","","","","","74","J","1","","","225","main_expt"
"242","","bandit","304","633856","0.0-265.0-0.0","47434585","wem/bandit_either","A2W59CL4UQ3S4S","either","2","","","","","","","0","0","1","","0.3960872924","0.6","0.4","0.2","0.8","0.1206031336","0.3960872924","0.06788221328","0.1094697254","","","","","","","","","","","74","J","1","","","226","main_expt"
"249","","bandit","305","635617","0.0-266.0-0.0","47434585","wem/bandit_either","A2W59CL4UQ3S4S","either","2","","","","","","","1","0","0","0.3301105445","","0.6","0.4","0.2","0.8","","","","","0.1218099769","0.3301105445","0.04226868229","0.1055794081","","","","","","","74","J","1","","","227","main_expt"
"283","","bandit","306","637410","0.0-267.0-0.0","47434585","wem/bandit_either","A2W59CL4UQ3S4S","either","2","","","","","","","0","0","1","0.3679650562","","0.6","0.4","0.2","0.8","","","","","0.08458740206","0.3679650562","0.06174471126","0.1210232629","","","","","","","74","J","1","","","228","main_expt"
"232","","bandit","307","639150","0.0-268.0-0.0","47434585","wem/bandit_either","A2W59CL4UQ3S4S","either","2","","","","","","","1","0","0","0.3413725311","","0.6","0.4","0.2","0.8","","","","","0.06311990622","0.3413725311","0.06122033102","0.1249199002","","","","","","","74","J","1","","","229","main_expt"
"274","","bandit","308","640936","0.0-269.0-0.0","47434585","wem/bandit_either","A2W59CL4UQ3S4S","either","2","","","","","","","0","0","1","0.3652503211","","0.6","0.4","0.2","0.8","","","","","0.04674316758","0.3652503211","0.09369367087","0.1423167866","","","","","","","74","J","1","","","230","main_expt"
"56","","bandit","309","642503","0.0-270.0-0.0","47434585","wem/bandit_either","A2W59CL4UQ3S4S","either","2","","","","","","","0","0","1","","0.3774172636","0.6","0.4","0.2","0.8","0.06697327866","0.3774172636","0.1378364932","0.1441411413","","","","","","","","","","","74","J","1","","","231","main_expt"
"123","","bandit","310","644135","0.0-271.0-0.0","47434585","wem/bandit_either","A2W59CL4UQ3S4S","either","2","","","","","","","0","0","1","","0.3507397895","0.6","0.4","0.2","0.8","0.08617656909","0.3507397895","0.1138343256","0.1132866493","","","","","","","","","","","74","J","1","","","232","main_expt"
"282","","bandit","311","645927","0.0-272.0-0.0","47434585","wem/bandit_either","A2W59CL4UQ3S4S","either","2","","","","","","","0","1","0","","0.3228668676","0.6","0.4","0.2","0.8","0.08388286328","0.3228668676","0.1602674987","0.07587191469","","","","","","","","","","","74","J","1","","","233","main_expt"
"107","","bandit","312","647544","0.0-273.0-0.0","47434585","wem/bandit_either","A2W59CL4UQ3S4S","either","2","","","","","","","0","0","1","0.3219168209","","0.6","0.4","0.2","0.8","","","","","0.08303297831","0.3219168209","0.1399599793","0.08330376307","","","","","","","74","J","1","","","234","main_expt"
"136","","bandit","313","649189","0.0-274.0-0.0","47434585","wem/bandit_either","A2W59CL4UQ3S4S","either","2","","","","","","","1","0","0","0.2907257894","","0.6","0.4","0.2","0.8","","","","","0.08228619446","0.2907257894","0.1577883936","0.07960395758","","","","","","","74","J","1","","","235","main_expt"
"203","","bandit","314","650903","0.0-275.0-0.0","47434585","wem/bandit_either","A2W59CL4UQ3S4S","either","2","","","","","","","0","0","1","0.2879125653","","0.6","0.4","0.2","0.8","","","","","0.07856112713","0.2879125653","0.1206463377","0.06703487678","","","","","","","74","J","1","","","236","main_expt"
"121","","bandit","315","652536","0.0-276.0-0.0","47434585","wem/bandit_either","A2W59CL4UQ3S4S","either","2","","","","","","","0","0","1","0.3055933028","","0.6","0.4","0.2","0.8","","","","","0.09394336493","0.3055933028","0.1224948263","0.07970276757","","","","","","","74","J","1","","","237","main_expt"
"250","","bandit","316","654296","0.0-277.0-0.0","47434585","wem/bandit_either","A2W59CL4UQ3S4S","either","2","","","","","","","1","0","0","0.3197806133","","0.6","0.4","0.2","0.8","","","","","0.1044036833","0.3197806133","0.1163601633","0.05589422377","","","","","","","74","J","1","","","238","main_expt"
"273","","bandit","317","656081","0.0-278.0-0.0","47434585","wem/bandit_either","A2W59CL4UQ3S4S","either","2","","","","","","","0","0","1","","0.2699970134","0.6","0.4","0.2","0.8","0.1010835707","0.2699970134","0.09302868556","0.07304711058","","","","","","","","","","","74","J","1","","","239","main_expt"
"87","","bandit","318","657682","0.0-279.0-0.0","47434585","wem/bandit_either","A2W59CL4UQ3S4S","either","2","","","","","","","1","0","0","0.2594796501","","0.6","0.4","0.2","0.8","","","","","0.1196592177","0.2594796501","0.1142909623","0.05193691484","","","","","","","74","J","1","","","240","main_expt"
"87","","bandit","319","659279","0.0-280.0-0.0","47434585","wem/bandit_either","A2W59CL4UQ3S4S","either","2","","","","","","","0","0","1","","0.252227353","0.6","0.4","0.2","0.8","0.127320561","0.252227353","0.1694552561","0.06844812817","","","","","","","","","","","74","J","1","","","241","main_expt"
"88","","bandit","320","660878","0.0-281.0-0.0","47434585","wem/bandit_either","A2W59CL4UQ3S4S","either","2","","","","","","","0","0","1","0.301231011","","0.6","0.4","0.2","0.8","","","","","0.10641745","0.301231011","0.1828807391","0.07869989264","","","","","","","74","J","1","","","242","main_expt"
"97","","bandit","321","662488","0.0-282.0-0.0","47434585","wem/bandit_either","A2W59CL4UQ3S4S","either","2","","","","","","","0","0","1","","0.2903867436","0.6","0.4","0.2","0.8","0.131785075","0.2903867436","0.1236361748","0.06084245892","","","","","","","","","","","74","J","1","","","243","main_expt"
"40","","bandit","322","664039","0.0-283.0-0.0","47434585","wem/bandit_either","A2W59CL4UQ3S4S","either","2","","","","","","","0","0","1","","0.2659167858","0.6","0.4","0.2","0.8","0.1150513838","0.2659167858","0.1131162958","0.04982625113","","","","","","","","","","","74","J","1","","","244","main_expt"
"248","","bandit","323","665798","0.0-284.0-0.0","47434585","wem/bandit_either","A2W59CL4UQ3S4S","either","2","","","","","","","0","0","1","","0.254087564","0.6","0.4","0.2","0.8","0.1651966394","0.254087564","0.08611006768","0.04708965441","","","","","","","","","","","74","J","1","","","245","main_expt"
"235","","bandit","324","667542","0.0-285.0-0.0","47434585","wem/bandit_either","A2W59CL4UQ3S4S","either","2","","","","","","","0","0","1","","0.2551799517","0.6","0.4","0.2","0.8","0.1555796254","0.2551799517","0.1123216353","0.0280961865","","","","","","","","","","","74","J","1","","","246","main_expt"
"179","","bandit","325","669231","0.0-286.0-0.0","47434585","wem/bandit_either","A2W59CL4UQ3S4S","either","2","","","","","","","0","0","1","0.2629335529","","0.6","0.4","0.2","0.8","","","","","0.1703980626","0.2629335529","0.09475638668","0.04499456282","","","","","","","74","J","1","","","247","main_expt"
"257","","bandit","326","670998","0.0-287.0-0.0","47434585","wem/bandit_either","A2W59CL4UQ3S4S","either","2","","","","","","","0","0","1","0.2393496224","","0.6","0.4","0.2","0.8","","","","","0.1502680902","0.2393496224","0.08309477664","0.03910304398","","","","","","","74","J","1","","","248","main_expt"
"210","","bandit","327","672721","0.0-288.0-0.0","47434585","wem/bandit_either","A2W59CL4UQ3S4S","either","2","","","","","","","0","0","1","","0.09118761135","0.6","0.4","0.2","0.8","0.1515252412","0.2612635012","0.09118761135","0.02658952892","","","","","","","","","","","75","K","2","","","249","main_expt"
"248","","bandit","328","674480","0.0-289.0-0.0","47434585","wem/bandit_either","A2W59CL4UQ3S4S","either","2","","","","","","","0","0","1","","0.1173751119","0.6","0.4","0.2","0.8","0.164479444","0.2729339083","0.1173751119","0.02715120894","","","","","","","","","","","75","K","2","","","250","main_expt"
"280","","bandit","329","676272","0.0-290.0-0.0","47434585","wem/bandit_either","A2W59CL4UQ3S4S","either","2","","","","","","","0","0","1","","0.10167128","0.6","0.4","0.2","0.8","0.1036013708","0.2394547858","0.10167128","0.02468122838","","","","","","","","","","","75","K","2","","","251","main_expt"
"185","","bandit","330","677968","0.0-291.0-0.0","47434585","wem/bandit_either","A2W59CL4UQ3S4S","either","2","","","","","","","0","0","1","","0.1206404305","0.6","0.4","0.2","0.8","0.1206404305","0.1971678968","0.1297907712","0.01934001153","","","","","","","","","","","72","H","0","img/none_selected.jpg","","252","main_expt"
"297","","bandit","331","679776","0.0-292.0-0.0","47434585","wem/bandit_either","A2W59CL4UQ3S4S","either","2","","","","","","","0","0","1","0.144481093","","0.6","0.4","0.2","0.8","","","","","0.144481093","0.2194815642","0.08555329314","0.01552303999","","","","","","","72","H","0","img/none_selected.jpg","","253","main_expt"
