"rt","responses","trial_type","trial_index","time_elapsed","internal_node_id","subjID","study","MID","cond","drift","key_press","expt_phase","target","like","value","connected","gems","bombs","no_reward","GemPrChosen","BombPrChosen","GainOverPainPr_0","GainOverPainPr_1","GainOverPainPr_2","GainOverPainPr_3","LosePr_0","LosePr_1","LosePr_2","LosePr_3","WinPr_0","WinPr_1","WinPr_2","WinPr_3","Q0","Q1","Q2","gender","age","ethnicity","respCharCode","respKey","respChoiceNum","respChoice","practice","trial_counter","trial_label"
"10224","{""Q0"":""A2HZPQDYHDZWBA""}","survey-text","0","10259","0.0-0.0","48384846","wem/bandit_either","A2HZPQDYHDZWBA","either","7","","","","","","","","","","","","","","","","","","","","","","","","","","","","","","","","","","","",""
"22127","","text","1","33397","0.0-1.0","48384846","wem/bandit_either","A2HZPQDYHDZWBA","either","7","32","","","","","","","","","","","","","","","","","","","","","","","","","","","","","","","","","","",""
"26669","","text","2","60071","0.0-2.0","48384846","wem/bandit_either","A2HZPQDYHDZWBA","either","7","32","","","","","","","","","","","","","","","","","","","","","","","","","","","","","","","","","","",""
"26946","","text","3","87025","0.0-3.0","48384846","wem/bandit_either","A2HZPQDYHDZWBA","either","7","32","","","","","","","","","","","","","","","","","","","","","","","","","","","","","","","","","","",""
"18411","","text","4","105447","0.0-4.0","48384846","wem/bandit_either","A2HZPQDYHDZWBA","either","7","32","","","","","","","","","","","","","","","","","","","","","","","","","","","","","","","","","","",""
"33032","","text","5","138490","0.0-5.0","48384846","wem/bandit_either","A2HZPQDYHDZWBA","either","7","32","","","","","","","","","","","","","","","","","","","","","","","","","","","","","","","","","","",""
"14319","","text","6","152822","0.0-6.0","48384846","wem/bandit_either","A2HZPQDYHDZWBA","either","7","32","","","","","","","","","","","","","","","","","","","","","","","","","","","","","","","","","","",""
"5916","","text","7","158748","0.0-7.0","48384846","wem/bandit_either","A2HZPQDYHDZWBA","either","7","32","","","","","","","","","","","","","","","","","","","","","","","","","","","","","","","","","","",""
"17875","","identification","8","176733","0.0-8.0-0.0","48384846","wem/bandit_either","A2HZPQDYHDZWBA","either","7","","identification_pre","the village of Zur","","","","","","","","","","","","","","","","","","","","","","","","","","","","","","","","",""
"5955","","identification","9","183792","0.0-8.0-1.0","48384846","wem/bandit_either","A2HZPQDYHDZWBA","either","7","","identification_pre","the village of Nyx","","","","","","","","","","","","","","","","","","","","","","","","","","","","","","","","",""
"13010","","text","10","197833","0.0-9.0","48384846","wem/bandit_either","A2HZPQDYHDZWBA","either","7","32","","","","","","","","","","","","","","","","","","","","","","","","","","","","","","","","","","",""
"7650","","text","11","205498","0.0-10.0","48384846","wem/bandit_either","A2HZPQDYHDZWBA","either","7","32","","","","","","","","","","","","","","","","","","","","","","","","","","","","","","","","","","",""
"3145","","text","12","208652","0.0-11.0","48384846","wem/bandit_either","A2HZPQDYHDZWBA","either","7","32","","","","","","","","","","","","","","","","","","","","","","","","","","","","","","","","","","",""
"4190","","text","13","212851","0.0-12.0","48384846","wem/bandit_either","A2HZPQDYHDZWBA","either","7","32","","","","","","","","","","","","","","","","","","","","","","","","","","","","","","","","","","",""
"2289","","bandit","14","216679","0.0-13.0-0.0","48384846","wem/bandit_either","A2HZPQDYHDZWBA","either","7","","","","","","","0","0","1","0","0","","","","","0","","","","0","","","","","","","","","","74","J","0","img/none_selected_demo.jpg","true","0",""
"1598","","bandit","15","219807","0.0-14.0-0.0","48384846","wem/bandit_either","A2HZPQDYHDZWBA","either","7","","","","","","","0","0","1","0","0","","","","","0","","","","0","","","","","","","","","","75","K","0","img/none_selected_demo.jpg","true","0",""
"12794","","text","16","232608","0.0-15.0","48384846","wem/bandit_either","A2HZPQDYHDZWBA","either","7","32","","","","","","","","","","","","","","","","","","","","","","","","","","","","","","","","","","",""
"11575","","text","17","244188","0.0-16.0","48384846","wem/bandit_either","A2HZPQDYHDZWBA","either","7","32","","","","","","","","","","","","","","","","","","","","","","","","","","","","","","","","","","",""
"23887","","text","18","268084","0.0-17.0","48384846","wem/bandit_either","A2HZPQDYHDZWBA","either","7","32","","","","","","","","","","","","","","","","","","","","","","","","","","","","","","","","","","",""
"6554","","text","19","274653","0.0-18.0","48384846","wem/bandit_either","A2HZPQDYHDZWBA","either","7","32","","","","","","","","","","","","","","","","","","","","","","","","","","","","","","","","","","",""
"583","","bandit","20","276774","0.0-19.0-0.0","48384846","wem/bandit_either","A2HZPQDYHDZWBA","either","7","","","","","","","1","0","0","0.8","","0.5","0.5","","","","","","","0.8","0.2","","","","","","","","","74","J","0","img/none_selected_demo.jpg","true","0","80_20_practice"
"1747","","bandit","21","280052","0.0-19.0-1.0","48384846","wem/bandit_either","A2HZPQDYHDZWBA","either","7","","","","","","","1","0","0","0.8","","0.5","0.5","","","","","","","0.8","0.2","","","","","","","","","74","J","0","img/none_selected_demo.jpg","true","0","80_20_practice"
"760","","bandit","22","282338","0.0-19.0-2.0","48384846","wem/bandit_either","A2HZPQDYHDZWBA","either","7","","","","","","","0","1","0","","0.2","0.5","0.5","","","0.8","0.2","","","","","","","","","","","","","75","K","1","","true","0","80_20_practice"
"1419","","bandit","23","285280","0.0-19.0-3.0","48384846","wem/bandit_either","A2HZPQDYHDZWBA","either","7","","","","","","","0","0","1","","0.2","0.5","0.5","","","0.8","0.2","","","","","","","","","","","","","75","K","1","","true","0","80_20_practice"
"433","","bandit","24","287238","0.0-19.0-4.0","48384846","wem/bandit_either","A2HZPQDYHDZWBA","either","7","","","","","","","0","1","0","","0.8","0.5","0.5","","","0.8","0.2","","","","","","","","","","","","","74","J","0","img/none_selected_demo.jpg","true","0","80_20_practice"
"2148","","bandit","25","290936","0.0-19.0-5.0","48384846","wem/bandit_either","A2HZPQDYHDZWBA","either","7","","","","","","","0","1","0","","0.8","0.5","0.5","","","0.8","0.2","","","","","","","","","","","","","74","J","0","img/none_selected_demo.jpg","true","0","80_20_practice"
"875","","bandit","26","293346","0.0-19.0-6.0","48384846","wem/bandit_either","A2HZPQDYHDZWBA","either","7","","","","","","","0","1","0","","0.8","0.5","0.5","","","0.8","0.2","","","","","","","","","","","","","74","J","0","img/none_selected_demo.jpg","true","0","80_20_practice"
"918","","bandit","27","295790","0.0-19.0-7.0","48384846","wem/bandit_either","A2HZPQDYHDZWBA","either","7","","","","","","","1","0","0","0.2","","0.5","0.5","","","","","","","0.8","0.2","","","","","","","","","75","K","1","","true","0","80_20_practice"
"844","","bandit","28","298159","0.0-19.0-8.0","48384846","wem/bandit_either","A2HZPQDYHDZWBA","either","7","","","","","","","0","0","1","","0.2","0.5","0.5","","","0.8","0.2","","","","","","","","","","","","","75","K","1","","true","0","80_20_practice"
"382","","bandit","29","300064","0.0-19.0-9.0","48384846","wem/bandit_either","A2HZPQDYHDZWBA","either","7","","","","","","","0","0","1","","0.8","0.5","0.5","","","0.8","0.2","","","","","","","","","","","","","74","J","0","img/none_selected_demo.jpg","true","0","80_20_practice"
"369","","bandit","30","301957","0.0-19.0-10.0","48384846","wem/bandit_either","A2HZPQDYHDZWBA","either","7","","","","","","","0","0","1","","0.8","0.5","0.5","","","0.8","0.2","","","","","","","","","","","","","74","J","0","img/none_selected_demo.jpg","true","0","80_20_practice"
"324","","bandit","31","303804","0.0-19.0-11.0","48384846","wem/bandit_either","A2HZPQDYHDZWBA","either","7","","","","","","","0","1","0","","0.8","0.5","0.5","","","0.8","0.2","","","","","","","","","","","","","74","J","0","img/none_selected_demo.jpg","true","0","80_20_practice"
"417","","bandit","32","305743","0.0-19.0-12.0","48384846","wem/bandit_either","A2HZPQDYHDZWBA","either","7","","","","","","","0","1","0","","0.8","0.5","0.5","","","0.8","0.2","","","","","","","","","","","","","74","J","0","img/none_selected_demo.jpg","true","0","80_20_practice"
"339","","bandit","33","307659","0.0-19.0-13.0","48384846","wem/bandit_either","A2HZPQDYHDZWBA","either","7","","","","","","","1","0","0","0.8","","0.5","0.5","","","","","","","0.8","0.2","","","","","","","","","74","J","0","img/none_selected_demo.jpg","true","0","80_20_practice"
"355","","bandit","34","309536","0.0-19.0-14.0","48384846","wem/bandit_either","A2HZPQDYHDZWBA","either","7","","","","","","","0","0","1","","0.8","0.5","0.5","","","0.8","0.2","","","","","","","","","","","","","74","J","0","img/none_selected_demo.jpg","true","0","80_20_practice"
"30","","bandit","35","311101","0.0-19.0-15.0","48384846","wem/bandit_either","A2HZPQDYHDZWBA","either","7","","","","","","","0","0","1","","0.2","0.5","0.5","","","0.8","0.2","","","","","","","","","","","","","75","K","1","","true","0","80_20_practice"
"350","","bandit","36","312975","0.0-19.0-16.0","48384846","wem/bandit_either","A2HZPQDYHDZWBA","either","7","","","","","","","0","0","1","0.2","","0.5","0.5","","","","","","","0.8","0.2","","","","","","","","","75","K","1","","true","0","80_20_practice"
"745","","bandit","37","315282","0.0-19.0-17.0","48384846","wem/bandit_either","A2HZPQDYHDZWBA","either","7","","","","","","","0","0","1","0.2","","0.5","0.5","","","","","","","0.8","0.2","","","","","","","","","75","K","1","","true","0","80_20_practice"
"317","","bandit","38","317141","0.0-19.0-18.0","48384846","wem/bandit_either","A2HZPQDYHDZWBA","either","7","","","","","","","0","0","1","0.2","","0.5","0.5","","","","","","","0.8","0.2","","","","","","","","","75","K","1","","true","0","80_20_practice"
"350","","bandit","39","319015","0.0-19.0-19.0","48384846","wem/bandit_either","A2HZPQDYHDZWBA","either","7","","","","","","","0","0","1","","0.2","0.5","0.5","","","0.8","0.2","","","","","","","","","","","","","75","K","1","","true","0","80_20_practice"
"10344","","text","40","329381","0.0-20.0","48384846","wem/bandit_either","A2HZPQDYHDZWBA","either","7","32","","","","","","","","","","","","","","","","","","","","","","","","","","","","","","","","","","",""
"544","","bandit","41","331471","0.0-21.0-0.0","48384846","wem/bandit_either","A2HZPQDYHDZWBA","either","7","","","","","","","1","0","0","1","0","","","","","0","1","","","1","0","","","","","","","","","74","J","0","img/none_selected_demo.jpg","true","0",""
"10099","","text","42","341587","0.0-22.0","48384846","wem/bandit_either","A2HZPQDYHDZWBA","either","7","32","","","","","","","","","","","","","","","","","","","","","","","","","","","","","","","","","","",""
"4189","","text","43","345787","0.0-23.0","48384846","wem/bandit_either","A2HZPQDYHDZWBA","either","7","32","","","","","","","","","","","","","","","","","","","","","","","","","","","","","","","","","","",""
"4237","","text","44","350039","0.0-24.0","48384846","wem/bandit_either","A2HZPQDYHDZWBA","either","7","32","","","","","","","","","","","","","","","","","","","","","","","","","","","","","","","","","","",""
"4738","","text","45","354796","0.0-25.0","48384846","wem/bandit_either","A2HZPQDYHDZWBA","either","7","32","","","","","","","","","","","","","","","","","","","","","","","","","","","","","","","","","","",""
"17390","","text","46","372199","0.0-26.0","48384846","wem/bandit_either","A2HZPQDYHDZWBA","either","7","32","","","","","","","","","","","","","","","","","","","","","","","","","","","","","","","","","","",""
"7405","","text","47","379616","0.0-27.0","48384846","wem/bandit_either","A2HZPQDYHDZWBA","either","7","32","","","","","","","","","","","","","","","","","","","","","","","","","","","","","","","","","","",""
"6264","","text","48","385890","0.0-28.0","48384846","wem/bandit_either","A2HZPQDYHDZWBA","either","7","32","","","","","","","","","","","","","","","","","","","","","","","","","","","","","","","","","","",""
"5545","","text","49","391444","0.0-29.0","48384846","wem/bandit_either","A2HZPQDYHDZWBA","either","7","32","","","","","","","","","","","","","","","","","","","","","","","","","","","","","","","","","","",""
"8540","","text","50","399994","0.0-30.0","48384846","wem/bandit_either","A2HZPQDYHDZWBA","either","7","32","","","","","","","","","","","","","","","","","","","","","","","","","","","","","","","","","","",""
"2557","","text","51","402560","0.0-31.0","48384846","wem/bandit_either","A2HZPQDYHDZWBA","either","7","32","","","","","","","","","","","","","","","","","","","","","","","","","","","","","","","","","","",""
"4417","","text","52","406987","0.0-32.0","48384846","wem/bandit_either","A2HZPQDYHDZWBA","either","7","32","","","","","","","","","","","","","","","","","","","","","","","","","","","","","","","","","","",""
"1413","","bandit","53","409933","0.0-33.0-0.0","48384846","wem/bandit_either","A2HZPQDYHDZWBA","either","7","","","","","","","0","0","1","0.2","","0.5","0.5","0.5","0.5","","","","","0.8","0.2","0.6","0.2","","","","","","","74","J","1","","true","0","full_practice"
"409","","bandit","54","411881","0.0-33.0-1.0","48384846","wem/bandit_either","A2HZPQDYHDZWBA","either","7","","","","","","","0","0","1","0.2","","0.5","0.5","0.5","0.5","","","","","0.8","0.2","0.6","0.2","","","","","","","74","J","1","","true","0","full_practice"
"755","","bandit","55","414166","0.0-33.0-2.0","48384846","wem/bandit_either","A2HZPQDYHDZWBA","either","7","","","","","","","0","0","1","","0.2","0.5","0.5","0.5","0.5","0.8","0.2","0.6","0.2","","","","","","","","","","","74","J","1","","true","0","full_practice"
"367","","bandit","56","416083","0.0-33.0-3.0","48384846","wem/bandit_either","A2HZPQDYHDZWBA","either","7","","","","","","","1","0","0","0.8","","0.5","0.5","0.5","0.5","","","","","0.8","0.2","0.6","0.2","","","","","","","72","H","0","img/none_selected.jpg","true","0","full_practice"
"350","","bandit","57","417959","0.0-33.0-4.0","48384846","wem/bandit_either","A2HZPQDYHDZWBA","either","7","","","","","","","0","0","1","","0.8","0.5","0.5","0.5","0.5","0.8","0.2","0.6","0.2","","","","","","","","","","","72","H","0","img/none_selected.jpg","true","0","full_practice"
"587","","bandit","58","420080","0.0-33.0-5.0","48384846","wem/bandit_either","A2HZPQDYHDZWBA","either","7","","","","","","","0","1","0","","0.8","0.5","0.5","0.5","0.5","0.8","0.2","0.6","0.2","","","","","","","","","","","72","H","0","img/none_selected.jpg","true","0","full_practice"
"396","","bandit","59","422027","0.0-33.0-6.0","48384846","wem/bandit_either","A2HZPQDYHDZWBA","either","7","","","","","","","0","0","1","0.8","","0.5","0.5","0.5","0.5","","","","","0.8","0.2","0.6","0.2","","","","","","","72","H","0","img/none_selected.jpg","true","0","full_practice"
"450","","bandit","60","424331","0.0-33.0-7.0","48384846","wem/bandit_either","A2HZPQDYHDZWBA","either","7","","","","","","","0","1","0","","0.6","0.5","0.5","0.5","0.5","0.8","0.2","0.6","0.2","","","","","","","","","","","75","K","2","","true","0","full_practice"
"333","","bandit","61","426195","0.0-33.0-8.0","48384846","wem/bandit_either","A2HZPQDYHDZWBA","either","7","","","","","","","0","1","0","","0.6","0.5","0.5","0.5","0.5","0.8","0.2","0.6","0.2","","","","","","","","","","","75","K","2","","true","0","full_practice"
"350","","bandit","62","428075","0.0-33.0-9.0","48384846","wem/bandit_either","A2HZPQDYHDZWBA","either","7","","","","","","","0","0","1","0.6","","0.5","0.5","0.5","0.5","","","","","0.8","0.2","0.6","0.2","","","","","","","75","K","2","","true","0","full_practice"
"398","","bandit","63","430002","0.0-33.0-10.0","48384846","wem/bandit_either","A2HZPQDYHDZWBA","either","7","","","","","","","0","0","1","0.6","","0.5","0.5","0.5","0.5","","","","","0.8","0.2","0.6","0.2","","","","","","","75","K","2","","true","0","full_practice"
"337","","bandit","64","431867","0.0-33.0-11.0","48384846","wem/bandit_either","A2HZPQDYHDZWBA","either","7","","","","","","","0","0","1","0.2","","0.5","0.5","0.5","0.5","","","","","0.8","0.2","0.6","0.2","","","","","","","76","L","3","","true","0","full_practice"
"394","","bandit","65","433786","0.0-33.0-12.0","48384846","wem/bandit_either","A2HZPQDYHDZWBA","either","7","","","","","","","0","0","1","","0.2","0.5","0.5","0.5","0.5","0.8","0.2","0.6","0.2","","","","","","","","","","","76","L","3","","true","0","full_practice"
"759","","bandit","66","436074","0.0-33.0-13.0","48384846","wem/bandit_either","A2HZPQDYHDZWBA","either","7","","","","","","","1","0","0","0.2","","0.5","0.5","0.5","0.5","","","","","0.8","0.2","0.6","0.2","","","","","","","74","J","1","","true","0","full_practice"
"450","","bandit","67","438052","0.0-33.0-14.0","48384846","wem/bandit_either","A2HZPQDYHDZWBA","either","7","","","","","","","0","1","0","","0.2","0.5","0.5","0.5","0.5","0.8","0.2","0.6","0.2","","","","","","","","","","","74","J","1","","true","0","full_practice"
"409","","bandit","68","440017","0.0-33.0-15.0","48384846","wem/bandit_either","A2HZPQDYHDZWBA","either","7","","","","","","","0","0","1","","0.2","0.5","0.5","0.5","0.5","0.8","0.2","0.6","0.2","","","","","","","","","","","74","J","1","","true","0","full_practice"
"1","","bandit","69","441638","0.0-33.0-16.0","48384846","wem/bandit_either","A2HZPQDYHDZWBA","either","7","","","","","","","0","0","1","0.6","","0.5","0.5","0.5","0.5","","","","","0.8","0.2","0.6","0.2","","","","","","","75","K","2","","true","0","full_practice"
"349","","bandit","70","443543","0.0-33.0-17.0","48384846","wem/bandit_either","A2HZPQDYHDZWBA","either","7","","","","","","","0","1","0","","0.6","0.5","0.5","0.5","0.5","0.8","0.2","0.6","0.2","","","","","","","","","","","75","K","2","","true","0","full_practice"
"1096","","bandit","71","446179","0.0-33.0-18.0","48384846","wem/bandit_either","A2HZPQDYHDZWBA","either","7","","","","","","","0","1","0","","0.6","0.5","0.5","0.5","0.5","0.8","0.2","0.6","0.2","","","","","","","","","","","75","K","2","","true","0","full_practice"
"356","","bandit","72","448066","0.0-33.0-19.0","48384846","wem/bandit_either","A2HZPQDYHDZWBA","either","7","","","","","","","0","1","0","","0.6","0.5","0.5","0.5","0.5","0.8","0.2","0.6","0.2","","","","","","","","","","","75","K","2","","true","0","full_practice"
"3346","","text","73","451453","0.0-34.0","48384846","wem/bandit_either","A2HZPQDYHDZWBA","either","7","32","","","","","","","","","","","","","","","","","","","","","","","","","","","","","","","","","","",""
"15809","","text","74","468277","0.0-35.0","48384846","wem/bandit_either","A2HZPQDYHDZWBA","either","7","32","","","","","","","","","","","","","","","","","","","","","","","","","","","","","","","","","","",""
"16177","","text","75","484477","0.0-36.0","48384846","wem/bandit_either","A2HZPQDYHDZWBA","either","7","32","","","","","","","","","","","","","","","","","","","","","","","","","","","","","","","","","","",""
"8490","","text","76","492989","0.0-37.0","48384846","wem/bandit_either","A2HZPQDYHDZWBA","either","7","32","","","","","","","","","","","","","","","","","","","","","","","","","","","","","","","","","","",""
"9120","","text","77","502131","0.0-38.0","48384846","wem/bandit_either","A2HZPQDYHDZWBA","either","7","32","","","","","","","","","","","","","","","","","","","","","","","","","","","","","","","","","","",""
"8325","","text","78","510472","0.0-39.0","48384846","wem/bandit_either","A2HZPQDYHDZWBA","either","7","32","","","","","","","","","","","","","","","","","","","","","","","","","","","","","","","","","","",""
"897","","bandit","79","512907","0.0-40.0-0.0","48384846","wem/bandit_either","A2HZPQDYHDZWBA","either","7","","","","","","","0","0","1","0.1952616071","","0.6","0.8","0.2","0.4","","","","","0.1952616071","0.1480066451","0.06530018083","0.01738065524","","","","","","","72","H","0","img/none_selected.jpg","","1","main_expt"
"844","","bandit","80","515293","0.0-41.0-0.0","48384846","wem/bandit_either","A2HZPQDYHDZWBA","either","7","","","","","","","0","0","1","0.1053714073","","0.6","0.8","0.2","0.4","","","","","0.1652234336","0.1053714073","0.1011701763","0.0196943787","","","","","","","74","J","1","","","2","main_expt"
"370","","bandit","81","517196","0.0-42.0-0.0","48384846","wem/bandit_either","A2HZPQDYHDZWBA","either","7","","","","","","","0","0","1","","0.09486719381","0.6","0.8","0.2","0.4","0.1347382479","0.1460078221","0.09486719381","0.01678573497","","","","","","","","","","","75","K","2","","","3","main_expt"
"379","","bandit","82","519110","0.0-43.0-0.0","48384846","wem/bandit_either","A2HZPQDYHDZWBA","either","7","","","","","","","0","0","1","","0.02981965743","0.6","0.8","0.2","0.4","0.1684625442","0.1866138214","0.06705802814","0.02981965743","","","","","","","","","","","76","L","3","","","4","main_expt"
"271","","bandit","83","520913","0.0-44.0-0.0","48384846","wem/bandit_either","A2HZPQDYHDZWBA","either","7","","","","","","","0","0","1","0.1792029032","","0.6","0.8","0.2","0.4","","","","","0.1792029032","0.2445348717","0.0822298525","0.02600208211","","","","","","","72","H","0","img/none_selected.jpg","","5","main_expt"
"318","","bandit","84","522759","0.0-45.0-0.0","48384846","wem/bandit_either","A2HZPQDYHDZWBA","either","7","","","","","","","0","0","1","0.2546962146","","0.6","0.8","0.2","0.4","","","","","0.2153873139","0.2546962146","0.09162209411","0.02332436933","","","","","","","74","J","1","","","6","main_expt"
"378","","bandit","85","524667","0.0-46.0-0.0","48384846","wem/bandit_either","A2HZPQDYHDZWBA","either","7","","","","","","","0","0","1","","0.1028820098","0.6","0.8","0.2","0.4","0.1757762721","0.2344841702","0.1028820098","0.02864040813","","","","","","","","","","","75","K","2","","","7","main_expt"
"355","","bandit","86","526554","0.0-47.0-0.0","48384846","wem/bandit_either","A2HZPQDYHDZWBA","either","7","","","","","","","0","0","1","0.02951264166","","0.6","0.8","0.2","0.4","","","","","0.2241229746","0.2473344203","0.1532270122","0.02951264166","","","","","","","76","L","3","","","8","main_expt"
"1155","","bandit","87","529250","0.0-48.0-0.0","48384846","wem/bandit_either","A2HZPQDYHDZWBA","either","7","","","","","","","0","0","1","0.2642160399","","0.6","0.8","0.2","0.4","","","","","0.2199426203","0.2642160399","0.2131450397","0.02997011939","","","","","","","74","J","1","","","9","main_expt"
"6429","","bandit","88","537233","0.0-49.0-0.0","48384846","wem/bandit_either","A2HZPQDYHDZWBA","either","7","","","","","","","0","0","1","0.2104627424","","0.6","0.8","0.2","0.4","","","","","0.1520686932","0.2104627424","0.2985754635","0.02489651457","","","","","","","74","J","1","","","10","main_expt"
"127","","bandit","89","538896","0.0-50.0-0.0","48384846","wem/bandit_either","A2HZPQDYHDZWBA","either","7","","","","","","","0","1","0","","0.2924640086","0.6","0.8","0.2","0.4","0.2013349999","0.219372878","0.2924640086","0.01651058827","","","","","","","","","","","75","K","2","","","11","main_expt"
"394","","bandit","90","540822","0.0-51.0-0.0","48384846","wem/bandit_either","A2HZPQDYHDZWBA","either","7","","","","","","","0","0","1","","0.3264291113","0.6","0.8","0.2","0.4","0.2156800105","0.2105839871","0.3264291113","0.02341729431","","","","","","","","","","","75","K","2","","","12","main_expt"
"358","","bandit","91","542731","0.0-52.0-0.0","48384846","wem/bandit_either","A2HZPQDYHDZWBA","either","7","","","","","","","1","0","0","0.3254913314","","0.6","0.8","0.2","0.4","","","","","0.1833947696","0.2511698571","0.3254913314","0.0257410372","","","","","","","75","K","2","","","13","main_expt"
"722","","bandit","92","544985","0.0-53.0-0.0","48384846","wem/bandit_either","A2HZPQDYHDZWBA","either","7","","","","","","","0","1","0","","0.3428504842","0.6","0.8","0.2","0.4","0.243643366","0.2158977649","0.3428504842","0.02570014082","","","","","","","","","","","75","K","2","","","14","main_expt"
"408","","bandit","93","546924","0.0-54.0-0.0","48384846","wem/bandit_either","A2HZPQDYHDZWBA","either","7","","","","","","","0","0","1","0.3244047679","","0.6","0.8","0.2","0.4","","","","","0.2265365198","0.2762480727","0.3244047679","0.04268316416","","","","","","","75","K","2","","","15","main_expt"
"356","","bandit","94","548811","0.0-55.0-0.0","48384846","wem/bandit_either","A2HZPQDYHDZWBA","either","7","","","","","","","0","0","1","","0.3025313629","0.6","0.8","0.2","0.4","0.2484951132","0.3202890724","0.3025313629","0.04667408308","","","","","","","","","","","75","K","2","","","16","main_expt"
"375","","bandit","95","550720","0.0-56.0-0.0","48384846","wem/bandit_either","A2HZPQDYHDZWBA","either","7","","","","","","","0","0","1","0.3291216938","","0.6","0.8","0.2","0.4","","","","","0.2570267238","0.3680552247","0.3291216938","0.0506688767","","","","","","","75","K","2","","","17","main_expt"
"149","","bandit","96","552402","0.0-57.0-0.0","48384846","wem/bandit_either","A2HZPQDYHDZWBA","either","7","","","","","","","0","0","1","0.02988526167","","0.6","0.8","0.2","0.4","","","","","0.287418789","0.3968593921","0.2987881532","0.02988526167","","","","","","","76","L","3","","","18","main_expt"
"2066","","bandit","97","556001","0.0-58.0-0.0","48384846","wem/bandit_either","A2HZPQDYHDZWBA","either","7","","","","","","","0","0","1","0.2338710899","","0.6","0.8","0.2","0.4","","","","","0.2338710899","0.4192996399","0.281207523","0.03476350355","","","","","","","72","H","0","img/none_selected.jpg","","19","main_expt"
"65","","bandit","98","557666","0.0-59.0-0.0","48384846","wem/bandit_either","A2HZPQDYHDZWBA","either","7","","","","","","","0","0","1","","0.2335293464","0.6","0.8","0.2","0.4","0.2335293464","0.4362768361","0.291129981","0.0233687216","","","","","","","","","","","72","H","0","img/none_selected.jpg","","20","main_expt"
"904","","bandit","99","560143","0.0-60.0-0.0","48384846","wem/bandit_either","A2HZPQDYHDZWBA","either","7","","","","","","","0","0","1","","0.2434826965","0.6","0.8","0.2","0.4","0.2434826965","0.4599691003","0.2729578326","0.01272547494","","","","","","","","","","","72","H","0","img/none_selected.jpg","","21","main_expt"
"1134","","bandit","100","562841","0.0-61.0-0.0","48384846","wem/bandit_either","A2HZPQDYHDZWBA","either","7","","","","","","","0","0","1","0.44353765","","0.6","0.8","0.2","0.4","","","","","0.2702300591","0.44353765","0.2805141014","0.01739491555","","","","","","","74","J","1","","","22","main_expt"
"481","","bandit","101","564863","0.0-62.0-0.0","48384846","wem/bandit_either","A2HZPQDYHDZWBA","either","7","","","","","","","0","0","1","0.4105594395","","0.6","0.8","0.2","0.4","","","","","0.2424740502","0.4105594395","0.3016389313","0.006692102231","","","","","","","74","J","1","","","23","main_expt"
"397","","bandit","102","566799","0.0-63.0-0.0","48384846","wem/bandit_either","A2HZPQDYHDZWBA","either","7","","","","","","","0","0","1","","0.2475621169","0.6","0.8","0.2","0.4","0.1754503809","0.4243351486","0.2475621169","0.01209419849","","","","","","","","","","","75","K","2","","","24","main_expt"
"358","","bandit","103","568697","0.0-64.0-0.0","48384846","wem/bandit_either","A2HZPQDYHDZWBA","either","7","","","","","","","0","1","0","","0.2607476102","0.6","0.8","0.2","0.4","0.2023019753","0.4172780312","0.2607476102","0.009734580702","","","","","","","","","","","75","K","2","","","25","main_expt"
"354","","bandit","104","570587","0.0-65.0-0.0","48384846","wem/bandit_either","A2HZPQDYHDZWBA","either","7","","","","","","","0","0","1","","0.292589008","0.6","0.8","0.2","0.4","0.1887270612","0.3981062588","0.292589008","0.008596148908","","","","","","","","","","","75","K","2","","","26","main_expt"
"375","","bandit","105","572496","0.0-66.0-0.0","48384846","wem/bandit_either","A2HZPQDYHDZWBA","either","7","","","","","","","0","1","0","","0.2978950393","0.6","0.8","0.2","0.4","0.2526986378","0.3889188119","0.2978950393","0.01380650739","","","","","","","","","","","75","K","2","","","27","main_expt"
"381","","bandit","106","574410","0.0-67.0-0.0","48384846","wem/bandit_either","A2HZPQDYHDZWBA","either","7","","","","","","","0","0","1","0.337392419","","0.6","0.8","0.2","0.4","","","","","0.2536033627","0.3699095679","0.337392419","0.01160852189","","","","","","","75","K","2","","","28","main_expt"
"317","","bandit","107","576314","0.0-68.0-0.0","48384846","wem/bandit_either","A2HZPQDYHDZWBA","either","7","","","","","","","0","0","1","","0.3830759015","0.6","0.8","0.2","0.4","0.258258936","0.4087832773","0.3830759015","0.02858314752","","","","","","","","","","","75","K","2","","","29","main_expt"
"360","","bandit","108","578210","0.0-69.0-0.0","48384846","wem/bandit_either","A2HZPQDYHDZWBA","either","7","","","","","","","1","0","0","0.3778881599","","0.6","0.8","0.2","0.4","","","","","0.3152574144","0.4162513677","0.3778881599","0.0265596094","","","","","","","75","K","2","","","30","main_expt"
"931","","bandit","109","580683","0.0-70.0-0.0","48384846","wem/bandit_either","A2HZPQDYHDZWBA","either","7","","","","","","","0","0","1","","0.3585458117","0.6","0.8","0.2","0.4","0.3508579725","0.43337534","0.3585458117","0.02828816112","","","","","","","","","","","75","K","2","","","31","main_expt"
"221","","bandit","110","582451","0.0-71.0-0.0","48384846","wem/bandit_either","A2HZPQDYHDZWBA","either","7","","","","","","","0","0","1","","0.3511664436","0.6","0.8","0.2","0.4","0.3902021543","0.4399105216","0.3511664436","0.03857304495","","","","","","","","","","","75","K","2","","","32","main_expt"
"870","","bandit","111","584860","0.0-72.0-0.0","48384846","wem/bandit_either","A2HZPQDYHDZWBA","either","7","","","","","","","0","0","1","0.02642959278","","0.6","0.8","0.2","0.4","","","","","0.4112626521","0.3859623535","0.3924960189","0.02642959278","","","","","","","76","L","3","","","33","main_expt"
"401","","bandit","112","586798","0.0-73.0-0.0","48384846","wem/bandit_either","A2HZPQDYHDZWBA","either","7","","","","","","","0","0","1","0.06800028167","","0.6","0.8","0.2","0.4","","","","","0.3912589523","0.4231921331","0.3713907517","0.06800028167","","","","","","","76","L","3","","","34","main_expt"
"353","","bandit","113","588704","0.0-74.0-0.0","48384846","wem/bandit_either","A2HZPQDYHDZWBA","either","7","","","","","","","0","0","1","","0.05710280771","0.6","0.8","0.2","0.4","0.3663646496","0.3950458867","0.3929004689","0.05710280771","","","","","","","","","","","76","L","3","","","35","main_expt"
"547","","bandit","114","590832","0.0-75.0-0.0","48384846","wem/bandit_either","A2HZPQDYHDZWBA","either","7","","","","","","","0","0","1","","0.3045225128","0.6","0.8","0.2","0.4","0.3045225128","0.4005306787","0.3820467604","0.07756943076","","","","","","","","","","","72","H","0","img/none_selected.jpg","","36","main_expt"
"415","","bandit","115","592805","0.0-76.0-0.0","48384846","wem/bandit_either","A2HZPQDYHDZWBA","either","7","","","","","","","0","1","0","","0.2806474599","0.6","0.8","0.2","0.4","0.2806474599","0.3972735937","0.3948022939","0.06074629621","","","","","","","","","","","72","H","0","img/none_selected.jpg","","37","main_expt"
"370","","bandit","116","594719","0.0-77.0-0.0","48384846","wem/bandit_either","A2HZPQDYHDZWBA","either","7","","","","","","","0","0","1","0.3558759705","","0.6","0.8","0.2","0.4","","","","","0.3558759705","0.38339591","0.3769579019","0.07063042774","","","","","","","72","H","0","img/none_selected.jpg","","38","main_expt"
"446","","bandit","117","596703","0.0-78.0-0.0","48384846","wem/bandit_either","A2HZPQDYHDZWBA","either","7","","","","","","","0","0","1","0.3194138052","","0.6","0.8","0.2","0.4","","","","","0.3194138052","0.3906354184","0.4030344636","0.06209293178","","","","","","","72","H","0","img/none_selected.jpg","","39","main_expt"
"438","","bandit","118","598681","0.0-79.0-0.0","48384846","wem/bandit_either","A2HZPQDYHDZWBA","either","7","","","","","","","0","0","1","","0.3549086085","0.6","0.8","0.2","0.4","0.3549086085","0.3623676206","0.3622335218","0.06952578958","","","","","","","","","","","72","H","0","img/none_selected.jpg","","40","main_expt"
"403","","bandit","119","600622","0.0-80.0-0.0","48384846","wem/bandit_either","A2HZPQDYHDZWBA","either","7","","","","","","","0","0","1","0.3873704927","","0.6","0.8","0.2","0.4","","","","","0.3452113815","0.3873704927","0.3911596719","0.1291245709","","","","","","","74","J","1","","","41","main_expt"
"367","","bandit","120","602528","0.0-81.0-0.0","48384846","wem/bandit_either","A2HZPQDYHDZWBA","either","7","","","","","","","0","0","1","0.359823116","","0.6","0.8","0.2","0.4","","","","","0.3522960267","0.359823116","0.3921858285","0.1174523948","","","","","","","74","J","1","","","42","main_expt"
"328","","bandit","121","604396","0.0-82.0-0.0","48384846","wem/bandit_either","A2HZPQDYHDZWBA","either","7","","","","","","","0","0","1","0.3710191411","","0.6","0.8","0.2","0.4","","","","","0.3093122096","0.3710191411","0.3831213528","0.1201484523","","","","","","","74","J","1","","","43","main_expt"
"349","","bandit","122","606283","0.0-83.0-0.0","48384846","wem/bandit_either","A2HZPQDYHDZWBA","either","7","","","","","","","0","0","1","","0.3874065465","0.6","0.8","0.2","0.4","0.3026159556","0.3874065465","0.3518708159","0.09958360536","","","","","","","","","","","74","J","1","","","44","main_expt"
"439","","bandit","123","608260","0.0-84.0-0.0","48384846","wem/bandit_either","A2HZPQDYHDZWBA","either","7","","","","","","","0","0","1","","0.3122870636","0.6","0.8","0.2","0.4","0.3336294247","0.3851533971","0.3122870636","0.05173655998","","","","","","","","","","","75","K","2","","","45","main_expt"
"343","","bandit","124","610142","0.0-85.0-0.0","48384846","wem/bandit_either","A2HZPQDYHDZWBA","either","7","","","","","","","0","0","1","0.2635721956","","0.6","0.8","0.2","0.4","","","","","0.3400222736","0.4055883719","0.2635721956","0.05945041096","","","","","","","75","K","2","","","46","main_expt"
"371","","bandit","125","612055","0.0-86.0-0.0","48384846","wem/bandit_either","A2HZPQDYHDZWBA","either","7","","","","","","","0","0","1","","0.2856785865","0.6","0.8","0.2","0.4","0.328707825","0.3671593179","0.2856785865","0.04375763727","","","","","","","","","","","75","K","2","","","47","main_expt"
"510","","bandit","126","614100","0.0-87.0-0.0","48384846","wem/bandit_either","A2HZPQDYHDZWBA","either","7","","","","","","","0","0","1","","0.2649087478","0.6","0.8","0.2","0.4","0.3307690822","0.3198203038","0.2649087478","0.0666370861","","","","","","","","","","","75","K","2","","","48","main_expt"
"372","","bandit","127","616016","0.0-88.0-0.0","48384846","wem/bandit_either","A2HZPQDYHDZWBA","either","7","","","","","","","0","0","1","","0.2462979357","0.6","0.8","0.2","0.4","0.3438067684","0.3111357295","0.2462979357","0.08266213623","","","","","","","","","","","75","K","2","","","49","main_expt"
"415","","bandit","128","617978","0.0-89.0-0.0","48384846","wem/bandit_either","A2HZPQDYHDZWBA","either","7","","","","","","","0","0","1","0.4037002216","","0.6","0.8","0.2","0.4","","","","","0.4037002216","0.3196682981","0.2490076798","0.08795051988","","","","","","","72","H","0","img/none_selected.jpg","","50","main_expt"
"449","","bandit","129","619977","0.0-90.0-0.0","48384846","wem/bandit_either","A2HZPQDYHDZWBA","either","7","","","","","","","0","0","1","","0.3557518394","0.6","0.8","0.2","0.4","0.3557518394","0.3088596379","0.305209751","0.07533366945","","","","","","","","","","","72","H","0","img/none_selected.jpg","","51","main_expt"
"372","","bandit","130","621893","0.0-91.0-0.0","48384846","wem/bandit_either","A2HZPQDYHDZWBA","either","7","","","","","","","0","1","0","","0.3254324358","0.6","0.8","0.2","0.4","0.3254324358","0.3060924957","0.3087204988","0.06506638851","","","","","","","","","","","72","H","0","img/none_selected.jpg","","52","main_expt"
"396","","bandit","131","623858","0.0-92.0-0.0","48384846","wem/bandit_either","A2HZPQDYHDZWBA","either","7","","","","","","","0","1","0","","0.2952150256","0.6","0.8","0.2","0.4","0.2952150256","0.3229319808","0.2984188648","0.06562792832","","","","","","","","","","","72","H","0","img/none_selected.jpg","","53","main_expt"
"413","","bandit","132","625851","0.0-93.0-0.0","48384846","wem/bandit_either","A2HZPQDYHDZWBA","either","7","","","","","","","0","0","1","0.300320608","","0.6","0.8","0.2","0.4","","","","","0.300320608","0.3280138586","0.3353917468","0.04630081711","","","","","","","72","H","0","img/none_selected.jpg","","54","main_expt"
"386","","bandit","133","627779","0.0-94.0-0.0","48384846","wem/bandit_either","A2HZPQDYHDZWBA","either","7","","","","","","","1","0","0","0.2985084879","","0.6","0.8","0.2","0.4","","","","","0.2985084879","0.2777260571","0.3259144651","0.03868373719","","","","","","","72","H","0","img/none_selected.jpg","","55","main_expt"
"659","","bandit","134","630027","0.0-95.0-0.0","48384846","wem/bandit_either","A2HZPQDYHDZWBA","either","7","","","","","","","0","0","1","0.2607009345","","0.6","0.8","0.2","0.4","","","","","0.2607009345","0.1791004868","0.3259049121","0.06235362297","","","","","","","72","H","0","img/none_selected.jpg","","56","main_expt"
"371","","bandit","135","631936","0.0-96.0-0.0","48384846","wem/bandit_either","A2HZPQDYHDZWBA","either","7","","","","","","","0","1","0","","0.2565854794","0.6","0.8","0.2","0.4","0.2565854794","0.2182265394","0.3687904078","0.04639461243","","","","","","","","","","","72","H","0","img/none_selected.jpg","","57","main_expt"
"465","","bandit","136","633943","0.0-97.0-0.0","48384846","wem/bandit_either","A2HZPQDYHDZWBA","either","7","","","","","","","1","0","0","0.319121847","","0.6","0.8","0.2","0.4","","","","","0.319121847","0.2970860181","0.3422038875","0.08954448139","","","","","","","72","H","0","img/none_selected.jpg","","58","main_expt"
"406","","bandit","137","635909","0.0-98.0-0.0","48384846","wem/bandit_either","A2HZPQDYHDZWBA","either","7","","","","","","","0","0","1","0.3269923399","","0.6","0.8","0.2","0.4","","","","","0.3269923399","0.3249685468","0.3771421139","0.07390342289","","","","","","","72","H","0","img/none_selected.jpg","","59","main_expt"
"437","","bandit","138","637885","0.0-99.0-0.0","48384846","wem/bandit_either","A2HZPQDYHDZWBA","either","7","","","","","","","1","0","0","0.3150968823","","0.6","0.8","0.2","0.4","","","","","0.3150968823","0.2931470039","0.3620124399","0.05801548519","","","","","","","72","H","0","img/none_selected.jpg","","60","main_expt"
"510","","bandit","139","639933","0.0-100.0-0.0","48384846","wem/bandit_either","A2HZPQDYHDZWBA","either","7","","","","","","","0","0","1","0.324539239","","0.6","0.8","0.2","0.4","","","","","0.324539239","0.2646536279","0.3958116198","0.07333263924","","","","","","","72","H","0","img/none_selected.jpg","","61","main_expt"
"428","","bandit","140","641899","0.0-101.0-0.0","48384846","wem/bandit_either","A2HZPQDYHDZWBA","either","7","","","","","","","0","0","1","","0.3066306166","0.6","0.8","0.2","0.4","0.3066306166","0.242461968","0.3615218546","0.07563430262","","","","","","","","","","","72","H","0","img/none_selected.jpg","","62","main_expt"
"354","","bandit","141","643802","0.0-102.0-0.0","48384846","wem/bandit_either","A2HZPQDYHDZWBA","either","7","","","","","","","0","0","1","","0.3068900116","0.6","0.8","0.2","0.4","0.3068900116","0.2206683029","0.3574266064","0.06826526778","","","","","","","","","","","72","H","0","img/none_selected.jpg","","63","main_expt"
"336","","bandit","142","645679","0.0-103.0-0.0","48384846","wem/bandit_either","A2HZPQDYHDZWBA","either","7","","","","","","","0","0","1","0.2936494982","","0.6","0.8","0.2","0.4","","","","","0.2936494982","0.2288959862","0.3541915859","0.1175271989","","","","","","","72","H","0","img/none_selected.jpg","","64","main_expt"
"632","","bandit","143","647854","0.0-104.0-0.0","48384846","wem/bandit_either","A2HZPQDYHDZWBA","either","7","","","","","","","0","1","0","","0.3339820985","0.6","0.8","0.2","0.4","0.290236101","0.2346523549","0.3339820985","0.1273865191","","","","","","","","","","","75","K","2","","","65","main_expt"
"342","","bandit","144","649733","0.0-105.0-0.0","48384846","wem/bandit_either","A2HZPQDYHDZWBA","either","7","","","","","","","0","0","1","0.3195467083","","0.6","0.8","0.2","0.4","","","","","0.2512036594","0.1881688105","0.3195467083","0.09075088943","","","","","","","75","K","2","","","66","main_expt"
"367","","bandit","145","651639","0.0-106.0-0.0","48384846","wem/bandit_either","A2HZPQDYHDZWBA","either","7","","","","","","","0","0","1","","0.3477383846","0.6","0.8","0.2","0.4","0.263747572","0.231043846","0.3477383846","0.08077075725","","","","","","","","","","","75","K","2","","","67","main_expt"
"314","","bandit","146","653502","0.0-107.0-0.0","48384846","wem/bandit_either","A2HZPQDYHDZWBA","either","7","","","","","","","0","1","0","","0.3365352069","0.6","0.8","0.2","0.4","0.2892519303","0.2576664243","0.3365352069","0.08810311296","","","","","","","","","","","75","K","2","","","68","main_expt"
"457","","bandit","147","655574","0.0-108.0-0.0","48384846","wem/bandit_either","A2HZPQDYHDZWBA","either","7","","","","","","","0","0","1","","0.3148812039","0.6","0.8","0.2","0.4","0.2383664846","0.2183283259","0.3148812039","0.1260156682","","","","","","","","","","","75","K","2","","","69","main_expt"
"371","","bandit","148","657482","0.0-109.0-0.0","48384846","wem/bandit_either","A2HZPQDYHDZWBA","either","7","","","","","","","0","1","0","","0.3154014692","0.6","0.8","0.2","0.4","0.2497111545","0.2260484764","0.3154014692","0.08773951932","","","","","","","","","","","75","K","2","","","70","main_expt"
"484","","bandit","149","659502","0.0-110.0-0.0","48384846","wem/bandit_either","A2HZPQDYHDZWBA","either","7","","","","","","","0","1","0","","0.219815459","0.6","0.8","0.2","0.4","0.2095843002","0.3196469567","0.219815459","0.1154304285","","","","","","","","","","","75","K","2","","","71","main_expt"
"356","","bandit","150","661395","0.0-111.0-0.0","48384846","wem/bandit_either","A2HZPQDYHDZWBA","either","7","","","","","","","0","0","1","0.2623730272","","0.6","0.8","0.2","0.4","","","","","0.1972488467","0.3644141189","0.2623730272","0.10097247","","","","","","","75","K","2","","","72","main_expt"
"383","","bandit","151","663318","0.0-112.0-0.0","48384846","wem/bandit_either","A2HZPQDYHDZWBA","either","7","","","","","","","0","0","1","","0.2639805735","0.6","0.8","0.2","0.4","0.15494396","0.4081842109","0.2639805735","0.0746930591","","","","","","","","","","","75","K","2","","","73","main_expt"
"426","","bandit","152","665285","0.0-113.0-0.0","48384846","wem/bandit_either","A2HZPQDYHDZWBA","either","7","","","","","","","0","0","1","","0.2770925356","0.6","0.8","0.2","0.4","0.1324790415","0.4506698749","0.2770925356","0.1124392477","","","","","","","","","","","75","K","2","","","74","main_expt"
"1186","","bandit","153","668008","0.0-114.0-0.0","48384846","wem/bandit_either","A2HZPQDYHDZWBA","either","7","","","","","","","0","0","1","0.454520075","","0.6","0.8","0.2","0.4","","","","","0.179195356","0.454520075","0.2796652475","0.113494578","","","","","","","74","J","1","","","75","main_expt"
"365","","bandit","154","669922","0.0-115.0-0.0","48384846","wem/bandit_either","A2HZPQDYHDZWBA","either","7","","","","","","","0","0","1","0.466199952","","0.6","0.8","0.2","0.4","","","","","0.215808919","0.466199952","0.3153427244","0.1469344428","","","","","","","74","J","1","","","76","main_expt"
"378","","bandit","155","671836","0.0-116.0-0.0","48384846","wem/bandit_either","A2HZPQDYHDZWBA","either","7","","","","","","","1","0","0","0.4402141775","","0.6","0.8","0.2","0.4","","","","","0.2312347408","0.4402141775","0.3676911864","0.2152215887","","","","","","","74","J","1","","","77","main_expt"
"375","","bandit","156","673754","0.0-117.0-0.0","48384846","wem/bandit_either","A2HZPQDYHDZWBA","either","7","","","","","","","0","0","1","0.4525957793","","0.6","0.8","0.2","0.4","","","","","0.2197025874","0.4525957793","0.3434277392","0.2055177618","","","","","","","74","J","1","","","78","main_expt"
"361","","bandit","157","675655","0.0-118.0-0.0","48384846","wem/bandit_either","A2HZPQDYHDZWBA","either","7","","","","","","","1","0","0","0.4630799716","","0.6","0.8","0.2","0.4","","","","","0.2227420924","0.4630799716","0.3758616161","0.222262525","","","","","","","74","J","1","","","79","main_expt"
"360","","bandit","158","677552","0.0-119.0-0.0","48384846","wem/bandit_either","A2HZPQDYHDZWBA","either","7","","","","","","","1","0","0","0.423693353","","0.6","0.8","0.2","0.4","","","","","0.2283057493","0.423693353","0.3862393514","0.2700860438","","","","","","","74","J","1","","","80","main_expt"
"352","","bandit","159","679475","0.0-120.0-0.0","48384846","wem/bandit_either","A2HZPQDYHDZWBA","either","7","","","","","","","0","0","1","0.4319112677","","0.6","0.8","0.2","0.4","","","","","0.2721525977","0.4319112677","0.3593770893","0.2642688004","","","","","","","74","J","1","","","81","main_expt"
"391","","bandit","160","681431","0.0-121.0-0.0","48384846","wem/bandit_either","A2HZPQDYHDZWBA","either","7","","","","","","","1","0","0","0.441827487","","0.6","0.8","0.2","0.4","","","","","0.2850237184","0.441827487","0.4035110645","0.2824164754","","","","","","","74","J","1","","","82","main_expt"
"374","","bandit","161","683561","0.0-122.0-0.0","48384846","wem/bandit_either","A2HZPQDYHDZWBA","either","7","","","","","","","0","0","1","0.4288861504","","0.6","0.8","0.2","0.4","","","","","0.3236436683","0.4288861504","0.3719627038","0.2819095575","","","","","","","74","J","1","","","83","main_expt"
"447","","bandit","162","685578","0.0-123.0-0.0","48384846","wem/bandit_either","A2HZPQDYHDZWBA","either","7","","","","","","","0","1","0","","0.4350385517","0.6","0.8","0.2","0.4","0.3339638593","0.4350385517","0.3349288927","0.2589745902","","","","","","","","","","","74","J","1","","","84","main_expt"
"422","","bandit","163","687564","0.0-124.0-0.0","48384846","wem/bandit_either","A2HZPQDYHDZWBA","either","7","","","","","","","0","0","1","0.4255505645","","0.6","0.8","0.2","0.4","","","","","0.3795022601","0.4255505645","0.3247899262","0.3626504113","","","","","","","74","J","1","","","85","main_expt"
"345","","bandit","164","689460","0.0-125.0-0.0","48384846","wem/bandit_either","A2HZPQDYHDZWBA","either","7","","","","","","","1","0","0","0.4330938692","","0.6","0.8","0.2","0.4","","","","","0.3835523064","0.4330938692","0.3443557019","0.3598915268","","","","","","","74","J","1","","","86","main_expt"
"440","","bandit","165","691445","0.0-126.0-0.0","48384846","wem/bandit_either","A2HZPQDYHDZWBA","either","7","","","","","","","0","0","1","0.4548398529","","0.6","0.8","0.2","0.4","","","","","0.3772514457","0.4548398529","0.3648776167","0.3433052933","","","","","","","74","J","1","","","87","main_expt"
"390","","bandit","166","693381","0.0-127.0-0.0","48384846","wem/bandit_either","A2HZPQDYHDZWBA","either","7","","","","","","","0","0","1","0.4493124031","","0.6","0.8","0.2","0.4","","","","","0.3766830519","0.4493124031","0.3609631839","0.4022938878","","","","","","","74","J","1","","","88","main_expt"
"348","","bandit","167","695277","0.0-128.0-0.0","48384846","wem/bandit_either","A2HZPQDYHDZWBA","either","7","","","","","","","1","0","0","0.4161110063","","0.6","0.8","0.2","0.4","","","","","0.3537755119","0.4161110063","0.3636167192","0.4141493151","","","","","","","74","J","1","","","89","main_expt"
"836","","bandit","168","697655","0.0-129.0-0.0","48384846","wem/bandit_either","A2HZPQDYHDZWBA","either","7","","","","","","","1","0","0","0.405260856","","0.6","0.8","0.2","0.4","","","","","0.3014761449","0.405260856","0.3563441379","0.4136124289","","","","","","","74","J","1","","","90","main_expt"
"619","","bandit","169","699821","0.0-130.0-0.0","48384846","wem/bandit_either","A2HZPQDYHDZWBA","either","7","","","","","","","1","0","0","0.3827048226","","0.6","0.8","0.2","0.4","","","","","0.2694038268","0.3827048226","0.3389138503","0.4184852842","","","","","","","74","J","1","","","91","main_expt"
"372","","bandit","170","701736","0.0-131.0-0.0","48384846","wem/bandit_either","A2HZPQDYHDZWBA","either","7","","","","","","","0","0","1","","0.3552182969","0.6","0.8","0.2","0.4","0.2651536323","0.3552182969","0.3263360165","0.4456808576","","","","","","","","","","","74","J","1","","","92","main_expt"
"429","","bandit","171","703709","0.0-132.0-0.0","48384846","wem/bandit_either","A2HZPQDYHDZWBA","either","7","","","","","","","0","0","1","0.3286897504","","0.6","0.8","0.2","0.4","","","","","0.1997208586","0.3286897504","0.2844131911","0.4355219805","","","","","","","74","J","1","","","93","main_expt"
"386","","bandit","172","705639","0.0-133.0-0.0","48384846","wem/bandit_either","A2HZPQDYHDZWBA","either","7","","","","","","","0","0","1","0.3422490236","","0.6","0.8","0.2","0.4","","","","","0.2442555344","0.3422490236","0.2978465223","0.4609821192","","","","","","","74","J","1","","","94","main_expt"
"770","","bandit","173","707958","0.0-134.0-0.0","48384846","wem/bandit_either","A2HZPQDYHDZWBA","either","7","","","","","","","0","0","1","0.3160161054","","0.6","0.8","0.2","0.4","","","","","0.2638839348","0.3160161054","0.2638723705","0.4419374505","","","","","","","74","J","1","","","95","main_expt"
"777","","bandit","174","710276","0.0-135.0-0.0","48384846","wem/bandit_either","A2HZPQDYHDZWBA","either","7","","","","","","","0","0","1","0.2945538732","","0.6","0.8","0.2","0.4","","","","","0.2265245807","0.2945538732","0.2276010735","0.39438674","","","","","","","74","J","1","","","96","main_expt"
"368","","bandit","175","712193","0.0-136.0-0.0","48384846","wem/bandit_either","A2HZPQDYHDZWBA","either","7","","","","","","","0","0","1","","0.2045446072","0.6","0.8","0.2","0.4","0.1969189177","0.393563827","0.2045446072","0.3617668419","","","","","","","","","","","75","K","2","","","97","main_expt"
"340","","bandit","176","714080","0.0-137.0-0.0","48384846","wem/bandit_either","A2HZPQDYHDZWBA","either","7","","","","","","","0","1","0","","0.2436418828","0.6","0.8","0.2","0.4","0.1761144245","0.4046254927","0.2436418828","0.3737913853","","","","","","","","","","","75","K","2","","","98","main_expt"
"385","","bandit","177","716006","0.0-138.0-0.0","48384846","wem/bandit_either","A2HZPQDYHDZWBA","either","7","","","","","","","0","0","1","","0.2473144087","0.6","0.8","0.2","0.4","0.1211630765","0.3659012549","0.2473144087","0.4221129479","","","","","","","","","","","75","K","2","","","99","main_expt"
"410","","bandit","178","717958","0.0-139.0-0.0","48384846","wem/bandit_either","A2HZPQDYHDZWBA","either","7","","","","","","","0","0","1","","0.2707360286","0.6","0.8","0.2","0.4","0.1257326749","0.400368336","0.2707360286","0.3857893684","","","","","","","","","","","75","K","2","","","100","main_expt"
"199","","bandit","179","719711","0.0-140.0-0.0","48384846","wem/bandit_either","A2HZPQDYHDZWBA","either","7","","","","","","","0","0","1","","0.3250409822","0.6","0.8","0.2","0.4","0.09975532208","0.4367931528","0.3250409822","0.3635527264","","","","","","","","","","","75","K","2","","","101","main_expt"
"357","","bandit","180","721665","0.0-141.0-0.0","48384846","wem/bandit_either","A2HZPQDYHDZWBA","either","7","","","","","","","1","0","0","0.3088580598","","0.6","0.8","0.2","0.4","","","","","0.1127414424","0.4371155326","0.3088580598","0.3738375489","","","","","","","75","K","2","","","102","main_expt"
"337","","bandit","181","723544","0.0-142.0-0.0","48384846","wem/bandit_either","A2HZPQDYHDZWBA","either","7","","","","","","","0","1","0","","0.2901001995","0.6","0.8","0.2","0.4","0.1232600734","0.388648264","0.2901001995","0.3860163181","","","","","","","","","","","75","K","2","","","103","main_expt"
"357","","bandit","182","725444","0.0-143.0-0.0","48384846","wem/bandit_either","A2HZPQDYHDZWBA","either","7","","","","","","","0","1","0","","0.309645936","0.6","0.8","0.2","0.4","0.08156843846","0.3718469433","0.309645936","0.390692362","","","","","","","","","","","75","K","2","","","104","main_expt"
"382","","bandit","183","727366","0.0-144.0-0.0","48384846","wem/bandit_either","A2HZPQDYHDZWBA","either","7","","","","","","","0","0","1","0.3386062745","","0.6","0.8","0.2","0.4","","","","","0.08245659199","0.3920304628","0.3386062745","0.4139082553","","","","","","","75","K","2","","","105","main_expt"
"455","","bandit","184","729366","0.0-145.0-0.0","48384846","wem/bandit_either","A2HZPQDYHDZWBA","either","7","","","","","","","0","0","1","","0.3827539061","0.6","0.8","0.2","0.4","0.1276639339","0.3733497125","0.3827539061","0.3295275825","","","","","","","","","","","75","K","2","","","106","main_expt"
"465","","bandit","185","731376","0.0-146.0-0.0","48384846","wem/bandit_either","A2HZPQDYHDZWBA","either","7","","","","","","","1","0","0","0.3401355396","","0.6","0.8","0.2","0.4","","","","","0.1812689745","0.3878439861","0.3401355396","0.3499712774","","","","","","","75","K","2","","","107","main_expt"
"1442","","bandit","186","734363","0.0-147.0-0.0","48384846","wem/bandit_either","A2HZPQDYHDZWBA","either","7","","","","","","","0","0","1","","0.3258039352","0.6","0.8","0.2","0.4","0.2187982558","0.3529013302","0.3258039352","0.2666891207","","","","","","","","","","","75","K","2","","","108","main_expt"
"731","","bandit","187","736636","0.0-148.0-0.0","48384846","wem/bandit_either","A2HZPQDYHDZWBA","either","7","","","","","","","0","1","0","","0.374919859","0.6","0.8","0.2","0.4","0.2201216928","0.3457683734","0.374919859","0.2575067634","","","","","","","","","","","75","K","2","","","109","main_expt"
"468","","bandit","188","738650","0.0-149.0-0.0","48384846","wem/bandit_either","A2HZPQDYHDZWBA","either","7","","","","","","","0","0","1","","0.3656186065","0.6","0.8","0.2","0.4","0.1789817232","0.3316873257","0.3656186065","0.2664913793","","","","","","","","","","","75","K","2","","","110","main_expt"
"425","","bandit","189","740618","0.0-150.0-0.0","48384846","wem/bandit_either","A2HZPQDYHDZWBA","either","7","","","","","","","0","0","1","","0.3649701027","0.6","0.8","0.2","0.4","0.2404947452","0.3434945318","0.3649701027","0.2233446911","","","","","","","","","","","75","K","2","","","111","main_expt"
"1281","","bandit","190","743441","0.0-151.0-0.0","48384846","wem/bandit_either","A2HZPQDYHDZWBA","either","7","","","","","","","0","0","1","","0.3371716456","0.6","0.8","0.2","0.4","0.2959558532","0.2729480053","0.3371716456","0.2170082082","","","","","","","","","","","75","K","2","","","112","main_expt"
"374","","bandit","191","745357","0.0-152.0-0.0","48384846","wem/bandit_either","A2HZPQDYHDZWBA","either","7","","","","","","","0","1","0","","0.2587224119","0.6","0.8","0.2","0.4","0.2966985553","0.2579672073","0.2587224119","0.1912277411","","","","","","","","","","","75","K","2","","","113","main_expt"
"376","","bandit","192","747350","0.0-153.0-0.0","48384846","wem/bandit_either","A2HZPQDYHDZWBA","either","7","","","","","","","0","0","1","0.2384324947","","0.6","0.8","0.2","0.4","","","","","0.3289730608","0.24654084","0.2384324947","0.1691995451","","","","","","","75","K","2","","","114","main_expt"
"431","","bandit","193","749322","0.0-154.0-0.0","48384846","wem/bandit_either","A2HZPQDYHDZWBA","either","7","","","","","","","0","0","1","","0.2705755989","0.6","0.8","0.2","0.4","0.2783705844","0.246649757","0.2705755989","0.1263730162","","","","","","","","","","","75","K","2","","","115","main_expt"
"1138","","bandit","194","752021","0.0-155.0-0.0","48384846","wem/bandit_either","A2HZPQDYHDZWBA","either","7","","","","","","","0","1","0","","0.2666822","0.6","0.8","0.2","0.4","0.2990421824","0.2190482835","0.2666822","0.1130092975","","","","","","","","","","","75","K","2","","","116","main_expt"
"921","","bandit","195","754507","0.0-156.0-0.0","48384846","wem/bandit_either","A2HZPQDYHDZWBA","either","7","","","","","","","0","0","1","","0.2664749026","0.6","0.8","0.2","0.4","0.3214730448","0.1860086181","0.2664749026","0.1317362661","","","","","","","","","","","75","K","2","","","117","main_expt"
"654","","bandit","196","756706","0.0-157.0-0.0","48384846","wem/bandit_either","A2HZPQDYHDZWBA","either","7","","","","","","","0","0","1","","0.285497096","0.6","0.8","0.2","0.4","0.3996160597","0.1765749983","0.285497096","0.08460291254","","","","","","","","","","","75","K","2","","","118","main_expt"
"379","","bandit","197","758628","0.0-158.0-0.0","48384846","wem/bandit_either","A2HZPQDYHDZWBA","either","7","","","","","","","0","0","1","0.09168363065","","0.6","0.8","0.2","0.4","","","","","0.4143362638","0.1840588368","0.3004427434","0.09168363065","","","","","","","76","L","3","","","119","main_expt"
"386","","bandit","198","760557","0.0-159.0-0.0","48384846","wem/bandit_either","A2HZPQDYHDZWBA","either","7","","","","","","","0","0","1","","0.06729372802","0.6","0.8","0.2","0.4","0.372340151","0.1988357929","0.2419855731","0.06729372802","","","","","","","","","","","76","L","3","","","120","main_expt"
"340","","bandit","199","762441","0.0-160.0-0.0","48384846","wem/bandit_either","A2HZPQDYHDZWBA","either","7","","","","","","","0","0","1","","0.08346408207","0.6","0.8","0.2","0.4","0.3910424524","0.2315674","0.3054132847","0.08346408207","","","","","","","","","","","76","L","3","","","121","main_expt"
"365","","bandit","200","764350","0.0-161.0-0.0","48384846","wem/bandit_either","A2HZPQDYHDZWBA","either","7","","","","","","","0","0","1","0.05632743158","","0.6","0.8","0.2","0.4","","","","","0.3813410711","0.2041322171","0.2473202095","0.05632743158","","","","","","","76","L","3","","","122","main_expt"
"599","","bandit","201","766514","0.0-162.0-0.0","48384846","wem/bandit_either","A2HZPQDYHDZWBA","either","7","","","","","","","1","0","0","0.4247291795","","0.6","0.8","0.2","0.4","","","","","0.4247291795","0.1945268209","0.2909195989","0.05516745574","","","","","","","72","H","0","img/none_selected.jpg","","123","main_expt"
"389","","bandit","202","768448","0.0-163.0-0.0","48384846","wem/bandit_either","A2HZPQDYHDZWBA","either","7","","","","","","","0","1","0","","0.4311179713","0.6","0.8","0.2","0.4","0.4311179713","0.2206749142","0.3493750294","0.05528311039","","","","","","","","","","","72","H","0","img/none_selected.jpg","","124","main_expt"
"339","","bandit","203","770365","0.0-164.0-0.0","48384846","wem/bandit_either","A2HZPQDYHDZWBA","either","7","","","","","","","0","0","1","","0.4085782939","0.6","0.8","0.2","0.4","0.4085782939","0.212012295","0.3883668019","0.07149807259","","","","","","","","","","","72","H","0","img/none_selected.jpg","","125","main_expt"
"347","","bandit","204","772261","0.0-165.0-0.0","48384846","wem/bandit_either","A2HZPQDYHDZWBA","either","7","","","","","","","1","0","0","0.4110861309","","0.6","0.8","0.2","0.4","","","","","0.4110861309","0.1656684785","0.3888129637","0.1137803622","","","","","","","72","H","0","img/none_selected.jpg","","126","main_expt"
"659","","bandit","205","774469","0.0-166.0-0.0","48384846","wem/bandit_either","A2HZPQDYHDZWBA","either","7","","","","","","","0","0","1","0.4214671818","","0.6","0.8","0.2","0.4","","","","","0.4214671818","0.1685301808","0.3659195129","0.1003054442","","","","","","","72","H","0","img/none_selected.jpg","","127","main_expt"
"380","","bandit","206","776392","0.0-167.0-0.0","48384846","wem/bandit_either","A2HZPQDYHDZWBA","either","7","","","","","","","0","1","0","","0.36889317","0.6","0.8","0.2","0.4","0.36889317","0.1703551811","0.3689954399","0.1378169536","","","","","","","","","","","72","H","0","img/none_selected.jpg","","128","main_expt"
"396","","bandit","207","778333","0.0-168.0-0.0","48384846","wem/bandit_either","A2HZPQDYHDZWBA","either","7","","","","","","","1","0","0","0.3840267129","","0.6","0.8","0.2","0.4","","","","","0.3840267129","0.1624753709","0.3600340942","0.1333081235","","","","","","","72","H","0","img/none_selected.jpg","","129","main_expt"
"481","","bandit","208","780358","0.0-169.0-0.0","48384846","wem/bandit_either","A2HZPQDYHDZWBA","either","7","","","","","","","1","0","0","0.3809677701","","0.6","0.8","0.2","0.4","","","","","0.3809677701","0.2335662737","0.3580797835","0.1682212827","","","","","","","72","H","0","img/none_selected.jpg","","130","main_expt"
"353","","bandit","209","782263","0.0-170.0-0.0","48384846","wem/bandit_either","A2HZPQDYHDZWBA","either","7","","","","","","","0","0","1","0.3681933818","","0.6","0.8","0.2","0.4","","","","","0.3681933818","0.240441026","0.3785893338","0.2193829955","","","","","","","72","H","0","img/none_selected.jpg","","131","main_expt"
"283","","bandit","210","784092","0.0-171.0-0.0","48384846","wem/bandit_either","A2HZPQDYHDZWBA","either","7","","","","","","","0","1","0","","0.3664045944","0.6","0.8","0.2","0.4","0.3664045944","0.2266699971","0.3764735404","0.2693349046","","","","","","","","","","","72","H","0","img/none_selected.jpg","","132","main_expt"
"368","","bandit","211","786016","0.0-172.0-0.0","48384846","wem/bandit_either","A2HZPQDYHDZWBA","either","7","","","","","","","0","0","1","0.4046437197","","0.6","0.8","0.2","0.4","","","","","0.4046437197","0.1994193025","0.3433534211","0.2576546077","","","","","","","72","H","0","img/none_selected.jpg","","133","main_expt"
"295","","bandit","212","787857","0.0-173.0-0.0","48384846","wem/bandit_either","A2HZPQDYHDZWBA","either","7","","","","","","","1","0","0","0.364490756","","0.6","0.8","0.2","0.4","","","","","0.364490756","0.1891464922","0.3606247271","0.2412372273","","","","","","","72","H","0","img/none_selected.jpg","","134","main_expt"
"1553","","bandit","213","790954","0.0-174.0-0.0","48384846","wem/bandit_either","A2HZPQDYHDZWBA","either","7","","","","","","","0","0","1","0.311914316","","0.6","0.8","0.2","0.4","","","","","0.311914316","0.1614798668","0.3268624306","0.2198641054","","","","","","","72","H","0","img/none_selected.jpg","","135","main_expt"
"922","","bandit","214","793423","0.0-175.0-0.0","48384846","wem/bandit_either","A2HZPQDYHDZWBA","either","7","","","","","","","0","0","1","","0.2653901568","0.6","0.8","0.2","0.4","0.2653901568","0.1880386222","0.2854606769","0.2504132697","","","","","","","","","","","72","H","0","img/none_selected.jpg","","136","main_expt"
"488","","bandit","215","795458","0.0-176.0-0.0","48384846","wem/bandit_either","A2HZPQDYHDZWBA","either","7","","","","","","","0","0","1","0.2413295316","","0.6","0.8","0.2","0.4","","","","","0.2413295316","0.1961818793","0.3311747399","0.1912230989","","","","","","","72","H","0","img/none_selected.jpg","","137","main_expt"
"587","","bandit","216","797589","0.0-177.0-0.0","48384846","wem/bandit_either","A2HZPQDYHDZWBA","either","7","","","","","","","0","0","1","","0.2060295423","0.6","0.8","0.2","0.4","0.2060295423","0.2857678963","0.2570785188","0.1576256809","","","","","","","","","","","72","H","0","img/none_selected.jpg","","138","main_expt"
"157","","bandit","217","799293","0.0-178.0-0.0","48384846","wem/bandit_either","A2HZPQDYHDZWBA","either","7","","","","","","","0","0","1","","0.2858060749","0.6","0.8","0.2","0.4","0.1809645164","0.3449131854","0.2858060749","0.1019788138","","","","","","","","","","","75","K","2","","","139","main_expt"
"332","","bandit","218","801188","0.0-179.0-0.0","48384846","wem/bandit_either","A2HZPQDYHDZWBA","either","7","","","","","","","0","0","1","","0.2975559752","0.6","0.8","0.2","0.4","0.1843216893","0.2537716732","0.2975559752","0.07754087054","","","","","","","","","","","75","K","2","","","140","main_expt"
"328","","bandit","219","803096","0.0-180.0-0.0","48384846","wem/bandit_either","A2HZPQDYHDZWBA","either","7","","","","","","","0","1","0","","0.2858111263","0.6","0.8","0.2","0.4","0.1651876155","0.2858111263","0.2802168405","0.09489610577","","","","","","","","","","","74","J","1","","","141","main_expt"
"469","","bandit","220","805396","0.0-181.0-0.0","48384846","wem/bandit_either","A2HZPQDYHDZWBA","either","7","","","","","","","0","0","1","0.303049367","","0.6","0.8","0.2","0.4","","","","","0.1536427928","0.303049367","0.2231986748","0.09601428546","","","","","","","74","J","1","","","142","main_expt"
"961","","bandit","221","807914","0.0-182.0-0.0","48384846","wem/bandit_either","A2HZPQDYHDZWBA","either","7","","","","","","","0","0","1","0.2969419413","","0.6","0.8","0.2","0.4","","","","","0.1546140226","0.2969419413","0.2032880393","0.08301142993","","","","","","","74","J","1","","","143","main_expt"
"1315","","bandit","222","810876","0.0-183.0-0.0","48384846","wem/bandit_either","A2HZPQDYHDZWBA","either","7","","","","","","","0","0","1","0.3128690494","","0.6","0.8","0.2","0.4","","","","","0.1746031107","0.3128690494","0.1967741464","0.09599686985","","","","","","","74","J","1","","","144","main_expt"
"620","","bandit","223","813084","0.0-184.0-0.0","48384846","wem/bandit_either","A2HZPQDYHDZWBA","either","7","","","","","","","0","0","1","0.2991796355","","0.6","0.8","0.2","0.4","","","","","0.2021387556","0.2991796355","0.2283154954","0.07499383622","","","","","","","74","J","1","","","145","main_expt"
"387","","bandit","224","815092","0.0-185.0-0.0","48384846","wem/bandit_either","A2HZPQDYHDZWBA","either","7","","","","","","","0","0","1","0.3163763193","","0.6","0.8","0.2","0.4","","","","","0.2504344391","0.3163763193","0.2118700154","0.09566861","","","","","","","74","J","1","","","146","main_expt"
"485","","bandit","225","817199","0.0-186.0-0.0","48384846","wem/bandit_either","A2HZPQDYHDZWBA","either","7","","","","","","","0","1","0","","0.210437557","0.6","0.8","0.2","0.4","0.2437718569","0.3198025905","0.210437557","0.08578591382","","","","","","","","","","","75","K","2","","","147","main_expt"
"448","","bandit","226","819209","0.0-187.0-0.0","48384846","wem/bandit_either","A2HZPQDYHDZWBA","either","7","","","","","","","0","1","0","","0.2370661354","0.6","0.8","0.2","0.4","0.2446677265","0.2588245921","0.2370661354","0.1147887709","","","","","","","","","","","75","K","2","","","148","main_expt"
"494","","bandit","227","821313","0.0-188.0-0.0","48384846","wem/bandit_either","A2HZPQDYHDZWBA","either","7","","","","","","","1","0","0","0.2430363771","","0.6","0.8","0.2","0.4","","","","","0.2911002833","0.248712437","0.2430363771","0.1378203382","","","","","","","75","K","2","","","149","main_expt"
"483","","bandit","228","823384","0.0-189.0-0.0","48384846","wem/bandit_either","A2HZPQDYHDZWBA","either","7","","","","","","","0","0","1","","0.2242182381","0.6","0.8","0.2","0.4","0.3529655025","0.179144869","0.2242182381","0.1414499273","","","","","","","","","","","75","K","2","","","150","main_expt"
"777","","bandit","229","825777","0.0-190.0-0.0","48384846","wem/bandit_either","A2HZPQDYHDZWBA","either","7","","","","","","","0","0","1","","0.1997145133","0.6","0.8","0.2","0.4","0.3885741111","0.1545669956","0.1997145133","0.07852348772","","","","","","","","","","","75","K","2","","","151","main_expt"
"409","","bandit","230","827840","0.0-191.0-0.0","48384846","wem/bandit_either","A2HZPQDYHDZWBA","either","7","","","","","","","1","0","0","0.2195927633","","0.6","0.8","0.2","0.4","","","","","0.3690499696","0.1651714415","0.2195927633","0.08485793113","","","","","","","75","K","2","","","152","main_expt"
"385","","bandit","231","829885","0.0-192.0-0.0","48384846","wem/bandit_either","A2HZPQDYHDZWBA","either","7","","","","","","","0","0","1","","0.2121816628","0.6","0.8","0.2","0.4","0.3710492515","0.2396245514","0.2121816628","0.1083789561","","","","","","","","","","","75","K","2","","","153","main_expt"
"2","","bandit","232","831465","0.0-193.0-0.0","48384846","wem/bandit_either","A2HZPQDYHDZWBA","either","7","","","","","","","0","0","1","","0.1830588608","0.6","0.8","0.2","0.4","0.3483335413","0.2085838567","0.1830588608","0.109098481","","","","","","","","","","","75","K","2","","","154","main_expt"
"491","","bandit","233","833520","0.0-194.0-0.0","48384846","wem/bandit_either","A2HZPQDYHDZWBA","either","7","","","","","","","0","0","1","","0.2031423662","0.6","0.8","0.2","0.4","0.3343760247","0.1864274254","0.2031423662","0.1758262092","","","","","","","","","","","75","K","2","","","155","main_expt"
"382","","bandit","234","835459","0.0-195.0-0.0","48384846","wem/bandit_either","A2HZPQDYHDZWBA","either","7","","","","","","","0","0","1","0.2022731065","","0.6","0.8","0.2","0.4","","","","","0.3742013553","0.1750870897","0.2022731065","0.2046597001","","","","","","","75","K","2","","","156","main_expt"
"659","","bandit","235","837675","0.0-196.0-0.0","48384846","wem/bandit_either","A2HZPQDYHDZWBA","either","7","","","","","","","0","0","1","0.3620366094","","0.6","0.8","0.2","0.4","","","","","0.3620366094","0.1321985386","0.1826661219","0.1774751899","","","","","","","72","H","0","img/none_selected.jpg","","157","main_expt"
"423","","bandit","236","839652","0.0-197.0-0.0","48384846","wem/bandit_either","A2HZPQDYHDZWBA","either","7","","","","","","","0","1","0","","0.3671714071","0.6","0.8","0.2","0.4","0.3671714071","0.1341899746","0.1658993888","0.1612033886","","","","","","","","","","","72","H","0","img/none_selected.jpg","","158","main_expt"
"486","","bandit","237","841695","0.0-198.0-0.0","48384846","wem/bandit_either","A2HZPQDYHDZWBA","either","7","","","","","","","0","0","1","0.4015988616","","0.6","0.8","0.2","0.4","","","","","0.4015988616","0.1567784951","0.1620079643","0.1586838935","","","","","","","72","H","0","img/none_selected.jpg","","159","main_expt"
"993","","bandit","238","844255","0.0-199.0-0.0","48384846","wem/bandit_either","A2HZPQDYHDZWBA","either","7","","","","","","","0","0","1","","0.4004877553","0.6","0.8","0.2","0.4","0.4004877553","0.1615549635","0.2453635642","0.2159944071","","","","","","","","","","","72","H","0","img/none_selected.jpg","","160","main_expt"
"504","","bandit","239","846311","0.0-200.0-0.0","48384846","wem/bandit_either","A2HZPQDYHDZWBA","either","7","","","","","","","0","1","0","","0.4095849454","0.6","0.8","0.2","0.4","0.4095849454","0.1854631015","0.2456373749","0.2105769377","","","","","","","","","","","72","H","0","img/none_selected.jpg","","161","main_expt"
"527","","bandit","240","848390","0.0-201.0-0.0","48384846","wem/bandit_either","A2HZPQDYHDZWBA","either","7","","","","","","","0","1","0","","0.3978002783","0.6","0.8","0.2","0.4","0.3978002783","0.21229469","0.2460125232","0.2006925765","","","","","","","","","","","72","H","0","img/none_selected.jpg","","162","main_expt"
"740","","bandit","241","850691","0.0-202.0-0.0","48384846","wem/bandit_either","A2HZPQDYHDZWBA","either","7","","","","","","","0","0","1","0.4180552148","","0.6","0.8","0.2","0.4","","","","","0.4180552148","0.162194177","0.2013568893","0.2365124807","","","","","","","72","H","0","img/none_selected.jpg","","163","main_expt"
"528","","bandit","242","852773","0.0-203.0-0.0","48384846","wem/bandit_either","A2HZPQDYHDZWBA","either","7","","","","","","","0","0","1","0.4407560021","","0.6","0.8","0.2","0.4","","","","","0.4407560021","0.1535707797","0.1933595846","0.2157370886","","","","","","","72","H","0","img/none_selected.jpg","","164","main_expt"
"1037","","bandit","243","855365","0.0-204.0-0.0","48384846","wem/bandit_either","A2HZPQDYHDZWBA","either","7","","","","","","","0","0","1","0.4582960521","","0.6","0.8","0.2","0.4","","","","","0.4582960521","0.2315934193","0.167552211","0.2166787898","","","","","","","72","H","0","img/none_selected.jpg","","165","main_expt"
"246","","bandit","244","857164","0.0-205.0-0.0","48384846","wem/bandit_either","A2HZPQDYHDZWBA","either","7","","","","","","","0","1","0","","0.4337500892","0.6","0.8","0.2","0.4","0.4337500892","0.2579087381","0.1311237951","0.1846262972","","","","","","","","","","","72","H","0","img/none_selected.jpg","","166","main_expt"
"797","","bandit","245","859515","0.0-206.0-0.0","48384846","wem/bandit_either","A2HZPQDYHDZWBA","either","7","","","","","","","0","0","1","","0.4537582576","0.6","0.8","0.2","0.4","0.4537582576","0.2496457694","0.1714029316","0.1888750078","","","","","","","","","","","72","H","0","img/none_selected.jpg","","167","main_expt"
"386","","bandit","246","861456","0.0-207.0-0.0","48384846","wem/bandit_either","A2HZPQDYHDZWBA","either","7","","","","","","","0","0","1","0.4473485534","","0.6","0.8","0.2","0.4","","","","","0.4473485534","0.234558796","0.1494402723","0.2315683769","","","","","","","72","H","0","img/none_selected.jpg","","168","main_expt"
"421","","bandit","247","863446","0.0-208.0-0.0","48384846","wem/bandit_either","A2HZPQDYHDZWBA","either","7","","","","","","","1","0","0","0.4471591033","","0.6","0.8","0.2","0.4","","","","","0.4471591033","0.2458600006","0.1819888556","0.2018123945","","","","","","","72","H","0","img/none_selected.jpg","","169","main_expt"
"458","","bandit","248","865457","0.0-209.0-0.0","48384846","wem/bandit_either","A2HZPQDYHDZWBA","either","7","","","","","","","0","0","1","0.4581839475","","0.6","0.8","0.2","0.4","","","","","0.4581839475","0.2214583157","0.2329206984","0.139238222","","","","","","","72","H","0","img/none_selected.jpg","","170","main_expt"
"1553","","bandit","249","868565","0.0-210.0-0.0","48384846","wem/bandit_either","A2HZPQDYHDZWBA","either","7","","","","","","","0","0","1","0.4674995421","","0.6","0.8","0.2","0.4","","","","","0.4674995421","0.296208115","0.2000607923","0.1466511374","","","","","","","72","H","0","img/none_selected.jpg","","171","main_expt"
"463","","bandit","250","870582","0.0-211.0-0.0","48384846","wem/bandit_either","A2HZPQDYHDZWBA","either","7","","","","","","","1","0","0","0.4455620345","","0.6","0.8","0.2","0.4","","","","","0.4455620345","0.3062379281","0.2342957318","0.1348290388","","","","","","","72","H","0","img/none_selected.jpg","","172","main_expt"
"768","","bandit","251","872905","0.0-212.0-0.0","48384846","wem/bandit_either","A2HZPQDYHDZWBA","either","7","","","","","","","0","0","1","0.4471610379","","0.6","0.8","0.2","0.4","","","","","0.4471610379","0.2498067723","0.2189308077","0.1521691919","","","","","","","72","H","0","img/none_selected.jpg","","173","main_expt"
"1038","","bandit","252","875573","0.0-213.0-0.0","48384846","wem/bandit_either","A2HZPQDYHDZWBA","either","7","","","","","","","0","1","0","","0.4496576915","0.6","0.8","0.2","0.4","0.4496576915","0.1803522277","0.2373932689","0.2191935525","","","","","","","","","","","72","H","0","img/none_selected.jpg","","174","main_expt"
"660","","bandit","253","877795","0.0-214.0-0.0","48384846","wem/bandit_either","A2HZPQDYHDZWBA","either","7","","","","","","","0","0","1","","0.4715297358","0.6","0.8","0.2","0.4","0.4715297358","0.2014319342","0.2160264752","0.219961305","","","","","","","","","","","72","H","0","img/none_selected.jpg","","175","main_expt"
"514","","bandit","254","879944","0.0-215.0-0.0","48384846","wem/bandit_either","A2HZPQDYHDZWBA","either","7","","","","","","","0","1","0","","0.477956151","0.6","0.8","0.2","0.4","0.477956151","0.2122003168","0.1990604306","0.1882485239","","","","","","","","","","","72","H","0","img/none_selected.jpg","","176","main_expt"
"436","","bandit","255","881936","0.0-216.0-0.0","48384846","wem/bandit_either","A2HZPQDYHDZWBA","either","7","","","","","","","0","1","0","","0.4563721206","0.6","0.8","0.2","0.4","0.4563721206","0.2629069455","0.1729978196","0.1644902553","","","","","","","","","","","72","H","0","img/none_selected.jpg","","177","main_expt"
"825","","bandit","256","884328","0.0-217.0-0.0","48384846","wem/bandit_either","A2HZPQDYHDZWBA","either","7","","","","","","","0","1","0","","0.4409869931","0.6","0.8","0.2","0.4","0.4409869931","0.2336104206","0.1633080779","0.1713669852","","","","","","","","","","","72","H","0","img/none_selected.jpg","","178","main_expt"
"454","","bandit","257","886346","0.0-218.0-0.0","48384846","wem/bandit_either","A2HZPQDYHDZWBA","either","7","","","","","","","0","0","1","0.4243126063","","0.6","0.8","0.2","0.4","","","","","0.4243126063","0.1887504226","0.1243251356","0.2263400462","","","","","","","72","H","0","img/none_selected.jpg","","179","main_expt"
"582","","bandit","258","888484","0.0-219.0-0.0","48384846","wem/bandit_either","A2HZPQDYHDZWBA","either","7","","","","","","","0","0","1","0.4312830743","","0.6","0.8","0.2","0.4","","","","","0.4312830743","0.138376641","0.1150149055","0.2036870175","","","","","","","72","H","0","img/none_selected.jpg","","180","main_expt"
"761","","bandit","259","890884","0.0-220.0-0.0","48384846","wem/bandit_either","A2HZPQDYHDZWBA","either","7","","","","","","","0","0","1","","0.4433127893","0.6","0.8","0.2","0.4","0.4433127893","0.1883992559","0.1407924877","0.1934599198","","","","","","","","","","","72","H","0","img/none_selected.jpg","","181","main_expt"
"468","","bandit","260","892919","0.0-221.0-0.0","48384846","wem/bandit_either","A2HZPQDYHDZWBA","either","7","","","","","","","1","0","0","0.440136403","","0.6","0.8","0.2","0.4","","","","","0.440136403","0.128889003","0.09672650852","0.2424515525","","","","","","","72","H","0","img/none_selected.jpg","","182","main_expt"
"859","","bandit","261","895332","0.0-222.0-0.0","48384846","wem/bandit_either","A2HZPQDYHDZWBA","either","7","","","","","","","1","0","0","0.4347693449","","0.6","0.8","0.2","0.4","","","","","0.4347693449","0.1748769843","0.09888002855","0.1961777535","","","","","","","72","H","0","img/none_selected.jpg","","183","main_expt"
"852","","bandit","262","897758","0.0-223.0-0.0","48384846","wem/bandit_either","A2HZPQDYHDZWBA","either","7","","","","","","","1","0","0","0.4277130926","","0.6","0.8","0.2","0.4","","","","","0.4277130926","0.1945994373","0.07200145298","0.1489283113","","","","","","","72","H","0","img/none_selected.jpg","","184","main_expt"
"3482","","bandit","263","902805","0.0-224.0-0.0","48384846","wem/bandit_either","A2HZPQDYHDZWBA","either","7","","","","","","","1","0","0","0.3956248437","","0.6","0.8","0.2","0.4","","","","","0.3956248437","0.1644748654","0.09476413333","0.1499965078","","","","","","","72","H","0","img/none_selected.jpg","","185","main_expt"
"245","","bandit","264","904606","0.0-225.0-0.0","48384846","wem/bandit_either","A2HZPQDYHDZWBA","either","7","","","","","","","0","0","1","0.3748928266","","0.6","0.8","0.2","0.4","","","","","0.3748928266","0.1504635592","0.06556422103","0.2169832988","","","","","","","72","H","0","img/none_selected.jpg","","186","main_expt"
"221","","bandit","265","906382","0.0-226.0-0.0","48384846","wem/bandit_either","A2HZPQDYHDZWBA","either","7","","","","","","","0","0","1","","0.3848139325","0.6","0.8","0.2","0.4","0.3848139325","0.1760039214","0.08901149072","0.2655186329","","","","","","","","","","","72","H","0","img/none_selected.jpg","","187","main_expt"
"452","","bandit","266","908386","0.0-227.0-0.0","48384846","wem/bandit_either","A2HZPQDYHDZWBA","either","7","","","","","","","0","1","0","","0.3990176401","0.6","0.8","0.2","0.4","0.3990176401","0.1203267588","0.09471428588","0.2738785118","","","","","","","","","","","72","H","0","img/none_selected.jpg","","188","main_expt"
"1120","","bandit","267","911058","0.0-228.0-0.0","48384846","wem/bandit_either","A2HZPQDYHDZWBA","either","7","","","","","","","1","0","0","0.3581396838","","0.6","0.8","0.2","0.4","","","","","0.3581396838","0.1171540391","0.05118235823","0.3041874674","","","","","","","72","H","0","img/none_selected.jpg","","189","main_expt"
"540","","bandit","268","913150","0.0-229.0-0.0","48384846","wem/bandit_either","A2HZPQDYHDZWBA","either","7","","","","","","","0","0","1","","0.2882972244","0.6","0.8","0.2","0.4","0.2882972244","0.1535230761","0.05788318751","0.3229453735","","","","","","","","","","","72","H","0","img/none_selected.jpg","","190","main_expt"
"731","","bandit","269","915457","0.0-230.0-0.0","48384846","wem/bandit_either","A2HZPQDYHDZWBA","either","7","","","","","","","1","0","0","0.3145326233","","0.6","0.8","0.2","0.4","","","","","0.3145326233","0.1372750947","0.08736915481","0.3818249757","","","","","","","72","H","0","img/none_selected.jpg","","191","main_expt"
"647","","bandit","270","917669","0.0-231.0-0.0","48384846","wem/bandit_either","A2HZPQDYHDZWBA","either","7","","","","","","","0","1","0","","0.3270603702","0.6","0.8","0.2","0.4","0.3270603702","0.1047771501","0.08251019118","0.4157726243","","","","","","","","","","","72","H","0","img/none_selected.jpg","","192","main_expt"
"626","","bandit","271","919852","0.0-232.0-0.0","48384846","wem/bandit_either","A2HZPQDYHDZWBA","either","7","","","","","","","0","0","1","0.3604030797","","0.6","0.8","0.2","0.4","","","","","0.3604030797","0.1100845432","0.06897628064","0.4611608212","","","","","","","72","H","0","img/none_selected.jpg","","193","main_expt"
"433","","bandit","272","921913","0.0-233.0-0.0","48384846","wem/bandit_either","A2HZPQDYHDZWBA","either","7","","","","","","","0","0","1","0.357423186","","0.6","0.8","0.2","0.4","","","","","0.357423186","0.1468163818","0.06801266305","0.4508818777","","","","","","","72","H","0","img/none_selected.jpg","","194","main_expt"
"351","","bandit","273","923852","0.0-234.0-0.0","48384846","wem/bandit_either","A2HZPQDYHDZWBA","either","7","","","","","","","0","0","1","0.3697779856","","0.6","0.8","0.2","0.4","","","","","0.3697779856","0.1495594621","0.09923709358","0.4278921451","","","","","","","72","H","0","img/none_selected.jpg","","195","main_expt"
"364","","bandit","274","925787","0.0-235.0-0.0","48384846","wem/bandit_either","A2HZPQDYHDZWBA","either","7","","","","","","","0","0","1","0.3617177512","","0.6","0.8","0.2","0.4","","","","","0.3617177512","0.2263220537","0.1103063831","0.4256293003","","","","","","","72","H","0","img/none_selected.jpg","","196","main_expt"
"370","","bandit","275","927884","0.0-236.0-0.0","48384846","wem/bandit_either","A2HZPQDYHDZWBA","either","7","","","","","","","0","0","1","0.3775990084","","0.6","0.8","0.2","0.4","","","","","0.3775990084","0.2204718804","0.07377144043","0.4476975038","","","","","","","72","H","0","img/none_selected.jpg","","197","main_expt"
"2","","bandit","276","929519","0.0-237.0-0.0","48384846","wem/bandit_either","A2HZPQDYHDZWBA","either","7","","","","","","","0","0","1","","0.08863448313","0.6","0.8","0.2","0.4","0.4144042571","0.2401118457","0.08863448313","0.4434357272","","","","","","","","","","","75","K","2","","","198","main_expt"
"365","","bandit","277","931474","0.0-238.0-0.0","48384846","wem/bandit_either","A2HZPQDYHDZWBA","either","7","","","","","","","0","0","1","","0.1082179128","0.6","0.8","0.2","0.4","0.4081775392","0.2673724497","0.1082179128","0.4245114622","","","","","","","","","","","75","K","2","","","199","main_expt"
"336","","bandit","278","933380","0.0-239.0-0.0","48384846","wem/bandit_either","A2HZPQDYHDZWBA","either","7","","","","","","","0","0","1","0.09350688576","","0.6","0.8","0.2","0.4","","","","","0.4166156547","0.3125307902","0.09350688576","0.4087100315","","","","","","","75","K","2","","","200","main_expt"
"1780","","bandit","279","936724","0.0-240.0-0.0","48384846","wem/bandit_either","A2HZPQDYHDZWBA","either","7","","","","","","","0","0","1","","0.4361521275","0.6","0.8","0.2","0.4","0.4306537176","0.2914574258","0.1036625099","0.4361521275","","","","","","","","","","","76","L","3","","","201","main_expt"
"393","","bandit","280","938681","0.0-241.0-0.0","48384846","wem/bandit_either","A2HZPQDYHDZWBA","either","7","","","","","","","0","0","1","","0.3332596158","0.6","0.8","0.2","0.4","0.449382563","0.2550600684","0.1216733889","0.3332596158","","","","","","","","","","","76","L","3","","","202","main_expt"
"336","","bandit","281","940578","0.0-242.0-0.0","48384846","wem/bandit_either","A2HZPQDYHDZWBA","either","7","","","","","","","0","0","1","0.3581848779","","0.6","0.8","0.2","0.4","","","","","0.4506576586","0.2769745997","0.120655788","0.3581848779","","","","","","","76","L","3","","","203","main_expt"
"1177","","bandit","282","943316","0.0-243.0-0.0","48384846","wem/bandit_either","A2HZPQDYHDZWBA","either","7","","","","","","","0","0","1","0.2752990059","","0.6","0.8","0.2","0.4","","","","","0.454839243","0.2752990059","0.1082970726","0.3597133043","","","","","","","74","J","1","","","204","main_expt"
"542","","bandit","283","945459","0.0-244.0-0.0","48384846","wem/bandit_either","A2HZPQDYHDZWBA","either","7","","","","","","","0","0","1","0.2901512169","","0.6","0.8","0.2","0.4","","","","","0.4512889682","0.2901512169","0.09143681274","0.3630183988","","","","","","","74","J","1","","","205","main_expt"
"335","","bandit","284","947353","0.0-245.0-0.0","48384846","wem/bandit_either","A2HZPQDYHDZWBA","either","7","","","","","","","0","0","1","0.2823763913","","0.6","0.8","0.2","0.4","","","","","0.4591490044","0.2823763913","0.08377413986","0.3737494834","","","","","","","74","J","1","","","206","main_expt"
"380","","bandit","285","949293","0.0-246.0-0.0","48384846","wem/bandit_either","A2HZPQDYHDZWBA","either","7","","","","","","","0","0","1","0.2708062506","","0.6","0.8","0.2","0.4","","","","","0.4650593633","0.2708062506","0.1585073664","0.3668784438","","","","","","","74","J","1","","","207","main_expt"
"394","","bandit","286","951248","0.0-247.0-0.0","48384846","wem/bandit_either","A2HZPQDYHDZWBA","either","7","","","","","","","0","0","1","0.2641553663","","0.6","0.8","0.2","0.4","","","","","0.4641513068","0.2641553663","0.162299901","0.4045351895","","","","","","","74","J","1","","","208","main_expt"
"406","","bandit","287","953225","0.0-248.0-0.0","48384846","wem/bandit_either","A2HZPQDYHDZWBA","either","7","","","","","","","0","0","1","0.1542266077","","0.6","0.8","0.2","0.4","","","","","0.4567807332","0.2704675845","0.1542266077","0.4402386934","","","","","","","75","K","2","","","209","main_expt"
"470","","bandit","288","955258","0.0-249.0-0.0","48384846","wem/bandit_either","A2HZPQDYHDZWBA","either","7","","","","","","","0","0","1","","0.1890415559","0.6","0.8","0.2","0.4","0.428253188","0.3420868926","0.1890415559","0.4483623408","","","","","","","","","","","75","K","2","","","210","main_expt"
"425","","bandit","289","957253","0.0-250.0-0.0","48384846","wem/bandit_either","A2HZPQDYHDZWBA","either","7","","","","","","","0","0","1","","0.4471415093","0.6","0.8","0.2","0.4","0.410271385","0.3069688952","0.1818133019","0.4471415093","","","","","","","","","","","76","L","3","","","211","main_expt"
"375","","bandit","290","959190","0.0-251.0-0.0","48384846","wem/bandit_either","A2HZPQDYHDZWBA","either","7","","","","","","","0","0","1","0.4374655127","","0.6","0.8","0.2","0.4","","","","","0.4065587724","0.3005379093","0.1782747956","0.4374655127","","","","","","","76","L","3","","","212","main_expt"
"296","","bandit","291","961051","0.0-252.0-0.0","48384846","wem/bandit_either","A2HZPQDYHDZWBA","either","7","","","","","","","1","0","0","0.4007116542","","0.6","0.8","0.2","0.4","","","","","0.4007116542","0.213882915","0.1935195711","0.4381457257","","","","","","","72","H","0","img/none_selected.jpg","","213","main_expt"
"431","","bandit","292","963041","0.0-253.0-0.0","48384846","wem/bandit_either","A2HZPQDYHDZWBA","either","7","","","","","","","0","0","1","0.4246209323","","0.6","0.8","0.2","0.4","","","","","0.4246209323","0.2138557204","0.2421176173","0.4643769008","","","","","","","72","H","0","img/none_selected.jpg","","214","main_expt"
"1306","","bandit","293","965918","0.0-254.0-0.0","48384846","wem/bandit_either","A2HZPQDYHDZWBA","either","7","","","","","","","0","0","1","","0.3993057066","0.6","0.8","0.2","0.4","0.3993057066","0.2142566612","0.2629876012","0.4328812357","","","","","","","","","","","72","H","0","img/none_selected.jpg","","215","main_expt"
"775","","bandit","294","968253","0.0-255.0-0.0","48384846","wem/bandit_either","A2HZPQDYHDZWBA","either","7","","","","","","","0","0","1","0.3987772474","","0.6","0.8","0.2","0.4","","","","","0.3987772474","0.1900351118","0.2977714141","0.4064507999","","","","","","","72","H","0","img/none_selected.jpg","","216","main_expt"
"1044","","bandit","295","970855","0.0-256.0-0.0","48384846","wem/bandit_either","A2HZPQDYHDZWBA","either","7","","","","","","","0","0","1","0.4101433534","","0.6","0.8","0.2","0.4","","","","","0.4101433534","0.2185169477","0.3017601552","0.4197961641","","","","","","","72","H","0","img/none_selected.jpg","","217","main_expt"
"1161","","bandit","296","973577","0.0-257.0-0.0","48384846","wem/bandit_either","A2HZPQDYHDZWBA","either","7","","","","","","","0","1","0","","0.4448029092","0.6","0.8","0.2","0.4","0.4448029092","0.2240895604","0.2888566207","0.4167397569","","","","","","","","","","","72","H","0","img/none_selected.jpg","","218","main_expt"
"572","","bandit","297","975718","0.0-258.0-0.0","48384846","wem/bandit_either","A2HZPQDYHDZWBA","either","7","","","","","","","0","1","0","","0.4454766299","0.6","0.8","0.2","0.4","0.4454766299","0.1990808675","0.2844008008","0.4250944588","","","","","","","","","","","72","H","0","img/none_selected.jpg","","219","main_expt"
"941","","bandit","298","978220","0.0-259.0-0.0","48384846","wem/bandit_either","A2HZPQDYHDZWBA","either","7","","","","","","","0","0","1","","0.4610997771","0.6","0.8","0.2","0.4","0.4610997771","0.266602996","0.2225062479","0.4173336587","","","","","","","","","","","72","H","0","img/none_selected.jpg","","220","main_expt"
"619","","bandit","299","980397","0.0-260.0-0.0","48384846","wem/bandit_either","A2HZPQDYHDZWBA","either","7","","","","","","","1","0","0","0.4642289789","","0.6","0.8","0.2","0.4","","","","","0.4642289789","0.2443661227","0.2409900116","0.3944711005","","","","","","","72","H","0","img/none_selected.jpg","","221","main_expt"
"242","","bandit","300","982204","0.0-261.0-0.0","48384846","wem/bandit_either","A2HZPQDYHDZWBA","either","7","","","","","","","1","0","0","0.4641270597","","0.6","0.8","0.2","0.4","","","","","0.4641270597","0.2205922116","0.1989678636","0.3619306912","","","","","","","72","H","0","img/none_selected.jpg","","222","main_expt"
"877","","bandit","301","984644","0.0-262.0-0.0","48384846","wem/bandit_either","A2HZPQDYHDZWBA","either","7","","","","","","","0","0","1","","0.4697433819","0.6","0.8","0.2","0.4","0.4697433819","0.1861223506","0.1902867071","0.4117842179","","","","","","","","","","","72","H","0","img/none_selected.jpg","","223","main_expt"
"1167","","bandit","302","987435","0.0-263.0-0.0","48384846","wem/bandit_either","A2HZPQDYHDZWBA","either","7","","","","","","","0","0","1","","0.460898083","0.6","0.8","0.2","0.4","0.460898083","0.1668884863","0.2076415522","0.3965092367","","","","","","","","","","","72","H","0","img/none_selected.jpg","","224","main_expt"
"599","","bandit","303","989657","0.0-264.0-0.0","48384846","wem/bandit_either","A2HZPQDYHDZWBA","either","7","","","","","","","0","0","1","0.4394890665","","0.6","0.8","0.2","0.4","","","","","0.4394890665","0.1481472712","0.2393469174","0.4084477862","","","","","","","72","H","0","img/none_selected.jpg","","225","main_expt"
"509","","bandit","304","991894","0.0-265.0-0.0","48384846","wem/bandit_either","A2HZPQDYHDZWBA","either","7","","","","","","","0","0","1","0.4520955237","","0.6","0.8","0.2","0.4","","","","","0.4520955237","0.1140846591","0.2425440376","0.4104601526","","","","","","","72","H","0","img/none_selected.jpg","","226","main_expt"
"1091","","bandit","305","994576","0.0-266.0-0.0","48384846","wem/bandit_either","A2HZPQDYHDZWBA","either","7","","","","","","","1","0","0","0.3899733519","","0.6","0.8","0.2","0.4","","","","","0.4324220164","0.1074218354","0.2365603363","0.3899733519","","","","","","","76","L","3","","","227","main_expt"
"750","","bandit","306","996905","0.0-267.0-0.0","48384846","wem/bandit_either","A2HZPQDYHDZWBA","either","7","","","","","","","0","1","0","","0.3796730737","0.6","0.8","0.2","0.4","0.4220482421","0.08065165665","0.2127958296","0.3796730737","","","","","","","","","","","76","L","3","","","228","main_expt"
"344","","bandit","307","998817","0.0-268.0-0.0","48384846","wem/bandit_either","A2HZPQDYHDZWBA","either","7","","","","","","","0","0","1","0.4046866514","","0.6","0.8","0.2","0.4","","","","","0.3885749154","0.07774059362","0.2207861463","0.4046866514","","","","","","","76","L","3","","","229","main_expt"
"405","","bandit","308","1000793","0.0-269.0-0.0","48384846","wem/bandit_either","A2HZPQDYHDZWBA","either","7","","","","","","","0","0","1","","0.3988793555","0.6","0.8","0.2","0.4","0.4023755806","0.1109483114","0.2589226453","0.3988793555","","","","","","","","","","","76","L","3","","","230","main_expt"
"420","","bandit","309","1002779","0.0-270.0-0.0","48384846","wem/bandit_either","A2HZPQDYHDZWBA","either","7","","","","","","","1","0","0","0.3981898202","","0.6","0.8","0.2","0.4","","","","","0.3768725222","0.05902300203","0.2956158432","0.3981898202","","","","","","","76","L","3","","","231","main_expt"
"652","","bandit","310","1005001","0.0-271.0-0.0","48384846","wem/bandit_either","A2HZPQDYHDZWBA","either","7","","","","","","","0","1","0","","0.4411941832","0.6","0.8","0.2","0.4","0.3619917427","0.06675855664","0.3202484073","0.4411941832","","","","","","","","","","","76","L","3","","","232","main_expt"
"407","","bandit","311","1006971","0.0-272.0-0.0","48384846","wem/bandit_either","A2HZPQDYHDZWBA","either","7","","","","","","","0","0","1","0.42967461","","0.6","0.8","0.2","0.4","","","","","0.3833578816","0.06703699679","0.2933644042","0.42967461","","","","","","","76","L","3","","","233","main_expt"
"454","","bandit","312","1008994","0.0-273.0-0.0","48384846","wem/bandit_either","A2HZPQDYHDZWBA","either","7","","","","","","","1","0","0","0.4242798354","","0.6","0.8","0.2","0.4","","","","","0.3552131768","0.05331023031","0.3106154811","0.4242798354","","","","","","","76","L","3","","","234","main_expt"
"697","","bandit","313","1011303","0.0-274.0-0.0","48384846","wem/bandit_either","A2HZPQDYHDZWBA","either","7","","","","","","","0","1","0","","0.4617388459","0.6","0.8","0.2","0.4","0.3135084543","0.05187545802","0.3158990995","0.4617388459","","","","","","","","","","","76","L","3","","","235","main_expt"
"1688","","bandit","314","1014555","0.0-275.0-0.0","48384846","wem/bandit_either","A2HZPQDYHDZWBA","either","7","","","","","","","0","0","1","","0.4619510484","0.6","0.8","0.2","0.4","0.244945467","0.06939909985","0.3036927748","0.4619510484","","","","","","","","","","","76","L","3","","","236","main_expt"
"456","","bandit","315","1016640","0.0-276.0-0.0","48384846","wem/bandit_either","A2HZPQDYHDZWBA","either","7","","","","","","","0","0","1","","0.4482398789","0.6","0.8","0.2","0.4","0.1823839079","0.1210409879","0.3491021326","0.4482398789","","","","","","","","","","","76","L","3","","","237","main_expt"
"342","","bandit","316","1018617","0.0-277.0-0.0","48384846","wem/bandit_either","A2HZPQDYHDZWBA","either","7","","","","","","","0","0","1","","0.4193969143","0.6","0.8","0.2","0.4","0.1685050226","0.1147840357","0.3939254097","0.4193969143","","","","","","","","","","","76","L","3","","","238","main_expt"
"391","","bandit","317","1020583","0.0-278.0-0.0","48384846","wem/bandit_either","A2HZPQDYHDZWBA","either","7","","","","","","","0","1","0","","0.4203848948","0.6","0.8","0.2","0.4","0.1606472637","0.1006463842","0.379108978","0.4203848948","","","","","","","","","","","76","L","3","","","239","main_expt"
"923","","bandit","318","1023070","0.0-279.0-0.0","48384846","wem/bandit_either","A2HZPQDYHDZWBA","either","7","","","","","","","0","0","1","","0.4489383263","0.6","0.8","0.2","0.4","0.1512795466","0.1008771133","0.3876209848","0.4489383263","","","","","","","","","","","76","L","3","","","240","main_expt"
"1899","","bandit","319","1026546","0.0-280.0-0.0","48384846","wem/bandit_either","A2HZPQDYHDZWBA","either","7","","","","","","","0","1","0","","0.4636195567","0.6","0.8","0.2","0.4","0.1916219391","0.09981833296","0.3839625774","0.4636195567","","","","","","","","","","","76","L","3","","","241","main_expt"
"1059","","bandit","320","1029389","0.0-281.0-0.0","48384846","wem/bandit_either","A2HZPQDYHDZWBA","either","7","","","","","","","0","1","0","","0.4575307695","0.6","0.8","0.2","0.4","0.1641013935","0.1171772993","0.3477958629","0.4575307695","","","","","","","","","","","76","L","3","","","242","main_expt"
"66","","bandit","321","1031028","0.0-282.0-0.0","48384846","wem/bandit_either","A2HZPQDYHDZWBA","either","7","","","","","","","0","0","1","0.4449554393","","0.6","0.8","0.2","0.4","","","","","0.2064320789","0.1239984651","0.3500658948","0.4449554393","","","","","","","76","L","3","","","243","main_expt"
"1509","","bandit","322","1034106","0.0-283.0-0.0","48384846","wem/bandit_either","A2HZPQDYHDZWBA","either","7","","","","","","","0","1","0","","0.4525763452","0.6","0.8","0.2","0.4","0.2205496082","0.1126152289","0.3452717574","0.4525763452","","","","","","","","","","","76","L","3","","","244","main_expt"
"1182","","bandit","323","1036857","0.0-284.0-0.0","48384846","wem/bandit_either","A2HZPQDYHDZWBA","either","7","","","","","","","0","0","1","","0.4753838692","0.6","0.8","0.2","0.4","0.214276823","0.1524829061","0.3162288444","0.4753838692","","","","","","","","","","","76","L","3","","","245","main_expt"
"829","","bandit","324","1039256","0.0-285.0-0.0","48384846","wem/bandit_either","A2HZPQDYHDZWBA","either","7","","","","","","","0","0","1","0.4623654582","","0.6","0.8","0.2","0.4","","","","","0.2084567316","0.1921750243","0.2894596967","0.4623654582","","","","","","","76","L","3","","","246","main_expt"
"656","","bandit","325","1041529","0.0-286.0-0.0","48384846","wem/bandit_either","A2HZPQDYHDZWBA","either","7","","","","","","","0","1","0","","0.4331165165","0.6","0.8","0.2","0.4","0.2232303491","0.1931065189","0.2642296388","0.4331165165","","","","","","","","","","","76","L","3","","","247","main_expt"
"1612","","bandit","326","1044729","0.0-287.0-0.0","48384846","wem/bandit_either","A2HZPQDYHDZWBA","either","7","","","","","","","0","1","0","","0.4401602984","0.6","0.8","0.2","0.4","0.2541796534","0.2189994516","0.2534255255","0.4401602984","","","","","","","","","","","76","L","3","","","248","main_expt"
"775","","bandit","327","1047080","0.0-288.0-0.0","48384846","wem/bandit_either","A2HZPQDYHDZWBA","either","7","","","","","","","0","1","0","","0.430892824","0.6","0.8","0.2","0.4","0.232462199","0.1989243371","0.2252980971","0.430892824","","","","","","","","","","","76","L","3","","","249","main_expt"
"375","","bandit","328","1049025","0.0-289.0-0.0","48384846","wem/bandit_either","A2HZPQDYHDZWBA","either","7","","","","","","","0","0","1","","0.4282509168","0.6","0.8","0.2","0.4","0.2877664065","0.1635706079","0.298830738","0.4282509168","","","","","","","","","","","76","L","3","","","250","main_expt"
"1027","","bandit","329","1051680","0.0-290.0-0.0","48384846","wem/bandit_either","A2HZPQDYHDZWBA","either","7","","","","","","","0","0","1","","0.4499649657","0.6","0.8","0.2","0.4","0.2947451014","0.1738575253","0.3113207693","0.4499649657","","","","","","","","","","","76","L","3","","","251","main_expt"
