"rt","responses","trial_type","trial_index","time_elapsed","internal_node_id","subjID","study","MID","cond","drift","key_press","expt_phase","target","like","value","connected","gems","bombs","no_reward","GemPrChosen","BombPrChosen","GainOverPainPr_0","GainOverPainPr_1","GainOverPainPr_2","GainOverPainPr_3","LosePr_0","LosePr_1","LosePr_2","LosePr_3","WinPr_0","WinPr_1","WinPr_2","WinPr_3","Q0","Q1","Q2","gender","age","ethnicity","respCharCode","respKey","respChoiceNum","respChoice","practice","trial_counter","trial_label"
"7557","{""Q0"":""A3J5UWZM4ZZ1D6""}","survey-text","0","7584","0.0-0.0","48686129","wem/bandit_either","A3J5UWZM4ZZ1D6","either","5","","","","","","","","","","","","","","","","","","","","","","","","","","","","","","","","","","","",""
"6923","","text","1","15534","0.0-1.0","48686129","wem/bandit_either","A3J5UWZM4ZZ1D6","either","5","32","","","","","","","","","","","","","","","","","","","","","","","","","","","","","","","","","","",""
"10821","","text","2","26361","0.0-2.0","48686129","wem/bandit_either","A3J5UWZM4ZZ1D6","either","5","32","","","","","","","","","","","","","","","","","","","","","","","","","","","","","","","","","","",""
"32311","","text","3","58679","0.0-3.0","48686129","wem/bandit_either","A3J5UWZM4ZZ1D6","either","5","32","","","","","","","","","","","","","","","","","","","","","","","","","","","","","","","","","","",""
"11664","","text","4","70349","0.0-4.0","48686129","wem/bandit_either","A3J5UWZM4ZZ1D6","either","5","32","","","","","","","","","","","","","","","","","","","","","","","","","","","","","","","","","","",""
"33007","","text","5","103364","0.0-5.0","48686129","wem/bandit_either","A3J5UWZM4ZZ1D6","either","5","32","","","","","","","","","","","","","","","","","","","","","","","","","","","","","","","","","","",""
"5559","","text","6","108930","0.0-6.0","48686129","wem/bandit_either","A3J5UWZM4ZZ1D6","either","5","32","","","","","","","","","","","","","","","","","","","","","","","","","","","","","","","","","","",""
"6168","","text","7","115103","0.0-7.0","48686129","wem/bandit_either","A3J5UWZM4ZZ1D6","either","5","32","","","","","","","","","","","","","","","","","","","","","","","","","","","","","","","","","","",""
"17547","","identification","8","132731","0.0-8.0-0.0","48686129","wem/bandit_either","A3J5UWZM4ZZ1D6","either","5","","identification_pre","the village of Zur","","","","","","","","","","","","","","","","","","","","","","","","","","","","","","","","",""
"7187","","identification","9","141003","0.0-8.0-1.0","48686129","wem/bandit_either","A3J5UWZM4ZZ1D6","either","5","","identification_pre","the village of Nyx","","","","","","","","","","","","","","","","","","","","","","","","","","","","","","","","",""
"5698","","text","10","147718","0.0-9.0","48686129","wem/bandit_either","A3J5UWZM4ZZ1D6","either","5","32","","","","","","","","","","","","","","","","","","","","","","","","","","","","","","","","","","",""
"4291","","text","11","152019","0.0-10.0","48686129","wem/bandit_either","A3J5UWZM4ZZ1D6","either","5","32","","","","","","","","","","","","","","","","","","","","","","","","","","","","","","","","","","",""
"4284","","text","12","156311","0.0-11.0","48686129","wem/bandit_either","A3J5UWZM4ZZ1D6","either","5","32","","","","","","","","","","","","","","","","","","","","","","","","","","","","","","","","","","",""
"4458","","text","13","160778","0.0-12.0","48686129","wem/bandit_either","A3J5UWZM4ZZ1D6","either","5","32","","","","","","","","","","","","","","","","","","","","","","","","","","","","","","","","","","",""
"4131","","bandit","14","166472","0.0-13.0-0.0","48686129","wem/bandit_either","A3J5UWZM4ZZ1D6","either","5","","","","","","","0","0","1","0","0","","","","","0","","","","0","","","","","","","","","","74","J","0","img/none_selected_demo.jpg","true","0",""
"1479","","bandit","15","169498","0.0-14.0-0.0","48686129","wem/bandit_either","A3J5UWZM4ZZ1D6","either","5","","","","","","","0","0","1","0","0","","","","","0","","","","0","","","","","","","","","","75","K","0","img/none_selected_demo.jpg","true","0",""
"11309","","text","16","180829","0.0-15.0","48686129","wem/bandit_either","A3J5UWZM4ZZ1D6","either","5","32","","","","","","","","","","","","","","","","","","","","","","","","","","","","","","","","","","",""
"12342","","text","17","193182","0.0-16.0","48686129","wem/bandit_either","A3J5UWZM4ZZ1D6","either","5","32","","","","","","","","","","","","","","","","","","","","","","","","","","","","","","","","","","",""
"9682","","text","18","202871","0.0-17.0","48686129","wem/bandit_either","A3J5UWZM4ZZ1D6","either","5","32","","","","","","","","","","","","","","","","","","","","","","","","","","","","","","","","","","",""
"5618","","text","19","208498","0.0-18.0","48686129","wem/bandit_either","A3J5UWZM4ZZ1D6","either","5","32","","","","","","","","","","","","","","","","","","","","","","","","","","","","","","","","","","",""
"2427","","bandit","20","212478","0.0-19.0-0.0","48686129","wem/bandit_either","A3J5UWZM4ZZ1D6","either","5","","","","","","","0","0","1","","0.8","0.5","0.5","","","0.8","0.2","","","","","","","","","","","","","74","J","0","img/none_selected_demo.jpg","true","0","80_20_practice"
"648","","bandit","21","214670","0.0-19.0-1.0","48686129","wem/bandit_either","A3J5UWZM4ZZ1D6","either","5","","","","","","","0","0","1","","0.2","0.5","0.5","","","0.8","0.2","","","","","","","","","","","","","75","K","1","","true","0","80_20_practice"
"1335","","bandit","22","217542","0.0-19.0-2.0","48686129","wem/bandit_either","A3J5UWZM4ZZ1D6","either","5","","","","","","","0","0","1","","0.2","0.5","0.5","","","0.8","0.2","","","","","","","","","","","","","75","K","1","","true","0","80_20_practice"
"802","","bandit","23","219895","0.0-19.0-3.0","48686129","wem/bandit_either","A3J5UWZM4ZZ1D6","either","5","","","","","","","1","0","0","0.8","","0.5","0.5","","","","","","","0.8","0.2","","","","","","","","","74","J","0","img/none_selected_demo.jpg","true","0","80_20_practice"
"1334","","bandit","24","222787","0.0-19.0-4.0","48686129","wem/bandit_either","A3J5UWZM4ZZ1D6","either","5","","","","","","","0","1","0","","0.8","0.5","0.5","","","0.8","0.2","","","","","","","","","","","","","74","J","0","img/none_selected_demo.jpg","true","0","80_20_practice"
"1166","","bandit","25","225495","0.0-19.0-5.0","48686129","wem/bandit_either","A3J5UWZM4ZZ1D6","either","5","","","","","","","0","0","1","0.2","","0.5","0.5","","","","","","","0.8","0.2","","","","","","","","","75","K","1","","true","0","80_20_practice"
"430","","bandit","26","227491","0.0-19.0-6.0","48686129","wem/bandit_either","A3J5UWZM4ZZ1D6","either","5","","","","","","","0","0","1","","0.2","0.5","0.5","","","0.8","0.2","","","","","","","","","","","","","75","K","1","","true","0","80_20_practice"
"490","","bandit","27","229541","0.0-19.0-7.0","48686129","wem/bandit_either","A3J5UWZM4ZZ1D6","either","5","","","","","","","0","0","1","0.2","","0.5","0.5","","","","","","","0.8","0.2","","","","","","","","","75","K","1","","true","0","80_20_practice"
"543","","bandit","28","231621","0.0-19.0-8.0","48686129","wem/bandit_either","A3J5UWZM4ZZ1D6","either","5","","","","","","","0","0","1","0.2","","0.5","0.5","","","","","","","0.8","0.2","","","","","","","","","75","K","1","","true","0","80_20_practice"
"418","","bandit","29","233585","0.0-19.0-9.0","48686129","wem/bandit_either","A3J5UWZM4ZZ1D6","either","5","","","","","","","0","0","1","","0.2","0.5","0.5","","","0.8","0.2","","","","","","","","","","","","","75","K","1","","true","0","80_20_practice"
"1947","","bandit","30","237084","0.0-19.0-10.0","48686129","wem/bandit_either","A3J5UWZM4ZZ1D6","either","5","","","","","","","1","0","0","0.8","","0.5","0.5","","","","","","","0.8","0.2","","","","","","","","","74","J","0","img/none_selected_demo.jpg","true","0","80_20_practice"
"381","","bandit","31","239007","0.0-19.0-11.0","48686129","wem/bandit_either","A3J5UWZM4ZZ1D6","either","5","","","","","","","0","0","1","0.2","","0.5","0.5","","","","","","","0.8","0.2","","","","","","","","","75","K","1","","true","0","80_20_practice"
"131","","bandit","32","240715","0.0-19.0-12.0","48686129","wem/bandit_either","A3J5UWZM4ZZ1D6","either","5","","","","","","","0","0","1","0.8","","0.5","0.5","","","","","","","0.8","0.2","","","","","","","","","74","J","0","img/none_selected_demo.jpg","true","0","80_20_practice"
"272","","bandit","33","245161","0.0-19.0-13.0","48686129","wem/bandit_either","A3J5UWZM4ZZ1D6","either","5","","","","","","","1","0","0","0.8","","0.5","0.5","","","","","","","0.8","0.2","","","","","","","","","74","J","0","img/none_selected_demo.jpg","true","0","80_20_practice"
"1305","","bandit","34","248018","0.0-19.0-14.0","48686129","wem/bandit_either","A3J5UWZM4ZZ1D6","either","5","","","","","","","1","0","0","0.2","","0.5","0.5","","","","","","","0.8","0.2","","","","","","","","","75","K","1","","true","0","80_20_practice"
"374","","bandit","35","249968","0.0-19.0-15.0","48686129","wem/bandit_either","A3J5UWZM4ZZ1D6","either","5","","","","","","","0","0","1","0.2","","0.5","0.5","","","","","","","0.8","0.2","","","","","","","","","75","K","1","","true","0","80_20_practice"
"113","","bandit","36","251643","0.0-19.0-16.0","48686129","wem/bandit_either","A3J5UWZM4ZZ1D6","either","5","","","","","","","0","1","0","","0.8","0.5","0.5","","","0.8","0.2","","","","","","","","","","","","","74","J","0","img/none_selected_demo.jpg","true","0","80_20_practice"
"524","","bandit","37","253721","0.0-19.0-17.0","48686129","wem/bandit_either","A3J5UWZM4ZZ1D6","either","5","","","","","","","0","0","1","","0.2","0.5","0.5","","","0.8","0.2","","","","","","","","","","","","","75","K","1","","true","0","80_20_practice"
"467","","bandit","38","255725","0.0-19.0-18.0","48686129","wem/bandit_either","A3J5UWZM4ZZ1D6","either","5","","","","","","","0","0","1","0.2","","0.5","0.5","","","","","","","0.8","0.2","","","","","","","","","75","K","1","","true","0","80_20_practice"
"149","","bandit","39","257443","0.0-19.0-19.0","48686129","wem/bandit_either","A3J5UWZM4ZZ1D6","either","5","","","","","","","0","0","1","0.2","","0.5","0.5","","","","","","","0.8","0.2","","","","","","","","","75","K","1","","true","0","80_20_practice"
"5505","","text","40","262960","0.0-20.0","48686129","wem/bandit_either","A3J5UWZM4ZZ1D6","either","5","32","","","","","","","","","","","","","","","","","","","","","","","","","","","","","","","","","","",""
"4286","","bandit","41","268795","0.0-21.0-0.0","48686129","wem/bandit_either","A3J5UWZM4ZZ1D6","either","5","","","","","","","1","0","0","1","0","","","","","0","1","","","1","0","","","","","","","","","74","J","0","img/none_selected_demo.jpg","true","0",""
"9735","","text","42","278542","0.0-22.0","48686129","wem/bandit_either","A3J5UWZM4ZZ1D6","either","5","32","","","","","","","","","","","","","","","","","","","","","","","","","","","","","","","","","","",""
"2896","","text","43","281449","0.0-23.0","48686129","wem/bandit_either","A3J5UWZM4ZZ1D6","either","5","32","","","","","","","","","","","","","","","","","","","","","","","","","","","","","","","","","","",""
"3539","","text","44","285003","0.0-24.0","48686129","wem/bandit_either","A3J5UWZM4ZZ1D6","either","5","32","","","","","","","","","","","","","","","","","","","","","","","","","","","","","","","","","","",""
"3987","","text","45","289009","0.0-25.0","48686129","wem/bandit_either","A3J5UWZM4ZZ1D6","either","5","32","","","","","","","","","","","","","","","","","","","","","","","","","","","","","","","","","","",""
"19399","","text","46","308418","0.0-26.0","48686129","wem/bandit_either","A3J5UWZM4ZZ1D6","either","5","32","","","","","","","","","","","","","","","","","","","","","","","","","","","","","","","","","","",""
"3531","","text","47","311956","0.0-27.0","48686129","wem/bandit_either","A3J5UWZM4ZZ1D6","either","5","32","","","","","","","","","","","","","","","","","","","","","","","","","","","","","","","","","","",""
"7123","","text","48","319091","0.0-28.0","48686129","wem/bandit_either","A3J5UWZM4ZZ1D6","either","5","32","","","","","","","","","","","","","","","","","","","","","","","","","","","","","","","","","","",""
"5097","","text","49","324196","0.0-29.0","48686129","wem/bandit_either","A3J5UWZM4ZZ1D6","either","5","32","","","","","","","","","","","","","","","","","","","","","","","","","","","","","","","","","","",""
"5917","","text","50","330126","0.0-30.0","48686129","wem/bandit_either","A3J5UWZM4ZZ1D6","either","5","32","","","","","","","","","","","","","","","","","","","","","","","","","","","","","","","","","","",""
"2764","","text","51","332898","0.0-31.0","48686129","wem/bandit_either","A3J5UWZM4ZZ1D6","either","5","32","","","","","","","","","","","","","","","","","","","","","","","","","","","","","","","","","","",""
"3635","","text","52","336540","0.0-32.0","48686129","wem/bandit_either","A3J5UWZM4ZZ1D6","either","5","32","","","","","","","","","","","","","","","","","","","","","","","","","","","","","","","","","","",""
"1954","","bandit","53","340040","0.0-33.0-0.0","48686129","wem/bandit_either","A3J5UWZM4ZZ1D6","either","5","","","","","","","0","0","1","","0.8","0.5","0.5","0.5","0.5","0.8","0.2","0.6","0.2","","","","","","","","","","","72","H","0","img/none_selected.jpg","true","0","full_practice"
"2468","","bandit","54","344129","0.0-33.0-1.0","48686129","wem/bandit_either","A3J5UWZM4ZZ1D6","either","5","","","","","","","1","0","0","0.6","","0.5","0.5","0.5","0.5","","","","","0.8","0.2","0.6","0.2","","","","","","","75","K","2","","true","0","full_practice"
"907","","bandit","55","346606","0.0-33.0-2.0","48686129","wem/bandit_either","A3J5UWZM4ZZ1D6","either","5","","","","","","","0","0","1","0.2","","0.5","0.5","0.5","0.5","","","","","0.8","0.2","0.6","0.2","","","","","","","76","L","3","","true","0","full_practice"
"628","","bandit","56","348795","0.0-33.0-3.0","48686129","wem/bandit_either","A3J5UWZM4ZZ1D6","either","5","","","","","","","0","0","1","0.2","","0.5","0.5","0.5","0.5","","","","","0.8","0.2","0.6","0.2","","","","","","","74","J","1","","true","0","full_practice"
"1462","","bandit","57","351804","0.0-33.0-4.0","48686129","wem/bandit_either","A3J5UWZM4ZZ1D6","either","5","","","","","","","0","1","0","","0.6","0.5","0.5","0.5","0.5","0.8","0.2","0.6","0.2","","","","","","","","","","","75","K","2","","true","0","full_practice"
"895","","bandit","58","354263","0.0-33.0-5.0","48686129","wem/bandit_either","A3J5UWZM4ZZ1D6","either","5","","","","","","","0","0","1","","0.8","0.5","0.5","0.5","0.5","0.8","0.2","0.6","0.2","","","","","","","","","","","72","H","0","img/none_selected.jpg","true","0","full_practice"
"313","","bandit","59","356150","0.0-33.0-6.0","48686129","wem/bandit_either","A3J5UWZM4ZZ1D6","either","5","","","","","","","0","1","0","","0.8","0.5","0.5","0.5","0.5","0.8","0.2","0.6","0.2","","","","","","","","","","","72","H","0","img/none_selected.jpg","true","0","full_practice"
"521","","bandit","60","358197","0.0-33.0-7.0","48686129","wem/bandit_either","A3J5UWZM4ZZ1D6","either","5","","","","","","","0","0","1","0.2","","0.5","0.5","0.5","0.5","","","","","0.8","0.2","0.6","0.2","","","","","","","74","J","1","","true","0","full_practice"
"487","","bandit","61","360235","0.0-33.0-8.0","48686129","wem/bandit_either","A3J5UWZM4ZZ1D6","either","5","","","","","","","0","0","1","","0.2","0.5","0.5","0.5","0.5","0.8","0.2","0.6","0.2","","","","","","","","","","","74","J","1","","true","0","full_practice"
"462","","bandit","62","362239","0.0-33.0-9.0","48686129","wem/bandit_either","A3J5UWZM4ZZ1D6","either","5","","","","","","","1","0","0","0.6","","0.5","0.5","0.5","0.5","","","","","0.8","0.2","0.6","0.2","","","","","","","75","K","2","","true","0","full_practice"
"645","","bandit","63","364442","0.0-33.0-10.0","48686129","wem/bandit_either","A3J5UWZM4ZZ1D6","either","5","","","","","","","0","1","0","","0.2","0.5","0.5","0.5","0.5","0.8","0.2","0.6","0.2","","","","","","","","","","","76","L","3","","true","0","full_practice"
"401","","bandit","64","366462","0.0-33.0-11.0","48686129","wem/bandit_either","A3J5UWZM4ZZ1D6","either","5","","","","","","","0","0","1","","0.2","0.5","0.5","0.5","0.5","0.8","0.2","0.6","0.2","","","","","","","","","","","76","L","3","","true","0","full_practice"
"1006","","bandit","65","369017","0.0-33.0-12.0","48686129","wem/bandit_either","A3J5UWZM4ZZ1D6","either","5","","","","","","","0","0","1","0.2","","0.5","0.5","0.5","0.5","","","","","0.8","0.2","0.6","0.2","","","","","","","76","L","3","","true","0","full_practice"
"386","","bandit","66","370958","0.0-33.0-13.0","48686129","wem/bandit_either","A3J5UWZM4ZZ1D6","either","5","","","","","","","0","1","0","","0.6","0.5","0.5","0.5","0.5","0.8","0.2","0.6","0.2","","","","","","","","","","","75","K","2","","true","0","full_practice"
"343","","bandit","67","372836","0.0-33.0-14.0","48686129","wem/bandit_either","A3J5UWZM4ZZ1D6","either","5","","","","","","","1","0","0","0.6","","0.5","0.5","0.5","0.5","","","","","0.8","0.2","0.6","0.2","","","","","","","75","K","2","","true","0","full_practice"
"1109","","bandit","68","375497","0.0-33.0-15.0","48686129","wem/bandit_either","A3J5UWZM4ZZ1D6","either","5","","","","","","","1","0","0","0.6","","0.5","0.5","0.5","0.5","","","","","0.8","0.2","0.6","0.2","","","","","","","75","K","2","","true","0","full_practice"
"1199","","bandit","69","378245","0.0-33.0-16.0","48686129","wem/bandit_either","A3J5UWZM4ZZ1D6","either","5","","","","","","","1","0","0","0.6","","0.5","0.5","0.5","0.5","","","","","0.8","0.2","0.6","0.2","","","","","","","75","K","2","","true","0","full_practice"
"663","","bandit","70","380455","0.0-33.0-17.0","48686129","wem/bandit_either","A3J5UWZM4ZZ1D6","either","5","","","","","","","1","0","0","0.6","","0.5","0.5","0.5","0.5","","","","","0.8","0.2","0.6","0.2","","","","","","","75","K","2","","true","0","full_practice"
"157","","bandit","71","382172","0.0-33.0-18.0","48686129","wem/bandit_either","A3J5UWZM4ZZ1D6","either","5","","","","","","","0","1","0","","0.6","0.5","0.5","0.5","0.5","0.8","0.2","0.6","0.2","","","","","","","","","","","75","K","2","","true","0","full_practice"
"384","","bandit","72","384125","0.0-33.0-19.0","48686129","wem/bandit_either","A3J5UWZM4ZZ1D6","either","5","","","","","","","0","0","1","","0.2","0.5","0.5","0.5","0.5","0.8","0.2","0.6","0.2","","","","","","","","","","","74","J","1","","true","0","full_practice"
"3972","","text","73","388115","0.0-34.0","48686129","wem/bandit_either","A3J5UWZM4ZZ1D6","either","5","32","","","","","","","","","","","","","","","","","","","","","","","","","","","","","","","","","","",""
"55657","","text","74","444788","0.0-35.0","48686129","wem/bandit_either","A3J5UWZM4ZZ1D6","either","5","32","","","","","","","","","","","","","","","","","","","","","","","","","","","","","","","","","","",""
"7323","","text","75","452129","0.0-36.0","48686129","wem/bandit_either","A3J5UWZM4ZZ1D6","either","5","32","","","","","","","","","","","","","","","","","","","","","","","","","","","","","","","","","","",""
"2854","","text","76","454997","0.0-37.0","48686129","wem/bandit_either","A3J5UWZM4ZZ1D6","either","5","32","","","","","","","","","","","","","","","","","","","","","","","","","","","","","","","","","","",""
"4937","","text","77","459947","0.0-38.0","48686129","wem/bandit_either","A3J5UWZM4ZZ1D6","either","5","32","","","","","","","","","","","","","","","","","","","","","","","","","","","","","","","","","","",""
"5014","","text","78","464983","0.0-39.0","48686129","wem/bandit_either","A3J5UWZM4ZZ1D6","either","5","32","","","","","","","","","","","","","","","","","","","","","","","","","","","","","","","","","","",""
"3476","","bandit","79","470029","0.0-40.0-0.0","48686129","wem/bandit_either","A3J5UWZM4ZZ1D6","either","5","","","","","","","0","0","1","","0.3340388524","0.2","0.6","0.8","0.4","0.3340388524","0.1165465043","0.3897275569","0.4265570961","","","","","","","","","","","72","H","0","img/none_selected.jpg","","1","main_expt"
"301","","bandit","80","471865","0.0-41.0-0.0","48686129","wem/bandit_either","A3J5UWZM4ZZ1D6","either","5","","","","","","","0","0","1","0.08371899021","","0.2","0.6","0.8","0.4","","","","","0.3223834482","0.08371899021","0.3911966266","0.4177099958","","","","","","","74","J","1","","","2","main_expt"
"167","","bandit","81","473587","0.0-42.0-0.0","48686129","wem/bandit_either","A3J5UWZM4ZZ1D6","either","5","","","","","","","0","0","1","0.4074861021","","0.2","0.6","0.8","0.4","","","","","0.3585509001","0.04339790364","0.4074861021","0.4192185534","","","","","","","75","K","2","","","3","main_expt"
"282","","bandit","82","475444","0.0-43.0-0.0","48686129","wem/bandit_either","A3J5UWZM4ZZ1D6","either","5","","","","","","","0","0","1","0.4241610434","","0.2","0.6","0.8","0.4","","","","","0.3416436242","0.04073472785","0.3965638453","0.4241610434","","","","","","","76","L","3","","","4","main_expt"
"340","","bandit","83","477354","0.0-44.0-0.0","48686129","wem/bandit_either","A3J5UWZM4ZZ1D6","either","5","","","","","","","0","1","0","","0.4284837315","0.2","0.6","0.8","0.4","0.3444758892","0.04731773769","0.3688269119","0.4284837315","","","","","","","","","","","76","L","3","","","5","main_expt"
"619","","bandit","84","479531","0.0-45.0-0.0","48686129","wem/bandit_either","A3J5UWZM4ZZ1D6","either","5","","","","","","","0","0","1","","0.4328708062","0.2","0.6","0.8","0.4","0.3574177426","0.05617088868","0.3865867917","0.4328708062","","","","","","","","","","","76","L","3","","","6","main_expt"
"406","","bandit","85","481495","0.0-46.0-0.0","48686129","wem/bandit_either","A3J5UWZM4ZZ1D6","either","5","","","","","","","0","1","0","","0.4176545671","0.2","0.6","0.8","0.4","0.3634052143","0.05606577856","0.4294719924","0.4176545671","","","","","","","","","","","76","L","3","","","7","main_expt"
"1205","","bandit","86","484245","0.0-47.0-0.0","48686129","wem/bandit_either","A3J5UWZM4ZZ1D6","either","5","","","","","","","0","1","0","","0.4210378118","0.2","0.6","0.8","0.4","0.3675420607","0.09244853328","0.4210378118","0.4022395488","","","","","","","","","","","75","K","2","","","8","main_expt"
"368","","bandit","87","486169","0.0-48.0-0.0","48686129","wem/bandit_either","A3J5UWZM4ZZ1D6","either","5","","","","","","","1","0","0","0.4502112583","","0.2","0.6","0.8","0.4","","","","","0.3921196104","0.1271341085","0.4502112583","0.3929004949","","","","","","","75","K","2","","","9","main_expt"
"389","","bandit","88","488092","0.0-49.0-0.0","48686129","wem/bandit_either","A3J5UWZM4ZZ1D6","either","5","","","","","","","1","0","0","0.4452653155","","0.2","0.6","0.8","0.4","","","","","0.4026182126","0.1370717255","0.4452653155","0.3863711448","","","","","","","75","K","2","","","10","main_expt"
"749","","bandit","89","490384","0.0-50.0-0.0","48686129","wem/bandit_either","A3J5UWZM4ZZ1D6","either","5","","","","","","","1","0","0","0.4352349267","","0.2","0.6","0.8","0.4","","","","","0.3543069494","0.1275050207","0.4352349267","0.4205849279","","","","","","","75","K","2","","","11","main_expt"
"690","","bandit","90","492617","0.0-51.0-0.0","48686129","wem/bandit_either","A3J5UWZM4ZZ1D6","either","5","","","","","","","0","1","0","","0.3504097904","0.2","0.6","0.8","0.4","0.3504097904","0.122317004","0.4029030639","0.4525069231","","","","","","","","","","","72","H","0","img/none_selected.jpg","","12","main_expt"
"1285","","bandit","91","495476","0.0-52.0-0.0","48686129","wem/bandit_either","A3J5UWZM4ZZ1D6","either","5","","","","","","","0","0","1","0.1251711411","","0.2","0.6","0.8","0.4","","","","","0.2787441393","0.1251711411","0.4198147105","0.4485799753","","","","","","","74","J","1","","","13","main_expt"
"379","","bandit","92","497404","0.0-53.0-0.0","48686129","wem/bandit_either","A3J5UWZM4ZZ1D6","either","5","","","","","","","0","0","1","","0.1380641988","0.2","0.6","0.8","0.4","0.2723245106","0.1380641988","0.3761312174","0.4504049656","","","","","","","","","","","74","J","1","","","14","main_expt"
"1298","","bandit","93","500247","0.0-54.0-0.0","48686129","wem/bandit_either","A3J5UWZM4ZZ1D6","either","5","","","","","","","0","0","1","0.2010812313","","0.2","0.6","0.8","0.4","","","","","0.3687644442","0.2010812313","0.4017507227","0.4281165459","","","","","","","74","J","1","","","15","main_expt"
"423","","bandit","94","502215","0.0-55.0-0.0","48686129","wem/bandit_either","A3J5UWZM4ZZ1D6","either","5","","","","","","","0","0","1","0.1747275657","","0.2","0.6","0.8","0.4","","","","","0.3992289848","0.1747275657","0.3859888637","0.4035101098","","","","","","","74","J","1","","","16","main_expt"
"380","","bandit","95","504143","0.0-56.0-0.0","48686129","wem/bandit_either","A3J5UWZM4ZZ1D6","either","5","","","","","","","0","0","1","0.3706978481","","0.2","0.6","0.8","0.4","","","","","0.4067061876","0.1816524112","0.3706978481","0.4063691663","","","","","","","75","K","2","","","17","main_expt"
"828","","bandit","96","506510","0.0-57.0-0.0","48686129","wem/bandit_either","A3J5UWZM4ZZ1D6","either","5","","","","","","","1","0","0","0.3323991027","","0.2","0.6","0.8","0.4","","","","","0.3969002131","0.1700798448","0.3323991027","0.4201618032","","","","","","","75","K","2","","","18","main_expt"
"475","","bandit","97","508530","0.0-58.0-0.0","48686129","wem/bandit_either","A3J5UWZM4ZZ1D6","either","5","","","","","","","0","0","1","","0.3301718366","0.2","0.6","0.8","0.4","0.3930099592","0.1998500639","0.3301718366","0.3868389751","","","","","","","","","","","75","K","2","","","19","main_expt"
"361","","bandit","98","510474","0.0-59.0-0.0","48686129","wem/bandit_either","A3J5UWZM4ZZ1D6","either","5","","","","","","","0","1","0","","0.3714618997","0.2","0.6","0.8","0.4","0.3791602553","0.2418808817","0.3714618997","0.3868875991","","","","","","","","","","","75","K","2","","","20","main_expt"
"337","","bandit","99","512377","0.0-60.0-0.0","48686129","wem/bandit_either","A3J5UWZM4ZZ1D6","either","5","","","","","","","0","0","1","0.3621694591","","0.2","0.6","0.8","0.4","","","","","0.4127515201","0.2293341009","0.3621694591","0.4253770554","","","","","","","75","K","2","","","21","main_expt"
"423","","bandit","100","514359","0.0-61.0-0.0","48686129","wem/bandit_either","A3J5UWZM4ZZ1D6","either","5","","","","","","","0","0","1","0.3648829928","","0.2","0.6","0.8","0.4","","","","","0.4164833055","0.2074184163","0.3648829928","0.4285762007","","","","","","","75","K","2","","","22","main_expt"
"384","","bandit","101","516294","0.0-62.0-0.0","48686129","wem/bandit_either","A3J5UWZM4ZZ1D6","either","5","","","","","","","0","0","1","0.2856994719","","0.2","0.6","0.8","0.4","","","","","0.4143027846","0.1832507358","0.2856994719","0.4082522222","","","","","","","75","K","2","","","23","main_expt"
"302","","bandit","102","518155","0.0-63.0-0.0","48686129","wem/bandit_either","A3J5UWZM4ZZ1D6","either","5","","","","","","","1","0","0","0.3152516524","","0.2","0.6","0.8","0.4","","","","","0.3649270698","0.1469425149","0.3152516524","0.4027270218","","","","","","","75","K","2","","","24","main_expt"
"413","","bandit","103","520125","0.0-64.0-0.0","48686129","wem/bandit_either","A3J5UWZM4ZZ1D6","either","5","","","","","","","0","0","1","0.2778145345","","0.2","0.6","0.8","0.4","","","","","0.392676409","0.102794739","0.2778145345","0.4100212433","","","","","","","75","K","2","","","25","main_expt"
"429","","bandit","104","522113","0.0-65.0-0.0","48686129","wem/bandit_either","A3J5UWZM4ZZ1D6","either","5","","","","","","","0","0","1","0.3170506137","","0.2","0.6","0.8","0.4","","","","","0.4031565401","0.1173732637","0.3170506137","0.4190791169","","","","","","","75","K","2","","","26","main_expt"
"1263","","bandit","105","524949","0.0-66.0-0.0","48686129","wem/bandit_either","A3J5UWZM4ZZ1D6","either","5","","","","","","","0","0","1","0.4245959001","","0.2","0.6","0.8","0.4","","","","","0.4245959001","0.08835016803","0.3223143746","0.4527212376","","","","","","","72","H","0","img/none_selected.jpg","","27","main_expt"
"362","","bandit","106","526847","0.0-67.0-0.0","48686129","wem/bandit_either","A3J5UWZM4ZZ1D6","either","5","","","","","","","0","0","1","","0.4232885055","0.2","0.6","0.8","0.4","0.4232885055","0.1134440288","0.3234472479","0.4480998813","","","","","","","","","","","72","H","0","img/none_selected.jpg","","28","main_expt"
"372","","bandit","107","528791","0.0-68.0-0.0","48686129","wem/bandit_either","A3J5UWZM4ZZ1D6","either","5","","","","","","","0","0","1","","0.4495512981","0.2","0.6","0.8","0.4","0.4495512981","0.1982905849","0.2881425904","0.4628669208","","","","","","","","","","","72","H","0","img/none_selected.jpg","","29","main_expt"
"342","","bandit","108","530695","0.0-69.0-0.0","48686129","wem/bandit_either","A3J5UWZM4ZZ1D6","either","5","","","","","","","0","0","1","0.4485299892","","0.2","0.6","0.8","0.4","","","","","0.4485299892","0.2366655967","0.2326555855","0.4565655028","","","","","","","72","H","0","img/none_selected.jpg","","30","main_expt"
"500","","bandit","109","532749","0.0-70.0-0.0","48686129","wem/bandit_either","A3J5UWZM4ZZ1D6","either","5","","","","","","","0","0","1","","0.4599237238","0.2","0.6","0.8","0.4","0.4599237238","0.1622470467","0.2364604256","0.4686031056","","","","","","","","","","","72","H","0","img/none_selected.jpg","","31","main_expt"
"469","","bandit","110","537540","0.0-71.0-0.0","48686129","wem/bandit_either","A3J5UWZM4ZZ1D6","either","5","","","","","","","0","0","1","0.1771911602","","0.2","0.6","0.8","0.4","","","","","0.4508116693","0.1771911602","0.2451982598","0.4659582456","","","","","","","74","J","1","","","32","main_expt"
"568","","bandit","111","539689","0.0-72.0-0.0","48686129","wem/bandit_either","A3J5UWZM4ZZ1D6","either","5","","","","","","","0","1","0","","0.4810757035","0.2","0.6","0.8","0.4","0.45101727","0.1622836308","0.2360369815","0.4810757035","","","","","","","","","","","76","L","3","","","33","main_expt"
"492","","bandit","112","541729","0.0-73.0-0.0","48686129","wem/bandit_either","A3J5UWZM4ZZ1D6","either","5","","","","","","","0","0","1","","0.4842727378","0.2","0.6","0.8","0.4","0.4340174653","0.1655985557","0.2317763892","0.4842727378","","","","","","","","","","","76","L","3","","","34","main_expt"
"466","","bandit","113","543735","0.0-74.0-0.0","48686129","wem/bandit_either","A3J5UWZM4ZZ1D6","either","5","","","","","","","0","0","1","0.4745470136","","0.2","0.6","0.8","0.4","","","","","0.4040147441","0.1492797185","0.2527891731","0.4745470136","","","","","","","76","L","3","","","35","main_expt"
"720","","bandit","114","546008","0.0-75.0-0.0","48686129","wem/bandit_either","A3J5UWZM4ZZ1D6","either","5","","","","","","","0","1","0","","0.4440965139","0.2","0.6","0.8","0.4","0.4268829696","0.1504543003","0.2641283143","0.4440965139","","","","","","","","","","","76","L","3","","","36","main_expt"
"874","","bandit","115","548444","0.0-76.0-0.0","48686129","wem/bandit_either","A3J5UWZM4ZZ1D6","either","5","","","","","","","1","0","0","0.2309310423","","0.2","0.6","0.8","0.4","","","","","0.4562327564","0.1064249526","0.2309310423","0.4544425755","","","","","","","75","K","2","","","37","main_expt"
"712","","bandit","116","550700","0.0-77.0-0.0","48686129","wem/bandit_either","A3J5UWZM4ZZ1D6","either","5","","","","","","","0","0","1","0.2093170459","","0.2","0.6","0.8","0.4","","","","","0.4481627861","0.1346530267","0.2093170459","0.4700138218","","","","","","","75","K","2","","","38","main_expt"
"642","","bandit","117","552926","0.0-78.0-0.0","48686129","wem/bandit_either","A3J5UWZM4ZZ1D6","either","5","","","","","","","1","0","0","0.1398625959","","0.2","0.6","0.8","0.4","","","","","0.4475890948","0.1303494481","0.1398625959","0.466948448","","","","","","","75","K","2","","","39","main_expt"
"450","","bandit","118","554918","0.0-79.0-0.0","48686129","wem/bandit_either","A3J5UWZM4ZZ1D6","either","5","","","","","","","0","0","1","0.09690087606","","0.2","0.6","0.8","0.4","","","","","0.4501575696","0.1492074344","0.09690087606","0.4679256248","","","","","","","75","K","2","","","40","main_expt"
"400","","bandit","119","556869","0.0-80.0-0.0","48686129","wem/bandit_either","A3J5UWZM4ZZ1D6","either","5","","","","","","","0","0","1","","0.1129569356","0.2","0.6","0.8","0.4","0.4121884666","0.1370672299","0.1129569356","0.445537573","","","","","","","","","","","75","K","2","","","41","main_expt"
"62","","bandit","120","558499","0.0-81.0-0.0","48686129","wem/bandit_either","A3J5UWZM4ZZ1D6","either","5","","","","","","","0","0","1","0.1227033228","","0.2","0.6","0.8","0.4","","","","","0.4379939247","0.08144147181","0.1227033228","0.4521531226","","","","","","","75","K","2","","","42","main_expt"
"30","","bandit","121","560097","0.0-82.0-0.0","48686129","wem/bandit_either","A3J5UWZM4ZZ1D6","either","5","","","","","","","0","0","1","0.08393287497","","0.2","0.6","0.8","0.4","","","","","0.4271747655","0.06793865388","0.08393287497","0.4695072217","","","","","","","75","K","2","","","43","main_expt"
"998","","bandit","122","562668","0.0-83.0-0.0","48686129","wem/bandit_either","A3J5UWZM4ZZ1D6","either","5","","","","","","","0","0","1","0.06260074275","","0.2","0.6","0.8","0.4","","","","","0.4480494518","0.05295344446","0.06260074275","0.4807409838","","","","","","","75","K","2","","","44","main_expt"
"392","","bandit","123","564605","0.0-84.0-0.0","48686129","wem/bandit_either","A3J5UWZM4ZZ1D6","either","5","","","","","","","0","0","1","0.08062123592","","0.2","0.6","0.8","0.4","","","","","0.4269729589","0.02744239742","0.08062123592","0.4507048108","","","","","","","75","K","2","","","45","main_expt"
"329","","bandit","124","566491","0.0-85.0-0.0","48686129","wem/bandit_either","A3J5UWZM4ZZ1D6","either","5","","","","","","","0","0","1","0.02347437243","","0.2","0.6","0.8","0.4","","","","","0.4475746277","0.02347437243","0.1110847749","0.4382321206","","","","","","","74","J","1","","","46","main_expt"
"415","","bandit","125","568478","0.0-86.0-0.0","48686129","wem/bandit_either","A3J5UWZM4ZZ1D6","either","5","","","","","","","0","0","1","0.02418160198","","0.2","0.6","0.8","0.4","","","","","0.4295618238","0.02418160198","0.05346849493","0.4393937913","","","","","","","74","J","1","","","47","main_expt"
"506","","bandit","126","570529","0.0-87.0-0.0","48686129","wem/bandit_either","A3J5UWZM4ZZ1D6","either","5","","","","","","","0","0","1","0.04499733497","","0.2","0.6","0.8","0.4","","","","","0.4431907244","0.01182676654","0.04499733497","0.440318131","","","","","","","75","K","2","","","48","main_expt"
"285","","bandit","127","572384","0.0-88.0-0.0","48686129","wem/bandit_either","A3J5UWZM4ZZ1D6","either","5","","","","","","","0","0","1","0.0186287842","","0.2","0.6","0.8","0.4","","","","","0.4187732916","0.0186287842","0.07378534534","0.4362102412","","","","","","","74","J","1","","","49","main_expt"
"352","","bandit","128","574292","0.0-89.0-0.0","48686129","wem/bandit_either","A3J5UWZM4ZZ1D6","either","5","","","","","","","0","0","1","0.06168845619","","0.2","0.6","0.8","0.4","","","","","0.356579213","0.02550629551","0.06168845619","0.44488671","","","","","","","75","K","2","","","50","main_expt"
"315","","bandit","129","576169","0.0-90.0-0.0","48686129","wem/bandit_either","A3J5UWZM4ZZ1D6","either","5","","","","","","","0","0","1","","0.4633405548","0.2","0.6","0.8","0.4","0.2629404955","0.04366809707","0.1062028567","0.4633405548","","","","","","","","","","","76","L","3","","","51","main_expt"
"262","","bandit","130","577983","0.0-91.0-0.0","48686129","wem/bandit_either","A3J5UWZM4ZZ1D6","either","5","","","","","","","0","0","1","","0.4528043762","0.2","0.6","0.8","0.4","0.2919747068","0.04357168116","0.1379608546","0.4528043762","","","","","","","","","","","76","L","3","","","52","main_expt"
"322","","bandit","131","579837","0.0-92.0-0.0","48686129","wem/bandit_either","A3J5UWZM4ZZ1D6","either","5","","","","","","","0","0","1","0.1356826849","","0.2","0.6","0.8","0.4","","","","","0.3809901122","0.03899227154","0.1356826849","0.4390431751","","","","","","","75","K","2","","","53","main_expt"
"421","","bandit","132","581828","0.0-93.0-0.0","48686129","wem/bandit_either","A3J5UWZM4ZZ1D6","either","5","","","","","","","0","1","0","","0.4549270822","0.2","0.6","0.8","0.4","0.3452518694","0.04009146386","0.1038772241","0.4549270822","","","","","","","","","","","76","L","3","","","54","main_expt"
"302","","bandit","133","583694","0.0-94.0-0.0","48686129","wem/bandit_either","A3J5UWZM4ZZ1D6","either","5","","","","","","","0","1","0","","0.4710341864","0.2","0.6","0.8","0.4","0.3263112327","0.0155768565","0.1689791829","0.4710341864","","","","","","","","","","","76","L","3","","","55","main_expt"
"408","","bandit","134","585666","0.0-95.0-0.0","48686129","wem/bandit_either","A3J5UWZM4ZZ1D6","either","5","","","","","","","0","0","1","","0.4745834276","0.2","0.6","0.8","0.4","0.3308963945","0.02112461672","0.1108888145","0.4745834276","","","","","","","","","","","76","L","3","","","56","main_expt"
"466","","bandit","135","587678","0.0-96.0-0.0","48686129","wem/bandit_either","A3J5UWZM4ZZ1D6","either","5","","","","","","","1","0","0","0.489318572","","0.2","0.6","0.8","0.4","","","","","0.3150326571","0.0126553198","0.1206542402","0.489318572","","","","","","","76","L","3","","","57","main_expt"
"371","","bandit","136","589683","0.0-97.0-0.0","48686129","wem/bandit_either","A3J5UWZM4ZZ1D6","either","5","","","","","","","0","1","0","","0.480037986","0.2","0.6","0.8","0.4","0.3049116772","0.01131359515","0.09707343937","0.480037986","","","","","","","","","","","76","L","3","","","58","main_expt"
"415","","bandit","137","591664","0.0-98.0-0.0","48686129","wem/bandit_either","A3J5UWZM4ZZ1D6","either","5","","","","","","","0","1","0","","0.4593461039","0.2","0.6","0.8","0.4","0.3050987947","0.01030075821","0.1044384952","0.4593461039","","","","","","","","","","","76","L","3","","","59","main_expt"
"384","","bandit","138","593609","0.0-99.0-0.0","48686129","wem/bandit_either","A3J5UWZM4ZZ1D6","either","5","","","","","","","1","0","0","0.446051488","","0.2","0.6","0.8","0.4","","","","","0.3274009355","0.005868957973","0.08890369623","0.446051488","","","","","","","76","L","3","","","60","main_expt"
"375","","bandit","139","595529","0.0-100.0-0.0","48686129","wem/bandit_either","A3J5UWZM4ZZ1D6","either","5","","","","","","","0","0","1","0.4391285327","","0.2","0.6","0.8","0.4","","","","","0.3428943983","0.004361943215","0.08921221942","0.4391285327","","","","","","","76","L","3","","","61","main_expt"
"210","","bandit","140","597294","0.0-101.0-0.0","48686129","wem/bandit_either","A3J5UWZM4ZZ1D6","either","5","","","","","","","0","1","0","","0.4063883723","0.2","0.6","0.8","0.4","0.3549763931","0.005208412743","0.09812025034","0.4063883723","","","","","","","","","","","76","L","3","","","62","main_expt"
"432","","bandit","141","599307","0.0-102.0-0.0","48686129","wem/bandit_either","A3J5UWZM4ZZ1D6","either","5","","","","","","","0","0","1","0.4330387396","","0.2","0.6","0.8","0.4","","","","","0.3496678451","0.006461011255","0.09006279409","0.4330387396","","","","","","","76","L","3","","","63","main_expt"
"651","","bandit","142","601521","0.0-103.0-0.0","48686129","wem/bandit_either","A3J5UWZM4ZZ1D6","either","5","","","","","","","0","0","1","0.1118976224","","0.2","0.6","0.8","0.4","","","","","0.3188537263","0.01267926231","0.1118976224","0.4207902426","","","","","","","75","K","2","","","64","main_expt"
"360","","bandit","143","603459","0.0-104.0-0.0","48686129","wem/bandit_either","A3J5UWZM4ZZ1D6","either","5","","","","","","","0","0","1","0.1053817613","","0.2","0.6","0.8","0.4","","","","","0.3191795336","0.009732787917","0.1053817613","0.3719582347","","","","","","","75","K","2","","","65","main_expt"
"433","","bandit","144","605444","0.0-105.0-0.0","48686129","wem/bandit_either","A3J5UWZM4ZZ1D6","either","5","","","","","","","0","0","1","0.1307356695","","0.2","0.6","0.8","0.4","","","","","0.268616347","0.01092542651","0.1307356695","0.3748569955","","","","","","","75","K","2","","","66","main_expt"
"366","","bandit","145","607392","0.0-106.0-0.0","48686129","wem/bandit_either","A3J5UWZM4ZZ1D6","either","5","","","","","","","0","0","1","0.1418436428","","0.2","0.6","0.8","0.4","","","","","0.259194563","0.02125534741","0.1418436428","0.335252031","","","","","","","75","K","2","","","67","main_expt"
"350","","bandit","146","609324","0.0-107.0-0.0","48686129","wem/bandit_either","A3J5UWZM4ZZ1D6","either","5","","","","","","","0","0","1","0.1459089566","","0.2","0.6","0.8","0.4","","","","","0.2281204868","0.02360283027","0.1459089566","0.3199157278","","","","","","","75","K","2","","","68","main_expt"
"203","","bandit","147","611152","0.0-108.0-0.0","48686129","wem/bandit_either","A3J5UWZM4ZZ1D6","either","5","","","","","","","0","0","1","0.02539305756","","0.2","0.6","0.8","0.4","","","","","0.2195844169","0.02539305756","0.1809721424","0.3068525281","","","","","","","74","J","1","","","69","main_expt"
"358","","bandit","148","613062","0.0-109.0-0.0","48686129","wem/bandit_either","A3J5UWZM4ZZ1D6","either","5","","","","","","","0","0","1","0.05014388586","","0.2","0.6","0.8","0.4","","","","","0.1883338509","0.05014388586","0.1784068974","0.3181076016","","","","","","","74","J","1","","","70","main_expt"
"319","","bandit","149","614935","0.0-110.0-0.0","48686129","wem/bandit_either","A3J5UWZM4ZZ1D6","either","5","","","","","","","0","0","1","","0.04209054697","0.2","0.6","0.8","0.4","0.1639708178","0.04209054697","0.1973023396","0.2926426422","","","","","","","","","","","74","J","1","","","71","main_expt"
"132","","bandit","150","616610","0.0-111.0-0.0","48686129","wem/bandit_either","A3J5UWZM4ZZ1D6","either","5","","","","","","","0","0","1","0.1312842785","","0.2","0.6","0.8","0.4","","","","","0.1312842785","0.05611199342","0.2436342847","0.2380263643","","","","","","","72","H","0","img/none_selected.jpg","","72","main_expt"
"132","","bandit","151","618304","0.0-112.0-0.0","48686129","wem/bandit_either","A3J5UWZM4ZZ1D6","either","5","","","","","","","0","0","1","","0.1805041857","0.2","0.6","0.8","0.4","0.1805041857","0.05293238473","0.1992173182","0.2407197948","","","","","","","","","","","72","H","0","img/none_selected.jpg","","73","main_expt"
"237","","bandit","152","620087","0.0-113.0-0.0","48686129","wem/bandit_either","A3J5UWZM4ZZ1D6","either","5","","","","","","","0","0","1","","0.1739557812","0.2","0.6","0.8","0.4","0.1739557812","0.0318456884","0.2347098304","0.2317468449","","","","","","","","","","","72","H","0","img/none_selected.jpg","","74","main_expt"
"1448","","bandit","153","623143","0.0-114.0-0.0","48686129","wem/bandit_either","A3J5UWZM4ZZ1D6","either","5","","","","","","","0","0","1","","0.2434916027","0.2","0.6","0.8","0.4","0.2434916027","0.03873230677","0.2641442137","0.2545997551","","","","","","","","","","","72","H","0","img/none_selected.jpg","","75","main_expt"
"723","","bandit","154","625436","0.0-115.0-0.0","48686129","wem/bandit_either","A3J5UWZM4ZZ1D6","either","5","","","","","","","0","0","1","","0.2438468568","0.2","0.6","0.8","0.4","0.2438468568","0.03304947682","0.3192644053","0.2890845388","","","","","","","","","","","72","H","0","img/none_selected.jpg","","76","main_expt"
"400","","bandit","155","627398","0.0-116.0-0.0","48686129","wem/bandit_either","A3J5UWZM4ZZ1D6","either","5","","","","","","","0","0","1","0.2425324642","","0.2","0.6","0.8","0.4","","","","","0.2425324642","0.02607887458","0.3351132613","0.2386362654","","","","","","","72","H","0","img/none_selected.jpg","","77","main_expt"
"225","","bandit","156","629205","0.0-117.0-0.0","48686129","wem/bandit_either","A3J5UWZM4ZZ1D6","either","5","","","","","","","0","0","1","","0.205588479","0.2","0.6","0.8","0.4","0.205588479","0.02492981692","0.3086784207","0.2673679704","","","","","","","","","","","72","H","0","img/none_selected.jpg","","78","main_expt"
"1481","","bandit","157","632236","0.0-118.0-0.0","48686129","wem/bandit_either","A3J5UWZM4ZZ1D6","either","5","","","","","","","0","1","0","","0.2813811921","0.2","0.6","0.8","0.4","0.213062191","0.01824110002","0.3076482073","0.2813811921","","","","","","","","","","","76","L","3","","","79","main_expt"
"350","","bandit","158","634133","0.0-119.0-0.0","48686129","wem/bandit_either","A3J5UWZM4ZZ1D6","either","5","","","","","","","1","0","0","0.2419447949","","0.2","0.6","0.8","0.4","","","","","0.1852926048","0.0202176162","0.3605025214","0.2419447949","","","","","","","76","L","3","","","80","main_expt"
"633","","bandit","159","636315","0.0-120.0-0.0","48686129","wem/bandit_either","A3J5UWZM4ZZ1D6","either","5","","","","","","","0","1","0","","0.323481111","0.2","0.6","0.8","0.4","0.2332942271","0.0252752587","0.3286166321","0.323481111","","","","","","","","","","","76","L","3","","","81","main_expt"
"264","","bandit","160","638122","0.0-121.0-0.0","48686129","wem/bandit_either","A3J5UWZM4ZZ1D6","either","5","","","","","","","0","0","1","","0.3097244961","0.2","0.6","0.8","0.4","0.2087797338","0.05668457717","0.3459677762","0.3097244961","","","","","","","","","","","76","L","3","","","82","main_expt"
"420","","bandit","161","640149","0.0-122.0-0.0","48686129","wem/bandit_either","A3J5UWZM4ZZ1D6","either","5","","","","","","","0","1","0","","0.2787498647","0.2","0.6","0.8","0.4","0.2049979043","0.07760530004","0.3092751195","0.2787498647","","","","","","","","","","","76","L","3","","","83","main_expt"
"434","","bandit","162","642124","0.0-123.0-0.0","48686129","wem/bandit_either","A3J5UWZM4ZZ1D6","either","5","","","","","","","0","0","1","","0.2589524449","0.2","0.6","0.8","0.4","0.2151780091","0.03696005566","0.3044630387","0.2589524449","","","","","","","","","","","76","L","3","","","84","main_expt"
"364","","bandit","163","644061","0.0-124.0-0.0","48686129","wem/bandit_either","A3J5UWZM4ZZ1D6","either","5","","","","","","","0","0","1","","0.2769318636","0.2","0.6","0.8","0.4","0.1497615914","0.04177257934","0.2812480587","0.2769318636","","","","","","","","","","","76","L","3","","","85","main_expt"
"1127","","bandit","164","646722","0.0-125.0-0.0","48686129","wem/bandit_either","A3J5UWZM4ZZ1D6","either","5","","","","","","","0","0","1","0.2506532223","","0.2","0.6","0.8","0.4","","","","","0.1223687677","0.0385770192","0.2506532223","0.2849222391","","","","","","","75","K","2","","","86","main_expt"
"335","","bandit","165","648616","0.0-126.0-0.0","48686129","wem/bandit_either","A3J5UWZM4ZZ1D6","either","5","","","","","","","0","0","1","0.2269900387","","0.2","0.6","0.8","0.4","","","","","0.1472857413","0.03720252147","0.2269900387","0.3131087309","","","","","","","75","K","2","","","87","main_expt"
"361","","bandit","166","650535","0.0-127.0-0.0","48686129","wem/bandit_either","A3J5UWZM4ZZ1D6","either","5","","","","","","","0","0","1","0.1504729919","","0.2","0.6","0.8","0.4","","","","","0.1252586248","0.06746059371","0.1504729919","0.3038587512","","","","","","","75","K","2","","","88","main_expt"
"328","","bandit","167","652457","0.0-128.0-0.0","48686129","wem/bandit_either","A3J5UWZM4ZZ1D6","either","5","","","","","","","0","0","1","0.1382070302","","0.2","0.6","0.8","0.4","","","","","0.1194927994","0.04069757945","0.1382070302","0.3308022157","","","","","","","75","K","2","","","89","main_expt"
"265","","bandit","168","654280","0.0-129.0-0.0","48686129","wem/bandit_either","A3J5UWZM4ZZ1D6","either","5","","","","","","","0","0","1","","0.07325379503","0.2","0.6","0.8","0.4","0.1589750007","0.07325379503","0.1364765349","0.3574922351","","","","","","","","","","","74","J","1","","","90","main_expt"
"357","","bandit","169","656201","0.0-130.0-0.0","48686129","wem/bandit_either","A3J5UWZM4ZZ1D6","either","5","","","","","","","0","0","1","0.06877471811","","0.2","0.6","0.8","0.4","","","","","0.1859960426","0.06877471811","0.09318196272","0.3729517688","","","","","","","74","J","1","","","91","main_expt"
"336","","bandit","170","658132","0.0-131.0-0.0","48686129","wem/bandit_either","A3J5UWZM4ZZ1D6","either","5","","","","","","","1","0","0","0.06946097624","","0.2","0.6","0.8","0.4","","","","","0.192419488","0.04115987362","0.06946097624","0.398352994","","","","","","","75","K","2","","","92","main_expt"
"478","","bandit","171","660173","0.0-132.0-0.0","48686129","wem/bandit_either","A3J5UWZM4ZZ1D6","either","5","","","","","","","0","0","1","0.08102832817","","0.2","0.6","0.8","0.4","","","","","0.1716033463","0.07078892783","0.08102832817","0.4135860398","","","","","","","75","K","2","","","93","main_expt"
"322","","bandit","172","662070","0.0-133.0-0.0","48686129","wem/bandit_either","A3J5UWZM4ZZ1D6","either","5","","","","","","","0","0","1","0.1271360848","","0.2","0.6","0.8","0.4","","","","","0.1935897604","0.05572868433","0.1271360848","0.3786880174","","","","","","","75","K","2","","","94","main_expt"
"331","","bandit","173","663947","0.0-134.0-0.0","48686129","wem/bandit_either","A3J5UWZM4ZZ1D6","either","5","","","","","","","0","0","1","0.1097592989","","0.2","0.6","0.8","0.4","","","","","0.2193228015","0.05056929995","0.1097592989","0.3823424718","","","","","","","75","K","2","","","95","main_expt"
"250","","bandit","174","665767","0.0-135.0-0.0","48686129","wem/bandit_either","A3J5UWZM4ZZ1D6","either","5","","","","","","","0","0","1","0.1085490834","","0.2","0.6","0.8","0.4","","","","","0.3262643469","0.04159874267","0.1085490834","0.3642725552","","","","","","","75","K","2","","","96","main_expt"
"319","","bandit","175","667644","0.0-136.0-0.0","48686129","wem/bandit_either","A3J5UWZM4ZZ1D6","either","5","","","","","","","1","0","0","0.1049812554","","0.2","0.6","0.8","0.4","","","","","0.3207405496","0.03654451862","0.1049812554","0.3197717944","","","","","","","75","K","2","","","97","main_expt"
"317","","bandit","176","669534","0.0-137.0-0.0","48686129","wem/bandit_either","A3J5UWZM4ZZ1D6","either","5","","","","","","","0","0","1","0.08177978443","","0.2","0.6","0.8","0.4","","","","","0.3712856991","0.04190300095","0.08177978443","0.2514424369","","","","","","","75","K","2","","","98","main_expt"
"173","","bandit","177","671270","0.0-138.0-0.0","48686129","wem/bandit_either","A3J5UWZM4ZZ1D6","either","5","","","","","","","0","0","1","0.07574087804","","0.2","0.6","0.8","0.4","","","","","0.3740145378","0.08742990617","0.07574087804","0.2926772137","","","","","","","75","K","2","","","99","main_expt"
"916","","bandit","178","673732","0.0-139.0-0.0","48686129","wem/bandit_either","A3J5UWZM4ZZ1D6","either","5","","","","","","","0","0","1","0.07829319678","","0.2","0.6","0.8","0.4","","","","","0.3776295542","0.08966523481","0.07829319678","0.234485335","","","","","","","75","K","2","","","100","main_expt"
"395","","bandit","179","678053","0.0-140.0-0.0","48686129","wem/bandit_either","A3J5UWZM4ZZ1D6","either","5","","","","","","","0","0","1","","0.07919243683","0.2","0.6","0.8","0.4","0.3592666398","0.07849065771","0.07919243683","0.250352175","","","","","","","","","","","75","K","2","","","101","main_expt"
"544","","bandit","180","680791","0.0-141.0-0.0","48686129","wem/bandit_either","A3J5UWZM4ZZ1D6","either","5","","","","","","","0","0","1","0.1052753188","","0.2","0.6","0.8","0.4","","","","","0.3412191773","0.1054267613","0.1052753188","0.2139972863","","","","","","","75","K","2","","","102","main_expt"
"588","","bandit","181","682911","0.0-142.0-0.0","48686129","wem/bandit_either","A3J5UWZM4ZZ1D6","either","5","","","","","","","0","0","1","0.1248526142","","0.2","0.6","0.8","0.4","","","","","0.3133100433","0.1120981937","0.1248526142","0.20092706","","","","","","","75","K","2","","","103","main_expt"
"462","","bandit","182","684924","0.0-143.0-0.0","48686129","wem/bandit_either","A3J5UWZM4ZZ1D6","either","5","","","","","","","0","0","1","","0.1034740879","0.2","0.6","0.8","0.4","0.3219148419","0.1034740879","0.142969925","0.2305366804","","","","","","","","","","","74","J","1","","","104","main_expt"
"324","","bandit","183","686795","0.0-144.0-0.0","48686129","wem/bandit_either","A3J5UWZM4ZZ1D6","either","5","","","","","","","0","0","1","0.07597240327","","0.2","0.6","0.8","0.4","","","","","0.3300892518","0.07597240327","0.13947254","0.2102135581","","","","","","","74","J","1","","","105","main_expt"
"367","","bandit","184","688734","0.0-145.0-0.0","48686129","wem/bandit_either","A3J5UWZM4ZZ1D6","either","5","","","","","","","0","0","1","0.1124257427","","0.2","0.6","0.8","0.4","","","","","0.3401839058","0.1124257427","0.1329526997","0.2219457329","","","","","","","74","J","1","","","106","main_expt"
"364","","bandit","185","690646","0.0-146.0-0.0","48686129","wem/bandit_either","A3J5UWZM4ZZ1D6","either","5","","","","","","","0","0","1","","0.3784706915","0.2","0.6","0.8","0.4","0.3784706915","0.1133168519","0.1727290233","0.3048423019","","","","","","","","","","","72","H","0","img/none_selected.jpg","","107","main_expt"
"305","","bandit","186","692531","0.0-147.0-0.0","48686129","wem/bandit_either","A3J5UWZM4ZZ1D6","either","5","","","","","","","0","1","0","","0.3945753887","0.2","0.6","0.8","0.4","0.3945753887","0.1752395656","0.1864487031","0.258150515","","","","","","","","","","","72","H","0","img/none_selected.jpg","","108","main_expt"
"403","","bandit","187","694511","0.0-148.0-0.0","48686129","wem/bandit_either","A3J5UWZM4ZZ1D6","either","5","","","","","","","0","1","0","","0.356827327","0.2","0.6","0.8","0.4","0.356827327","0.1862973424","0.2463216238","0.1859129148","","","","","","","","","","","72","H","0","img/none_selected.jpg","","109","main_expt"
"345","","bandit","188","696439","0.0-149.0-0.0","48686129","wem/bandit_either","A3J5UWZM4ZZ1D6","either","5","","","","","","","0","0","1","","0.2344179837","0.2","0.6","0.8","0.4","0.2344179837","0.2015845776","0.2431522628","0.1371624404","","","","","","","","","","","72","H","0","img/none_selected.jpg","","110","main_expt"
"502","","bandit","189","698505","0.0-150.0-0.0","48686129","wem/bandit_either","A3J5UWZM4ZZ1D6","either","5","","","","","","","0","0","1","","0.2644823096","0.2","0.6","0.8","0.4","0.2644823096","0.2003651753","0.1757476643","0.1258232978","","","","","","","","","","","72","H","0","img/none_selected.jpg","","111","main_expt"
"339","","bandit","190","700432","0.0-151.0-0.0","48686129","wem/bandit_either","A3J5UWZM4ZZ1D6","either","5","","","","","","","1","0","0","0.2451518953","","0.2","0.6","0.8","0.4","","","","","0.28311182","0.21392293","0.2451518953","0.1529967373","","","","","","","75","K","2","","","112","main_expt"
"806","","bandit","191","702802","0.0-152.0-0.0","48686129","wem/bandit_either","A3J5UWZM4ZZ1D6","either","5","","","","","","","0","0","1","","0.1606798039","0.2","0.6","0.8","0.4","0.2413269532","0.1606798039","0.2407836715","0.148248117","","","","","","","","","","","74","J","1","","","113","main_expt"
"586","","bandit","192","704949","0.0-153.0-0.0","48686129","wem/bandit_either","A3J5UWZM4ZZ1D6","either","5","","","","","","","0","0","1","","0.3099317417","0.2","0.6","0.8","0.4","0.3100969134","0.2095980235","0.3099317417","0.1562208239","","","","","","","","","","","75","K","2","","","114","main_expt"
"541","","bandit","193","707037","0.0-154.0-0.0","48686129","wem/bandit_either","A3J5UWZM4ZZ1D6","either","5","","","","","","","0","1","0","","0.3180754701","0.2","0.6","0.8","0.4","0.329842252","0.2550279667","0.3180754701","0.2138032898","","","","","","","","","","","75","K","2","","","115","main_expt"
"1061","","bandit","194","709675","0.0-155.0-0.0","48686129","wem/bandit_either","A3J5UWZM4ZZ1D6","either","5","","","","","","","0","0","1","0.2919742107","","0.2","0.6","0.8","0.4","","","","","0.3223706096","0.2471764387","0.2919742107","0.2331260325","","","","","","","75","K","2","","","116","main_expt"
"623","","bandit","195","711849","0.0-156.0-0.0","48686129","wem/bandit_either","A3J5UWZM4ZZ1D6","either","5","","","","","","","1","0","0","0.2799774295","","0.2","0.6","0.8","0.4","","","","","0.3098408215","0.2730878341","0.2799774295","0.1826309729","","","","","","","75","K","2","","","117","main_expt"
"564","","bandit","196","713951","0.0-157.0-0.0","48686129","wem/bandit_either","A3J5UWZM4ZZ1D6","either","5","","","","","","","0","0","1","","0.2646714695","0.2","0.6","0.8","0.4","0.2974554567","0.2071462199","0.2646714695","0.1511269107","","","","","","","","","","","75","K","2","","","118","main_expt"
"611","","bandit","197","716117","0.0-158.0-0.0","48686129","wem/bandit_either","A3J5UWZM4ZZ1D6","either","5","","","","","","","0","0","1","0.2275232499","","0.2","0.6","0.8","0.4","","","","","0.3598468986","0.2275232499","0.3179839519","0.1559979654","","","","","","","74","J","1","","","119","main_expt"
"446","","bandit","198","718135","0.0-159.0-0.0","48686129","wem/bandit_either","A3J5UWZM4ZZ1D6","either","5","","","","","","","1","0","0","0.3302262658","","0.2","0.6","0.8","0.4","","","","","0.2984373086","0.2767559596","0.3302262658","0.1463004055","","","","","","","75","K","2","","","120","main_expt"
"464","","bandit","199","720155","0.0-160.0-0.0","48686129","wem/bandit_either","A3J5UWZM4ZZ1D6","either","5","","","","","","","1","0","0","0.2973090059","","0.2","0.6","0.8","0.4","","","","","0.2973090059","0.3448590315","0.3500549905","0.1418195479","","","","","","","72","H","0","img/none_selected.jpg","","121","main_expt"
"495","","bandit","200","722214","0.0-161.0-0.0","48686129","wem/bandit_either","A3J5UWZM4ZZ1D6","either","5","","","","","","","0","0","1","","0.2686616284","0.2","0.6","0.8","0.4","0.3382791822","0.3593301016","0.2686616284","0.1270782113","","","","","","","","","","","75","K","2","","","122","main_expt"
"414","","bandit","201","724211","0.0-162.0-0.0","48686129","wem/bandit_either","A3J5UWZM4ZZ1D6","either","5","","","","","","","0","0","1","","0.3680529171","0.2","0.6","0.8","0.4","0.3154347028","0.3680529171","0.2277230314","0.1207154071","","","","","","","","","","","74","J","1","","","123","main_expt"
"2038","","bandit","202","727825","0.0-163.0-0.0","48686129","wem/bandit_either","A3J5UWZM4ZZ1D6","either","5","","","","","","","0","0","1","","0.1229329119","0.2","0.6","0.8","0.4","0.2966737815","0.3476523483","0.3287090939","0.1229329119","","","","","","","","","","","76","L","3","","","124","main_expt"
"398","","bandit","203","729792","0.0-164.0-0.0","48686129","wem/bandit_either","A3J5UWZM4ZZ1D6","either","5","","","","","","","0","0","1","0.09241122996","","0.2","0.6","0.8","0.4","","","","","0.3094831126","0.3564603465","0.3687339586","0.09241122996","","","","","","","76","L","3","","","125","main_expt"
"529","","bandit","204","731865","0.0-165.0-0.0","48686129","wem/bandit_either","A3J5UWZM4ZZ1D6","either","5","","","","","","","0","0","1","0.08418962236","","0.2","0.6","0.8","0.4","","","","","0.2488993205","0.3550684458","0.3836195774","0.08418962236","","","","","","","76","L","3","","","126","main_expt"
"371","","bandit","205","733825","0.0-166.0-0.0","48686129","wem/bandit_either","A3J5UWZM4ZZ1D6","either","5","","","","","","","0","0","1","","0.154715772","0.2","0.6","0.8","0.4","0.1953487027","0.3235559827","0.3617365958","0.154715772","","","","","","","","","","","76","L","3","","","127","main_expt"
"356","","bandit","206","735752","0.0-167.0-0.0","48686129","wem/bandit_either","A3J5UWZM4ZZ1D6","either","5","","","","","","","0","0","1","","0.1556709078","0.2","0.6","0.8","0.4","0.2171889907","0.312087491","0.3235283493","0.1556709078","","","","","","","","","","","76","L","3","","","128","main_expt"
"378","","bandit","207","737691","0.0-168.0-0.0","48686129","wem/bandit_either","A3J5UWZM4ZZ1D6","either","5","","","","","","","0","1","0","","0.1214200615","0.2","0.6","0.8","0.4","0.2467699801","0.2843272188","0.3453830546","0.1214200615","","","","","","","","","","","76","L","3","","","129","main_expt"
"410","","bandit","208","739673","0.0-169.0-0.0","48686129","wem/bandit_either","A3J5UWZM4ZZ1D6","either","5","","","","","","","0","1","0","","0.2128416856","0.2","0.6","0.8","0.4","0.2814443482","0.2128416856","0.3242747857","0.1377283829","","","","","","","","","","","74","J","1","","","130","main_expt"
"448","","bandit","209","741696","0.0-170.0-0.0","48686129","wem/bandit_either","A3J5UWZM4ZZ1D6","either","5","","","","","","","0","0","1","","0.3417201858","0.2","0.6","0.8","0.4","0.2834176508","0.2403879813","0.3417201858","0.1397421628","","","","","","","","","","","75","K","2","","","131","main_expt"
"384","","bandit","210","743667","0.0-171.0-0.0","48686129","wem/bandit_either","A3J5UWZM4ZZ1D6","either","5","","","","","","","0","0","1","0.3498614837","","0.2","0.6","0.8","0.4","","","","","0.2429908031","0.2811421594","0.3498614837","0.1061875113","","","","","","","75","K","2","","","132","main_expt"
"227","","bandit","211","745437","0.0-172.0-0.0","48686129","wem/bandit_either","A3J5UWZM4ZZ1D6","either","5","","","","","","","0","0","1","","0.3053559495","0.2","0.6","0.8","0.4","0.3053559495","0.3002858371","0.3134828643","0.07774811701","","","","","","","","","","","72","H","0","img/none_selected.jpg","","133","main_expt"
"424","","bandit","212","747418","0.0-173.0-0.0","48686129","wem/bandit_either","A3J5UWZM4ZZ1D6","either","5","","","","","","","0","1","0","","0.2693478067","0.2","0.6","0.8","0.4","0.2693478067","0.277406375","0.3554593188","0.08211281178","","","","","","","","","","","72","H","0","img/none_selected.jpg","","134","main_expt"
"589","","bandit","213","749598","0.0-174.0-0.0","48686129","wem/bandit_either","A3J5UWZM4ZZ1D6","either","5","","","","","","","0","0","1","0.2897147582","","0.2","0.6","0.8","0.4","","","","","0.3369166079","0.2897147582","0.3150900126","0.1123817552","","","","","","","74","J","1","","","135","main_expt"
"304","","bandit","214","751476","0.0-175.0-0.0","48686129","wem/bandit_either","A3J5UWZM4ZZ1D6","either","5","","","","","","","0","0","1","","0.3199395785","0.2","0.6","0.8","0.4","0.268603144","0.3590576628","0.3199395785","0.1478339482","","","","","","","","","","","75","K","2","","","136","main_expt"
"349","","bandit","215","753408","0.0-176.0-0.0","48686129","wem/bandit_either","A3J5UWZM4ZZ1D6","either","5","","","","","","","0","0","1","","0.33362357","0.2","0.6","0.8","0.4","0.2373427956","0.3822427384","0.33362357","0.1374936615","","","","","","","","","","","75","K","2","","","137","main_expt"
"329","","bandit","216","755323","0.0-177.0-0.0","48686129","wem/bandit_either","A3J5UWZM4ZZ1D6","either","5","","","","","","","0","1","0","","0.3611324022","0.2","0.6","0.8","0.4","0.2206869265","0.3410071165","0.3611324022","0.159761955","","","","","","","","","","","75","K","2","","","138","main_expt"
"341","","bandit","217","757226","0.0-178.0-0.0","48686129","wem/bandit_either","A3J5UWZM4ZZ1D6","either","5","","","","","","","0","0","1","0.3504145086","","0.2","0.6","0.8","0.4","","","","","0.2177966349","0.3738014659","0.3504145086","0.1363721132","","","","","","","75","K","2","","","139","main_expt"
"625","","bandit","218","759414","0.0-179.0-0.0","48686129","wem/bandit_either","A3J5UWZM4ZZ1D6","either","5","","","","","","","0","0","1","0.309774603","","0.2","0.6","0.8","0.4","","","","","0.2387685432","0.422575493","0.309774603","0.1031445192","","","","","","","75","K","2","","","140","main_expt"
"655","","bandit","219","761621","0.0-180.0-0.0","48686129","wem/bandit_either","A3J5UWZM4ZZ1D6","either","5","","","","","","","0","0","1","0.3506531288","","0.2","0.6","0.8","0.4","","","","","0.2575087366","0.4439129864","0.3506531288","0.09805286369","","","","","","","75","K","2","","","141","main_expt"
"376","","bandit","220","763578","0.0-181.0-0.0","48686129","wem/bandit_either","A3J5UWZM4ZZ1D6","either","5","","","","","","","0","0","1","","0.2965027242","0.2","0.6","0.8","0.4","0.2392038972","0.4323802182","0.2965027242","0.1149002948","","","","","","","","","","","75","K","2","","","142","main_expt"
"1010","","bandit","221","766142","0.0-182.0-0.0","48686129","wem/bandit_either","A3J5UWZM4ZZ1D6","either","5","","","","","","","0","0","1","0.2087517366","","0.2","0.6","0.8","0.4","","","","","0.2216470548","0.4358412593","0.2087517366","0.1209542099","","","","","","","75","K","2","","","143","main_expt"
"521","","bandit","222","768216","0.0-183.0-0.0","48686129","wem/bandit_either","A3J5UWZM4ZZ1D6","either","5","","","","","","","1","0","0","0.4407373256","","0.2","0.6","0.8","0.4","","","","","0.2224896139","0.4407373256","0.2313605626","0.1202521083","","","","","","","74","J","1","","","144","main_expt"
"413","","bandit","223","770197","0.0-184.0-0.0","48686129","wem/bandit_either","A3J5UWZM4ZZ1D6","either","5","","","","","","","0","0","1","0.4661091035","","0.2","0.6","0.8","0.4","","","","","0.1925605464","0.4661091035","0.1785565547","0.1619743669","","","","","","","74","J","1","","","145","main_expt"
"555","","bandit","224","772306","0.0-185.0-0.0","48686129","wem/bandit_either","A3J5UWZM4ZZ1D6","either","5","","","","","","","0","0","1","0.1770660648","","0.2","0.6","0.8","0.4","","","","","0.2069800611","0.4637097668","0.1770660648","0.1664631043","","","","","","","75","K","2","","","146","main_expt"
"373","","bandit","225","774244","0.0-186.0-0.0","48686129","wem/bandit_either","A3J5UWZM4ZZ1D6","either","5","","","","","","","0","0","1","","0.4700491642","0.2","0.6","0.8","0.4","0.2489662189","0.4700491642","0.1063371611","0.1669241763","","","","","","","","","","","74","J","1","","","147","main_expt"
"370","","bandit","226","776175","0.0-187.0-0.0","48686129","wem/bandit_either","A3J5UWZM4ZZ1D6","either","5","","","","","","","1","0","0","0.4648109734","","0.2","0.6","0.8","0.4","","","","","0.1946464158","0.4648109734","0.1216370817","0.1581456949","","","","","","","74","J","1","","","148","main_expt"
"825","","bandit","227","778592","0.0-188.0-0.0","48686129","wem/bandit_either","A3J5UWZM4ZZ1D6","either","5","","","","","","","0","0","1","0.1826562491","","0.2","0.6","0.8","0.4","","","","","0.1826562491","0.4635511513","0.1024256959","0.1698392466","","","","","","","72","H","0","img/none_selected.jpg","","149","main_expt"
"508","","bandit","228","780664","0.0-189.0-0.0","48686129","wem/bandit_either","A3J5UWZM4ZZ1D6","either","5","","","","","","","0","1","0","","0.4445017148","0.2","0.6","0.8","0.4","0.1750473563","0.4445017148","0.1371094633","0.2140114634","","","","","","","","","","","74","J","1","","","150","main_expt"
"609","","bandit","229","782825","0.0-190.0-0.0","48686129","wem/bandit_either","A3J5UWZM4ZZ1D6","either","5","","","","","","","0","0","1","","0.4434799742","0.2","0.6","0.8","0.4","0.1109536645","0.4434799742","0.1702433702","0.2392960001","","","","","","","","","","","74","J","1","","","151","main_expt"
"307","","bandit","230","784685","0.0-191.0-0.0","48686129","wem/bandit_either","A3J5UWZM4ZZ1D6","either","5","","","","","","","0","1","0","","0.4451665291","0.2","0.6","0.8","0.4","0.1143086707","0.4451665291","0.1860489046","0.2095863317","","","","","","","","","","","74","J","1","","","152","main_expt"
"276","","bandit","231","786523","0.0-192.0-0.0","48686129","wem/bandit_either","A3J5UWZM4ZZ1D6","either","5","","","","","","","1","0","0","0.2117094388","","0.2","0.6","0.8","0.4","","","","","0.1236290712","0.4401532833","0.2117094388","0.2543258611","","","","","","","75","K","2","","","153","main_expt"
"466","","bandit","232","788559","0.0-193.0-0.0","48686129","wem/bandit_either","A3J5UWZM4ZZ1D6","either","5","","","","","","","0","0","1","","0.2072389033","0.2","0.6","0.8","0.4","0.1600695342","0.4516855879","0.2072389033","0.2602259906","","","","","","","","","","","75","K","2","","","154","main_expt"
"752","","bandit","233","790870","0.0-194.0-0.0","48686129","wem/bandit_either","A3J5UWZM4ZZ1D6","either","5","","","","","","","0","0","1","","0.1986333914","0.2","0.6","0.8","0.4","0.1770288166","0.4480264808","0.1986333914","0.2750581274","","","","","","","","","","","75","K","2","","","155","main_expt"
"729","","bandit","234","793180","0.0-195.0-0.0","48686129","wem/bandit_either","A3J5UWZM4ZZ1D6","either","5","","","","","","","0","0","1","0.2054640346","","0.2","0.6","0.8","0.4","","","","","0.1761817894","0.4260414265","0.2054640346","0.2438045727","","","","","","","75","K","2","","","156","main_expt"
"418","","bandit","235","795160","0.0-196.0-0.0","48686129","wem/bandit_either","A3J5UWZM4ZZ1D6","either","5","","","","","","","0","0","1","","0.1810715383","0.2","0.6","0.8","0.4","0.1998830888","0.4365201507","0.1810715383","0.2857025143","","","","","","","","","","","75","K","2","","","157","main_expt"
"485","","bandit","236","797223","0.0-197.0-0.0","48686129","wem/bandit_either","A3J5UWZM4ZZ1D6","either","5","","","","","","","0","0","1","","0.2118906364","0.2","0.6","0.8","0.4","0.2150354531","0.4076244479","0.2118906364","0.2887719476","","","","","","","","","","","75","K","2","","","158","main_expt"
"333","","bandit","237","799128","0.0-198.0-0.0","48686129","wem/bandit_either","A3J5UWZM4ZZ1D6","either","5","","","","","","","0","0","1","0.2293976715","","0.2","0.6","0.8","0.4","","","","","0.2221069796","0.403953851","0.2293976715","0.2859462397","","","","","","","75","K","2","","","159","main_expt"
"371","","bandit","238","801059","0.0-199.0-0.0","48686129","wem/bandit_either","A3J5UWZM4ZZ1D6","either","5","","","","","","","1","0","0","0.2186051381","","0.2","0.6","0.8","0.4","","","","","0.2627335039","0.4282135537","0.2186051381","0.207432816","","","","","","","75","K","2","","","160","main_expt"
"635","","bandit","239","803248","0.0-200.0-0.0","48686129","wem/bandit_either","A3J5UWZM4ZZ1D6","either","5","","","","","","","0","0","1","0.2175927206","","0.2","0.6","0.8","0.4","","","","","0.2922457848","0.4479073124","0.2175927206","0.1611694724","","","","","","","75","K","2","","","161","main_expt"
"85","","bandit","240","804892","0.0-201.0-0.0","48686129","wem/bandit_either","A3J5UWZM4ZZ1D6","either","5","","","","","","","0","0","1","","0.14378348","0.2","0.6","0.8","0.4","0.3040212123","0.4456201243","0.2370404117","0.14378348","","","","","","","","","","","76","L","3","","","162","main_expt"
"483","","bandit","241","806940","0.0-202.0-0.0","48686129","wem/bandit_either","A3J5UWZM4ZZ1D6","either","5","","","","","","","0","0","1","","0.1707099899","0.2","0.6","0.8","0.4","0.2933359027","0.4384930657","0.2778780432","0.1707099899","","","","","","","","","","","76","L","3","","","163","main_expt"
"394","","bandit","242","808884","0.0-203.0-0.0","48686129","wem/bandit_either","A3J5UWZM4ZZ1D6","either","5","","","","","","","0","0","1","0.1933693166","","0.2","0.6","0.8","0.4","","","","","0.2388203062","0.4231568034","0.2643388611","0.1933693166","","","","","","","76","L","3","","","164","main_expt"
"2703","","bandit","243","813396","0.0-204.0-0.0","48686129","wem/bandit_either","A3J5UWZM4ZZ1D6","either","5","","","","","","","0","0","1","","0.2406324952","0.2","0.6","0.8","0.4","0.2646204916","0.4412535734","0.1967204453","0.2406324952","","","","","","","","","","","76","L","3","","","165","main_expt"
"448","","bandit","244","815432","0.0-205.0-0.0","48686129","wem/bandit_either","A3J5UWZM4ZZ1D6","either","5","","","","","","","0","1","0","","0.2650462377","0.2","0.6","0.8","0.4","0.2591758032","0.438364003","0.1567937345","0.2650462377","","","","","","","","","","","76","L","3","","","166","main_expt"
"385","","bandit","245","817386","0.0-206.0-0.0","48686129","wem/bandit_either","A3J5UWZM4ZZ1D6","either","5","","","","","","","0","0","1","","0.4290991351","0.2","0.6","0.8","0.4","0.1955934818","0.4290991351","0.1201482918","0.245875583","","","","","","","","","","","74","J","1","","","167","main_expt"
"405","","bandit","246","819374","0.0-207.0-0.0","48686129","wem/bandit_either","A3J5UWZM4ZZ1D6","either","5","","","","","","","0","1","0","","0.4510860662","0.2","0.6","0.8","0.4","0.2090603634","0.4510860662","0.0936051119","0.257303599","","","","","","","","","","","74","J","1","","","168","main_expt"
"534","","bandit","247","821449","0.0-208.0-0.0","48686129","wem/bandit_either","A3J5UWZM4ZZ1D6","either","5","","","","","","","0","0","1","0.4491424364","","0.2","0.6","0.8","0.4","","","","","0.2678479696","0.4491424364","0.08775096918","0.2993732043","","","","","","","74","J","1","","","169","main_expt"
"498","","bandit","248","823527","0.0-209.0-0.0","48686129","wem/bandit_either","A3J5UWZM4ZZ1D6","either","5","","","","","","","0","0","1","","0.06743429675","0.2","0.6","0.8","0.4","0.2532125956","0.4332244901","0.06743429675","0.3388977639","","","","","","","","","","","75","K","2","","","170","main_expt"
"422","","bandit","249","825497","0.0-210.0-0.0","48686129","wem/bandit_either","A3J5UWZM4ZZ1D6","either","5","","","","","","","0","0","1","","0.2568627054","0.2","0.6","0.8","0.4","0.2568627054","0.4405036994","0.05979118822","0.2947926635","","","","","","","","","","","72","H","0","img/none_selected.jpg","","171","main_expt"
"817","","bandit","250","827893","0.0-211.0-0.0","48686129","wem/bandit_either","A3J5UWZM4ZZ1D6","either","5","","","","","","","0","0","1","","0.2451563353","0.2","0.6","0.8","0.4","0.2451563353","0.4358521759","0.03200499914","0.2892529657","","","","","","","","","","","72","H","0","img/none_selected.jpg","","172","main_expt"
"417","","bandit","251","829844","0.0-212.0-0.0","48686129","wem/bandit_either","A3J5UWZM4ZZ1D6","either","5","","","","","","","0","1","0","","0.3003395367","0.2","0.6","0.8","0.4","0.3003395367","0.4471617722","0.04613358223","0.2571917514","","","","","","","","","","","72","H","0","img/none_selected.jpg","","173","main_expt"
"2708","","bandit","252","834113","0.0-213.0-0.0","48686129","wem/bandit_either","A3J5UWZM4ZZ1D6","either","5","","","","","","","1","0","0","0.4560251174","","0.2","0.6","0.8","0.4","","","","","0.2545998681","0.4560251174","0.05969677181","0.244173221","","","","","","","74","J","1","","","174","main_expt"
"987","","bandit","253","836657","0.0-214.0-0.0","48686129","wem/bandit_either","A3J5UWZM4ZZ1D6","either","5","","","","","","","0","0","1","","0.05930066603","0.2","0.6","0.8","0.4","0.3383135611","0.4379349024","0.05930066603","0.2038098688","","","","","","","","","","","75","K","2","","","175","main_expt"
"643","","bandit","254","838884","0.0-215.0-0.0","48686129","wem/bandit_either","A3J5UWZM4ZZ1D6","either","5","","","","","","","0","1","0","","0.4328841116","0.2","0.6","0.8","0.4","0.3880627729","0.4328841116","0.08110879181","0.2053823003","","","","","","","","","","","74","J","1","","","176","main_expt"
"535","","bandit","255","840991","0.0-216.0-0.0","48686129","wem/bandit_either","A3J5UWZM4ZZ1D6","either","5","","","","","","","1","0","0","0.3965365967","","0.2","0.6","0.8","0.4","","","","","0.3920994557","0.3965365967","0.07611568943","0.2193083282","","","","","","","74","J","1","","","177","main_expt"
"648","","bandit","256","843215","0.0-217.0-0.0","48686129","wem/bandit_either","A3J5UWZM4ZZ1D6","either","5","","","","","","","0","0","1","0.3899234309","","0.2","0.6","0.8","0.4","","","","","0.3882277994","0.3899234309","0.1220467165","0.1904263594","","","","","","","74","J","1","","","178","main_expt"
"348","","bandit","257","845130","0.0-218.0-0.0","48686129","wem/bandit_either","A3J5UWZM4ZZ1D6","either","5","","","","","","","0","1","0","","0.4238443777","0.2","0.6","0.8","0.4","0.3939691408","0.4238443777","0.1698853315","0.2212788648","","","","","","","","","","","74","J","1","","","179","main_expt"
"688","","bandit","258","847397","0.0-219.0-0.0","48686129","wem/bandit_either","A3J5UWZM4ZZ1D6","either","5","","","","","","","0","1","0","","0.4487400994","0.2","0.6","0.8","0.4","0.4074656662","0.4487400994","0.1374762061","0.2640717145","","","","","","","","","","","74","J","1","","","180","main_expt"
"408","","bandit","259","849358","0.0-220.0-0.0","48686129","wem/bandit_either","A3J5UWZM4ZZ1D6","either","5","","","","","","","0","0","1","0.09961924189","","0.2","0.6","0.8","0.4","","","","","0.3724421945","0.4314573438","0.09961924189","0.2426483564","","","","","","","75","K","2","","","181","main_expt"
"326","","bandit","260","851255","0.0-221.0-0.0","48686129","wem/bandit_either","A3J5UWZM4ZZ1D6","either","5","","","","","","","0","0","1","0.1391043194","","0.2","0.6","0.8","0.4","","","","","0.2998177931","0.4458059303","0.1391043194","0.2001563476","","","","","","","75","K","2","","","182","main_expt"
"255","","bandit","261","853113","0.0-222.0-0.0","48686129","wem/bandit_either","A3J5UWZM4ZZ1D6","either","5","","","","","","","0","1","0","","0.4485460149","0.2","0.6","0.8","0.4","0.3629728763","0.4485460149","0.1336424596","0.2167094124","","","","","","","","","","","74","J","1","","","183","main_expt"
"530","","bandit","262","855211","0.0-223.0-0.0","48686129","wem/bandit_either","A3J5UWZM4ZZ1D6","either","5","","","","","","","0","0","1","","0.3763603645","0.2","0.6","0.8","0.4","0.3763603645","0.4078350507","0.115911235","0.2402813617","","","","","","","","","","","72","H","0","img/none_selected.jpg","","184","main_expt"
"435","","bandit","263","857236","0.0-224.0-0.0","48686129","wem/bandit_either","A3J5UWZM4ZZ1D6","either","5","","","","","","","0","0","1","0.3472982705","","0.2","0.6","0.8","0.4","","","","","0.3472982705","0.3805788675","0.1394203739","0.2745112141","","","","","","","72","H","0","img/none_selected.jpg","","185","main_expt"
"616","","bandit","264","859459","0.0-225.0-0.0","48686129","wem/bandit_either","A3J5UWZM4ZZ1D6","either","5","","","","","","","0","0","1","","0.3095995051","0.2","0.6","0.8","0.4","0.3095995051","0.4236809331","0.1557479742","0.2774566956","","","","","","","","","","","72","H","0","img/none_selected.jpg","","186","main_expt"
"403","","bandit","265","861423","0.0-226.0-0.0","48686129","wem/bandit_either","A3J5UWZM4ZZ1D6","either","5","","","","","","","0","0","1","0.2567332284","","0.2","0.6","0.8","0.4","","","","","0.2567332284","0.4058627081","0.1823611596","0.2876011691","","","","","","","72","H","0","img/none_selected.jpg","","187","main_expt"
"350","","bandit","266","863337","0.0-227.0-0.0","48686129","wem/bandit_either","A3J5UWZM4ZZ1D6","either","5","","","","","","","0","0","1","","0.2555256861","0.2","0.6","0.8","0.4","0.2555256861","0.3913346521","0.1854179297","0.2947112378","","","","","","","","","","","72","H","0","img/none_selected.jpg","","188","main_expt"
"409","","bandit","267","865318","0.0-228.0-0.0","48686129","wem/bandit_either","A3J5UWZM4ZZ1D6","either","5","","","","","","","0","0","1","","0.2009875262","0.2","0.6","0.8","0.4","0.2009875262","0.3760164219","0.1875645599","0.2581494","","","","","","","","","","","72","H","0","img/none_selected.jpg","","189","main_expt"
"131","","bandit","268","866988","0.0-229.0-0.0","48686129","wem/bandit_either","A3J5UWZM4ZZ1D6","either","5","","","","","","","0","0","1","","0.1756323468","0.2","0.6","0.8","0.4","0.2055488595","0.3327352817","0.2018323604","0.1756323468","","","","","","","","","","","76","L","3","","","190","main_expt"
"389","","bandit","269","868935","0.0-230.0-0.0","48686129","wem/bandit_either","A3J5UWZM4ZZ1D6","either","5","","","","","","","0","0","1","","0.2521570866","0.2","0.6","0.8","0.4","0.1506387864","0.3015177445","0.221094727","0.2521570866","","","","","","","","","","","76","L","3","","","191","main_expt"
"125","","bandit","270","870602","0.0-231.0-0.0","48686129","wem/bandit_either","A3J5UWZM4ZZ1D6","either","5","","","","","","","0","0","1","","0.2964739449","0.2","0.6","0.8","0.4","0.2027442266","0.2773298268","0.2320570195","0.2964739449","","","","","","","","","","","76","L","3","","","192","main_expt"
"1","","bandit","271","872143","0.0-232.0-0.0","48686129","wem/bandit_either","A3J5UWZM4ZZ1D6","either","5","","","","","","","1","0","0","0.2612966838","","0.2","0.6","0.8","0.4","","","","","0.1969137872","0.2836613797","0.2948950962","0.2612966838","","","","","","","76","L","3","","","193","main_expt"
"152939","","bandit","272","1026659","0.0-233.0-0.0","48686129","wem/bandit_either","A3J5UWZM4ZZ1D6","either","5","","","","","","","0","0","1","","0.2114994946","0.2","0.6","0.8","0.4","0.2114994946","0.2799350415","0.2602906927","0.3292914436","","","","","","","","","","","72","H","0","img/none_selected.jpg","","194","main_expt"
"6704","","bandit","273","1034905","0.0-234.0-0.0","48686129","wem/bandit_either","A3J5UWZM4ZZ1D6","either","5","","","","","","","0","0","1","0.1771499101","","0.2","0.6","0.8","0.4","","","","","0.2467939011","0.2068597772","0.1771499101","0.4070308407","","","","","","","75","K","2","","","195","main_expt"
"409","","bandit","274","1036863","0.0-235.0-0.0","48686129","wem/bandit_either","A3J5UWZM4ZZ1D6","either","5","","","","","","","0","0","1","0.1746274925","","0.2","0.6","0.8","0.4","","","","","0.2731811988","0.2679469531","0.1746274925","0.3494820729","","","","","","","75","K","2","","","196","main_expt"
"360","","bandit","275","1038766","0.0-236.0-0.0","48686129","wem/bandit_either","A3J5UWZM4ZZ1D6","either","5","","","","","","","0","0","1","0.193224684","","0.2","0.6","0.8","0.4","","","","","0.2512114903","0.2448078588","0.193224684","0.3571939809","","","","","","","75","K","2","","","197","main_expt"
"409","","bandit","276","1040731","0.0-237.0-0.0","48686129","wem/bandit_either","A3J5UWZM4ZZ1D6","either","5","","","","","","","0","0","1","0.1771509929","","0.2","0.6","0.8","0.4","","","","","0.190651112","0.2433987968","0.1771509929","0.382430028","","","","","","","75","K","2","","","198","main_expt"
"378","","bandit","277","1042652","0.0-238.0-0.0","48686129","wem/bandit_either","A3J5UWZM4ZZ1D6","either","5","","","","","","","0","0","1","","0.2466668772","0.2","0.6","0.8","0.4","0.1701189695","0.2653624242","0.2466668772","0.3353474301","","","","","","","","","","","75","K","2","","","199","main_expt"
"338","","bandit","278","1044529","0.0-239.0-0.0","48686129","wem/bandit_either","A3J5UWZM4ZZ1D6","either","5","","","","","","","0","0","1","0.2477816141","","0.2","0.6","0.8","0.4","","","","","0.1656975488","0.2551376492","0.2477816141","0.3321976498","","","","","","","75","K","2","","","200","main_expt"
"363","","bandit","279","1046431","0.0-240.0-0.0","48686129","wem/bandit_either","A3J5UWZM4ZZ1D6","either","5","","","","","","","0","0","1","0.2744817861","","0.2","0.6","0.8","0.4","","","","","0.1647298582","0.2660639347","0.2744817861","0.3218117355","","","","","","","75","K","2","","","201","main_expt"
"394","","bandit","280","1048379","0.0-241.0-0.0","48686129","wem/bandit_either","A3J5UWZM4ZZ1D6","either","5","","","","","","","1","0","0","0.3043062986","","0.2","0.6","0.8","0.4","","","","","0.1242041815","0.2220900594","0.3043062986","0.2949214693","","","","","","","75","K","2","","","202","main_expt"
"720","","bandit","281","1050672","0.0-242.0-0.0","48686129","wem/bandit_either","A3J5UWZM4ZZ1D6","either","5","","","","","","","0","0","1","0.272185569","","0.2","0.6","0.8","0.4","","","","","0.1684487429","0.1543353204","0.272185569","0.300077299","","","","","","","75","K","2","","","203","main_expt"
"991","","bandit","282","1053240","0.0-243.0-0.0","48686129","wem/bandit_either","A3J5UWZM4ZZ1D6","either","5","","","","","","","0","0","1","0.2610767704","","0.2","0.6","0.8","0.4","","","","","0.1666409686","0.1605482003","0.2610767704","0.2866085977","","","","","","","75","K","2","","","204","main_expt"
"1207","","bandit","283","1056014","0.0-244.0-0.0","48686129","wem/bandit_either","A3J5UWZM4ZZ1D6","either","5","","","","","","","0","0","1","0.2832615928","","0.2","0.6","0.8","0.4","","","","","0.2197286508","0.1406914754","0.2832615928","0.2695546272","","","","","","","75","K","2","","","205","main_expt"
"638","","bandit","284","1058213","0.0-245.0-0.0","48686129","wem/bandit_either","A3J5UWZM4ZZ1D6","either","5","","","","","","","1","0","0","0.300913322","","0.2","0.6","0.8","0.4","","","","","0.2754509052","0.1138947463","0.300913322","0.2622178416","","","","","","","75","K","2","","","206","main_expt"
"11056","","bandit","285","1070835","0.0-246.0-0.0","48686129","wem/bandit_either","A3J5UWZM4ZZ1D6","either","5","","","","","","","0","0","1","","0.2498186578","0.2","0.6","0.8","0.4","0.2664869377","0.1096702189","0.3260258847","0.2498186578","","","","","","","","","","","76","L","3","","","207","main_expt"
"302","","bandit","286","1072696","0.0-247.0-0.0","48686129","wem/bandit_either","A3J5UWZM4ZZ1D6","either","5","","","","","","","0","0","1","0.3173829003","","0.2","0.6","0.8","0.4","","","","","0.2686565688","0.09922356593","0.3173829003","0.2335358635","","","","","","","75","K","2","","","208","main_expt"
"421","","bandit","287","1074723","0.0-248.0-0.0","48686129","wem/bandit_either","A3J5UWZM4ZZ1D6","either","5","","","","","","","0","1","0","","0.3153846937","0.2","0.6","0.8","0.4","0.2380255957","0.101567507","0.3153846937","0.2638942681","","","","","","","","","","","75","K","2","","","209","main_expt"
"861","","bandit","288","1077131","0.0-249.0-0.0","48686129","wem/bandit_either","A3J5UWZM4ZZ1D6","either","5","","","","","","","0","0","1","0.2526926237","","0.2","0.6","0.8","0.4","","","","","0.2507768727","0.08675379402","0.3010876552","0.2526926237","","","","","","","76","L","3","","","210","main_expt"
"2087","","bandit","289","1080758","0.0-250.0-0.0","48686129","wem/bandit_either","A3J5UWZM4ZZ1D6","either","5","","","","","","","0","0","1","0.2740367769","","0.2","0.6","0.8","0.4","","","","","0.2685142319","0.07512021269","0.2864900033","0.2740367769","","","","","","","76","L","3","","","211","main_expt"
"465","","bandit","290","1082764","0.0-251.0-0.0","48686129","wem/bandit_either","A3J5UWZM4ZZ1D6","either","5","","","","","","","0","0","1","","0.2440836191","0.2","0.6","0.8","0.4","0.260511483","0.08144254236","0.3163372434","0.2440836191","","","","","","","","","","","76","L","3","","","212","main_expt"
"371","","bandit","291","1084679","0.0-252.0-0.0","48686129","wem/bandit_either","A3J5UWZM4ZZ1D6","either","5","","","","","","","0","0","1","0.2341903104","","0.2","0.6","0.8","0.4","","","","","0.2579605047","0.06585574052","0.2701305136","0.2341903104","","","","","","","76","L","3","","","213","main_expt"
"452","","bandit","292","1086680","0.0-253.0-0.0","48686129","wem/bandit_either","A3J5UWZM4ZZ1D6","either","5","","","","","","","0","1","0","","0.2097526345","0.2","0.6","0.8","0.4","0.2470456849","0.08686614453","0.302599165","0.2097526345","","","","","","","","","","","76","L","3","","","214","main_expt"
"18843","","bandit","293","1107083","0.0-254.0-0.0","48686129","wem/bandit_either","A3J5UWZM4ZZ1D6","either","5","","","","","","","0","0","1","","0.3285383036","0.2","0.6","0.8","0.4","0.3285383036","0.1068548489","0.2968005471","0.1796882487","","","","","","","","","","","72","H","0","img/none_selected.jpg","","215","main_expt"
"679","","bandit","294","1109336","0.0-255.0-0.0","48686129","wem/bandit_either","A3J5UWZM4ZZ1D6","either","5","","","","","","","0","0","1","","0.3780044773","0.2","0.6","0.8","0.4","0.3780044773","0.1211736082","0.2835536598","0.2237900511","","","","","","","","","","","72","H","0","img/none_selected.jpg","","216","main_expt"
"711","","bandit","295","1111611","0.0-256.0-0.0","48686129","wem/bandit_either","A3J5UWZM4ZZ1D6","either","5","","","","","","","0","1","0","","0.3939228946","0.2","0.6","0.8","0.4","0.3939228946","0.09343701815","0.2520762718","0.2265358539","","","","","","","","","","","72","H","0","img/none_selected.jpg","","217","main_expt"
"924","","bandit","296","1114092","0.0-257.0-0.0","48686129","wem/bandit_either","A3J5UWZM4ZZ1D6","either","5","","","","","","","0","0","1","","0.1001055386","0.2","0.6","0.8","0.4","0.3198270803","0.1001055386","0.2562699476","0.2364013437","","","","","","","","","","","74","J","1","","","218","main_expt"
"720","","bandit","297","1116395","0.0-258.0-0.0","48686129","wem/bandit_either","A3J5UWZM4ZZ1D6","either","5","","","","","","","0","0","1","","0.09524874014","0.2","0.6","0.8","0.4","0.3502502288","0.09524874014","0.3002431464","0.2810560361","","","","","","","","","","","74","J","1","","","219","main_expt"
"481","","bandit","298","1118443","0.0-259.0-0.0","48686129","wem/bandit_either","A3J5UWZM4ZZ1D6","either","5","","","","","","","0","0","1","0.3365413303","","0.2","0.6","0.8","0.4","","","","","0.3402456168","0.1304899995","0.3365413303","0.3027429446","","","","","","","75","K","2","","","220","main_expt"
"1654","","bandit","299","1121703","0.0-260.0-0.0","48686129","wem/bandit_either","A3J5UWZM4ZZ1D6","either","5","","","","","","","0","0","1","0.1272814923","","0.2","0.6","0.8","0.4","","","","","0.3770059732","0.1272814923","0.2946103072","0.3132134988","","","","","","","74","J","1","","","221","main_expt"
"1380","","bandit","300","1127158","0.0-261.0-0.0","48686129","wem/bandit_either","A3J5UWZM4ZZ1D6","either","5","","","","","","","0","0","1","","0.2424821827","0.2","0.6","0.8","0.4","0.3864421123","0.1654407056","0.3267284332","0.2424821827","","","","","","","","","","","76","L","3","","","222","main_expt"
"29","","bandit","301","1129505","0.0-262.0-0.0","48686129","wem/bandit_either","A3J5UWZM4ZZ1D6","either","5","","","","","","","0","0","1","","0.4205211408","0.2","0.6","0.8","0.4","0.4205211408","0.1788325852","0.3175152631","0.2595367495","","","","","","","","","","","72","H","0","img/none_selected.jpg","","223","main_expt"
"864","","bandit","302","1131911","0.0-263.0-0.0","48686129","wem/bandit_either","A3J5UWZM4ZZ1D6","either","5","","","","","","","1","0","0","0.328819141","","0.2","0.6","0.8","0.4","","","","","0.4131889957","0.1736623033","0.3192400935","0.328819141","","","","","","","76","L","3","","","224","main_expt"
"2024","","bandit","303","1135479","0.0-264.0-0.0","48686129","wem/bandit_either","A3J5UWZM4ZZ1D6","either","5","","","","","","","1","0","0","0.356121412","","0.2","0.6","0.8","0.4","","","","","0.4001513574","0.1721911447","0.3096750449","0.356121412","","","","","","","76","L","3","","","225","main_expt"
"781","","bandit","304","1137805","0.0-265.0-0.0","48686129","wem/bandit_either","A3J5UWZM4ZZ1D6","either","5","","","","","","","0","0","1","0.3142833063","","0.2","0.6","0.8","0.4","","","","","0.3963688582","0.2133818582","0.3142833063","0.3394019192","","","","","","","75","K","2","","","226","main_expt"
"457","","bandit","305","1139827","0.0-266.0-0.0","48686129","wem/bandit_either","A3J5UWZM4ZZ1D6","either","5","","","","","","","0","0","1","0.3096885674","","0.2","0.6","0.8","0.4","","","","","0.3979714495","0.2620007467","0.3096885674","0.2860553004","","","","","","","75","K","2","","","227","main_expt"
"444","","bandit","306","1141834","0.0-267.0-0.0","48686129","wem/bandit_either","A3J5UWZM4ZZ1D6","either","5","","","","","","","0","0","1","","0.2961930455","0.2","0.6","0.8","0.4","0.3811043637","0.2961930455","0.3048295172","0.2967856672","","","","","","","","","","","74","J","1","","","228","main_expt"
"390","","bandit","307","1143785","0.0-268.0-0.0","48686129","wem/bandit_either","A3J5UWZM4ZZ1D6","either","5","","","","","","","0","0","1","","0.3081123415","0.2","0.6","0.8","0.4","0.3488149186","0.3081123415","0.2553920021","0.2857745529","","","","","","","","","","","74","J","1","","","229","main_expt"
"384","","bandit","308","1145734","0.0-269.0-0.0","48686129","wem/bandit_either","A3J5UWZM4ZZ1D6","either","5","","","","","","","0","0","1","0.3027177586","","0.2","0.6","0.8","0.4","","","","","0.2883621188","0.3027177586","0.2783794412","0.2589404948","","","","","","","74","J","1","","","230","main_expt"
"406","","bandit","309","1147711","0.0-270.0-0.0","48686129","wem/bandit_either","A3J5UWZM4ZZ1D6","either","5","","","","","","","0","0","1","0.2735536708","","0.2","0.6","0.8","0.4","","","","","0.2444465504","0.2495346478","0.2735536708","0.2628441024","","","","","","","75","K","2","","","231","main_expt"
"387","","bandit","310","1149675","0.0-271.0-0.0","48686129","wem/bandit_either","A3J5UWZM4ZZ1D6","either","5","","","","","","","0","1","0","","0.2262440502","0.2","0.6","0.8","0.4","0.2996930955","0.2185872191","0.2262440502","0.276537748","","","","","","","","","","","75","K","2","","","232","main_expt"
"533","","bandit","311","1151776","0.0-272.0-0.0","48686129","wem/bandit_either","A3J5UWZM4ZZ1D6","either","5","","","","","","","0","0","1","","0.2171974885","0.2","0.6","0.8","0.4","0.3103031796","0.1874863907","0.2171974885","0.2485723575","","","","","","","","","","","75","K","2","","","233","main_expt"
"106","","bandit","312","1153458","0.0-273.0-0.0","48686129","wem/bandit_either","A3J5UWZM4ZZ1D6","either","5","","","","","","","1","0","0","0.2951485073","","0.2","0.6","0.8","0.4","","","","","0.2971988612","0.2165838284","0.2951485073","0.2172766866","","","","","","","75","K","2","","","234","main_expt"
"744","","bandit","313","1155820","0.0-274.0-0.0","48686129","wem/bandit_either","A3J5UWZM4ZZ1D6","either","5","","","","","","","0","1","0","","0.3135740045","0.2","0.6","0.8","0.4","0.3266576642","0.1791302586","0.3135740045","0.221542824","","","","","","","","","","","75","K","2","","","235","main_expt"
"831","","bandit","314","1158208","0.0-275.0-0.0","48686129","wem/bandit_either","A3J5UWZM4ZZ1D6","either","5","","","","","","","0","0","1","","0.2200573756","0.2","0.6","0.8","0.4","0.3596878827","0.2463713802","0.2945285262","0.2200573756","","","","","","","","","","","76","L","3","","","236","main_expt"
"221","","bandit","315","1160005","0.0-276.0-0.0","48686129","wem/bandit_either","A3J5UWZM4ZZ1D6","either","5","","","","","","","0","0","1","","0.2146478317","0.2","0.6","0.8","0.4","0.3951370387","0.2204623923","0.2797454337","0.2146478317","","","","","","","","","","","76","L","3","","","237","main_expt"
"453","","bandit","316","1162044","0.0-277.0-0.0","48686129","wem/bandit_either","A3J5UWZM4ZZ1D6","either","5","","","","","","","0","0","1","0.2237656472","","0.2","0.6","0.8","0.4","","","","","0.3863552979","0.2316256556","0.266453507","0.2237656472","","","","","","","76","L","3","","","238","main_expt"
"769","","bandit","317","1164396","0.0-278.0-0.0","48686129","wem/bandit_either","A3J5UWZM4ZZ1D6","either","5","","","","","","","0","0","1","0.2302611888","","0.2","0.6","0.8","0.4","","","","","0.3962704677","0.2406304147","0.310831157","0.2302611888","","","","","","","76","L","3","","","239","main_expt"
"345","","bandit","318","1166333","0.0-279.0-0.0","48686129","wem/bandit_either","A3J5UWZM4ZZ1D6","either","5","","","","","","","0","0","1","0.2253069634","","0.2","0.6","0.8","0.4","","","","","0.3926977495","0.2624476398","0.331950591","0.2253069634","","","","","","","76","L","3","","","240","main_expt"
"539","","bandit","319","1168431","0.0-280.0-0.0","48686129","wem/bandit_either","A3J5UWZM4ZZ1D6","either","5","","","","","","","0","1","0","","0.2523404353","0.2","0.6","0.8","0.4","0.3381110468","0.2627099727","0.3223776605","0.2523404353","","","","","","","","","","","76","L","3","","","241","main_expt"
"327","","bandit","320","1170304","0.0-281.0-0.0","48686129","wem/bandit_either","A3J5UWZM4ZZ1D6","either","5","","","","","","","0","1","0","","0.238450381","0.2","0.6","0.8","0.4","0.3213381148","0.2262339403","0.3389272588","0.238450381","","","","","","","","","","","76","L","3","","","242","main_expt"
"496","","bandit","321","1172343","0.0-282.0-0.0","48686129","wem/bandit_either","A3J5UWZM4ZZ1D6","either","5","","","","","","","0","0","1","","0.2476478509","0.2","0.6","0.8","0.4","0.3395415742","0.2511573395","0.4023830898","0.2476478509","","","","","","","","","","","76","L","3","","","243","main_expt"
"666","","bandit","322","1174576","0.0-283.0-0.0","48686129","wem/bandit_either","A3J5UWZM4ZZ1D6","either","5","","","","","","","0","0","1","0.2603762171","","0.2","0.6","0.8","0.4","","","","","0.3077285799","0.3112309098","0.4072225753","0.2603762171","","","","","","","76","L","3","","","244","main_expt"
"1354","","bandit","323","1177476","0.0-284.0-0.0","48686129","wem/bandit_either","A3J5UWZM4ZZ1D6","either","5","","","","","","","0","0","1","0.2778117757","","0.2","0.6","0.8","0.4","","","","","0.269997398","0.3169667097","0.4047901721","0.2778117757","","","","","","","76","L","3","","","245","main_expt"
"1396","","bandit","324","1180411","0.0-285.0-0.0","48686129","wem/bandit_either","A3J5UWZM4ZZ1D6","either","5","","","","","","","0","0","1","0.2571702875","","0.2","0.6","0.8","0.4","","","","","0.2896792764","0.3774934029","0.4245844383","0.2571702875","","","","","","","76","L","3","","","246","main_expt"
"2612","","bandit","325","1184579","0.0-286.0-0.0","48686129","wem/bandit_either","A3J5UWZM4ZZ1D6","either","5","","","","","","","0","0","1","","0.2790325972","0.2","0.6","0.8","0.4","0.3079745892","0.3592590195","0.4425022826","0.2790325972","","","","","","","","","","","76","L","3","","","247","main_expt"
"1283","","bandit","326","1187448","0.0-287.0-0.0","48686129","wem/bandit_either","A3J5UWZM4ZZ1D6","either","5","","","","","","","0","0","1","","0.2665328125","0.2","0.6","0.8","0.4","0.2306801962","0.3659800935","0.4454461089","0.2665328125","","","","","","","","","","","76","L","3","","","248","main_expt"
"1762","","bandit","327","1191614","0.0-288.0-0.0","48686129","wem/bandit_either","A3J5UWZM4ZZ1D6","either","5","","","","","","","0","0","1","","0.2666328085","0.2","0.6","0.8","0.4","0.2363838343","0.3940863056","0.4565985803","0.2666328085","","","","","","","","","","","76","L","3","","","249","main_expt"
"9491","","bandit","328","1202692","0.0-289.0-0.0","48686129","wem/bandit_either","A3J5UWZM4ZZ1D6","either","5","","","","","","","0","1","0","","0.2637425143","0.2","0.6","0.8","0.4","0.2865845142","0.3652193683","0.4666950096","0.2637425143","","","","","","","","","","","76","L","3","","","250","main_expt"
"3165","","bandit","329","1207437","0.0-290.0-0.0","48686129","wem/bandit_either","A3J5UWZM4ZZ1D6","either","5","","","","","","","0","1","0","","0.3527425442","0.2","0.6","0.8","0.4","0.3527425442","0.3118516898","0.4491167865","0.3041279159","","","","","","","","","","","72","H","0","img/none_selected.jpg","","251","main_expt"
"5289","","bandit","330","1214302","0.0-291.0-0.0","48686129","wem/bandit_either","A3J5UWZM4ZZ1D6","either","5","","","","","","","0","0","1","","0.3236638898","0.2","0.6","0.8","0.4","0.3236638898","0.3291033061","0.4512042396","0.3054217384","","","","","","","","","","","72","H","0","img/none_selected.jpg","","252","main_expt"
"642","","bandit","331","1216537","0.0-292.0-0.0","48686129","wem/bandit_either","A3J5UWZM4ZZ1D6","either","5","","","","","","","0","0","1","0.35413613","","0.2","0.6","0.8","0.4","","","","","0.2905162115","0.35413613","0.4572977034","0.3241125582","","","","","","","74","J","1","","","253","main_expt"
"1332","","bandit","332","1219454","0.0-293.0-0.0","48686129","wem/bandit_either","A3J5UWZM4ZZ1D6","either","5","","","","","","","0","0","1","0.3512447021","","0.2","0.6","0.8","0.4","","","","","0.2486268238","0.2644422317","0.4550853681","0.3512447021","","","","","","","76","L","3","","","254","main_expt"
"2379","","bandit","333","1223414","0.0-294.0-0.0","48686129","wem/bandit_either","A3J5UWZM4ZZ1D6","either","5","","","","","","","1","0","0","0.4068249484","","0.2","0.6","0.8","0.4","","","","","0.2578586278","0.3151268161","0.4068249484","0.3367754603","","","","","","","75","K","2","","","255","main_expt"
