"rt","responses","trial_type","trial_index","time_elapsed","internal_node_id","subjID","study","MID","cond","drift","key_press","expt_phase","target","like","value","connected","gems","bombs","no_reward","GemPrChosen","BombPrChosen","GainOverPainPr_0","GainOverPainPr_1","GainOverPainPr_2","GainOverPainPr_3","LosePr_0","LosePr_1","LosePr_2","LosePr_3","WinPr_0","WinPr_1","WinPr_2","WinPr_3","Q0","Q1","Q2","gender","age","ethnicity","respCharCode","respKey","respChoiceNum","respChoice","practice","trial_counter","trial_label"
"6866","{""Q0"":""A2RVEG53L48BAE""}","survey-text","0","6885","0.0-0.0","48756483","wem/bandit_either","A2RVEG53L48BAE","either","7","","","","","","","","","","","","","","","","","","","","","","","","","","","","","","","","","","","",""
"18205","","text","1","26100","0.0-1.0","48756483","wem/bandit_either","A2RVEG53L48BAE","either","7","32","","","","","","","","","","","","","","","","","","","","","","","","","","","","","","","","","","",""
"9878","","text","2","35986","0.0-2.0","48756483","wem/bandit_either","A2RVEG53L48BAE","either","7","32","","","","","","","","","","","","","","","","","","","","","","","","","","","","","","","","","","",""
"192171","","text","3","228166","0.0-3.0","48756483","wem/bandit_either","A2RVEG53L48BAE","either","7","32","","","","","","","","","","","","","","","","","","","","","","","","","","","","","","","","","","",""
"8189","","text","4","236365","0.0-4.0","48756483","wem/bandit_either","A2RVEG53L48BAE","either","7","32","","","","","","","","","","","","","","","","","","","","","","","","","","","","","","","","","","",""
"11129","","text","5","247503","0.0-5.0","48756483","wem/bandit_either","A2RVEG53L48BAE","either","7","32","","","","","","","","","","","","","","","","","","","","","","","","","","","","","","","","","","",""
"10867","","text","6","258374","0.0-6.0","48756483","wem/bandit_either","A2RVEG53L48BAE","either","7","32","","","","","","","","","","","","","","","","","","","","","","","","","","","","","","","","","","",""
"5933","","text","7","264313","0.0-7.0","48756483","wem/bandit_either","A2RVEG53L48BAE","either","7","32","","","","","","","","","","","","","","","","","","","","","","","","","","","","","","","","","","",""
"17131","","identification","8","281492","0.0-8.0-0.0","48756483","wem/bandit_either","A2RVEG53L48BAE","either","7","","identification_pre","the village of Zur","","","","","","","","","","","","","","","","","","","","","","","","","","","","","","","","",""
"3810","","identification","9","286361","0.0-8.0-1.0","48756483","wem/bandit_either","A2RVEG53L48BAE","either","7","","identification_pre","the village of Nyx","","","","","","","","","","","","","","","","","","","","","","","","","","","","","","","","",""
"11572","","text","10","298941","0.0-9.0","48756483","wem/bandit_either","A2RVEG53L48BAE","either","7","32","","","","","","","","","","","","","","","","","","","","","","","","","","","","","","","","","","",""
"4063","","text","11","303008","0.0-10.0","48756483","wem/bandit_either","A2RVEG53L48BAE","either","7","32","","","","","","","","","","","","","","","","","","","","","","","","","","","","","","","","","","",""
"2529","","text","12","305542","0.0-11.0","48756483","wem/bandit_either","A2RVEG53L48BAE","either","7","32","","","","","","","","","","","","","","","","","","","","","","","","","","","","","","","","","","",""
"3773","","text","13","309320","0.0-12.0","48756483","wem/bandit_either","A2RVEG53L48BAE","either","7","32","","","","","","","","","","","","","","","","","","","","","","","","","","","","","","","","","","",""
"5731","","bandit","14","316584","0.0-13.0-0.0","48756483","wem/bandit_either","A2RVEG53L48BAE","either","7","","","","","","","0","0","1","0","0","","","","","0","","","","0","","","","","","","","","","74","J","0","img/none_selected_demo.jpg","true","0",""
"1962","","bandit","15","320066","0.0-14.0-0.0","48756483","wem/bandit_either","A2RVEG53L48BAE","either","7","","","","","","","0","0","1","0","0","","","","","0","","","","0","","","","","","","","","","75","K","0","img/none_selected_demo.jpg","true","0",""
"7829","","text","16","327901","0.0-15.0","48756483","wem/bandit_either","A2RVEG53L48BAE","either","7","32","","","","","","","","","","","","","","","","","","","","","","","","","","","","","","","","","","",""
"14228","","text","17","342133","0.0-16.0","48756483","wem/bandit_either","A2RVEG53L48BAE","either","7","32","","","","","","","","","","","","","","","","","","","","","","","","","","","","","","","","","","",""
"8129","","text","18","350267","0.0-17.0","48756483","wem/bandit_either","A2RVEG53L48BAE","either","7","32","","","","","","","","","","","","","","","","","","","","","","","","","","","","","","","","","","",""
"1969","","text","19","352240","0.0-18.0","48756483","wem/bandit_either","A2RVEG53L48BAE","either","7","32","","","","","","","","","","","","","","","","","","","","","","","","","","","","","","","","","","",""
"1680","","bandit","20","355447","0.0-19.0-0.0","48756483","wem/bandit_either","A2RVEG53L48BAE","either","7","","","","","","","0","0","1","","0.2","0.5","0.5","","","0.8","0.2","","","","","","","","","","","","","75","K","1","","true","0","80_20_practice"
"1050","","bandit","21","358024","0.0-19.0-1.0","48756483","wem/bandit_either","A2RVEG53L48BAE","either","7","","","","","","","0","1","0","","0.8","0.5","0.5","","","0.8","0.2","","","","","","","","","","","","","74","J","0","img/none_selected_demo.jpg","true","0","80_20_practice"
"768","","bandit","22","360316","0.0-19.0-2.0","48756483","wem/bandit_either","A2RVEG53L48BAE","either","7","","","","","","","0","0","1","0.2","","0.5","0.5","","","","","","","0.8","0.2","","","","","","","","","75","K","1","","true","0","80_20_practice"
"555","","bandit","23","362411","0.0-19.0-3.0","48756483","wem/bandit_either","A2RVEG53L48BAE","either","7","","","","","","","1","0","0","0.8","","0.5","0.5","","","","","","","0.8","0.2","","","","","","","","","74","J","0","img/none_selected_demo.jpg","true","0","80_20_practice"
"409","","bandit","24","364353","0.0-19.0-4.0","48756483","wem/bandit_either","A2RVEG53L48BAE","either","7","","","","","","","1","0","0","0.8","","0.5","0.5","","","","","","","0.8","0.2","","","","","","","","","74","J","0","img/none_selected_demo.jpg","true","0","80_20_practice"
"293","","bandit","25","366171","0.0-19.0-5.0","48756483","wem/bandit_either","A2RVEG53L48BAE","either","7","","","","","","","1","0","0","0.8","","0.5","0.5","","","","","","","0.8","0.2","","","","","","","","","74","J","0","img/none_selected_demo.jpg","true","0","80_20_practice"
"232","","bandit","26","367928","0.0-19.0-6.0","48756483","wem/bandit_either","A2RVEG53L48BAE","either","7","","","","","","","0","1","0","","0.8","0.5","0.5","","","0.8","0.2","","","","","","","","","","","","","74","J","0","img/none_selected_demo.jpg","true","0","80_20_practice"
"298","","bandit","27","369749","0.0-19.0-7.0","48756483","wem/bandit_either","A2RVEG53L48BAE","either","7","","","","","","","1","0","0","0.8","","0.5","0.5","","","","","","","0.8","0.2","","","","","","","","","74","J","0","img/none_selected_demo.jpg","true","0","80_20_practice"
"214","","bandit","28","371488","0.0-19.0-8.0","48756483","wem/bandit_either","A2RVEG53L48BAE","either","7","","","","","","","0","0","1","0.8","","0.5","0.5","","","","","","","0.8","0.2","","","","","","","","","74","J","0","img/none_selected_demo.jpg","true","0","80_20_practice"
"314","","bandit","29","373327","0.0-19.0-9.0","48756483","wem/bandit_either","A2RVEG53L48BAE","either","7","","","","","","","0","1","0","","0.8","0.5","0.5","","","0.8","0.2","","","","","","","","","","","","","74","J","0","img/none_selected_demo.jpg","true","0","80_20_practice"
"218","","bandit","30","375070","0.0-19.0-10.0","48756483","wem/bandit_either","A2RVEG53L48BAE","either","7","","","","","","","0","1","0","","0.8","0.5","0.5","","","0.8","0.2","","","","","","","","","","","","","74","J","0","img/none_selected_demo.jpg","true","0","80_20_practice"
"282","","bandit","31","376884","0.0-19.0-11.0","48756483","wem/bandit_either","A2RVEG53L48BAE","either","7","","","","","","","0","0","1","0.2","","0.5","0.5","","","","","","","0.8","0.2","","","","","","","","","75","K","1","","true","0","80_20_practice"
"266","","bandit","32","378675","0.0-19.0-12.0","48756483","wem/bandit_either","A2RVEG53L48BAE","either","7","","","","","","","1","0","0","0.8","","0.5","0.5","","","","","","","0.8","0.2","","","","","","","","","74","J","0","img/none_selected_demo.jpg","true","0","80_20_practice"
"234","","bandit","33","380430","0.0-19.0-13.0","48756483","wem/bandit_either","A2RVEG53L48BAE","either","7","","","","","","","1","0","0","0.8","","0.5","0.5","","","","","","","0.8","0.2","","","","","","","","","74","J","0","img/none_selected_demo.jpg","true","0","80_20_practice"
"209","","bandit","34","382163","0.0-19.0-14.0","48756483","wem/bandit_either","A2RVEG53L48BAE","either","7","","","","","","","0","1","0","","0.8","0.5","0.5","","","0.8","0.2","","","","","","","","","","","","","74","J","0","img/none_selected_demo.jpg","true","0","80_20_practice"
"249","","bandit","35","383929","0.0-19.0-15.0","48756483","wem/bandit_either","A2RVEG53L48BAE","either","7","","","","","","","0","0","1","0.2","","0.5","0.5","","","","","","","0.8","0.2","","","","","","","","","75","K","1","","true","0","80_20_practice"
"87","","bandit","36","385546","0.0-19.0-16.0","48756483","wem/bandit_either","A2RVEG53L48BAE","either","7","","","","","","","0","1","0","","0.8","0.5","0.5","","","0.8","0.2","","","","","","","","","","","","","74","J","0","img/none_selected_demo.jpg","true","0","80_20_practice"
"208","","bandit","37","387274","0.0-19.0-17.0","48756483","wem/bandit_either","A2RVEG53L48BAE","either","7","","","","","","","1","0","0","0.8","","0.5","0.5","","","","","","","0.8","0.2","","","","","","","","","74","J","0","img/none_selected_demo.jpg","true","0","80_20_practice"
"204","","bandit","38","389003","0.0-19.0-18.0","48756483","wem/bandit_either","A2RVEG53L48BAE","either","7","","","","","","","0","1","0","","0.8","0.5","0.5","","","0.8","0.2","","","","","","","","","","","","","74","J","0","img/none_selected_demo.jpg","true","0","80_20_practice"
"309","","bandit","39","390833","0.0-19.0-19.0","48756483","wem/bandit_either","A2RVEG53L48BAE","either","7","","","","","","","1","0","0","0.8","","0.5","0.5","","","","","","","0.8","0.2","","","","","","","","","74","J","0","img/none_selected_demo.jpg","true","0","80_20_practice"
"9622","","text","40","400466","0.0-20.0","48756483","wem/bandit_either","A2RVEG53L48BAE","either","7","32","","","","","","","","","","","","","","","","","","","","","","","","","","","","","","","","","","",""
"926","","bandit","41","402915","0.0-21.0-0.0","48756483","wem/bandit_either","A2RVEG53L48BAE","either","7","","","","","","","1","0","0","1","0","","","","","0","1","","","1","0","","","","","","","","","74","J","0","img/none_selected_demo.jpg","true","0",""
"3032","","text","42","405956","0.0-22.0","48756483","wem/bandit_either","A2RVEG53L48BAE","either","7","32","","","","","","","","","","","","","","","","","","","","","","","","","","","","","","","","","","",""
"2338","","text","43","408301","0.0-23.0","48756483","wem/bandit_either","A2RVEG53L48BAE","either","7","32","","","","","","","","","","","","","","","","","","","","","","","","","","","","","","","","","","",""
"2850","","text","44","411156","0.0-24.0","48756483","wem/bandit_either","A2RVEG53L48BAE","either","7","32","","","","","","","","","","","","","","","","","","","","","","","","","","","","","","","","","","",""
"3244","","text","45","414406","0.0-25.0","48756483","wem/bandit_either","A2RVEG53L48BAE","either","7","32","","","","","","","","","","","","","","","","","","","","","","","","","","","","","","","","","","",""
"11049","","text","46","425464","0.0-26.0","48756483","wem/bandit_either","A2RVEG53L48BAE","either","7","32","","","","","","","","","","","","","","","","","","","","","","","","","","","","","","","","","","",""
"12269","","text","47","437743","0.0-27.0","48756483","wem/bandit_either","A2RVEG53L48BAE","either","7","32","","","","","","","","","","","","","","","","","","","","","","","","","","","","","","","","","","",""
"5769","","text","48","443521","0.0-28.0","48756483","wem/bandit_either","A2RVEG53L48BAE","either","7","32","","","","","","","","","","","","","","","","","","","","","","","","","","","","","","","","","","",""
"3708","","text","49","447234","0.0-29.0","48756483","wem/bandit_either","A2RVEG53L48BAE","either","7","32","","","","","","","","","","","","","","","","","","","","","","","","","","","","","","","","","","",""
"5024","","text","50","452263","0.0-30.0","48756483","wem/bandit_either","A2RVEG53L48BAE","either","7","32","","","","","","","","","","","","","","","","","","","","","","","","","","","","","","","","","","",""
"1295","","text","51","453564","0.0-31.0","48756483","wem/bandit_either","A2RVEG53L48BAE","either","7","32","","","","","","","","","","","","","","","","","","","","","","","","","","","","","","","","","","",""
"8705","","text","52","462274","0.0-32.0","48756483","wem/bandit_either","A2RVEG53L48BAE","either","7","32","","","","","","","","","","","","","","","","","","","","","","","","","","","","","","","","","","",""
"1064","","bandit","53","464860","0.0-33.0-0.0","48756483","wem/bandit_either","A2RVEG53L48BAE","either","7","","","","","","","0","1","0","","0.8","0.5","0.5","0.5","0.5","0.8","0.2","0.6","0.2","","","","","","","","","","","72","H","0","img/none_selected.jpg","true","0","full_practice"
"439","","bandit","54","466827","0.0-33.0-1.0","48756483","wem/bandit_either","A2RVEG53L48BAE","either","7","","","","","","","1","0","0","0.2","","0.5","0.5","0.5","0.5","","","","","0.8","0.2","0.6","0.2","","","","","","","76","L","3","","true","0","full_practice"
"181","","bandit","55","468531","0.0-33.0-2.0","48756483","wem/bandit_either","A2RVEG53L48BAE","either","7","","","","","","","0","0","1","","0.2","0.5","0.5","0.5","0.5","0.8","0.2","0.6","0.2","","","","","","","","","","","76","L","3","","true","0","full_practice"
"26","","bandit","56","470082","0.0-33.0-3.0","48756483","wem/bandit_either","A2RVEG53L48BAE","either","7","","","","","","","0","0","1","","0.2","0.5","0.5","0.5","0.5","0.8","0.2","0.6","0.2","","","","","","","","","","","76","L","3","","true","0","full_practice"
"19","","bandit","57","471628","0.0-33.0-4.0","48756483","wem/bandit_either","A2RVEG53L48BAE","either","7","","","","","","","0","1","0","","0.2","0.5","0.5","0.5","0.5","0.8","0.2","0.6","0.2","","","","","","","","","","","74","J","1","","true","0","full_practice"
"425","","bandit","58","473577","0.0-33.0-5.0","48756483","wem/bandit_either","A2RVEG53L48BAE","either","7","","","","","","","0","1","0","","0.2","0.5","0.5","0.5","0.5","0.8","0.2","0.6","0.2","","","","","","","","","","","76","L","3","","true","0","full_practice"
"95","","bandit","59","475194","0.0-33.0-6.0","48756483","wem/bandit_either","A2RVEG53L48BAE","either","7","","","","","","","1","0","0","0.8","","0.5","0.5","0.5","0.5","","","","","0.8","0.2","0.6","0.2","","","","","","","72","H","0","img/none_selected.jpg","true","0","full_practice"
"209","","bandit","60","476927","0.0-33.0-7.0","48756483","wem/bandit_either","A2RVEG53L48BAE","either","7","","","","","","","1","0","0","0.8","","0.5","0.5","0.5","0.5","","","","","0.8","0.2","0.6","0.2","","","","","","","72","H","0","img/none_selected.jpg","true","0","full_practice"
"152","","bandit","61","478601","0.0-33.0-8.0","48756483","wem/bandit_either","A2RVEG53L48BAE","either","7","","","","","","","1","0","0","0.6","","0.5","0.5","0.5","0.5","","","","","0.8","0.2","0.6","0.2","","","","","","","75","K","2","","true","0","full_practice"
"185","","bandit","62","480308","0.0-33.0-9.0","48756483","wem/bandit_either","A2RVEG53L48BAE","either","7","","","","","","","0","1","0","","0.8","0.5","0.5","0.5","0.5","0.8","0.2","0.6","0.2","","","","","","","","","","","72","H","0","img/none_selected.jpg","true","0","full_practice"
"167","","bandit","63","481997","0.0-33.0-10.0","48756483","wem/bandit_either","A2RVEG53L48BAE","either","7","","","","","","","0","1","0","","0.6","0.5","0.5","0.5","0.5","0.8","0.2","0.6","0.2","","","","","","","","","","","75","K","2","","true","0","full_practice"
"212","","bandit","64","483734","0.0-33.0-11.0","48756483","wem/bandit_either","A2RVEG53L48BAE","either","7","","","","","","","0","0","1","","0.2","0.5","0.5","0.5","0.5","0.8","0.2","0.6","0.2","","","","","","","","","","","76","L","3","","true","0","full_practice"
"4","","bandit","65","485263","0.0-33.0-12.0","48756483","wem/bandit_either","A2RVEG53L48BAE","either","7","","","","","","","0","1","0","","0.8","0.5","0.5","0.5","0.5","0.8","0.2","0.6","0.2","","","","","","","","","","","72","H","0","img/none_selected.jpg","true","0","full_practice"
"79","","bandit","66","486866","0.0-33.0-13.0","48756483","wem/bandit_either","A2RVEG53L48BAE","either","7","","","","","","","1","0","0","0.2","","0.5","0.5","0.5","0.5","","","","","0.8","0.2","0.6","0.2","","","","","","","76","L","3","","true","0","full_practice"
"12","","bandit","67","488406","0.0-33.0-14.0","48756483","wem/bandit_either","A2RVEG53L48BAE","either","7","","","","","","","0","0","1","0.2","","0.5","0.5","0.5","0.5","","","","","0.8","0.2","0.6","0.2","","","","","","","76","L","3","","true","0","full_practice"
"192","","bandit","68","490122","0.0-33.0-15.0","48756483","wem/bandit_either","A2RVEG53L48BAE","either","7","","","","","","","0","0","1","","0.2","0.5","0.5","0.5","0.5","0.8","0.2","0.6","0.2","","","","","","","","","","","74","J","1","","true","0","full_practice"
"372","","bandit","69","492018","0.0-33.0-16.0","48756483","wem/bandit_either","A2RVEG53L48BAE","either","7","","","","","","","0","1","0","","0.6","0.5","0.5","0.5","0.5","0.8","0.2","0.6","0.2","","","","","","","","","","","75","K","2","","true","0","full_practice"
"242","","bandit","70","493783","0.0-33.0-17.0","48756483","wem/bandit_either","A2RVEG53L48BAE","either","7","","","","","","","1","0","0","0.8","","0.5","0.5","0.5","0.5","","","","","0.8","0.2","0.6","0.2","","","","","","","72","H","0","img/none_selected.jpg","true","0","full_practice"
"213","","bandit","71","495520","0.0-33.0-18.0","48756483","wem/bandit_either","A2RVEG53L48BAE","either","7","","","","","","","0","0","1","","0.2","0.5","0.5","0.5","0.5","0.8","0.2","0.6","0.2","","","","","","","","","","","76","L","3","","true","0","full_practice"
"214","","bandit","72","497259","0.0-33.0-19.0","48756483","wem/bandit_either","A2RVEG53L48BAE","either","7","","","","","","","0","0","1","","0.8","0.5","0.5","0.5","0.5","0.8","0.2","0.6","0.2","","","","","","","","","","","72","H","0","img/none_selected.jpg","true","0","full_practice"
"5090","","text","73","502368","0.0-34.0","48756483","wem/bandit_either","A2RVEG53L48BAE","either","7","32","","","","","","","","","","","","","","","","","","","","","","","","","","","","","","","","","","",""
"13499","","text","74","516881","0.0-35.0","48756483","wem/bandit_either","A2RVEG53L48BAE","either","7","32","","","","","","","","","","","","","","","","","","","","","","","","","","","","","","","","","","",""
"9931","","text","75","526824","0.0-36.0","48756483","wem/bandit_either","A2RVEG53L48BAE","either","7","32","","","","","","","","","","","","","","","","","","","","","","","","","","","","","","","","","","",""
"4266","","text","76","531097","0.0-37.0","48756483","wem/bandit_either","A2RVEG53L48BAE","either","7","32","","","","","","","","","","","","","","","","","","","","","","","","","","","","","","","","","","",""
"6127","","text","77","537231","0.0-38.0","48756483","wem/bandit_either","A2RVEG53L48BAE","either","7","32","","","","","","","","","","","","","","","","","","","","","","","","","","","","","","","","","","",""
"6287","","text","78","543529","0.0-39.0","48756483","wem/bandit_either","A2RVEG53L48BAE","either","7","32","","","","","","","","","","","","","","","","","","","","","","","","","","","","","","","","","","",""
"2521","","bandit","79","547572","0.0-40.0-0.0","48756483","wem/bandit_either","A2RVEG53L48BAE","either","7","","","","","","","0","0","1","0.1952616071","","0.4","0.8","0.6","0.2","","","","","0.06530018083","0.01738065524","0.1952616071","0.1480066451","","","","","","","75","K","2","","","1","main_expt"
"178","","bandit","80","549272","0.0-41.0-0.0","48756483","wem/bandit_either","A2RVEG53L48BAE","either","7","","","","","","","0","0","1","","0.1053714073","0.4","0.8","0.6","0.2","0.1011701763","0.0196943787","0.1652234336","0.1053714073","","","","","","","","","","","76","L","3","","","2","main_expt"
"259","","bandit","81","551060","0.0-42.0-0.0","48756483","wem/bandit_either","A2RVEG53L48BAE","either","7","","","","","","","0","0","1","0.1347382479","","0.4","0.8","0.6","0.2","","","","","0.09486719381","0.01678573497","0.1347382479","0.1460078221","","","","","","","75","K","2","","","3","main_expt"
"350","","bandit","82","552934","0.0-43.0-0.0","48756483","wem/bandit_either","A2RVEG53L48BAE","either","7","","","","","","","0","0","1","","0.06705802814","0.4","0.8","0.6","0.2","0.06705802814","0.02981965743","0.1684625442","0.1866138214","","","","","","","","","","","72","H","0","img/none_selected.jpg","","4","main_expt"
"282","","bandit","83","554739","0.0-44.0-0.0","48756483","wem/bandit_either","A2RVEG53L48BAE","either","7","","","","","","","0","0","1","","0.02600208211","0.4","0.8","0.6","0.2","0.0822298525","0.02600208211","0.1792029032","0.2445348717","","","","","","","","","","","74","J","1","","","5","main_expt"
"419","","bandit","84","556686","0.0-45.0-0.0","48756483","wem/bandit_either","A2RVEG53L48BAE","either","7","","","","","","","0","0","1","","0.09162209411","0.4","0.8","0.6","0.2","0.09162209411","0.02332436933","0.2153873139","0.2546962146","","","","","","","","","","","72","H","0","img/none_selected.jpg","","6","main_expt"
"248","","bandit","85","558458","0.0-46.0-0.0","48756483","wem/bandit_either","A2RVEG53L48BAE","either","7","","","","","","","0","0","1","","0.2344841702","0.4","0.8","0.6","0.2","0.1028820098","0.02864040813","0.1757762721","0.2344841702","","","","","","","","","","","76","L","3","","","7","main_expt"
"514","","bandit","86","560500","0.0-47.0-0.0","48756483","wem/bandit_either","A2RVEG53L48BAE","either","7","","","","","","","0","0","1","0.02951264166","","0.4","0.8","0.6","0.2","","","","","0.1532270122","0.02951264166","0.2241229746","0.2473344203","","","","","","","74","J","1","","","8","main_expt"
"412","","bandit","87","562438","0.0-48.0-0.0","48756483","wem/bandit_either","A2RVEG53L48BAE","either","7","","","","","","","0","0","1","0.02997011939","","0.4","0.8","0.6","0.2","","","","","0.2131450397","0.02997011939","0.2199426203","0.2642160399","","","","","","","74","J","1","","","9","main_expt"
"312","","bandit","88","564275","0.0-49.0-0.0","48756483","wem/bandit_either","A2RVEG53L48BAE","either","7","","","","","","","0","0","1","","0.2985754635","0.4","0.8","0.6","0.2","0.2985754635","0.02489651457","0.1520686932","0.2104627424","","","","","","","","","","","72","H","0","img/none_selected.jpg","","10","main_expt"
"361","","bandit","89","566160","0.0-50.0-0.0","48756483","wem/bandit_either","A2RVEG53L48BAE","either","7","","","","","","","0","0","1","","0.219372878","0.4","0.8","0.6","0.2","0.2924640086","0.01651058827","0.2013349999","0.219372878","","","","","","","","","","","76","L","3","","","11","main_expt"
"210","","bandit","90","567890","0.0-51.0-0.0","48756483","wem/bandit_either","A2RVEG53L48BAE","either","7","","","","","","","0","0","1","","0.2156800105","0.4","0.8","0.6","0.2","0.3264291113","0.02341729431","0.2156800105","0.2105839871","","","","","","","","","","","75","K","2","","","12","main_expt"
"223","","bandit","91","569643","0.0-52.0-0.0","48756483","wem/bandit_either","A2RVEG53L48BAE","either","7","","","","","","","0","1","0","","0.3254913314","0.4","0.8","0.6","0.2","0.3254913314","0.0257410372","0.1833947696","0.2511698571","","","","","","","","","","","72","H","0","img/none_selected.jpg","","13","main_expt"
"487","","bandit","92","571668","0.0-53.0-0.0","48756483","wem/bandit_either","A2RVEG53L48BAE","either","7","","","","","","","0","0","1","","0.2158977649","0.4","0.8","0.6","0.2","0.3428504842","0.02570014082","0.243643366","0.2158977649","","","","","","","","","","","76","L","3","","","14","main_expt"
"235","","bandit","93","573432","0.0-54.0-0.0","48756483","wem/bandit_either","A2RVEG53L48BAE","either","7","","","","","","","0","0","1","0.2762480727","","0.4","0.8","0.6","0.2","","","","","0.3244047679","0.04268316416","0.2265365198","0.2762480727","","","","","","","76","L","3","","","15","main_expt"
"314","","bandit","94","575263","0.0-55.0-0.0","48756483","wem/bandit_either","A2RVEG53L48BAE","either","7","","","","","","","0","0","1","","0.2484951132","0.4","0.8","0.6","0.2","0.3025313629","0.04667408308","0.2484951132","0.3202890724","","","","","","","","","","","75","K","2","","","16","main_expt"
"258","","bandit","95","577046","0.0-56.0-0.0","48756483","wem/bandit_either","A2RVEG53L48BAE","either","7","","","","","","","0","0","1","0.2570267238","","0.4","0.8","0.6","0.2","","","","","0.3291216938","0.0506688767","0.2570267238","0.3680552247","","","","","","","75","K","2","","","17","main_expt"
"66","","bandit","96","578643","0.0-57.0-0.0","48756483","wem/bandit_either","A2RVEG53L48BAE","either","7","","","","","","","0","0","1","0.02988526167","","0.4","0.8","0.6","0.2","","","","","0.2987881532","0.02988526167","0.287418789","0.3968593921","","","","","","","74","J","1","","","18","main_expt"
"449","","bandit","97","580614","0.0-58.0-0.0","48756483","wem/bandit_either","A2RVEG53L48BAE","either","7","","","","","","","0","0","1","","0.4192996399","0.4","0.8","0.6","0.2","0.281207523","0.03476350355","0.2338710899","0.4192996399","","","","","","","","","","","76","L","3","","","19","main_expt"
"100","","bandit","98","582238","0.0-59.0-0.0","48756483","wem/bandit_either","A2RVEG53L48BAE","either","7","","","","","","","0","0","1","","0.4362768361","0.4","0.8","0.6","0.2","0.291129981","0.0233687216","0.2335293464","0.4362768361","","","","","","","","","","","76","L","3","","","20","main_expt"
"143","","bandit","99","583905","0.0-60.0-0.0","48756483","wem/bandit_either","A2RVEG53L48BAE","either","7","","","","","","","0","0","1","0.01272547494","","0.4","0.8","0.6","0.2","","","","","0.2729578326","0.01272547494","0.2434826965","0.4599691003","","","","","","","74","J","1","","","21","main_expt"
"64","","bandit","100","585492","0.0-61.0-0.0","48756483","wem/bandit_either","A2RVEG53L48BAE","either","7","","","","","","","0","0","1","","0.2702300591","0.4","0.8","0.6","0.2","0.2805141014","0.01739491555","0.2702300591","0.44353765","","","","","","","","","","","75","K","2","","","22","main_expt"
"235","","bandit","101","587248","0.0-62.0-0.0","48756483","wem/bandit_either","A2RVEG53L48BAE","either","7","","","","","","","1","0","0","0.2424740502","","0.4","0.8","0.6","0.2","","","","","0.3016389313","0.006692102231","0.2424740502","0.4105594395","","","","","","","75","K","2","","","23","main_expt"
"238","","bandit","102","589015","0.0-63.0-0.0","48756483","wem/bandit_either","A2RVEG53L48BAE","either","7","","","","","","","0","0","1","","0.1754503809","0.4","0.8","0.6","0.2","0.2475621169","0.01209419849","0.1754503809","0.4243351486","","","","","","","","","","","75","K","2","","","24","main_expt"
"155","","bandit","103","590698","0.0-64.0-0.0","48756483","wem/bandit_either","A2RVEG53L48BAE","either","7","","","","","","","0","1","0","","0.4172780312","0.4","0.8","0.6","0.2","0.2607476102","0.009734580702","0.2023019753","0.4172780312","","","","","","","","","","","76","L","3","","","25","main_expt"
"269","","bandit","104","592490","0.0-65.0-0.0","48756483","wem/bandit_either","A2RVEG53L48BAE","either","7","","","","","","","0","0","1","0.1887270612","","0.4","0.8","0.6","0.2","","","","","0.292589008","0.008596148908","0.1887270612","0.3981062588","","","","","","","75","K","2","","","26","main_expt"
"226","","bandit","105","594242","0.0-66.0-0.0","48756483","wem/bandit_either","A2RVEG53L48BAE","either","7","","","","","","","0","0","1","0.2526986378","","0.4","0.8","0.6","0.2","","","","","0.2978950393","0.01380650739","0.2526986378","0.3889188119","","","","","","","75","K","2","","","27","main_expt"
"181","","bandit","106","595950","0.0-67.0-0.0","48756483","wem/bandit_either","A2RVEG53L48BAE","either","7","","","","","","","1","0","0","0.2536033627","","0.4","0.8","0.6","0.2","","","","","0.337392419","0.01160852189","0.2536033627","0.3699095679","","","","","","","75","K","2","","","28","main_expt"
"279","","bandit","107","597756","0.0-68.0-0.0","48756483","wem/bandit_either","A2RVEG53L48BAE","either","7","","","","","","","0","0","1","0.258258936","","0.4","0.8","0.6","0.2","","","","","0.3830759015","0.02858314752","0.258258936","0.4087832773","","","","","","","75","K","2","","","29","main_expt"
"195","","bandit","108","599471","0.0-69.0-0.0","48756483","wem/bandit_either","A2RVEG53L48BAE","either","7","","","","","","","1","0","0","0.3152574144","","0.4","0.8","0.6","0.2","","","","","0.3778881599","0.0265596094","0.3152574144","0.4162513677","","","","","","","75","K","2","","","30","main_expt"
"237","","bandit","109","601232","0.0-70.0-0.0","48756483","wem/bandit_either","A2RVEG53L48BAE","either","7","","","","","","","0","0","1","0.3508579725","","0.4","0.8","0.6","0.2","","","","","0.3585458117","0.02828816112","0.3508579725","0.43337534","","","","","","","75","K","2","","","31","main_expt"
"123","","bandit","110","602879","0.0-71.0-0.0","48756483","wem/bandit_either","A2RVEG53L48BAE","either","7","","","","","","","0","1","0","","0.3902021543","0.4","0.8","0.6","0.2","0.3511664436","0.03857304495","0.3902021543","0.4399105216","","","","","","","","","","","75","K","2","","","32","main_expt"
"227","","bandit","111","604629","0.0-72.0-0.0","48756483","wem/bandit_either","A2RVEG53L48BAE","either","7","","","","","","","0","1","0","","0.4112626521","0.4","0.8","0.6","0.2","0.3924960189","0.02642959278","0.4112626521","0.3859623535","","","","","","","","","","","75","K","2","","","33","main_expt"
"2370","","bandit","112","608526","0.0-73.0-0.0","48756483","wem/bandit_either","A2RVEG53L48BAE","either","7","","","","","","","0","0","1","0.06800028167","","0.4","0.8","0.6","0.2","","","","","0.3713907517","0.06800028167","0.3912589523","0.4231921331","","","","","","","74","J","1","","","34","main_expt"
"239","","bandit","113","610292","0.0-74.0-0.0","48756483","wem/bandit_either","A2RVEG53L48BAE","either","7","","","","","","","0","0","1","0.05710280771","","0.4","0.8","0.6","0.2","","","","","0.3929004689","0.05710280771","0.3663646496","0.3950458867","","","","","","","74","J","1","","","35","main_expt"
"96","","bandit","114","611912","0.0-75.0-0.0","48756483","wem/bandit_either","A2RVEG53L48BAE","either","7","","","","","","","0","0","1","","0.07756943076","0.4","0.8","0.6","0.2","0.3820467604","0.07756943076","0.3045225128","0.4005306787","","","","","","","","","","","74","J","1","","","36","main_expt"
"381","","bandit","115","613822","0.0-76.0-0.0","48756483","wem/bandit_either","A2RVEG53L48BAE","either","7","","","","","","","0","0","1","0.2806474599","","0.4","0.8","0.6","0.2","","","","","0.3948022939","0.06074629621","0.2806474599","0.3972735937","","","","","","","75","K","2","","","37","main_expt"
"1350","","bandit","116","616697","0.0-77.0-0.0","48756483","wem/bandit_either","A2RVEG53L48BAE","either","7","","","","","","","0","0","1","0.3558759705","","0.4","0.8","0.6","0.2","","","","","0.3769579019","0.07063042774","0.3558759705","0.38339591","","","","","","","75","K","2","","","38","main_expt"
"408","","bandit","117","618631","0.0-78.0-0.0","48756483","wem/bandit_either","A2RVEG53L48BAE","either","7","","","","","","","0","1","0","","0.3194138052","0.4","0.8","0.6","0.2","0.4030344636","0.06209293178","0.3194138052","0.3906354184","","","","","","","","","","","75","K","2","","","39","main_expt"
"302","","bandit","118","620463","0.0-79.0-0.0","48756483","wem/bandit_either","A2RVEG53L48BAE","either","7","","","","","","","0","0","1","0.3623676206","","0.4","0.8","0.6","0.2","","","","","0.3622335218","0.06952578958","0.3549086085","0.3623676206","","","","","","","76","L","3","","","40","main_expt"
"384","","bandit","119","622375","0.0-80.0-0.0","48756483","wem/bandit_either","A2RVEG53L48BAE","either","7","","","","","","","1","0","0","0.3911596719","","0.4","0.8","0.6","0.2","","","","","0.3911596719","0.1291245709","0.3452113815","0.3873704927","","","","","","","72","H","0","img/none_selected.jpg","","41","main_expt"
"435","","bandit","120","624336","0.0-81.0-0.0","48756483","wem/bandit_either","A2RVEG53L48BAE","either","7","","","","","","","1","0","0","0.3522960267","","0.4","0.8","0.6","0.2","","","","","0.3921858285","0.1174523948","0.3522960267","0.359823116","","","","","","","75","K","2","","","42","main_expt"
"521","","bandit","121","626381","0.0-82.0-0.0","48756483","wem/bandit_either","A2RVEG53L48BAE","either","7","","","","","","","0","0","1","0.1201484523","","0.4","0.8","0.6","0.2","","","","","0.3831213528","0.1201484523","0.3093122096","0.3710191411","","","","","","","74","J","1","","","43","main_expt"
"349","","bandit","122","628258","0.0-83.0-0.0","48756483","wem/bandit_either","A2RVEG53L48BAE","either","7","","","","","","","0","0","1","0.3874065465","","0.4","0.8","0.6","0.2","","","","","0.3518708159","0.09958360536","0.3026159556","0.3874065465","","","","","","","76","L","3","","","44","main_expt"
"362","","bandit","123","630144","0.0-84.0-0.0","48756483","wem/bandit_either","A2RVEG53L48BAE","either","7","","","","","","","0","0","1","0.05173655998","","0.4","0.8","0.6","0.2","","","","","0.3122870636","0.05173655998","0.3336294247","0.3851533971","","","","","","","74","J","1","","","45","main_expt"
"267","","bandit","124","631934","0.0-85.0-0.0","48756483","wem/bandit_either","A2RVEG53L48BAE","either","7","","","","","","","0","1","0","","0.4055883719","0.4","0.8","0.6","0.2","0.2635721956","0.05945041096","0.3400222736","0.4055883719","","","","","","","","","","","76","L","3","","","46","main_expt"
"165","","bandit","125","633629","0.0-86.0-0.0","48756483","wem/bandit_either","A2RVEG53L48BAE","either","7","","","","","","","0","0","1","0.04375763727","","0.4","0.8","0.6","0.2","","","","","0.2856785865","0.04375763727","0.328707825","0.3671593179","","","","","","","74","J","1","","","47","main_expt"
"269","","bandit","126","635424","0.0-87.0-0.0","48756483","wem/bandit_either","A2RVEG53L48BAE","either","7","","","","","","","0","0","1","0.3307690822","","0.4","0.8","0.6","0.2","","","","","0.2649087478","0.0666370861","0.3307690822","0.3198203038","","","","","","","75","K","2","","","48","main_expt"
"78","","bandit","127","637026","0.0-88.0-0.0","48756483","wem/bandit_either","A2RVEG53L48BAE","either","7","","","","","","","0","1","0","","0.2462979357","0.4","0.8","0.6","0.2","0.2462979357","0.08266213623","0.3438067684","0.3111357295","","","","","","","","","","","72","H","0","img/none_selected.jpg","","49","main_expt"
"141","","bandit","128","638696","0.0-89.0-0.0","48756483","wem/bandit_either","A2RVEG53L48BAE","either","7","","","","","","","1","0","0","0.4037002216","","0.4","0.8","0.6","0.2","","","","","0.2490076798","0.08795051988","0.4037002216","0.3196682981","","","","","","","75","K","2","","","50","main_expt"
"221","","bandit","129","640443","0.0-90.0-0.0","48756483","wem/bandit_either","A2RVEG53L48BAE","either","7","","","","","","","0","0","1","0.3557518394","","0.4","0.8","0.6","0.2","","","","","0.305209751","0.07533366945","0.3557518394","0.3088596379","","","","","","","75","K","2","","","51","main_expt"
"34","","bandit","130","642007","0.0-91.0-0.0","48756483","wem/bandit_either","A2RVEG53L48BAE","either","7","","","","","","","0","0","1","0.3254324358","","0.4","0.8","0.6","0.2","","","","","0.3087204988","0.06506638851","0.3254324358","0.3060924957","","","","","","","75","K","2","","","52","main_expt"
"386","","bandit","131","643920","0.0-92.0-0.0","48756483","wem/bandit_either","A2RVEG53L48BAE","either","7","","","","","","","0","0","1","0.2952150256","","0.4","0.8","0.6","0.2","","","","","0.2984188648","0.06562792832","0.2952150256","0.3229319808","","","","","","","75","K","2","","","53","main_expt"
"333","","bandit","132","645776","0.0-93.0-0.0","48756483","wem/bandit_either","A2RVEG53L48BAE","either","7","","","","","","","0","0","1","0.3353917468","","0.4","0.8","0.6","0.2","","","","","0.3353917468","0.04630081711","0.300320608","0.3280138586","","","","","","","72","H","0","img/none_selected.jpg","","54","main_expt"
"381","","bandit","133","647684","0.0-94.0-0.0","48756483","wem/bandit_either","A2RVEG53L48BAE","either","7","","","","","","","0","0","1","0.2985084879","","0.4","0.8","0.6","0.2","","","","","0.3259144651","0.03868373719","0.2985084879","0.2777260571","","","","","","","75","K","2","","","55","main_expt"
"36","","bandit","134","649247","0.0-95.0-0.0","48756483","wem/bandit_either","A2RVEG53L48BAE","either","7","","","","","","","0","0","1","","0.1791004868","0.4","0.8","0.6","0.2","0.3259049121","0.06235362297","0.2607009345","0.1791004868","","","","","","","","","","","76","L","3","","","56","main_expt"
"148","","bandit","135","650919","0.0-96.0-0.0","48756483","wem/bandit_either","A2RVEG53L48BAE","either","7","","","","","","","0","0","1","","0.3687904078","0.4","0.8","0.6","0.2","0.3687904078","0.04639461243","0.2565854794","0.2182265394","","","","","","","","","","","72","H","0","img/none_selected.jpg","","57","main_expt"
"89","","bandit","136","652535","0.0-97.0-0.0","48756483","wem/bandit_either","A2RVEG53L48BAE","either","7","","","","","","","0","0","1","0.2970860181","","0.4","0.8","0.6","0.2","","","","","0.3422038875","0.08954448139","0.319121847","0.2970860181","","","","","","","76","L","3","","","58","main_expt"
"67","","bandit","137","654126","0.0-98.0-0.0","48756483","wem/bandit_either","A2RVEG53L48BAE","either","7","","","","","","","0","0","1","","0.3771421139","0.4","0.8","0.6","0.2","0.3771421139","0.07390342289","0.3269923399","0.3249685468","","","","","","","","","","","72","H","0","img/none_selected.jpg","","59","main_expt"
"143","","bandit","138","655794","0.0-99.0-0.0","48756483","wem/bandit_either","A2RVEG53L48BAE","either","7","","","","","","","1","0","0","0.3150968823","","0.4","0.8","0.6","0.2","","","","","0.3620124399","0.05801548519","0.3150968823","0.2931470039","","","","","","","75","K","2","","","60","main_expt"
"344","","bandit","139","657664","0.0-100.0-0.0","48756483","wem/bandit_either","A2RVEG53L48BAE","either","7","","","","","","","1","0","0","0.3958116198","","0.4","0.8","0.6","0.2","","","","","0.3958116198","0.07333263924","0.324539239","0.2646536279","","","","","","","72","H","0","img/none_selected.jpg","","61","main_expt"
"216","","bandit","140","659407","0.0-101.0-0.0","48756483","wem/bandit_either","A2RVEG53L48BAE","either","7","","","","","","","0","0","1","","0.3066306166","0.4","0.8","0.6","0.2","0.3615218546","0.07563430262","0.3066306166","0.242461968","","","","","","","","","","","75","K","2","","","62","main_expt"
"223","","bandit","141","661157","0.0-102.0-0.0","48756483","wem/bandit_either","A2RVEG53L48BAE","either","7","","","","","","","0","0","1","","0.3574266064","0.4","0.8","0.6","0.2","0.3574266064","0.06826526778","0.3068900116","0.2206683029","","","","","","","","","","","72","H","0","img/none_selected.jpg","","63","main_expt"
"279","","bandit","142","662963","0.0-103.0-0.0","48756483","wem/bandit_either","A2RVEG53L48BAE","either","7","","","","","","","0","1","0","","0.2936494982","0.4","0.8","0.6","0.2","0.3541915859","0.1175271989","0.2936494982","0.2288959862","","","","","","","","","","","75","K","2","","","64","main_expt"
"55","","bandit","143","664543","0.0-104.0-0.0","48756483","wem/bandit_either","A2RVEG53L48BAE","either","7","","","","","","","1","0","0","0.3339820985","","0.4","0.8","0.6","0.2","","","","","0.3339820985","0.1273865191","0.290236101","0.2346523549","","","","","","","72","H","0","img/none_selected.jpg","","65","main_expt"
"176","","bandit","144","666246","0.0-105.0-0.0","48756483","wem/bandit_either","A2RVEG53L48BAE","either","7","","","","","","","0","1","0","","0.3195467083","0.4","0.8","0.6","0.2","0.3195467083","0.09075088943","0.2512036594","0.1881688105","","","","","","","","","","","72","H","0","img/none_selected.jpg","","66","main_expt"
"374","","bandit","145","668152","0.0-106.0-0.0","48756483","wem/bandit_either","A2RVEG53L48BAE","either","7","","","","","","","0","1","0","","0.263747572","0.4","0.8","0.6","0.2","0.3477383846","0.08077075725","0.263747572","0.231043846","","","","","","","","","","","75","K","2","","","67","main_expt"
"125","","bandit","146","669808","0.0-107.0-0.0","48756483","wem/bandit_either","A2RVEG53L48BAE","either","7","","","","","","","0","0","1","0.08810311296","","0.4","0.8","0.6","0.2","","","","","0.3365352069","0.08810311296","0.2892519303","0.2576664243","","","","","","","74","J","1","","","68","main_expt"
"173","","bandit","147","671516","0.0-108.0-0.0","48756483","wem/bandit_either","A2RVEG53L48BAE","either","7","","","","","","","0","0","1","0.2183283259","","0.4","0.8","0.6","0.2","","","","","0.3148812039","0.1260156682","0.2383664846","0.2183283259","","","","","","","76","L","3","","","69","main_expt"
"415","","bandit","148","673460","0.0-109.0-0.0","48756483","wem/bandit_either","A2RVEG53L48BAE","either","7","","","","","","","0","0","1","0.2497111545","","0.4","0.8","0.6","0.2","","","","","0.3154014692","0.08773951932","0.2497111545","0.2260484764","","","","","","","75","K","2","","","70","main_expt"
"212","","bandit","149","675201","0.0-110.0-0.0","48756483","wem/bandit_either","A2RVEG53L48BAE","either","7","","","","","","","0","0","1","0.219815459","","0.4","0.8","0.6","0.2","","","","","0.219815459","0.1154304285","0.2095843002","0.3196469567","","","","","","","72","H","0","img/none_selected.jpg","","71","main_expt"
"102","","bandit","150","676828","0.0-111.0-0.0","48756483","wem/bandit_either","A2RVEG53L48BAE","either","7","","","","","","","0","0","1","","0.1972488467","0.4","0.8","0.6","0.2","0.2623730272","0.10097247","0.1972488467","0.3644141189","","","","","","","","","","","75","K","2","","","72","main_expt"
"83","","bandit","151","678438","0.0-112.0-0.0","48756483","wem/bandit_either","A2RVEG53L48BAE","either","7","","","","","","","0","1","0","","0.2639805735","0.4","0.8","0.6","0.2","0.2639805735","0.0746930591","0.15494396","0.4081842109","","","","","","","","","","","72","H","0","img/none_selected.jpg","","73","main_expt"
"216","","bandit","152","680180","0.0-113.0-0.0","48756483","wem/bandit_either","A2RVEG53L48BAE","either","7","","","","","","","1","0","0","0.2770925356","","0.4","0.8","0.6","0.2","","","","","0.2770925356","0.1124392477","0.1324790415","0.4506698749","","","","","","","72","H","0","img/none_selected.jpg","","74","main_expt"
"316","","bandit","153","682023","0.0-114.0-0.0","48756483","wem/bandit_either","A2RVEG53L48BAE","either","7","","","","","","","0","0","1","","0.2796652475","0.4","0.8","0.6","0.2","0.2796652475","0.113494578","0.179195356","0.454520075","","","","","","","","","","","72","H","0","img/none_selected.jpg","","75","main_expt"
"44","","bandit","154","683596","0.0-115.0-0.0","48756483","wem/bandit_either","A2RVEG53L48BAE","either","7","","","","","","","1","0","0","0.215808919","","0.4","0.8","0.6","0.2","","","","","0.3153427244","0.1469344428","0.215808919","0.466199952","","","","","","","75","K","2","","","76","main_expt"
"346","","bandit","155","685472","0.0-116.0-0.0","48756483","wem/bandit_either","A2RVEG53L48BAE","either","7","","","","","","","0","0","1","0.2312347408","","0.4","0.8","0.6","0.2","","","","","0.3676911864","0.2152215887","0.2312347408","0.4402141775","","","","","","","75","K","2","","","77","main_expt"
"272","","bandit","156","687269","0.0-117.0-0.0","48756483","wem/bandit_either","A2RVEG53L48BAE","either","7","","","","","","","1","0","0","0.3434277392","","0.4","0.8","0.6","0.2","","","","","0.3434277392","0.2055177618","0.2197025874","0.4525957793","","","","","","","72","H","0","img/none_selected.jpg","","78","main_expt"
"217","","bandit","157","689015","0.0-118.0-0.0","48756483","wem/bandit_either","A2RVEG53L48BAE","either","7","","","","","","","1","0","0","0.222262525","","0.4","0.8","0.6","0.2","","","","","0.3758616161","0.222262525","0.2227420924","0.4630799716","","","","","","","74","J","1","","","79","main_expt"
"389","","bandit","158","690929","0.0-119.0-0.0","48756483","wem/bandit_either","A2RVEG53L48BAE","either","7","","","","","","","1","0","0","0.2700860438","","0.4","0.8","0.6","0.2","","","","","0.3862393514","0.2700860438","0.2283057493","0.423693353","","","","","","","74","J","1","","","80","main_expt"
"318","","bandit","159","692777","0.0-120.0-0.0","48756483","wem/bandit_either","A2RVEG53L48BAE","either","7","","","","","","","0","0","1","0.2642688004","","0.4","0.8","0.6","0.2","","","","","0.3593770893","0.2642688004","0.2721525977","0.4319112677","","","","","","","74","J","1","","","81","main_expt"
"272","","bandit","160","694577","0.0-121.0-0.0","48756483","wem/bandit_either","A2RVEG53L48BAE","either","7","","","","","","","0","0","1","0.2824164754","","0.4","0.8","0.6","0.2","","","","","0.4035110645","0.2824164754","0.2850237184","0.441827487","","","","","","","74","J","1","","","82","main_expt"
"237","","bandit","161","696356","0.0-122.0-0.0","48756483","wem/bandit_either","A2RVEG53L48BAE","either","7","","","","","","","0","0","1","","0.4288861504","0.4","0.8","0.6","0.2","0.3719627038","0.2819095575","0.3236436683","0.4288861504","","","","","","","","","","","76","L","3","","","83","main_expt"
"132","","bandit","162","698014","0.0-123.0-0.0","48756483","wem/bandit_either","A2RVEG53L48BAE","either","7","","","","","","","0","0","1","0.2589745902","","0.4","0.8","0.6","0.2","","","","","0.3349288927","0.2589745902","0.3339638593","0.4350385517","","","","","","","74","J","1","","","84","main_expt"
"404","","bandit","163","699944","0.0-124.0-0.0","48756483","wem/bandit_either","A2RVEG53L48BAE","either","7","","","","","","","0","0","1","","0.3626504113","0.4","0.8","0.6","0.2","0.3247899262","0.3626504113","0.3795022601","0.4255505645","","","","","","","","","","","74","J","1","","","85","main_expt"
"293","","bandit","164","701763","0.0-125.0-0.0","48756483","wem/bandit_either","A2RVEG53L48BAE","either","7","","","","","","","0","1","0","","0.4330938692","0.4","0.8","0.6","0.2","0.3443557019","0.3598915268","0.3835523064","0.4330938692","","","","","","","","","","","76","L","3","","","86","main_expt"
"183","","bandit","165","703474","0.0-126.0-0.0","48756483","wem/bandit_either","A2RVEG53L48BAE","either","7","","","","","","","0","1","0","","0.3433052933","0.4","0.8","0.6","0.2","0.3648776167","0.3433052933","0.3772514457","0.4548398529","","","","","","","","","","","74","J","1","","","87","main_expt"
"504","","bandit","166","705503","0.0-127.0-0.0","48756483","wem/bandit_either","A2RVEG53L48BAE","either","7","","","","","","","1","0","0","0.3766830519","","0.4","0.8","0.6","0.2","","","","","0.3609631839","0.4022938878","0.3766830519","0.4493124031","","","","","","","75","K","2","","","88","main_expt"
"359","","bandit","167","707388","0.0-128.0-0.0","48756483","wem/bandit_either","A2RVEG53L48BAE","either","7","","","","","","","0","0","1","0.3636167192","","0.4","0.8","0.6","0.2","","","","","0.3636167192","0.4141493151","0.3537755119","0.4161110063","","","","","","","72","H","0","img/none_selected.jpg","","89","main_expt"
"5","","bandit","168","708922","0.0-129.0-0.0","48756483","wem/bandit_either","A2RVEG53L48BAE","either","7","","","","","","","0","0","1","0.3014761449","","0.4","0.8","0.6","0.2","","","","","0.3563441379","0.4136124289","0.3014761449","0.405260856","","","","","","","75","K","2","","","90","main_expt"
"151","","bandit","169","710600","0.0-130.0-0.0","48756483","wem/bandit_either","A2RVEG53L48BAE","either","7","","","","","","","0","1","0","","0.3389138503","0.4","0.8","0.6","0.2","0.3389138503","0.4184852842","0.2694038268","0.3827048226","","","","","","","","","","","72","H","0","img/none_selected.jpg","","91","main_expt"
"412","","bandit","170","712538","0.0-131.0-0.0","48756483","wem/bandit_either","A2RVEG53L48BAE","either","7","","","","","","","0","0","1","","0.4456808576","0.4","0.8","0.6","0.2","0.3263360165","0.4456808576","0.2651536323","0.3552182969","","","","","","","","","","","74","J","1","","","92","main_expt"
"362","","bandit","171","714433","0.0-132.0-0.0","48756483","wem/bandit_either","A2RVEG53L48BAE","either","7","","","","","","","0","0","1","0.4355219805","","0.4","0.8","0.6","0.2","","","","","0.2844131911","0.4355219805","0.1997208586","0.3286897504","","","","","","","74","J","1","","","93","main_expt"
"118","","bandit","172","716083","0.0-133.0-0.0","48756483","wem/bandit_either","A2RVEG53L48BAE","either","7","","","","","","","1","0","0","0.4609821192","","0.4","0.8","0.6","0.2","","","","","0.2978465223","0.4609821192","0.2442555344","0.3422490236","","","","","","","74","J","1","","","94","main_expt"
"206","","bandit","173","717819","0.0-134.0-0.0","48756483","wem/bandit_either","A2RVEG53L48BAE","either","7","","","","","","","0","0","1","","0.3160161054","0.4","0.8","0.6","0.2","0.2638723705","0.4419374505","0.2638839348","0.3160161054","","","","","","","","","","","76","L","3","","","95","main_expt"
"174","","bandit","174","719522","0.0-135.0-0.0","48756483","wem/bandit_either","A2RVEG53L48BAE","either","7","","","","","","","1","0","0","0.39438674","","0.4","0.8","0.6","0.2","","","","","0.2276010735","0.39438674","0.2265245807","0.2945538732","","","","","","","74","J","1","","","96","main_expt"
"417","","bandit","175","721470","0.0-136.0-0.0","48756483","wem/bandit_either","A2RVEG53L48BAE","either","7","","","","","","","1","0","0","0.3617668419","","0.4","0.8","0.6","0.2","","","","","0.2045446072","0.3617668419","0.1969189177","0.393563827","","","","","","","74","J","1","","","97","main_expt"
"130","","bandit","176","723128","0.0-137.0-0.0","48756483","wem/bandit_either","A2RVEG53L48BAE","either","7","","","","","","","0","0","1","","0.1761144245","0.4","0.8","0.6","0.2","0.2436418828","0.3737913853","0.1761144245","0.4046254927","","","","","","","","","","","75","K","2","","","98","main_expt"
"140","","bandit","177","724797","0.0-138.0-0.0","48756483","wem/bandit_either","A2RVEG53L48BAE","either","7","","","","","","","0","0","1","0.3659012549","","0.4","0.8","0.6","0.2","","","","","0.2473144087","0.4221129479","0.1211630765","0.3659012549","","","","","","","76","L","3","","","99","main_expt"
"133","","bandit","178","726456","0.0-139.0-0.0","48756483","wem/bandit_either","A2RVEG53L48BAE","either","7","","","","","","","1","0","0","0.3857893684","","0.4","0.8","0.6","0.2","","","","","0.2707360286","0.3857893684","0.1257326749","0.400368336","","","","","","","74","J","1","","","100","main_expt"
"365","","bandit","179","728346","0.0-140.0-0.0","48756483","wem/bandit_either","A2RVEG53L48BAE","either","7","","","","","","","0","0","1","0.3250409822","","0.4","0.8","0.6","0.2","","","","","0.3250409822","0.3635527264","0.09975532208","0.4367931528","","","","","","","72","H","0","img/none_selected.jpg","","101","main_expt"
"336","","bandit","180","730212","0.0-141.0-0.0","48756483","wem/bandit_either","A2RVEG53L48BAE","either","7","","","","","","","0","0","1","0.3738375489","","0.4","0.8","0.6","0.2","","","","","0.3088580598","0.3738375489","0.1127414424","0.4371155326","","","","","","","74","J","1","","","102","main_expt"
"243","","bandit","181","731980","0.0-142.0-0.0","48756483","wem/bandit_either","A2RVEG53L48BAE","either","7","","","","","","","0","0","1","","0.1232600734","0.4","0.8","0.6","0.2","0.2901001995","0.3860163181","0.1232600734","0.388648264","","","","","","","","","","","75","K","2","","","103","main_expt"
"146","","bandit","182","733656","0.0-143.0-0.0","48756483","wem/bandit_either","A2RVEG53L48BAE","either","7","","","","","","","0","0","1","0.3718469433","","0.4","0.8","0.6","0.2","","","","","0.309645936","0.390692362","0.08156843846","0.3718469433","","","","","","","76","L","3","","","104","main_expt"
"334","","bandit","183","735514","0.0-144.0-0.0","48756483","wem/bandit_either","A2RVEG53L48BAE","either","7","","","","","","","0","0","1","0.4139082553","","0.4","0.8","0.6","0.2","","","","","0.3386062745","0.4139082553","0.08245659199","0.3920304628","","","","","","","74","J","1","","","105","main_expt"
"283","","bandit","184","737323","0.0-145.0-0.0","48756483","wem/bandit_either","A2RVEG53L48BAE","either","7","","","","","","","0","0","1","0.3733497125","","0.4","0.8","0.6","0.2","","","","","0.3827539061","0.3295275825","0.1276639339","0.3733497125","","","","","","","76","L","3","","","106","main_expt"
"244","","bandit","185","739096","0.0-146.0-0.0","48756483","wem/bandit_either","A2RVEG53L48BAE","either","7","","","","","","","1","0","0","0.3499712774","","0.4","0.8","0.6","0.2","","","","","0.3401355396","0.3499712774","0.1812689745","0.3878439861","","","","","","","74","J","1","","","107","main_expt"
"199","","bandit","186","740827","0.0-147.0-0.0","48756483","wem/bandit_either","A2RVEG53L48BAE","either","7","","","","","","","0","0","1","","0.2187982558","0.4","0.8","0.6","0.2","0.3258039352","0.2666891207","0.2187982558","0.3529013302","","","","","","","","","","","75","K","2","","","108","main_expt"
"523","","bandit","187","742877","0.0-148.0-0.0","48756483","wem/bandit_either","A2RVEG53L48BAE","either","7","","","","","","","1","0","0","0.2575067634","","0.4","0.8","0.6","0.2","","","","","0.374919859","0.2575067634","0.2201216928","0.3457683734","","","","","","","74","J","1","","","109","main_expt"
"333","","bandit","188","744740","0.0-149.0-0.0","48756483","wem/bandit_either","A2RVEG53L48BAE","either","7","","","","","","","0","0","1","0.1789817232","","0.4","0.8","0.6","0.2","","","","","0.3656186065","0.2664913793","0.1789817232","0.3316873257","","","","","","","75","K","2","","","110","main_expt"
"226","","bandit","189","746495","0.0-150.0-0.0","48756483","wem/bandit_either","A2RVEG53L48BAE","either","7","","","","","","","0","0","1","0.2233446911","","0.4","0.8","0.6","0.2","","","","","0.3649701027","0.2233446911","0.2404947452","0.3434945318","","","","","","","74","J","1","","","111","main_expt"
"29","","bandit","190","748053","0.0-151.0-0.0","48756483","wem/bandit_either","A2RVEG53L48BAE","either","7","","","","","","","0","1","0","","0.2729480053","0.4","0.8","0.6","0.2","0.3371716456","0.2170082082","0.2959558532","0.2729480053","","","","","","","","","","","76","L","3","","","112","main_expt"
"212","","bandit","191","749792","0.0-152.0-0.0","48756483","wem/bandit_either","A2RVEG53L48BAE","either","7","","","","","","","0","0","1","0.1912277411","","0.4","0.8","0.6","0.2","","","","","0.2587224119","0.1912277411","0.2966985553","0.2579672073","","","","","","","74","J","1","","","113","main_expt"
"259","","bandit","192","751579","0.0-153.0-0.0","48756483","wem/bandit_either","A2RVEG53L48BAE","either","7","","","","","","","0","0","1","0.1691995451","","0.4","0.8","0.6","0.2","","","","","0.2384324947","0.1691995451","0.3289730608","0.24654084","","","","","","","74","J","1","","","114","main_expt"
"183","","bandit","193","753290","0.0-154.0-0.0","48756483","wem/bandit_either","A2RVEG53L48BAE","either","7","","","","","","","0","0","1","","0.2705755989","0.4","0.8","0.6","0.2","0.2705755989","0.1263730162","0.2783705844","0.246649757","","","","","","","","","","","72","H","0","img/none_selected.jpg","","115","main_expt"
"442","","bandit","194","755263","0.0-155.0-0.0","48756483","wem/bandit_either","A2RVEG53L48BAE","either","7","","","","","","","1","0","0","0.2990421824","","0.4","0.8","0.6","0.2","","","","","0.2666822","0.1130092975","0.2990421824","0.2190482835","","","","","","","75","K","2","","","116","main_expt"
"87","","bandit","195","756880","0.0-156.0-0.0","48756483","wem/bandit_either","A2RVEG53L48BAE","either","7","","","","","","","0","0","1","0.1317362661","","0.4","0.8","0.6","0.2","","","","","0.2664749026","0.1317362661","0.3214730448","0.1860086181","","","","","","","74","J","1","","","117","main_expt"
"391","","bandit","196","758803","0.0-157.0-0.0","48756483","wem/bandit_either","A2RVEG53L48BAE","either","7","","","","","","","0","0","1","0.3996160597","","0.4","0.8","0.6","0.2","","","","","0.285497096","0.08460291254","0.3996160597","0.1765749983","","","","","","","75","K","2","","","118","main_expt"
"10","","bandit","197","760341","0.0-158.0-0.0","48756483","wem/bandit_either","A2RVEG53L48BAE","either","7","","","","","","","0","0","1","0.4143362638","","0.4","0.8","0.6","0.2","","","","","0.3004427434","0.09168363065","0.4143362638","0.1840588368","","","","","","","75","K","2","","","119","main_expt"
"1414","","bandit","198","763282","0.0-159.0-0.0","48756483","wem/bandit_either","A2RVEG53L48BAE","either","7","","","","","","","0","0","1","","0.372340151","0.4","0.8","0.6","0.2","0.2419855731","0.06729372802","0.372340151","0.1988357929","","","","","","","","","","","75","K","2","","","120","main_expt"
"215","","bandit","199","765024","0.0-160.0-0.0","48756483","wem/bandit_either","A2RVEG53L48BAE","either","7","","","","","","","0","0","1","","0.2315674","0.4","0.8","0.6","0.2","0.3054132847","0.08346408207","0.3910424524","0.2315674","","","","","","","","","","","76","L","3","","","121","main_expt"
"210","","bandit","200","766760","0.0-161.0-0.0","48756483","wem/bandit_either","A2RVEG53L48BAE","either","7","","","","","","","0","0","1","0.05632743158","","0.4","0.8","0.6","0.2","","","","","0.2473202095","0.05632743158","0.3813410711","0.2041322171","","","","","","","74","J","1","","","122","main_expt"
"421","","bandit","201","768709","0.0-162.0-0.0","48756483","wem/bandit_either","A2RVEG53L48BAE","either","7","","","","","","","0","0","1","0.05516745574","","0.4","0.8","0.6","0.2","","","","","0.2909195989","0.05516745574","0.4247291795","0.1945268209","","","","","","","74","J","1","","","123","main_expt"
"189","","bandit","202","770433","0.0-163.0-0.0","48756483","wem/bandit_either","A2RVEG53L48BAE","either","7","","","","","","","0","1","0","","0.3493750294","0.4","0.8","0.6","0.2","0.3493750294","0.05528311039","0.4311179713","0.2206749142","","","","","","","","","","","72","H","0","img/none_selected.jpg","","124","main_expt"
"247","","bandit","203","772210","0.0-164.0-0.0","48756483","wem/bandit_either","A2RVEG53L48BAE","either","7","","","","","","","0","0","1","0.07149807259","","0.4","0.8","0.6","0.2","","","","","0.3883668019","0.07149807259","0.4085782939","0.212012295","","","","","","","74","J","1","","","125","main_expt"
"349","","bandit","204","774085","0.0-165.0-0.0","48756483","wem/bandit_either","A2RVEG53L48BAE","either","7","","","","","","","0","0","1","","0.1137803622","0.4","0.8","0.6","0.2","0.3888129637","0.1137803622","0.4110861309","0.1656684785","","","","","","","","","","","74","J","1","","","126","main_expt"
"149","","bandit","205","775767","0.0-166.0-0.0","48756483","wem/bandit_either","A2RVEG53L48BAE","either","7","","","","","","","0","1","0","","0.1685301808","0.4","0.8","0.6","0.2","0.3659195129","0.1003054442","0.4214671818","0.1685301808","","","","","","","","","","","76","L","3","","","127","main_expt"
"196","","bandit","206","777494","0.0-167.0-0.0","48756483","wem/bandit_either","A2RVEG53L48BAE","either","7","","","","","","","0","0","1","0.1378169536","","0.4","0.8","0.6","0.2","","","","","0.3689954399","0.1378169536","0.36889317","0.1703551811","","","","","","","74","J","1","","","128","main_expt"
"149","","bandit","207","779176","0.0-168.0-0.0","48756483","wem/bandit_either","A2RVEG53L48BAE","either","7","","","","","","","1","0","0","0.3840267129","","0.4","0.8","0.6","0.2","","","","","0.3600340942","0.1333081235","0.3840267129","0.1624753709","","","","","","","75","K","2","","","129","main_expt"
"262","","bandit","208","780970","0.0-169.0-0.0","48756483","wem/bandit_either","A2RVEG53L48BAE","either","7","","","","","","","0","1","0","","0.3809677701","0.4","0.8","0.6","0.2","0.3580797835","0.1682212827","0.3809677701","0.2335662737","","","","","","","","","","","75","K","2","","","130","main_expt"
"269","","bandit","209","782766","0.0-170.0-0.0","48756483","wem/bandit_either","A2RVEG53L48BAE","either","7","","","","","","","0","0","1","","0.2193829955","0.4","0.8","0.6","0.2","0.3785893338","0.2193829955","0.3681933818","0.240441026","","","","","","","","","","","74","J","1","","","131","main_expt"
"209","","bandit","210","784506","0.0-171.0-0.0","48756483","wem/bandit_either","A2RVEG53L48BAE","either","7","","","","","","","0","0","1","0.3664045944","","0.4","0.8","0.6","0.2","","","","","0.3764735404","0.2693349046","0.3664045944","0.2266699971","","","","","","","75","K","2","","","132","main_expt"
"612","","bandit","211","786652","0.0-172.0-0.0","48756483","wem/bandit_either","A2RVEG53L48BAE","either","7","","","","","","","1","0","0","0.2576546077","","0.4","0.8","0.6","0.2","","","","","0.3433534211","0.2576546077","0.4046437197","0.1994193025","","","","","","","74","J","1","","","133","main_expt"
"294","","bandit","212","788475","0.0-173.0-0.0","48756483","wem/bandit_either","A2RVEG53L48BAE","either","7","","","","","","","0","0","1","","0.1891464922","0.4","0.8","0.6","0.2","0.3606247271","0.2412372273","0.364490756","0.1891464922","","","","","","","","","","","76","L","3","","","134","main_expt"
"116","","bandit","213","790124","0.0-174.0-0.0","48756483","wem/bandit_either","A2RVEG53L48BAE","either","7","","","","","","","0","0","1","","0.2198641054","0.4","0.8","0.6","0.2","0.3268624306","0.2198641054","0.311914316","0.1614798668","","","","","","","","","","","74","J","1","","","135","main_expt"
"1862","","bandit","214","793517","0.0-175.0-0.0","48756483","wem/bandit_either","A2RVEG53L48BAE","either","7","","","","","","","0","0","1","0.2854606769","","0.4","0.8","0.6","0.2","","","","","0.2854606769","0.2504132697","0.2653901568","0.1880386222","","","","","","","72","H","0","img/none_selected.jpg","","136","main_expt"
"813","","bandit","215","795860","0.0-176.0-0.0","48756483","wem/bandit_either","A2RVEG53L48BAE","either","7","","","","","","","0","0","1","0.1912230989","","0.4","0.8","0.6","0.2","","","","","0.3311747399","0.1912230989","0.2413295316","0.1961818793","","","","","","","74","J","1","","","137","main_expt"
"7","","bandit","216","797395","0.0-177.0-0.0","48756483","wem/bandit_either","A2RVEG53L48BAE","either","7","","","","","","","0","0","1","0.2060295423","","0.4","0.8","0.6","0.2","","","","","0.2570785188","0.1576256809","0.2060295423","0.2857678963","","","","","","","75","K","2","","","138","main_expt"
"238","","bandit","217","799159","0.0-178.0-0.0","48756483","wem/bandit_either","A2RVEG53L48BAE","either","7","","","","","","","1","0","0","0.1019788138","","0.4","0.8","0.6","0.2","","","","","0.2858060749","0.1019788138","0.1809645164","0.3449131854","","","","","","","74","J","1","","","139","main_expt"
"816","","bandit","218","801506","0.0-179.0-0.0","48756483","wem/bandit_either","A2RVEG53L48BAE","either","7","","","","","","","0","0","1","0.07754087054","","0.4","0.8","0.6","0.2","","","","","0.2975559752","0.07754087054","0.1843216893","0.2537716732","","","","","","","74","J","1","","","140","main_expt"
"602","","bandit","219","803645","0.0-180.0-0.0","48756483","wem/bandit_either","A2RVEG53L48BAE","either","7","","","","","","","0","0","1","0.09489610577","","0.4","0.8","0.6","0.2","","","","","0.2802168405","0.09489610577","0.1651876155","0.2858111263","","","","","","","74","J","1","","","141","main_expt"
"378","","bandit","220","805555","0.0-181.0-0.0","48756483","wem/bandit_either","A2RVEG53L48BAE","either","7","","","","","","","0","0","1","","0.1536427928","0.4","0.8","0.6","0.2","0.2231986748","0.09601428546","0.1536427928","0.303049367","","","","","","","","","","","75","K","2","","","142","main_expt"
"387","","bandit","221","807469","0.0-182.0-0.0","48756483","wem/bandit_either","A2RVEG53L48BAE","either","7","","","","","","","0","0","1","0.2969419413","","0.4","0.8","0.6","0.2","","","","","0.2032880393","0.08301142993","0.1546140226","0.2969419413","","","","","","","76","L","3","","","143","main_expt"
"327","","bandit","222","809331","0.0-183.0-0.0","48756483","wem/bandit_either","A2RVEG53L48BAE","either","7","","","","","","","0","0","1","0.09599686985","","0.4","0.8","0.6","0.2","","","","","0.1967741464","0.09599686985","0.1746031107","0.3128690494","","","","","","","74","J","1","","","144","main_expt"
"909","","bandit","223","811773","0.0-184.0-0.0","48756483","wem/bandit_either","A2RVEG53L48BAE","either","7","","","","","","","0","0","1","0.2283154954","","0.4","0.8","0.6","0.2","","","","","0.2283154954","0.07499383622","0.2021387556","0.2991796355","","","","","","","72","H","0","img/none_selected.jpg","","145","main_expt"
"352","","bandit","224","813655","0.0-185.0-0.0","48756483","wem/bandit_either","A2RVEG53L48BAE","either","7","","","","","","","0","0","1","0.09566861","","0.4","0.8","0.6","0.2","","","","","0.2118700154","0.09566861","0.2504344391","0.3163763193","","","","","","","74","J","1","","","146","main_expt"
"336","","bandit","225","815522","0.0-186.0-0.0","48756483","wem/bandit_either","A2RVEG53L48BAE","either","7","","","","","","","0","0","1","0.08578591382","","0.4","0.8","0.6","0.2","","","","","0.210437557","0.08578591382","0.2437718569","0.3198025905","","","","","","","74","J","1","","","147","main_expt"
"277","","bandit","226","817333","0.0-187.0-0.0","48756483","wem/bandit_either","A2RVEG53L48BAE","either","7","","","","","","","0","0","1","0.1147887709","","0.4","0.8","0.6","0.2","","","","","0.2370661354","0.1147887709","0.2446677265","0.2588245921","","","","","","","74","J","1","","","148","main_expt"
"334","","bandit","227","819203","0.0-188.0-0.0","48756483","wem/bandit_either","A2RVEG53L48BAE","either","7","","","","","","","0","1","0","","0.248712437","0.4","0.8","0.6","0.2","0.2430363771","0.1378203382","0.2911002833","0.248712437","","","","","","","","","","","76","L","3","","","149","main_expt"
"144","","bandit","228","820875","0.0-189.0-0.0","48756483","wem/bandit_either","A2RVEG53L48BAE","either","7","","","","","","","0","0","1","0.1414499273","","0.4","0.8","0.6","0.2","","","","","0.2242182381","0.1414499273","0.3529655025","0.179144869","","","","","","","74","J","1","","","150","main_expt"
"185","","bandit","229","822592","0.0-190.0-0.0","48756483","wem/bandit_either","A2RVEG53L48BAE","either","7","","","","","","","1","0","0","0.3885741111","","0.4","0.8","0.6","0.2","","","","","0.1997145133","0.07852348772","0.3885741111","0.1545669956","","","","","","","75","K","2","","","151","main_expt"
"403","","bandit","230","824521","0.0-191.0-0.0","48756483","wem/bandit_either","A2RVEG53L48BAE","either","7","","","","","","","0","0","1","0.08485793113","","0.4","0.8","0.6","0.2","","","","","0.2195927633","0.08485793113","0.3690499696","0.1651714415","","","","","","","74","J","1","","","152","main_expt"
"205","","bandit","231","826251","0.0-192.0-0.0","48756483","wem/bandit_either","A2RVEG53L48BAE","either","7","","","","","","","0","0","1","","0.1083789561","0.4","0.8","0.6","0.2","0.2121816628","0.1083789561","0.3710492515","0.2396245514","","","","","","","","","","","74","J","1","","","153","main_expt"
"11","","bandit","232","827793","0.0-193.0-0.0","48756483","wem/bandit_either","A2RVEG53L48BAE","either","7","","","","","","","1","0","0","0.3483335413","","0.4","0.8","0.6","0.2","","","","","0.1830588608","0.109098481","0.3483335413","0.2085838567","","","","","","","75","K","2","","","154","main_expt"
"626","","bandit","233","829950","0.0-194.0-0.0","48756483","wem/bandit_either","A2RVEG53L48BAE","either","7","","","","","","","0","0","1","","0.3343760247","0.4","0.8","0.6","0.2","0.2031423662","0.1758262092","0.3343760247","0.1864274254","","","","","","","","","","","75","K","2","","","155","main_expt"
"379","","bandit","234","831859","0.0-195.0-0.0","48756483","wem/bandit_either","A2RVEG53L48BAE","either","7","","","","","","","1","0","0","0.3742013553","","0.4","0.8","0.6","0.2","","","","","0.2022731065","0.2046597001","0.3742013553","0.1750870897","","","","","","","75","K","2","","","156","main_expt"
"227","","bandit","235","833618","0.0-196.0-0.0","48756483","wem/bandit_either","A2RVEG53L48BAE","either","7","","","","","","","0","0","1","0.1774751899","","0.4","0.8","0.6","0.2","","","","","0.1826661219","0.1774751899","0.3620366094","0.1321985386","","","","","","","74","J","1","","","157","main_expt"
"201","","bandit","236","835360","0.0-197.0-0.0","48756483","wem/bandit_either","A2RVEG53L48BAE","either","7","","","","","","","0","0","1","","0.1658993888","0.4","0.8","0.6","0.2","0.1658993888","0.1612033886","0.3671714071","0.1341899746","","","","","","","","","","","72","H","0","img/none_selected.jpg","","158","main_expt"
"176","","bandit","237","837071","0.0-198.0-0.0","48756483","wem/bandit_either","A2RVEG53L48BAE","either","7","","","","","","","1","0","0","0.4015988616","","0.4","0.8","0.6","0.2","","","","","0.1620079643","0.1586838935","0.4015988616","0.1567784951","","","","","","","75","K","2","","","159","main_expt"
"330","","bandit","238","838929","0.0-199.0-0.0","48756483","wem/bandit_either","A2RVEG53L48BAE","either","7","","","","","","","0","0","1","0.2159944071","","0.4","0.8","0.6","0.2","","","","","0.2453635642","0.2159944071","0.4004877553","0.1615549635","","","","","","","74","J","1","","","160","main_expt"
"410","","bandit","239","840869","0.0-200.0-0.0","48756483","wem/bandit_either","A2RVEG53L48BAE","either","7","","","","","","","0","0","1","","0.2456373749","0.4","0.8","0.6","0.2","0.2456373749","0.2105769377","0.4095849454","0.1854631015","","","","","","","","","","","72","H","0","img/none_selected.jpg","","161","main_expt"
"164","","bandit","240","842565","0.0-201.0-0.0","48756483","wem/bandit_either","A2RVEG53L48BAE","either","7","","","","","","","0","0","1","0.3978002783","","0.4","0.8","0.6","0.2","","","","","0.2460125232","0.2006925765","0.3978002783","0.21229469","","","","","","","75","K","2","","","162","main_expt"
"272","","bandit","241","844369","0.0-202.0-0.0","48756483","wem/bandit_either","A2RVEG53L48BAE","either","7","","","","","","","0","0","1","","0.4180552148","0.4","0.8","0.6","0.2","0.2013568893","0.2365124807","0.4180552148","0.162194177","","","","","","","","","","","75","K","2","","","163","main_expt"
"285","","bandit","242","846184","0.0-203.0-0.0","48756483","wem/bandit_either","A2RVEG53L48BAE","either","7","","","","","","","0","0","1","","0.2157370886","0.4","0.8","0.6","0.2","0.1933595846","0.2157370886","0.4407560021","0.1535707797","","","","","","","","","","","74","J","1","","","164","main_expt"
"261","","bandit","243","847978","0.0-204.0-0.0","48756483","wem/bandit_either","A2RVEG53L48BAE","either","7","","","","","","","0","0","1","0.2166787898","","0.4","0.8","0.6","0.2","","","","","0.167552211","0.2166787898","0.4582960521","0.2315934193","","","","","","","74","J","1","","","165","main_expt"
"307","","bandit","244","849815","0.0-205.0-0.0","48756483","wem/bandit_either","A2RVEG53L48BAE","either","7","","","","","","","1","0","0","0.2579087381","","0.4","0.8","0.6","0.2","","","","","0.1311237951","0.1846262972","0.4337500892","0.2579087381","","","","","","","76","L","3","","","166","main_expt"
"233","","bandit","245","851579","0.0-206.0-0.0","48756483","wem/bandit_either","A2RVEG53L48BAE","either","7","","","","","","","0","0","1","","0.4537582576","0.4","0.8","0.6","0.2","0.1714029316","0.1888750078","0.4537582576","0.2496457694","","","","","","","","","","","75","K","2","","","167","main_expt"
"551","","bandit","246","853659","0.0-207.0-0.0","48756483","wem/bandit_either","A2RVEG53L48BAE","either","7","","","","","","","0","0","1","","0.1494402723","0.4","0.8","0.6","0.2","0.1494402723","0.2315683769","0.4473485534","0.234558796","","","","","","","","","","","72","H","0","img/none_selected.jpg","","168","main_expt"
"85","","bandit","247","855279","0.0-208.0-0.0","48756483","wem/bandit_either","A2RVEG53L48BAE","either","7","","","","","","","0","1","0","","0.2458600006","0.4","0.8","0.6","0.2","0.1819888556","0.2018123945","0.4471591033","0.2458600006","","","","","","","","","","","76","L","3","","","169","main_expt"
"260","","bandit","248","857074","0.0-209.0-0.0","48756483","wem/bandit_either","A2RVEG53L48BAE","either","7","","","","","","","0","0","1","0.139238222","","0.4","0.8","0.6","0.2","","","","","0.2329206984","0.139238222","0.4581839475","0.2214583157","","","","","","","74","J","1","","","170","main_expt"
"502","","bandit","249","859107","0.0-210.0-0.0","48756483","wem/bandit_either","A2RVEG53L48BAE","either","7","","","","","","","0","0","1","0.1466511374","","0.4","0.8","0.6","0.2","","","","","0.2000607923","0.1466511374","0.4674995421","0.296208115","","","","","","","74","J","1","","","171","main_expt"
"239","","bandit","250","860879","0.0-211.0-0.0","48756483","wem/bandit_either","A2RVEG53L48BAE","either","7","","","","","","","0","1","0","","0.4455620345","0.4","0.8","0.6","0.2","0.2342957318","0.1348290388","0.4455620345","0.3062379281","","","","","","","","","","","75","K","2","","","172","main_expt"
"172","","bandit","251","862581","0.0-212.0-0.0","48756483","wem/bandit_either","A2RVEG53L48BAE","either","7","","","","","","","0","0","1","","0.1521691919","0.4","0.8","0.6","0.2","0.2189308077","0.1521691919","0.4471610379","0.2498067723","","","","","","","","","","","74","J","1","","","173","main_expt"
"290","","bandit","252","864400","0.0-213.0-0.0","48756483","wem/bandit_either","A2RVEG53L48BAE","either","7","","","","","","","0","0","1","0.2373932689","","0.4","0.8","0.6","0.2","","","","","0.2373932689","0.2191935525","0.4496576915","0.1803522277","","","","","","","72","H","0","img/none_selected.jpg","","174","main_expt"
"194","","bandit","253","866128","0.0-214.0-0.0","48756483","wem/bandit_either","A2RVEG53L48BAE","either","7","","","","","","","0","0","1","","0.219961305","0.4","0.8","0.6","0.2","0.2160264752","0.219961305","0.4715297358","0.2014319342","","","","","","","","","","","74","J","1","","","175","main_expt"
"310","","bandit","254","867972","0.0-215.0-0.0","48756483","wem/bandit_either","A2RVEG53L48BAE","either","7","","","","","","","0","0","1","0.1882485239","","0.4","0.8","0.6","0.2","","","","","0.1990604306","0.1882485239","0.477956151","0.2122003168","","","","","","","74","J","1","","","176","main_expt"
"31","","bandit","255","869531","0.0-216.0-0.0","48756483","wem/bandit_either","A2RVEG53L48BAE","either","7","","","","","","","0","0","1","0.2629069455","","0.4","0.8","0.6","0.2","","","","","0.1729978196","0.1644902553","0.4563721206","0.2629069455","","","","","","","76","L","3","","","177","main_expt"
"35","","bandit","256","871096","0.0-217.0-0.0","48756483","wem/bandit_either","A2RVEG53L48BAE","either","7","","","","","","","0","0","1","0.4409869931","","0.4","0.8","0.6","0.2","","","","","0.1633080779","0.1713669852","0.4409869931","0.2336104206","","","","","","","75","K","2","","","178","main_expt"
"308","","bandit","257","872937","0.0-218.0-0.0","48756483","wem/bandit_either","A2RVEG53L48BAE","either","7","","","","","","","0","0","1","0.4243126063","","0.4","0.8","0.6","0.2","","","","","0.1243251356","0.2263400462","0.4243126063","0.1887504226","","","","","","","75","K","2","","","179","main_expt"
"260","","bandit","258","874728","0.0-219.0-0.0","48756483","wem/bandit_either","A2RVEG53L48BAE","either","7","","","","","","","0","0","1","","0.1150149055","0.4","0.8","0.6","0.2","0.1150149055","0.2036870175","0.4312830743","0.138376641","","","","","","","","","","","72","H","0","img/none_selected.jpg","","180","main_expt"
"392","","bandit","259","876648","0.0-220.0-0.0","48756483","wem/bandit_either","A2RVEG53L48BAE","either","7","","","","","","","0","0","1","","0.1934599198","0.4","0.8","0.6","0.2","0.1407924877","0.1934599198","0.4433127893","0.1883992559","","","","","","","","","","","74","J","1","","","181","main_expt"
"179","","bandit","260","878358","0.0-221.0-0.0","48756483","wem/bandit_either","A2RVEG53L48BAE","either","7","","","","","","","0","0","1","0.440136403","","0.4","0.8","0.6","0.2","","","","","0.09672650852","0.2424515525","0.440136403","0.128889003","","","","","","","75","K","2","","","182","main_expt"
"291","","bandit","261","880183","0.0-222.0-0.0","48756483","wem/bandit_either","A2RVEG53L48BAE","either","7","","","","","","","0","0","1","0.4347693449","","0.4","0.8","0.6","0.2","","","","","0.09888002855","0.1961777535","0.4347693449","0.1748769843","","","","","","","75","K","2","","","183","main_expt"
"152","","bandit","262","881871","0.0-223.0-0.0","48756483","wem/bandit_either","A2RVEG53L48BAE","either","7","","","","","","","0","1","0","","0.4277130926","0.4","0.8","0.6","0.2","0.07200145298","0.1489283113","0.4277130926","0.1945994373","","","","","","","","","","","75","K","2","","","184","main_expt"
"123","","bandit","263","883529","0.0-224.0-0.0","48756483","wem/bandit_either","A2RVEG53L48BAE","either","7","","","","","","","1","0","0","0.1644748654","","0.4","0.8","0.6","0.2","","","","","0.09476413333","0.1499965078","0.3956248437","0.1644748654","","","","","","","76","L","3","","","185","main_expt"
"266","","bandit","264","885328","0.0-225.0-0.0","48756483","wem/bandit_either","A2RVEG53L48BAE","either","7","","","","","","","0","0","1","","0.1504635592","0.4","0.8","0.6","0.2","0.06556422103","0.2169832988","0.3748928266","0.1504635592","","","","","","","","","","","76","L","3","","","186","main_expt"
"590","","bandit","265","887453","0.0-226.0-0.0","48756483","wem/bandit_either","A2RVEG53L48BAE","either","7","","","","","","","1","0","0","0.3848139325","","0.4","0.8","0.6","0.2","","","","","0.08901149072","0.2655186329","0.3848139325","0.1760039214","","","","","","","75","K","2","","","187","main_expt"
"209","","bandit","266","889197","0.0-227.0-0.0","48756483","wem/bandit_either","A2RVEG53L48BAE","either","7","","","","","","","0","0","1","","0.3990176401","0.4","0.8","0.6","0.2","0.09471428588","0.2738785118","0.3990176401","0.1203267588","","","","","","","","","","","75","K","2","","","188","main_expt"
"159","","bandit","267","890887","0.0-228.0-0.0","48756483","wem/bandit_either","A2RVEG53L48BAE","either","7","","","","","","","0","0","1","0.05118235823","","0.4","0.8","0.6","0.2","","","","","0.05118235823","0.3041874674","0.3581396838","0.1171540391","","","","","","","72","H","0","img/none_selected.jpg","","189","main_expt"
"70","","bandit","268","892497","0.0-229.0-0.0","48756483","wem/bandit_either","A2RVEG53L48BAE","either","7","","","","","","","1","0","0","0.2882972244","","0.4","0.8","0.6","0.2","","","","","0.05788318751","0.3229453735","0.2882972244","0.1535230761","","","","","","","75","K","2","","","190","main_expt"
"234","","bandit","269","894263","0.0-230.0-0.0","48756483","wem/bandit_either","A2RVEG53L48BAE","either","7","","","","","","","0","1","0","","0.3145326233","0.4","0.8","0.6","0.2","0.08736915481","0.3818249757","0.3145326233","0.1372750947","","","","","","","","","","","75","K","2","","","191","main_expt"
"216","","bandit","270","896010","0.0-231.0-0.0","48756483","wem/bandit_either","A2RVEG53L48BAE","either","7","","","","","","","0","0","1","0.4157726243","","0.4","0.8","0.6","0.2","","","","","0.08251019118","0.4157726243","0.3270603702","0.1047771501","","","","","","","74","J","1","","","192","main_expt"
"392","","bandit","271","897937","0.0-232.0-0.0","48756483","wem/bandit_either","A2RVEG53L48BAE","either","7","","","","","","","1","0","0","0.4611608212","","0.4","0.8","0.6","0.2","","","","","0.06897628064","0.4611608212","0.3604030797","0.1100845432","","","","","","","74","J","1","","","193","main_expt"
"2122","","bandit","272","901597","0.0-233.0-0.0","48756483","wem/bandit_either","A2RVEG53L48BAE","either","7","","","","","","","0","0","1","","0.06801266305","0.4","0.8","0.6","0.2","0.06801266305","0.4508818777","0.357423186","0.1468163818","","","","","","","","","","","72","H","0","img/none_selected.jpg","","194","main_expt"
"1446","","bandit","273","904573","0.0-234.0-0.0","48756483","wem/bandit_either","A2RVEG53L48BAE","either","7","","","","","","","0","0","1","0.3697779856","","0.4","0.8","0.6","0.2","","","","","0.09923709358","0.4278921451","0.3697779856","0.1495594621","","","","","","","75","K","2","","","195","main_expt"
"241","","bandit","274","906351","0.0-235.0-0.0","48756483","wem/bandit_either","A2RVEG53L48BAE","either","7","","","","","","","1","0","0","0.3617177512","","0.4","0.8","0.6","0.2","","","","","0.1103063831","0.4256293003","0.3617177512","0.2263220537","","","","","","","75","K","2","","","196","main_expt"
"28","","bandit","275","907915","0.0-236.0-0.0","48756483","wem/bandit_either","A2RVEG53L48BAE","either","7","","","","","","","1","0","0","0.4476975038","","0.4","0.8","0.6","0.2","","","","","0.07377144043","0.4476975038","0.3775990084","0.2204718804","","","","","","","74","J","1","","","197","main_expt"
"168","","bandit","276","909622","0.0-237.0-0.0","48756483","wem/bandit_either","A2RVEG53L48BAE","either","7","","","","","","","0","0","1","0.4144042571","","0.4","0.8","0.6","0.2","","","","","0.08863448313","0.4434357272","0.4144042571","0.2401118457","","","","","","","75","K","2","","","198","main_expt"
"159","","bandit","277","911315","0.0-238.0-0.0","48756483","wem/bandit_either","A2RVEG53L48BAE","either","7","","","","","","","0","0","1","0.4245114622","","0.4","0.8","0.6","0.2","","","","","0.1082179128","0.4245114622","0.4081775392","0.2673724497","","","","","","","74","J","1","","","199","main_expt"
"761","","bandit","278","913607","0.0-239.0-0.0","48756483","wem/bandit_either","A2RVEG53L48BAE","either","7","","","","","","","0","0","1","","0.09350688576","0.4","0.8","0.6","0.2","0.09350688576","0.4087100315","0.4166156547","0.3125307902","","","","","","","","","","","72","H","0","img/none_selected.jpg","","200","main_expt"
"649","","bandit","279","915786","0.0-240.0-0.0","48756483","wem/bandit_either","A2RVEG53L48BAE","either","7","","","","","","","0","0","1","","0.1036625099","0.4","0.8","0.6","0.2","0.1036625099","0.4361521275","0.4306537176","0.2914574258","","","","","","","","","","","72","H","0","img/none_selected.jpg","","201","main_expt"
"432","","bandit","280","917751","0.0-241.0-0.0","48756483","wem/bandit_either","A2RVEG53L48BAE","either","7","","","","","","","1","0","0","0.449382563","","0.4","0.8","0.6","0.2","","","","","0.1216733889","0.3332596158","0.449382563","0.2550600684","","","","","","","75","K","2","","","202","main_expt"
"623","","bandit","281","919905","0.0-242.0-0.0","48756483","wem/bandit_either","A2RVEG53L48BAE","either","7","","","","","","","0","1","0","","0.2769745997","0.4","0.8","0.6","0.2","0.120655788","0.3581848779","0.4506576586","0.2769745997","","","","","","","","","","","76","L","3","","","203","main_expt"
"303","","bandit","282","921741","0.0-243.0-0.0","48756483","wem/bandit_either","A2RVEG53L48BAE","either","7","","","","","","","0","0","1","0.454839243","","0.4","0.8","0.6","0.2","","","","","0.1082970726","0.3597133043","0.454839243","0.2752990059","","","","","","","75","K","2","","","204","main_expt"
"378","","bandit","283","923652","0.0-244.0-0.0","48756483","wem/bandit_either","A2RVEG53L48BAE","either","7","","","","","","","1","0","0","0.3630183988","","0.4","0.8","0.6","0.2","","","","","0.09143681274","0.3630183988","0.4512889682","0.2901512169","","","","","","","74","J","1","","","205","main_expt"
"284","","bandit","284","925472","0.0-245.0-0.0","48756483","wem/bandit_either","A2RVEG53L48BAE","either","7","","","","","","","0","0","1","0.08377413986","","0.4","0.8","0.6","0.2","","","","","0.08377413986","0.3737494834","0.4591490044","0.2823763913","","","","","","","72","H","0","img/none_selected.jpg","","206","main_expt"
"83","","bandit","285","927088","0.0-246.0-0.0","48756483","wem/bandit_either","A2RVEG53L48BAE","either","7","","","","","","","0","0","1","","0.3668784438","0.4","0.8","0.6","0.2","0.1585073664","0.3668784438","0.4650593633","0.2708062506","","","","","","","","","","","74","J","1","","","207","main_expt"
"335","","bandit","286","928958","0.0-247.0-0.0","48756483","wem/bandit_either","A2RVEG53L48BAE","either","7","","","","","","","0","0","1","","0.4641513068","0.4","0.8","0.6","0.2","0.162299901","0.4045351895","0.4641513068","0.2641553663","","","","","","","","","","","75","K","2","","","208","main_expt"
"259","","bandit","287","930749","0.0-248.0-0.0","48756483","wem/bandit_either","A2RVEG53L48BAE","either","7","","","","","","","1","0","0","0.1542266077","","0.4","0.8","0.6","0.2","","","","","0.1542266077","0.4402386934","0.4567807332","0.2704675845","","","","","","","72","H","0","img/none_selected.jpg","","209","main_expt"
"75","","bandit","288","932358","0.0-249.0-0.0","48756483","wem/bandit_either","A2RVEG53L48BAE","either","7","","","","","","","1","0","0","0.428253188","","0.4","0.8","0.6","0.2","","","","","0.1890415559","0.4483623408","0.428253188","0.3420868926","","","","","","","75","K","2","","","210","main_expt"
"192","","bandit","289","934085","0.0-250.0-0.0","48756483","wem/bandit_either","A2RVEG53L48BAE","either","7","","","","","","","0","0","1","","0.1818133019","0.4","0.8","0.6","0.2","0.1818133019","0.4471415093","0.410271385","0.3069688952","","","","","","","","","","","72","H","0","img/none_selected.jpg","","211","main_expt"
"340","","bandit","290","935954","0.0-251.0-0.0","48756483","wem/bandit_either","A2RVEG53L48BAE","either","7","","","","","","","0","1","0","","0.4374655127","0.4","0.8","0.6","0.2","0.1782747956","0.4374655127","0.4065587724","0.3005379093","","","","","","","","","","","74","J","1","","","212","main_expt"
"82","","bandit","291","937572","0.0-252.0-0.0","48756483","wem/bandit_either","A2RVEG53L48BAE","either","7","","","","","","","0","1","0","","0.4007116542","0.4","0.8","0.6","0.2","0.1935195711","0.4381457257","0.4007116542","0.213882915","","","","","","","","","","","75","K","2","","","213","main_expt"
"149","","bandit","292","939253","0.0-253.0-0.0","48756483","wem/bandit_either","A2RVEG53L48BAE","either","7","","","","","","","0","0","1","","0.2421176173","0.4","0.8","0.6","0.2","0.2421176173","0.4643769008","0.4246209323","0.2138557204","","","","","","","","","","","72","H","0","img/none_selected.jpg","","214","main_expt"
"412","","bandit","293","941196","0.0-254.0-0.0","48756483","wem/bandit_either","A2RVEG53L48BAE","either","7","","","","","","","0","0","1","0.2142566612","","0.4","0.8","0.6","0.2","","","","","0.2629876012","0.4328812357","0.3993057066","0.2142566612","","","","","","","76","L","3","","","215","main_expt"
"210","","bandit","294","942938","0.0-255.0-0.0","48756483","wem/bandit_either","A2RVEG53L48BAE","either","7","","","","","","","0","0","1","0.4064507999","","0.4","0.8","0.6","0.2","","","","","0.2977714141","0.4064507999","0.3987772474","0.1900351118","","","","","","","74","J","1","","","216","main_expt"
"3464","","bandit","295","947938","0.0-256.0-0.0","48756483","wem/bandit_either","A2RVEG53L48BAE","either","7","","","","","","","0","0","1","","0.2185169477","0.4","0.8","0.6","0.2","0.3017601552","0.4197961641","0.4101433534","0.2185169477","","","","","","","","","","","76","L","3","","","217","main_expt"
"608","","bandit","296","950077","0.0-257.0-0.0","48756483","wem/bandit_either","A2RVEG53L48BAE","either","7","","","","","","","0","1","0","","0.2888566207","0.4","0.8","0.6","0.2","0.2888566207","0.4167397569","0.4448029092","0.2240895604","","","","","","","","","","","72","H","0","img/none_selected.jpg","","218","main_expt"
"1457","","bandit","297","953070","0.0-258.0-0.0","48756483","wem/bandit_either","A2RVEG53L48BAE","either","7","","","","","","","0","1","0","","0.4454766299","0.4","0.8","0.6","0.2","0.2844008008","0.4250944588","0.4454766299","0.1990808675","","","","","","","","","","","75","K","2","","","219","main_expt"
"240","","bandit","298","954844","0.0-259.0-0.0","48756483","wem/bandit_either","A2RVEG53L48BAE","either","7","","","","","","","0","1","0","","0.266602996","0.4","0.8","0.6","0.2","0.2225062479","0.4173336587","0.4610997771","0.266602996","","","","","","","","","","","76","L","3","","","220","main_expt"
"185","","bandit","299","956565","0.0-260.0-0.0","48756483","wem/bandit_either","A2RVEG53L48BAE","either","7","","","","","","","0","0","1","0.3944711005","","0.4","0.8","0.6","0.2","","","","","0.2409900116","0.3944711005","0.4642289789","0.2443661227","","","","","","","74","J","1","","","221","main_expt"
"324","","bandit","300","958421","0.0-261.0-0.0","48756483","wem/bandit_either","A2RVEG53L48BAE","either","7","","","","","","","0","0","1","","0.1989678636","0.4","0.8","0.6","0.2","0.1989678636","0.3619306912","0.4641270597","0.2205922116","","","","","","","","","","","72","H","0","img/none_selected.jpg","","222","main_expt"
"285","","bandit","301","960241","0.0-262.0-0.0","48756483","wem/bandit_either","A2RVEG53L48BAE","either","7","","","","","","","1","0","0","0.4697433819","","0.4","0.8","0.6","0.2","","","","","0.1902867071","0.4117842179","0.4697433819","0.1861223506","","","","","","","75","K","2","","","223","main_expt"
"506","","bandit","302","962286","0.0-263.0-0.0","48756483","wem/bandit_either","A2RVEG53L48BAE","either","7","","","","","","","0","0","1","0.460898083","","0.4","0.8","0.6","0.2","","","","","0.2076415522","0.3965092367","0.460898083","0.1668884863","","","","","","","75","K","2","","","224","main_expt"
"116","","bandit","303","963935","0.0-264.0-0.0","48756483","wem/bandit_either","A2RVEG53L48BAE","either","7","","","","","","","0","1","0","","0.2393469174","0.4","0.8","0.6","0.2","0.2393469174","0.4084477862","0.4394890665","0.1481472712","","","","","","","","","","","72","H","0","img/none_selected.jpg","","225","main_expt"
"122","","bandit","304","965589","0.0-265.0-0.0","48756483","wem/bandit_either","A2RVEG53L48BAE","either","7","","","","","","","1","0","0","0.4104601526","","0.4","0.8","0.6","0.2","","","","","0.2425440376","0.4104601526","0.4520955237","0.1140846591","","","","","","","74","J","1","","","226","main_expt"
"246","","bandit","305","967378","0.0-266.0-0.0","48756483","wem/bandit_either","A2RVEG53L48BAE","either","7","","","","","","","0","0","1","","0.1074218354","0.4","0.8","0.6","0.2","0.2365603363","0.3899733519","0.4324220164","0.1074218354","","","","","","","","","","","76","L","3","","","227","main_expt"
"83","","bandit","306","968996","0.0-267.0-0.0","48756483","wem/bandit_either","A2RVEG53L48BAE","either","7","","","","","","","0","1","0","","0.3796730737","0.4","0.8","0.6","0.2","0.2127958296","0.3796730737","0.4220482421","0.08065165665","","","","","","","","","","","74","J","1","","","228","main_expt"
"208","","bandit","307","970738","0.0-268.0-0.0","48756483","wem/bandit_either","A2RVEG53L48BAE","either","7","","","","","","","1","0","0","0.3885749154","","0.4","0.8","0.6","0.2","","","","","0.2207861463","0.4046866514","0.3885749154","0.07774059362","","","","","","","75","K","2","","","229","main_expt"
"17","","bandit","308","972287","0.0-269.0-0.0","48756483","wem/bandit_either","A2RVEG53L48BAE","either","7","","","","","","","0","0","1","0.2589226453","","0.4","0.8","0.6","0.2","","","","","0.2589226453","0.3988793555","0.4023755806","0.1109483114","","","","","","","72","H","0","img/none_selected.jpg","","230","main_expt"
"372","","bandit","309","974189","0.0-270.0-0.0","48756483","wem/bandit_either","A2RVEG53L48BAE","either","7","","","","","","","0","0","1","0.3768725222","","0.4","0.8","0.6","0.2","","","","","0.2956158432","0.3981898202","0.3768725222","0.05902300203","","","","","","","75","K","2","","","231","main_expt"
"303","","bandit","310","976026","0.0-271.0-0.0","48756483","wem/bandit_either","A2RVEG53L48BAE","either","7","","","","","","","0","1","0","","0.3202484073","0.4","0.8","0.6","0.2","0.3202484073","0.4411941832","0.3619917427","0.06675855664","","","","","","","","","","","72","H","0","img/none_selected.jpg","","232","main_expt"
"145","","bandit","311","977706","0.0-272.0-0.0","48756483","wem/bandit_either","A2RVEG53L48BAE","either","7","","","","","","","1","0","0","0.42967461","","0.4","0.8","0.6","0.2","","","","","0.2933644042","0.42967461","0.3833578816","0.06703699679","","","","","","","74","J","1","","","233","main_expt"
"201","","bandit","312","979442","0.0-273.0-0.0","48756483","wem/bandit_either","A2RVEG53L48BAE","either","7","","","","","","","0","1","0","","0.05331023031","0.4","0.8","0.6","0.2","0.3106154811","0.4242798354","0.3552131768","0.05331023031","","","","","","","","","","","76","L","3","","","234","main_expt"
"189","","bandit","313","981169","0.0-274.0-0.0","48756483","wem/bandit_either","A2RVEG53L48BAE","either","7","","","","","","","0","0","1","0.4617388459","","0.4","0.8","0.6","0.2","","","","","0.3158990995","0.4617388459","0.3135084543","0.05187545802","","","","","","","74","J","1","","","235","main_expt"
"298","","bandit","314","983004","0.0-275.0-0.0","48756483","wem/bandit_either","A2RVEG53L48BAE","either","7","","","","","","","1","0","0","0.4619510484","","0.4","0.8","0.6","0.2","","","","","0.3036927748","0.4619510484","0.244945467","0.06939909985","","","","","","","74","J","1","","","236","main_expt"
"144","","bandit","315","984687","0.0-276.0-0.0","48756483","wem/bandit_either","A2RVEG53L48BAE","either","7","","","","","","","0","0","1","","0.3491021326","0.4","0.8","0.6","0.2","0.3491021326","0.4482398789","0.1823839079","0.1210409879","","","","","","","","","","","72","H","0","img/none_selected.jpg","","237","main_expt"
"8","","bandit","316","986233","0.0-277.0-0.0","48756483","wem/bandit_either","A2RVEG53L48BAE","either","7","","","","","","","0","0","1","0.4193969143","","0.4","0.8","0.6","0.2","","","","","0.3939254097","0.4193969143","0.1685050226","0.1147840357","","","","","","","74","J","1","","","238","main_expt"
"282","","bandit","317","988056","0.0-278.0-0.0","48756483","wem/bandit_either","A2RVEG53L48BAE","either","7","","","","","","","0","0","1","0.4203848948","","0.4","0.8","0.6","0.2","","","","","0.379108978","0.4203848948","0.1606472637","0.1006463842","","","","","","","74","J","1","","","239","main_expt"
"71","","bandit","318","989658","0.0-279.0-0.0","48756483","wem/bandit_either","A2RVEG53L48BAE","either","7","","","","","","","1","0","0","0.3876209848","","0.4","0.8","0.6","0.2","","","","","0.3876209848","0.4489383263","0.1512795466","0.1008771133","","","","","","","72","H","0","img/none_selected.jpg","","240","main_expt"
"211","","bandit","319","991404","0.0-280.0-0.0","48756483","wem/bandit_either","A2RVEG53L48BAE","either","7","","","","","","","1","0","0","0.3839625774","","0.4","0.8","0.6","0.2","","","","","0.3839625774","0.4636195567","0.1916219391","0.09981833296","","","","","","","72","H","0","img/none_selected.jpg","","241","main_expt"
"241","","bandit","320","993177","0.0-281.0-0.0","48756483","wem/bandit_either","A2RVEG53L48BAE","either","7","","","","","","","0","0","1","0.4575307695","","0.4","0.8","0.6","0.2","","","","","0.3477958629","0.4575307695","0.1641013935","0.1171772993","","","","","","","74","J","1","","","242","main_expt"
"251","","bandit","321","994961","0.0-282.0-0.0","48756483","wem/bandit_either","A2RVEG53L48BAE","either","7","","","","","","","1","0","0","0.3500658948","","0.4","0.8","0.6","0.2","","","","","0.3500658948","0.4449554393","0.2064320789","0.1239984651","","","","","","","72","H","0","img/none_selected.jpg","","243","main_expt"
"188","","bandit","322","996685","0.0-283.0-0.0","48756483","wem/bandit_either","A2RVEG53L48BAE","either","7","","","","","","","1","0","0","0.4525763452","","0.4","0.8","0.6","0.2","","","","","0.3452717574","0.4525763452","0.2205496082","0.1126152289","","","","","","","74","J","1","","","244","main_expt"
"226","","bandit","323","998443","0.0-284.0-0.0","48756483","wem/bandit_either","A2RVEG53L48BAE","either","7","","","","","","","0","0","1","0.3162288444","","0.4","0.8","0.6","0.2","","","","","0.3162288444","0.4753838692","0.214276823","0.1524829061","","","","","","","72","H","0","img/none_selected.jpg","","245","main_expt"
"33","","bandit","324","1000009","0.0-285.0-0.0","48756483","wem/bandit_either","A2RVEG53L48BAE","either","7","","","","","","","0","0","1","","0.4623654582","0.4","0.8","0.6","0.2","0.2894596967","0.4623654582","0.2084567316","0.1921750243","","","","","","","","","","","74","J","1","","","246","main_expt"
"65","","bandit","325","1001613","0.0-286.0-0.0","48756483","wem/bandit_either","A2RVEG53L48BAE","either","7","","","","","","","0","1","0","","0.2642296388","0.4","0.8","0.6","0.2","0.2642296388","0.4331165165","0.2232303491","0.1931065189","","","","","","","","","","","72","H","0","img/none_selected.jpg","","247","main_expt"
"102","","bandit","326","1003248","0.0-287.0-0.0","48756483","wem/bandit_either","A2RVEG53L48BAE","either","7","","","","","","","0","0","1","0.2534255255","","0.4","0.8","0.6","0.2","","","","","0.2534255255","0.4401602984","0.2541796534","0.2189994516","","","","","","","72","H","0","img/none_selected.jpg","","248","main_expt"
"140","","bandit","327","1004922","0.0-288.0-0.0","48756483","wem/bandit_either","A2RVEG53L48BAE","either","7","","","","","","","0","0","1","","0.430892824","0.4","0.8","0.6","0.2","0.2252980971","0.430892824","0.232462199","0.1989243371","","","","","","","","","","","74","J","1","","","249","main_expt"
"85","","bandit","328","1006544","0.0-289.0-0.0","48756483","wem/bandit_either","A2RVEG53L48BAE","either","7","","","","","","","0","0","1","","0.298830738","0.4","0.8","0.6","0.2","0.298830738","0.4282509168","0.2877664065","0.1635706079","","","","","","","","","","","72","H","0","img/none_selected.jpg","","250","main_expt"
"372","","bandit","329","1008451","0.0-290.0-0.0","48756483","wem/bandit_either","A2RVEG53L48BAE","either","7","","","","","","","0","0","1","","0.3113207693","0.4","0.8","0.6","0.2","0.3113207693","0.4499649657","0.2947451014","0.1738575253","","","","","","","","","","","72","H","0","img/none_selected.jpg","","251","main_expt"
"210","","bandit","330","1010199","0.0-291.0-0.0","48756483","wem/bandit_either","A2RVEG53L48BAE","either","7","","","","","","","0","0","1","","0.2581410112","0.4","0.8","0.6","0.2","0.2952600368","0.458069626","0.2581410112","0.1868362494","","","","","","","","","","","75","K","2","","","252","main_expt"
"271","","bandit","331","1012008","0.0-292.0-0.0","48756483","wem/bandit_either","A2RVEG53L48BAE","either","7","","","","","","","0","0","1","0.4419078322","","0.4","0.8","0.6","0.2","","","","","0.2837805879","0.4419078322","0.2526573277","0.1888839862","","","","","","","74","J","1","","","253","main_expt"
"273","","bandit","332","1013814","0.0-293.0-0.0","48756483","wem/bandit_either","A2RVEG53L48BAE","either","7","","","","","","","0","0","1","0.1763585164","","0.4","0.8","0.6","0.2","","","","","0.2664224025","0.4374591364","0.2625272406","0.1763585164","","","","","","","76","L","3","","","254","main_expt"
