"rt","responses","trial_type","trial_index","time_elapsed","internal_node_id","subjID","study","MID","cond","drift","key_press","expt_phase","target","like","value","connected","gems","bombs","no_reward","GemPrChosen","BombPrChosen","GainOverPainPr_0","GainOverPainPr_1","GainOverPainPr_2","GainOverPainPr_3","LosePr_0","LosePr_1","LosePr_2","LosePr_3","WinPr_0","WinPr_1","WinPr_2","WinPr_3","Q0","Q1","Q2","gender","age","ethnicity","respCharCode","respKey","respChoiceNum","respChoice","practice","trial_counter","trial_label"
"16420","{""Q0"":""AS7WV8YWOEO55""}","survey-text","0","16430","0.0-0.0","49206367","wem/bandit_either","AS7WV8YWOEO55","either","2","","","","","","","","","","","","","","","","","","","","","","","","","","","","","","","","","","","",""
"12939","","text","1","30375","0.0-1.0","49206367","wem/bandit_either","AS7WV8YWOEO55","either","2","32","","","","","","","","","","","","","","","","","","","","","","","","","","","","","","","","","","",""
"6291","","text","2","36669","0.0-2.0","49206367","wem/bandit_either","AS7WV8YWOEO55","either","2","32","","","","","","","","","","","","","","","","","","","","","","","","","","","","","","","","","","",""
"12375","","text","3","49046","0.0-3.0","49206367","wem/bandit_either","AS7WV8YWOEO55","either","2","32","","","","","","","","","","","","","","","","","","","","","","","","","","","","","","","","","","",""
"11811","","text","4","60860","0.0-4.0","49206367","wem/bandit_either","AS7WV8YWOEO55","either","2","32","","","","","","","","","","","","","","","","","","","","","","","","","","","","","","","","","","",""
"9965","","text","5","70829","0.0-5.0","49206367","wem/bandit_either","AS7WV8YWOEO55","either","2","32","","","","","","","","","","","","","","","","","","","","","","","","","","","","","","","","","","",""
"6201","","text","6","77032","0.0-6.0","49206367","wem/bandit_either","AS7WV8YWOEO55","either","2","32","","","","","","","","","","","","","","","","","","","","","","","","","","","","","","","","","","",""
"6920","","text","7","83955","0.0-7.0","49206367","wem/bandit_either","AS7WV8YWOEO55","either","2","32","","","","","","","","","","","","","","","","","","","","","","","","","","","","","","","","","","",""
"23085","","identification","8","107059","0.0-8.0-0.0","49206367","wem/bandit_either","AS7WV8YWOEO55","either","2","","identification_pre","the village of Zur","","","","","","","","","","","","","","","","","","","","","","","","","","","","","","","","",""
"5769","","identification","9","113868","0.0-8.0-1.0","49206367","wem/bandit_either","AS7WV8YWOEO55","either","2","","identification_pre","the village of Nyx","","","","","","","","","","","","","","","","","","","","","","","","","","","","","","","","",""
"8777","","text","10","123657","0.0-9.0","49206367","wem/bandit_either","AS7WV8YWOEO55","either","2","32","","","","","","","","","","","","","","","","","","","","","","","","","","","","","","","","","","",""
"4114","","text","11","127775","0.0-10.0","49206367","wem/bandit_either","AS7WV8YWOEO55","either","2","32","","","","","","","","","","","","","","","","","","","","","","","","","","","","","","","","","","",""
"2069","","text","12","129847","0.0-11.0","49206367","wem/bandit_either","AS7WV8YWOEO55","either","2","32","","","","","","","","","","","","","","","","","","","","","","","","","","","","","","","","","","",""
"8325","","text","13","138174","0.0-12.0","49206367","wem/bandit_either","AS7WV8YWOEO55","either","2","32","","","","","","","","","","","","","","","","","","","","","","","","","","","","","","","","","","",""
"2970","","bandit","14","142779","0.0-13.0-0.0","49206367","wem/bandit_either","AS7WV8YWOEO55","either","2","","","","","","","0","0","1","0","0","","","","","0","","","","0","","","","","","","","","","74","J","0","img/none_selected_demo.jpg","true","0",""
"2022","","bandit","15","146305","0.0-14.0-0.0","49206367","wem/bandit_either","AS7WV8YWOEO55","either","2","","","","","","","0","0","1","0","0","","","","","0","","","","0","","","","","","","","","","75","K","0","img/none_selected_demo.jpg","true","0",""
"5218","","text","16","151525","0.0-15.0","49206367","wem/bandit_either","AS7WV8YWOEO55","either","2","32","","","","","","","","","","","","","","","","","","","","","","","","","","","","","","","","","","",""
"8777","","text","17","160304","0.0-16.0","49206367","wem/bandit_either","AS7WV8YWOEO55","either","2","32","","","","","","","","","","","","","","","","","","","","","","","","","","","","","","","","","","",""
"4331","","text","18","164637","0.0-17.0","49206367","wem/bandit_either","AS7WV8YWOEO55","either","2","32","","","","","","","","","","","","","","","","","","","","","","","","","","","","","","","","","","",""
"1752","","text","19","166390","0.0-18.0","49206367","wem/bandit_either","AS7WV8YWOEO55","either","2","32","","","","","","","","","","","","","","","","","","","","","","","","","","","","","","","","","","",""
"1401","","bandit","20","169303","0.0-19.0-0.0","49206367","wem/bandit_either","AS7WV8YWOEO55","either","2","","","","","","","1","0","0","0.8","","0.5","0.5","","","","","","","0.8","0.2","","","","","","","","","74","J","0","img/none_selected_demo.jpg","true","0","80_20_practice"
"770","","bandit","21","171591","0.0-19.0-1.0","49206367","wem/bandit_either","AS7WV8YWOEO55","either","2","","","","","","","1","0","0","0.8","","0.5","0.5","","","","","","","0.8","0.2","","","","","","","","","74","J","0","img/none_selected_demo.jpg","true","0","80_20_practice"
"377","","bandit","22","173482","0.0-19.0-2.0","49206367","wem/bandit_either","AS7WV8YWOEO55","either","2","","","","","","","0","1","0","","0.8","0.5","0.5","","","0.8","0.2","","","","","","","","","","","","","74","J","0","img/none_selected_demo.jpg","true","0","80_20_practice"
"590","","bandit","23","175750","0.0-19.0-3.0","49206367","wem/bandit_either","AS7WV8YWOEO55","either","2","","","","","","","0","0","1","0.8","","0.5","0.5","","","","","","","0.8","0.2","","","","","","","","","74","J","0","img/none_selected_demo.jpg","true","0","80_20_practice"
"732","","bandit","24","177996","0.0-19.0-4.0","49206367","wem/bandit_either","AS7WV8YWOEO55","either","2","","","","","","","0","1","0","","0.8","0.5","0.5","","","0.8","0.2","","","","","","","","","","","","","74","J","0","img/none_selected_demo.jpg","true","0","80_20_practice"
"331","","bandit","25","179835","0.0-19.0-5.0","49206367","wem/bandit_either","AS7WV8YWOEO55","either","2","","","","","","","0","0","1","","0.2","0.5","0.5","","","0.8","0.2","","","","","","","","","","","","","75","K","1","","true","0","80_20_practice"
"326","","bandit","26","181672","0.0-19.0-6.0","49206367","wem/bandit_either","AS7WV8YWOEO55","either","2","","","","","","","1","0","0","0.2","","0.5","0.5","","","","","","","0.8","0.2","","","","","","","","","75","K","1","","true","0","80_20_practice"
"328","","bandit","27","183506","0.0-19.0-7.0","49206367","wem/bandit_either","AS7WV8YWOEO55","either","2","","","","","","","1","0","0","0.2","","0.5","0.5","","","","","","","0.8","0.2","","","","","","","","","75","K","1","","true","0","80_20_practice"
"280","","bandit","28","185293","0.0-19.0-8.0","49206367","wem/bandit_either","AS7WV8YWOEO55","either","2","","","","","","","1","0","0","0.2","","0.5","0.5","","","","","","","0.8","0.2","","","","","","","","","75","K","1","","true","0","80_20_practice"
"340","","bandit","29","187141","0.0-19.0-9.0","49206367","wem/bandit_either","AS7WV8YWOEO55","either","2","","","","","","","0","0","1","0.2","","0.5","0.5","","","","","","","0.8","0.2","","","","","","","","","75","K","1","","true","0","80_20_practice"
"243","","bandit","30","188891","0.0-19.0-10.0","49206367","wem/bandit_either","AS7WV8YWOEO55","either","2","","","","","","","0","0","1","0.2","","0.5","0.5","","","","","","","0.8","0.2","","","","","","","","","75","K","1","","true","0","80_20_practice"
"318","","bandit","31","190746","0.0-19.0-11.0","49206367","wem/bandit_either","AS7WV8YWOEO55","either","2","","","","","","","0","0","1","0.2","","0.5","0.5","","","","","","","0.8","0.2","","","","","","","","","75","K","1","","true","0","80_20_practice"
"320","","bandit","32","192574","0.0-19.0-12.0","49206367","wem/bandit_either","AS7WV8YWOEO55","either","2","","","","","","","0","1","0","","0.2","0.5","0.5","","","0.8","0.2","","","","","","","","","","","","","75","K","1","","true","0","80_20_practice"
"309","","bandit","33","194393","0.0-19.0-13.0","49206367","wem/bandit_either","AS7WV8YWOEO55","either","2","","","","","","","0","0","1","","0.2","0.5","0.5","","","0.8","0.2","","","","","","","","","","","","","75","K","1","","true","0","80_20_practice"
"288","","bandit","34","196192","0.0-19.0-14.0","49206367","wem/bandit_either","AS7WV8YWOEO55","either","2","","","","","","","0","0","1","","0.2","0.5","0.5","","","0.8","0.2","","","","","","","","","","","","","75","K","1","","true","0","80_20_practice"
"955","","bandit","35","198654","0.0-19.0-15.0","49206367","wem/bandit_either","AS7WV8YWOEO55","either","2","","","","","","","1","0","0","0.8","","0.5","0.5","","","","","","","0.8","0.2","","","","","","","","","74","J","0","img/none_selected_demo.jpg","true","0","80_20_practice"
"331","","bandit","36","200494","0.0-19.0-16.0","49206367","wem/bandit_either","AS7WV8YWOEO55","either","2","","","","","","","1","0","0","0.8","","0.5","0.5","","","","","","","0.8","0.2","","","","","","","","","74","J","0","img/none_selected_demo.jpg","true","0","80_20_practice"
"514","","bandit","37","202520","0.0-19.0-17.0","49206367","wem/bandit_either","AS7WV8YWOEO55","either","2","","","","","","","0","0","1","","0.8","0.5","0.5","","","0.8","0.2","","","","","","","","","","","","","74","J","0","img/none_selected_demo.jpg","true","0","80_20_practice"
"736","","bandit","38","204765","0.0-19.0-18.0","49206367","wem/bandit_either","AS7WV8YWOEO55","either","2","","","","","","","0","0","1","","0.8","0.5","0.5","","","0.8","0.2","","","","","","","","","","","","","74","J","0","img/none_selected_demo.jpg","true","0","80_20_practice"
"632","","bandit","39","206908","0.0-19.0-19.0","49206367","wem/bandit_either","AS7WV8YWOEO55","either","2","","","","","","","0","1","0","","0.8","0.5","0.5","","","0.8","0.2","","","","","","","","","","","","","74","J","0","img/none_selected_demo.jpg","true","0","80_20_practice"
"6839","","text","40","213749","0.0-20.0","49206367","wem/bandit_either","AS7WV8YWOEO55","either","2","32","","","","","","","","","","","","","","","","","","","","","","","","","","","","","","","","","","",""
"4252","","bandit","41","219513","0.0-21.0-0.0","49206367","wem/bandit_either","AS7WV8YWOEO55","either","2","","","","","","","1","0","0","1","0","","","","","0","1","","","1","0","","","","","","","","","74","J","0","img/none_selected_demo.jpg","true","0",""
"5526","","text","42","225044","0.0-22.0","49206367","wem/bandit_either","AS7WV8YWOEO55","either","2","32","","","","","","","","","","","","","","","","","","","","","","","","","","","","","","","","","","",""
"4583","","text","43","229630","0.0-23.0","49206367","wem/bandit_either","AS7WV8YWOEO55","either","2","32","","","","","","","","","","","","","","","","","","","","","","","","","","","","","","","","","","",""
"4093","","text","44","233727","0.0-24.0","49206367","wem/bandit_either","AS7WV8YWOEO55","either","2","32","","","","","","","","","","","","","","","","","","","","","","","","","","","","","","","","","","",""
"4082","","text","45","237813","0.0-25.0","49206367","wem/bandit_either","AS7WV8YWOEO55","either","2","32","","","","","","","","","","","","","","","","","","","","","","","","","","","","","","","","","","",""
"6013","","text","46","243830","0.0-26.0","49206367","wem/bandit_either","AS7WV8YWOEO55","either","2","32","","","","","","","","","","","","","","","","","","","","","","","","","","","","","","","","","","",""
"3161","","text","47","246996","0.0-27.0","49206367","wem/bandit_either","AS7WV8YWOEO55","either","2","32","","","","","","","","","","","","","","","","","","","","","","","","","","","","","","","","","","",""
"7166","","text","48","254165","0.0-28.0","49206367","wem/bandit_either","AS7WV8YWOEO55","either","2","32","","","","","","","","","","","","","","","","","","","","","","","","","","","","","","","","","","",""
"4692","","text","49","258860","0.0-29.0","49206367","wem/bandit_either","AS7WV8YWOEO55","either","2","32","","","","","","","","","","","","","","","","","","","","","","","","","","","","","","","","","","",""
"8845","","text","50","267709","0.0-30.0","49206367","wem/bandit_either","AS7WV8YWOEO55","either","2","32","","","","","","","","","","","","","","","","","","","","","","","","","","","","","","","","","","",""
"2164","","text","51","269876","0.0-31.0","49206367","wem/bandit_either","AS7WV8YWOEO55","either","2","32","","","","","","","","","","","","","","","","","","","","","","","","","","","","","","","","","","",""
"6413","","text","52","276292","0.0-32.0","49206367","wem/bandit_either","AS7WV8YWOEO55","either","2","32","","","","","","","","","","","","","","","","","","","","","","","","","","","","","","","","","","",""
"844","","bandit","53","278647","0.0-33.0-0.0","49206367","wem/bandit_either","AS7WV8YWOEO55","either","2","","","","","","","1","0","0","0.8","","0.5","0.5","0.5","0.5","","","","","0.8","0.2","0.6","0.2","","","","","","","72","H","0","img/none_selected.jpg","true","0","full_practice"
"120","","bandit","54","280278","0.0-33.0-1.0","49206367","wem/bandit_either","AS7WV8YWOEO55","either","2","","","","","","","0","0","1","","0.6","0.5","0.5","0.5","0.5","0.8","0.2","0.6","0.2","","","","","","","","","","","75","K","2","","true","0","full_practice"
"282","","bandit","55","282072","0.0-33.0-2.0","49206367","wem/bandit_either","AS7WV8YWOEO55","either","2","","","","","","","0","0","1","","0.2","0.5","0.5","0.5","0.5","0.8","0.2","0.6","0.2","","","","","","","","","","","74","J","1","","true","0","full_practice"
"497","","bandit","56","284079","0.0-33.0-3.0","49206367","wem/bandit_either","AS7WV8YWOEO55","either","2","","","","","","","0","0","1","0.2","","0.5","0.5","0.5","0.5","","","","","0.8","0.2","0.6","0.2","","","","","","","76","L","3","","true","0","full_practice"
"360","","bandit","57","285951","0.0-33.0-4.0","49206367","wem/bandit_either","AS7WV8YWOEO55","either","2","","","","","","","0","1","0","","0.8","0.5","0.5","0.5","0.5","0.8","0.2","0.6","0.2","","","","","","","","","","","72","H","0","img/none_selected.jpg","true","0","full_practice"
"374","","bandit","58","287840","0.0-33.0-5.0","49206367","wem/bandit_either","AS7WV8YWOEO55","either","2","","","","","","","0","0","1","0.2","","0.5","0.5","0.5","0.5","","","","","0.8","0.2","0.6","0.2","","","","","","","74","J","1","","true","0","full_practice"
"433","","bandit","59","289782","0.0-33.0-6.0","49206367","wem/bandit_either","AS7WV8YWOEO55","either","2","","","","","","","0","1","0","","0.6","0.5","0.5","0.5","0.5","0.8","0.2","0.6","0.2","","","","","","","","","","","75","K","2","","true","0","full_practice"
"529","","bandit","60","291831","0.0-33.0-7.0","49206367","wem/bandit_either","AS7WV8YWOEO55","either","2","","","","","","","0","0","1","0.8","","0.5","0.5","0.5","0.5","","","","","0.8","0.2","0.6","0.2","","","","","","","72","H","0","img/none_selected.jpg","true","0","full_practice"
"607","","bandit","61","293947","0.0-33.0-8.0","49206367","wem/bandit_either","AS7WV8YWOEO55","either","2","","","","","","","0","0","1","0.2","","0.5","0.5","0.5","0.5","","","","","0.8","0.2","0.6","0.2","","","","","","","74","J","1","","true","0","full_practice"
"840","","bandit","62","296295","0.0-33.0-9.0","49206367","wem/bandit_either","AS7WV8YWOEO55","either","2","","","","","","","0","0","1","0.2","","0.5","0.5","0.5","0.5","","","","","0.8","0.2","0.6","0.2","","","","","","","76","L","3","","true","0","full_practice"
"339","","bandit","63","298141","0.0-33.0-10.0","49206367","wem/bandit_either","AS7WV8YWOEO55","either","2","","","","","","","1","0","0","0.8","","0.5","0.5","0.5","0.5","","","","","0.8","0.2","0.6","0.2","","","","","","","72","H","0","img/none_selected.jpg","true","0","full_practice"
"752","","bandit","64","300405","0.0-33.0-11.0","49206367","wem/bandit_either","AS7WV8YWOEO55","either","2","","","","","","","0","0","1","","0.8","0.5","0.5","0.5","0.5","0.8","0.2","0.6","0.2","","","","","","","","","","","72","H","0","img/none_selected.jpg","true","0","full_practice"
"643","","bandit","65","302556","0.0-33.0-12.0","49206367","wem/bandit_either","AS7WV8YWOEO55","either","2","","","","","","","1","0","0","0.6","","0.5","0.5","0.5","0.5","","","","","0.8","0.2","0.6","0.2","","","","","","","75","K","2","","true","0","full_practice"
"926","","bandit","66","304989","0.0-33.0-13.0","49206367","wem/bandit_either","AS7WV8YWOEO55","either","2","","","","","","","0","0","1","0.6","","0.5","0.5","0.5","0.5","","","","","0.8","0.2","0.6","0.2","","","","","","","75","K","2","","true","0","full_practice"
"611","","bandit","67","307113","0.0-33.0-14.0","49206367","wem/bandit_either","AS7WV8YWOEO55","either","2","","","","","","","0","1","0","","0.6","0.5","0.5","0.5","0.5","0.8","0.2","0.6","0.2","","","","","","","","","","","75","K","2","","true","0","full_practice"
"532","","bandit","68","309156","0.0-33.0-15.0","49206367","wem/bandit_either","AS7WV8YWOEO55","either","2","","","","","","","0","0","1","0.2","","0.5","0.5","0.5","0.5","","","","","0.8","0.2","0.6","0.2","","","","","","","74","J","1","","true","0","full_practice"
"352","","bandit","69","311021","0.0-33.0-16.0","49206367","wem/bandit_either","AS7WV8YWOEO55","either","2","","","","","","","0","0","1","0.2","","0.5","0.5","0.5","0.5","","","","","0.8","0.2","0.6","0.2","","","","","","","74","J","1","","true","0","full_practice"
"392","","bandit","70","312925","0.0-33.0-17.0","49206367","wem/bandit_either","AS7WV8YWOEO55","either","2","","","","","","","1","0","0","0.2","","0.5","0.5","0.5","0.5","","","","","0.8","0.2","0.6","0.2","","","","","","","74","J","1","","true","0","full_practice"
"593","","bandit","71","315027","0.0-33.0-18.0","49206367","wem/bandit_either","AS7WV8YWOEO55","either","2","","","","","","","0","1","0","","0.2","0.5","0.5","0.5","0.5","0.8","0.2","0.6","0.2","","","","","","","","","","","76","L","3","","true","0","full_practice"
"416","","bandit","72","316956","0.0-33.0-19.0","49206367","wem/bandit_either","AS7WV8YWOEO55","either","2","","","","","","","1","0","0","0.2","","0.5","0.5","0.5","0.5","","","","","0.8","0.2","0.6","0.2","","","","","","","74","J","1","","true","0","full_practice"
"4113","","text","73","321076","0.0-34.0","49206367","wem/bandit_either","AS7WV8YWOEO55","either","2","32","","","","","","","","","","","","","","","","","","","","","","","","","","","","","","","","","","",""
"8949","","text","74","331045","0.0-35.0","49206367","wem/bandit_either","AS7WV8YWOEO55","either","2","32","","","","","","","","","","","","","","","","","","","","","","","","","","","","","","","","","","",""
"4803","","text","75","335852","0.0-36.0","49206367","wem/bandit_either","AS7WV8YWOEO55","either","2","32","","","","","","","","","","","","","","","","","","","","","","","","","","","","","","","","","","",""
"7358","","text","76","343215","0.0-37.0","49206367","wem/bandit_either","AS7WV8YWOEO55","either","2","32","","","","","","","","","","","","","","","","","","","","","","","","","","","","","","","","","","",""
"5104","","text","77","348325","0.0-38.0","49206367","wem/bandit_either","AS7WV8YWOEO55","either","2","32","","","","","","","","","","","","","","","","","","","","","","","","","","","","","","","","","","",""
"2866","","text","78","351198","0.0-39.0","49206367","wem/bandit_either","AS7WV8YWOEO55","either","2","32","","","","","","","","","","","","","","","","","","","","","","","","","","","","","","","","","","",""
"945","","bandit","79","353660","0.0-40.0-0.0","49206367","wem/bandit_either","AS7WV8YWOEO55","either","2","","","","","","","0","0","1","0.4781977867","","0.2","0.8","0.4","0.6","","","","","0.4781977867","0.3653736811","0.326135308","0.362799796","","","","","","","72","H","0","img/none_selected.jpg","","1","main_expt"
"512","","bandit","80","355689","0.0-41.0-0.0","49206367","wem/bandit_either","AS7WV8YWOEO55","either","2","","","","","","","0","0","1","0.3564958201","","0.2","0.8","0.4","0.6","","","","","0.4765481994","0.3999069229","0.3564958201","0.3891507205","","","","","","","75","K","2","","","2","main_expt"
"1","","bandit","81","357207","0.0-42.0-0.0","49206367","wem/bandit_either","AS7WV8YWOEO55","either","2","","","","","","","0","1","0","","0.4363582421","0.2","0.8","0.4","0.6","0.4722158263","0.4363582421","0.3309056029","0.3151339382","","","","","","","","","","","74","J","1","","","3","main_expt"
"445","","bandit","82","359165","0.0-43.0-0.0","49206367","wem/bandit_either","AS7WV8YWOEO55","either","2","","","","","","","0","0","1","","0.4609570051","0.2","0.8","0.4","0.6","0.4609570051","0.4300921111","0.308467875","0.250648122","","","","","","","","","","","72","H","0","img/none_selected.jpg","","4","main_expt"
"342","","bandit","83","361019","0.0-44.0-0.0","49206367","wem/bandit_either","AS7WV8YWOEO55","either","2","","","","","","","1","0","0","0.2382585344","","0.2","0.8","0.4","0.6","","","","","0.4707799186","0.3863220662","0.3349995635","0.2382585344","","","","","","","76","L","3","","","5","main_expt"
"437","","bandit","84","362964","0.0-45.0-0.0","49206367","wem/bandit_either","AS7WV8YWOEO55","either","2","","","","","","","0","0","1","0.2088101903","","0.2","0.8","0.4","0.6","","","","","0.4676743975","0.4192648028","0.3743101545","0.2088101903","","","","","","","76","L","3","","","6","main_expt"
"322","","bandit","85","364796","0.0-46.0-0.0","49206367","wem/bandit_either","AS7WV8YWOEO55","either","2","","","","","","","0","1","0","","0.377506125","0.2","0.8","0.4","0.6","0.4767364015","0.4218548145","0.377506125","0.1884279889","","","","","","","","","","","75","K","2","","","7","main_expt"
"436","","bandit","86","366741","0.0-47.0-0.0","49206367","wem/bandit_either","AS7WV8YWOEO55","either","2","","","","","","","0","0","1","","0.4298914749","0.2","0.8","0.4","0.6","0.4837409877","0.4298914749","0.3452849142","0.2297930851","","","","","","","","","","","74","J","1","","","8","main_expt"
"221","","bandit","87","368825","0.0-48.0-0.0","49206367","wem/bandit_either","AS7WV8YWOEO55","either","2","","","","","","","0","0","1","","0.4825212187","0.2","0.8","0.4","0.6","0.4825212187","0.4215440671","0.2713567333","0.2219539873","","","","","","","","","","","72","H","0","img/none_selected.jpg","","9","main_expt"
"386","","bandit","88","370722","0.0-49.0-0.0","49206367","wem/bandit_either","AS7WV8YWOEO55","either","2","","","","","","","0","0","1","","0.2398128751","0.2","0.8","0.4","0.6","0.4791264729","0.3991616263","0.2712708503","0.2398128751","","","","","","","","","","","76","L","3","","","10","main_expt"
"324","","bandit","89","372570","0.0-50.0-0.0","49206367","wem/bandit_either","AS7WV8YWOEO55","either","2","","","","","","","0","0","1","0.2551733424","","0.2","0.8","0.4","0.6","","","","","0.4762013833","0.4002673883","0.2635531688","0.2551733424","","","","","","","76","L","3","","","11","main_expt"
"666","","bandit","90","374747","0.0-51.0-0.0","49206367","wem/bandit_either","AS7WV8YWOEO55","either","2","","","","","","","0","0","1","0.368629831","","0.2","0.8","0.4","0.6","","","","","0.4729837645","0.368629831","0.2669056975","0.2593424883","","","","","","","74","J","1","","","12","main_expt"
"504","","bandit","91","376764","0.0-52.0-0.0","49206367","wem/bandit_either","AS7WV8YWOEO55","either","2","","","","","","","0","0","1","0.4749786695","","0.2","0.8","0.4","0.6","","","","","0.4749786695","0.4189726289","0.3204456557","0.2493591627","","","","","","","72","H","0","img/none_selected.jpg","","13","main_expt"
"420","","bandit","92","378692","0.0-53.0-0.0","49206367","wem/bandit_either","AS7WV8YWOEO55","either","2","","","","","","","1","0","0","0.3466526728","","0.2","0.8","0.4","0.6","","","","","0.4810115094","0.4352425359","0.3466526728","0.2686446846","","","","","","","75","K","2","","","14","main_expt"
"865","","bandit","93","381068","0.0-54.0-0.0","49206367","wem/bandit_either","AS7WV8YWOEO55","either","2","","","","","","","0","1","0","","0.3736671224","0.2","0.8","0.4","0.6","0.4705329286","0.3819090161","0.3736671224","0.2690169042","","","","","","","","","","","75","K","2","","","15","main_expt"
"850","","bandit","94","383949","0.0-55.0-0.0","49206367","wem/bandit_either","AS7WV8YWOEO55","either","2","","","","","","","0","0","1","","0.2518303543","0.2","0.8","0.4","0.6","0.4687419894","0.3737760256","0.3778143907","0.2518303543","","","","","","","","","","","76","L","3","","","16","main_expt"
"129","","bandit","95","385597","0.0-56.0-0.0","49206367","wem/bandit_either","AS7WV8YWOEO55","either","2","","","","","","","0","0","1","0.4151791473","","0.2","0.8","0.4","0.6","","","","","0.4594180265","0.4151791473","0.3845750066","0.2406549936","","","","","","","74","J","1","","","17","main_expt"
"566","","bandit","96","387676","0.0-57.0-0.0","49206367","wem/bandit_either","AS7WV8YWOEO55","either","2","","","","","","","0","0","1","","0.425397146","0.2","0.8","0.4","0.6","0.425397146","0.4137363134","0.4041286345","0.2670149403","","","","","","","","","","","72","H","0","img/none_selected.jpg","","18","main_expt"
"499","","bandit","97","389688","0.0-58.0-0.0","49206367","wem/bandit_either","AS7WV8YWOEO55","either","2","","","","","","","0","0","1","0.4084056464","","0.2","0.8","0.4","0.6","","","","","0.4201246927","0.4084056464","0.4127350431","0.2658482338","","","","","","","74","J","1","","","19","main_expt"
"693","","bandit","98","391888","0.0-59.0-0.0","49206367","wem/bandit_either","AS7WV8YWOEO55","either","2","","","","","","","0","1","0","","0.2452433766","0.2","0.8","0.4","0.6","0.3954271328","0.4129175496","0.4107359536","0.2452433766","","","","","","","","","","","76","L","3","","","20","main_expt"
"573","","bandit","99","393972","0.0-60.0-0.0","49206367","wem/bandit_either","AS7WV8YWOEO55","either","2","","","","","","","0","0","1","0.3954861765","","0.2","0.8","0.4","0.6","","","","","0.4196431029","0.3888488162","0.3954861765","0.2298761452","","","","","","","75","K","2","","","21","main_expt"
"515","","bandit","100","395996","0.0-61.0-0.0","49206367","wem/bandit_either","AS7WV8YWOEO55","either","2","","","","","","","0","0","1","","0.3843335182","0.2","0.8","0.4","0.6","0.3843335182","0.3873149631","0.3805979297","0.266827693","","","","","","","","","","","72","H","0","img/none_selected.jpg","","22","main_expt"
"834","","bandit","101","398341","0.0-62.0-0.0","49206367","wem/bandit_either","AS7WV8YWOEO55","either","2","","","","","","","1","0","0","0.3659772031","","0.2","0.8","0.4","0.6","","","","","0.3839977458","0.3659772031","0.425451992","0.2519769849","","","","","","","74","J","1","","","23","main_expt"
"738","","bandit","102","400592","0.0-63.0-0.0","49206367","wem/bandit_either","AS7WV8YWOEO55","either","2","","","","","","","0","0","1","0.3594327093","","0.2","0.8","0.4","0.6","","","","","0.3338939571","0.3594327093","0.4699447661","0.2447613107","","","","","","","74","J","1","","","24","main_expt"
"674","","bandit","103","402773","0.0-64.0-0.0","49206367","wem/bandit_either","AS7WV8YWOEO55","either","2","","","","","","","0","0","1","0.4484050393","","0.2","0.8","0.4","0.6","","","","","0.324486952","0.3719143394","0.4484050393","0.2350413847","","","","","","","75","K","2","","","25","main_expt"
"336","","bandit","104","404624","0.0-65.0-0.0","49206367","wem/bandit_either","AS7WV8YWOEO55","either","2","","","","","","","0","0","1","","0.207774486","0.2","0.8","0.4","0.6","0.3095710384","0.3690014044","0.4190234423","0.207774486","","","","","","","","","","","76","L","3","","","26","main_expt"
"447","","bandit","105","406603","0.0-66.0-0.0","49206367","wem/bandit_either","AS7WV8YWOEO55","either","2","","","","","","","0","0","1","","0.3355629191","0.2","0.8","0.4","0.6","0.3355629191","0.3940030818","0.4251478254","0.2164182795","","","","","","","","","","","72","H","0","img/none_selected.jpg","","27","main_expt"
"356","","bandit","106","408481","0.0-67.0-0.0","49206367","wem/bandit_either","AS7WV8YWOEO55","either","2","","","","","","","1","0","0","0.4111080327","","0.2","0.8","0.4","0.6","","","","","0.3668681485","0.4111080327","0.4287328697","0.2164031865","","","","","","","74","J","1","","","28","main_expt"
"858","","bandit","107","410852","0.0-68.0-0.0","49206367","wem/bandit_either","AS7WV8YWOEO55","either","2","","","","","","","0","0","1","0.41290056","","0.2","0.8","0.4","0.6","","","","","0.343198694","0.41290056","0.4106025245","0.2770000278","","","","","","","74","J","1","","","29","main_expt"
"702","","bandit","108","413075","0.0-69.0-0.0","49206367","wem/bandit_either","AS7WV8YWOEO55","either","2","","","","","","","0","0","1","0.3937480262","","0.2","0.8","0.4","0.6","","","","","0.326069126","0.3937480262","0.3942494676","0.2354797847","","","","","","","74","J","1","","","30","main_expt"
"752","","bandit","109","415338","0.0-70.0-0.0","49206367","wem/bandit_either","AS7WV8YWOEO55","either","2","","","","","","","0","0","1","","0.2692030882","0.2","0.8","0.4","0.6","0.3390127419","0.3997016236","0.4285056211","0.2692030882","","","","","","","","","","","76","L","3","","","31","main_expt"
"897","","bandit","110","417742","0.0-71.0-0.0","49206367","wem/bandit_either","AS7WV8YWOEO55","either","2","","","","","","","0","0","1","","0.4249454459","0.2","0.8","0.4","0.6","0.3360649894","0.3574295763","0.4249454459","0.2471118655","","","","","","","","","","","75","K","2","","","32","main_expt"
"335","","bandit","111","419590","0.0-72.0-0.0","49206367","wem/bandit_either","AS7WV8YWOEO55","either","2","","","","","","","1","0","0","0.3877818659","","0.2","0.8","0.4","0.6","","","","","0.3052602024","0.3877818659","0.416417765","0.2879199001","","","","","","","74","J","1","","","33","main_expt"
"1128","","bandit","112","422230","0.0-73.0-0.0","49206367","wem/bandit_either","AS7WV8YWOEO55","either","2","","","","","","","1","0","0","0.3799496232","","0.2","0.8","0.4","0.6","","","","","0.3594788954","0.3799496232","0.4623714429","0.3180115212","","","","","","","74","J","1","","","34","main_expt"
"1474","","bandit","113","425232","0.0-74.0-0.0","49206367","wem/bandit_either","AS7WV8YWOEO55","either","2","","","","","","","0","0","1","0.3577573403","","0.2","0.8","0.4","0.6","","","","","0.380235832","0.3577573403","0.4591977302","0.2524306687","","","","","","","74","J","1","","","35","main_expt"
"972","","bandit","114","427720","0.0-75.0-0.0","49206367","wem/bandit_either","AS7WV8YWOEO55","either","2","","","","","","","0","0","1","0.3459989602","","0.2","0.8","0.4","0.6","","","","","0.3459989602","0.3895375856","0.4686235256","0.2351869563","","","","","","","72","H","0","img/none_selected.jpg","","36","main_expt"
"504","","bandit","115","429736","0.0-76.0-0.0","49206367","wem/bandit_either","AS7WV8YWOEO55","either","2","","","","","","","0","0","1","","0.2629170466","0.2","0.8","0.4","0.6","0.3320905149","0.3783527007","0.4571547709","0.2629170466","","","","","","","","","","","76","L","3","","","37","main_expt"
"373","","bandit","116","431628","0.0-77.0-0.0","49206367","wem/bandit_either","AS7WV8YWOEO55","either","2","","","","","","","0","0","1","0.284076782","","0.2","0.8","0.4","0.6","","","","","0.3471020919","0.284076782","0.4688430709","0.3090194305","","","","","","","74","J","1","","","38","main_expt"
"864","","bandit","117","434007","0.0-78.0-0.0","49206367","wem/bandit_either","AS7WV8YWOEO55","either","2","","","","","","","0","0","1","0.4612923778","","0.2","0.8","0.4","0.6","","","","","0.3401763967","0.3388972186","0.4612923778","0.2845371228","","","","","","","75","K","2","","","39","main_expt"
"738","","bandit","118","436259","0.0-79.0-0.0","49206367","wem/bandit_either","AS7WV8YWOEO55","either","2","","","","","","","0","0","1","","0.3260487483","0.2","0.8","0.4","0.6","0.3260487483","0.2663655232","0.4576194683","0.3076259244","","","","","","","","","","","72","H","0","img/none_selected.jpg","","40","main_expt"
"404","","bandit","119","438171","0.0-80.0-0.0","49206367","wem/bandit_either","AS7WV8YWOEO55","either","2","","","","","","","0","0","1","0.2608266697","","0.2","0.8","0.4","0.6","","","","","0.3390218734","0.2608266697","0.4473921051","0.2888769276","","","","","","","74","J","1","","","41","main_expt"
"847","","bandit","120","440534","0.0-81.0-0.0","49206367","wem/bandit_either","AS7WV8YWOEO55","either","2","","","","","","","1","0","0","0.2639198141","","0.2","0.8","0.4","0.6","","","","","0.2889680017","0.2287676803","0.425470286","0.2639198141","","","","","","","76","L","3","","","42","main_expt"
"433","","bandit","121","442474","0.0-82.0-0.0","49206367","wem/bandit_either","AS7WV8YWOEO55","either","2","","","","","","","0","0","1","0.4030522017","","0.2","0.8","0.4","0.6","","","","","0.2784828801","0.2043112358","0.4030522017","0.2255441472","","","","","","","75","K","2","","","43","main_expt"
"379","","bandit","122","444367","0.0-83.0-0.0","49206367","wem/bandit_either","AS7WV8YWOEO55","either","2","","","","","","","0","1","0","","0.2050272072","0.2","0.8","0.4","0.6","0.2805729819","0.1957049551","0.4106315797","0.2050272072","","","","","","","","","","","76","L","3","","","44","main_expt"
"439","","bandit","123","446317","0.0-84.0-0.0","49206367","wem/bandit_either","AS7WV8YWOEO55","either","2","","","","","","","1","0","0","0.2207366272","","0.2","0.8","0.4","0.6","","","","","0.2195119073","0.2207366272","0.4258527362","0.239455925","","","","","","","74","J","1","","","45","main_expt"
"982","","bandit","124","448812","0.0-85.0-0.0","49206367","wem/bandit_either","AS7WV8YWOEO55","either","2","","","","","","","0","0","1","0.1727988076","","0.2","0.8","0.4","0.6","","","","","0.2657932304","0.1727988076","0.4425966235","0.2414778298","","","","","","","74","J","1","","","46","main_expt"
"628","","bandit","125","450959","0.0-86.0-0.0","49206367","wem/bandit_either","AS7WV8YWOEO55","either","2","","","","","","","0","0","1","0.2678398397","","0.2","0.8","0.4","0.6","","","","","0.2678398397","0.1446735631","0.4428977597","0.1884211613","","","","","","","72","H","0","img/none_selected.jpg","","47","main_expt"
"374","","bandit","126","452846","0.0-87.0-0.0","49206367","wem/bandit_either","AS7WV8YWOEO55","either","2","","","","","","","0","0","1","0.1755274282","","0.2","0.8","0.4","0.6","","","","","0.2866904938","0.1681765936","0.4479964269","0.1755274282","","","","","","","76","L","3","","","48","main_expt"
"656","","bandit","127","455010","0.0-88.0-0.0","49206367","wem/bandit_either","AS7WV8YWOEO55","either","2","","","","","","","0","1","0","","0.4660387519","0.2","0.8","0.4","0.6","0.2803848884","0.1473883531","0.4660387519","0.1646396384","","","","","","","","","","","75","K","2","","","49","main_expt"
"387","","bandit","128","456906","0.0-89.0-0.0","49206367","wem/bandit_either","AS7WV8YWOEO55","either","2","","","","","","","0","0","1","","0.2587411269","0.2","0.8","0.4","0.6","0.2587411269","0.1378170987","0.4345757832","0.2024226619","","","","","","","","","","","72","H","0","img/none_selected.jpg","","50","main_expt"
"347","","bandit","129","458763","0.0-90.0-0.0","49206367","wem/bandit_either","AS7WV8YWOEO55","either","2","","","","","","","0","0","1","0.1430360168","","0.2","0.8","0.4","0.6","","","","","0.2212901065","0.1430360168","0.4450950844","0.1976760068","","","","","","","74","J","1","","","51","main_expt"
"912","","bandit","130","461192","0.0-91.0-0.0","49206367","wem/bandit_either","AS7WV8YWOEO55","either","2","","","","","","","0","0","1","","0.236006857","0.2","0.8","0.4","0.6","0.236006857","0.1731798725","0.4475354499","0.1796352224","","","","","","","","","","","72","H","0","img/none_selected.jpg","","52","main_expt"
"458","","bandit","131","463162","0.0-92.0-0.0","49206367","wem/bandit_either","AS7WV8YWOEO55","either","2","","","","","","","0","1","0","","0.4627294295","0.2","0.8","0.4","0.6","0.2660825342","0.1312409056","0.4627294295","0.2451732725","","","","","","","","","","","75","K","2","","","53","main_expt"
"440","","bandit","132","465295","0.0-93.0-0.0","49206367","wem/bandit_either","AS7WV8YWOEO55","either","2","","","","","","","0","0","1","","0.2621482643","0.2","0.8","0.4","0.6","0.2458345041","0.1862053218","0.44829207","0.2621482643","","","","","","","","","","","76","L","3","","","54","main_expt"
"191","","bandit","133","466993","0.0-94.0-0.0","49206367","wem/bandit_either","AS7WV8YWOEO55","either","2","","","","","","","0","0","1","0.1733563037","","0.2","0.8","0.4","0.6","","","","","0.2265690781","0.1733563037","0.4505537928","0.2441780383","","","","","","","74","J","1","","","55","main_expt"
"677","","bandit","134","469196","0.0-95.0-0.0","49206367","wem/bandit_either","AS7WV8YWOEO55","either","2","","","","","","","0","0","1","0.1728369204","","0.2","0.8","0.4","0.6","","","","","0.2741820357","0.1728369204","0.4686400132","0.199729785","","","","","","","74","J","1","","","56","main_expt"
"1004","","bandit","135","471714","0.0-96.0-0.0","49206367","wem/bandit_either","AS7WV8YWOEO55","either","2","","","","","","","0","0","1","","0.2937641054","0.2","0.8","0.4","0.6","0.2937641054","0.09176359954","0.4572679106","0.1945085845","","","","","","","","","","","72","H","0","img/none_selected.jpg","","57","main_expt"
"572","","bandit","136","473794","0.0-97.0-0.0","49206367","wem/bandit_either","AS7WV8YWOEO55","either","2","","","","","","","0","0","1","","0.04991422033","0.2","0.8","0.4","0.6","0.2949827607","0.04991422033","0.4300169527","0.2614759052","","","","","","","","","","","74","J","1","","","58","main_expt"
"455","","bandit","137","475766","0.0-98.0-0.0","49206367","wem/bandit_either","AS7WV8YWOEO55","either","2","","","","","","","0","0","1","","0.2426118991","0.2","0.8","0.4","0.6","0.2710075273","0.053239915","0.4050829606","0.2426118991","","","","","","","","","","","76","L","3","","","59","main_expt"
"458","","bandit","138","477738","0.0-99.0-0.0","49206367","wem/bandit_either","AS7WV8YWOEO55","either","2","","","","","","","0","0","1","","0.4070720156","0.2","0.8","0.4","0.6","0.2766623035","0.06994226662","0.4070720156","0.2623750897","","","","","","","","","","","75","K","2","","","60","main_expt"
"571","","bandit","139","479834","0.0-100.0-0.0","49206367","wem/bandit_either","AS7WV8YWOEO55","either","2","","","","","","","0","0","1","0.07064832373","","0.2","0.8","0.4","0.6","","","","","0.2574592035","0.07064832373","0.3895400789","0.2139103784","","","","","","","74","J","1","","","61","main_expt"
"556","","bandit","140","481930","0.0-101.0-0.0","49206367","wem/bandit_either","AS7WV8YWOEO55","either","2","","","","","","","0","0","1","","0.2425209234","0.2","0.8","0.4","0.6","0.2425209234","0.08925217872","0.4050708951","0.2566580444","","","","","","","","","","","72","H","0","img/none_selected.jpg","","62","main_expt"
"907","","bandit","141","484353","0.0-102.0-0.0","49206367","wem/bandit_either","AS7WV8YWOEO55","either","2","","","","","","","1","0","0","0.2393402704","","0.2","0.8","0.4","0.6","","","","","0.2294211584","0.08505035955","0.3765761212","0.2393402704","","","","","","","76","L","3","","","63","main_expt"
"1090","","bandit","142","486960","0.0-103.0-0.0","49206367","wem/bandit_either","AS7WV8YWOEO55","either","2","","","","","","","1","0","0","0.300105392","","0.2","0.8","0.4","0.6","","","","","0.2350173232","0.09892528285","0.3859881554","0.300105392","","","","","","","76","L","3","","","64","main_expt"
"1348","","bandit","143","489826","0.0-104.0-0.0","49206367","wem/bandit_either","AS7WV8YWOEO55","either","2","","","","","","","0","0","1","0.2584268813","","0.2","0.8","0.4","0.6","","","","","0.2775473173","0.1428545766","0.3817039273","0.2584268813","","","","","","","76","L","3","","","65","main_expt"
"1564","","bandit","144","492907","0.0-105.0-0.0","49206367","wem/bandit_either","AS7WV8YWOEO55","either","2","","","","","","","0","0","1","","0.120440259","0.2","0.8","0.4","0.6","0.298861572","0.120440259","0.3622232449","0.2536378703","","","","","","","","","","","74","J","1","","","66","main_expt"
"1206","","bandit","145","495624","0.0-106.0-0.0","49206367","wem/bandit_either","AS7WV8YWOEO55","either","2","","","","","","","0","0","1","0.3768721334","","0.2","0.8","0.4","0.6","","","","","0.3043747659","0.2019700983","0.3768721334","0.2548884231","","","","","","","75","K","2","","","67","main_expt"
"1274","","bandit","146","498409","0.0-107.0-0.0","49206367","wem/bandit_either","AS7WV8YWOEO55","either","2","","","","","","","0","1","0","","0.2533072519","0.2","0.8","0.4","0.6","0.2533072519","0.1467862533","0.3826604183","0.2105458193","","","","","","","","","","","72","H","0","img/none_selected.jpg","","68","main_expt"
"947","","bandit","147","500873","0.0-108.0-0.0","49206367","wem/bandit_either","AS7WV8YWOEO55","either","2","","","","","","","0","0","1","0.09022805221","","0.2","0.8","0.4","0.6","","","","","0.2451677402","0.09022805221","0.3981811202","0.2901666962","","","","","","","74","J","1","","","69","main_expt"
"769","","bandit","148","503172","0.0-109.0-0.0","49206367","wem/bandit_either","AS7WV8YWOEO55","either","2","","","","","","","0","0","1","0.2973761433","","0.2","0.8","0.4","0.6","","","","","0.2403061491","0.1128827508","0.3936557204","0.2973761433","","","","","","","76","L","3","","","70","main_expt"
"498","","bandit","149","505185","0.0-110.0-0.0","49206367","wem/bandit_either","AS7WV8YWOEO55","either","2","","","","","","","0","1","0","","0.3949471057","0.2","0.8","0.4","0.6","0.1917576795","0.1184182172","0.3949471057","0.2737706179","","","","","","","","","","","75","K","2","","","71","main_expt"
"716","","bandit","150","507410","0.0-111.0-0.0","49206367","wem/bandit_either","AS7WV8YWOEO55","either","2","","","","","","","0","0","1","","0.3888869603","0.2","0.8","0.4","0.6","0.1894079546","0.1038133506","0.3888869603","0.3005227265","","","","","","","","","","","75","K","2","","","72","main_expt"
"1038","","bandit","151","509963","0.0-112.0-0.0","49206367","wem/bandit_either","AS7WV8YWOEO55","either","2","","","","","","","0","0","1","0.07830871569","","0.2","0.8","0.4","0.6","","","","","0.235909594","0.07830871569","0.4015056825","0.3205676235","","","","","","","74","J","1","","","73","main_expt"
"856","","bandit","152","512905","0.0-113.0-0.0","49206367","wem/bandit_either","AS7WV8YWOEO55","either","2","","","","","","","0","1","0","","0.2772030277","0.2","0.8","0.4","0.6","0.2772030277","0.09226686474","0.4200542591","0.3040473008","","","","","","","","","","","72","H","0","img/none_selected.jpg","","74","main_expt"
"707","","bandit","153","515124","0.0-114.0-0.0","49206367","wem/bandit_either","AS7WV8YWOEO55","either","2","","","","","","","0","0","1","","0.2686744794","0.2","0.8","0.4","0.6","0.2237268092","0.07948082514","0.4353174817","0.2686744794","","","","","","","","","","","76","L","3","","","75","main_expt"
"1391","","bandit","154","518034","0.0-115.0-0.0","49206367","wem/bandit_either","AS7WV8YWOEO55","either","2","","","","","","","0","0","1","","0.258707356","0.2","0.8","0.4","0.6","0.1739375455","0.1279570505","0.4196821318","0.258707356","","","","","","","","","","","76","L","3","","","76","main_expt"
"469","","bandit","155","520023","0.0-116.0-0.0","49206367","wem/bandit_either","AS7WV8YWOEO55","either","2","","","","","","","0","0","1","0.3787369199","","0.2","0.8","0.4","0.6","","","","","0.1648796623","0.1202820049","0.3787369199","0.3010070056","","","","","","","75","K","2","","","77","main_expt"
"564","","bandit","156","522109","0.0-117.0-0.0","49206367","wem/bandit_either","AS7WV8YWOEO55","either","2","","","","","","","0","0","1","0.1054071572","","0.2","0.8","0.4","0.6","","","","","0.1637798684","0.1054071572","0.4314930014","0.2648586626","","","","","","","74","J","1","","","78","main_expt"
"1122","","bandit","157","524745","0.0-118.0-0.0","49206367","wem/bandit_either","AS7WV8YWOEO55","either","2","","","","","","","0","0","1","0.1403095361","","0.2","0.8","0.4","0.6","","","","","0.1490076182","0.1403095361","0.4155078174","0.1984114041","","","","","","","74","J","1","","","79","main_expt"
"816","","bandit","158","527074","0.0-119.0-0.0","49206367","wem/bandit_either","AS7WV8YWOEO55","either","2","","","","","","","0","1","0","","0.1093198388","0.2","0.8","0.4","0.6","0.1093198388","0.1891235553","0.4226243671","0.180325551","","","","","","","","","","","72","H","0","img/none_selected.jpg","","80","main_expt"
"906","","bandit","159","529525","0.0-120.0-0.0","49206367","wem/bandit_either","AS7WV8YWOEO55","either","2","","","","","","","1","0","0","0.4474166549","","0.2","0.8","0.4","0.6","","","","","0.08868186825","0.1858030354","0.4474166549","0.224531153","","","","","","","75","K","2","","","81","main_expt"
"793","","bandit","160","531827","0.0-121.0-0.0","49206367","wem/bandit_either","AS7WV8YWOEO55","either","2","","","","","","","0","1","0","","0.4636297045","0.2","0.8","0.4","0.6","0.1073880826","0.2476542501","0.4636297045","0.221125015","","","","","","","","","","","75","K","2","","","82","main_expt"
"440","","bandit","161","533793","0.0-122.0-0.0","49206367","wem/bandit_either","AS7WV8YWOEO55","either","2","","","","","","","0","0","1","0.2188241074","","0.2","0.8","0.4","0.6","","","","","0.1022587498","0.2188241074","0.467509749","0.2143237207","","","","","","","74","J","1","","","83","main_expt"
"677","","bandit","162","535993","0.0-123.0-0.0","49206367","wem/bandit_either","AS7WV8YWOEO55","either","2","","","","","","","1","0","0","0.2097367537","","0.2","0.8","0.4","0.6","","","","","0.1085807699","0.2754771977","0.4551111531","0.2097367537","","","","","","","76","L","3","","","84","main_expt"
"999","","bandit","163","538507","0.0-124.0-0.0","49206367","wem/bandit_either","AS7WV8YWOEO55","either","2","","","","","","","0","0","1","0.1661536269","","0.2","0.8","0.4","0.6","","","","","0.1263918358","0.2965575968","0.4621419017","0.1661536269","","","","","","","76","L","3","","","85","main_expt"
"1160","","bandit","164","541194","0.0-125.0-0.0","49206367","wem/bandit_either","AS7WV8YWOEO55","either","2","","","","","","","0","0","1","0.1364458955","","0.2","0.8","0.4","0.6","","","","","0.1481941301","0.257129161","0.4612050897","0.1364458955","","","","","","","76","L","3","","","86","main_expt"
"1316","","bandit","165","544025","0.0-126.0-0.0","49206367","wem/bandit_either","AS7WV8YWOEO55","either","2","","","","","","","0","0","1","0.08235553135","","0.2","0.8","0.4","0.6","","","","","0.1447872846","0.2338967043","0.4334675206","0.08235553135","","","","","","","76","L","3","","","87","main_expt"
"1056","","bandit","166","546949","0.0-127.0-0.0","49206367","wem/bandit_either","AS7WV8YWOEO55","either","2","","","","","","","0","0","1","0.0754832669","","0.2","0.8","0.4","0.6","","","","","0.1391637727","0.2161535794","0.4397617206","0.0754832669","","","","","","","76","L","3","","","88","main_expt"
"1366","","bandit","167","549826","0.0-128.0-0.0","49206367","wem/bandit_either","AS7WV8YWOEO55","either","2","","","","","","","0","0","1","","0.109361408","0.2","0.8","0.4","0.6","0.1476089376","0.2043146745","0.4635478967","0.109361408","","","","","","","","","","","76","L","3","","","89","main_expt"
"1154","","bandit","168","552493","0.0-129.0-0.0","49206367","wem/bandit_either","AS7WV8YWOEO55","either","2","","","","","","","0","0","1","","0.07391079866","0.2","0.8","0.4","0.6","0.2081489191","0.2346009907","0.4234969579","0.07391079866","","","","","","","","","","","76","L","3","","","90","main_expt"
"733","","bandit","169","554738","0.0-130.0-0.0","49206367","wem/bandit_either","AS7WV8YWOEO55","either","2","","","","","","","0","0","1","0.1164594673","","0.2","0.8","0.4","0.6","","","","","0.1834039029","0.2333967219","0.4267507071","0.1164594673","","","","","","","76","L","3","","","91","main_expt"
"368","","bandit","170","556626","0.0-131.0-0.0","49206367","wem/bandit_either","AS7WV8YWOEO55","either","2","","","","","","","0","0","1","0.4089505196","","0.2","0.8","0.4","0.6","","","","","0.2027314649","0.2150480475","0.4089505196","0.113043345","","","","","","","75","K","2","","","92","main_expt"
"504","","bandit","171","558644","0.0-132.0-0.0","49206367","wem/bandit_either","AS7WV8YWOEO55","either","2","","","","","","","0","0","1","0.2588080464","","0.2","0.8","0.4","0.6","","","","","0.1738894496","0.2588080464","0.4112501448","0.1714352716","","","","","","","74","J","1","","","93","main_expt"
"338","","bandit","172","560509","0.0-133.0-0.0","49206367","wem/bandit_either","AS7WV8YWOEO55","either","2","","","","","","","0","0","1","","0.2484708832","0.2","0.8","0.4","0.6","0.2484708832","0.2748849181","0.452415855","0.1253024032","","","","","","","","","","","72","H","0","img/none_selected.jpg","","94","main_expt"
"800","","bandit","173","562818","0.0-134.0-0.0","49206367","wem/bandit_either","AS7WV8YWOEO55","either","2","","","","","","","0","0","1","","0.1401284447","0.2","0.8","0.4","0.6","0.2914685715","0.2791739054","0.4589197587","0.1401284447","","","","","","","","","","","76","L","3","","","95","main_expt"
"1010","","bandit","174","565338","0.0-135.0-0.0","49206367","wem/bandit_either","AS7WV8YWOEO55","either","2","","","","","","","0","0","1","0.1320491369","","0.2","0.8","0.4","0.6","","","","","0.2417524935","0.3149564315","0.4481870348","0.1320491369","","","","","","","76","L","3","","","96","main_expt"
"930","","bandit","175","567777","0.0-136.0-0.0","49206367","wem/bandit_either","AS7WV8YWOEO55","either","2","","","","","","","0","0","1","","0.4597072186","0.2","0.8","0.4","0.6","0.2492821404","0.372564007","0.4597072186","0.1518453759","","","","","","","","","","","75","K","2","","","97","main_expt"
"650","","bandit","176","569941","0.0-137.0-0.0","49206367","wem/bandit_either","AS7WV8YWOEO55","either","2","","","","","","","1","0","0","0.2173959583","","0.2","0.8","0.4","0.6","","","","","0.3002958449","0.393328365","0.4705619112","0.2173959583","","","","","","","76","L","3","","","98","main_expt"
"714","","bandit","177","572164","0.0-138.0-0.0","49206367","wem/bandit_either","AS7WV8YWOEO55","either","2","","","","","","","0","0","1","","0.3544832656","0.2","0.8","0.4","0.6","0.3544832656","0.421239771","0.4800968761","0.2618725657","","","","","","","","","","","72","H","0","img/none_selected.jpg","","99","main_expt"
"427","","bandit","178","574113","0.0-139.0-0.0","49206367","wem/bandit_either","AS7WV8YWOEO55","either","2","","","","","","","0","0","1","","0.2487788848","0.2","0.8","0.4","0.6","0.3810954338","0.4130759476","0.4780143146","0.2487788848","","","","","","","","","","","76","L","3","","","100","main_expt"
"511","","bandit","179","576132","0.0-140.0-0.0","49206367","wem/bandit_either","AS7WV8YWOEO55","either","2","","","","","","","0","1","0","","0.4849002763","0.2","0.8","0.4","0.6","0.4042362267","0.4089462913","0.4849002763","0.2890792313","","","","","","","","","","","75","K","2","","","101","main_expt"
"337","","bandit","180","578004","0.0-141.0-0.0","49206367","wem/bandit_either","AS7WV8YWOEO55","either","2","","","","","","","0","0","1","0.3136369757","","0.2","0.8","0.4","0.6","","","","","0.4594696392","0.370330464","0.4886078379","0.3136369757","","","","","","","76","L","3","","","102","main_expt"
"802","","bandit","181","580318","0.0-142.0-0.0","49206367","wem/bandit_either","AS7WV8YWOEO55","either","2","","","","","","","0","0","1","","0.2364671533","0.2","0.8","0.4","0.6","0.4588766667","0.3306315663","0.47121906","0.2364671533","","","","","","","","","","","76","L","3","","","103","main_expt"
"463","","bandit","182","582305","0.0-143.0-0.0","49206367","wem/bandit_either","AS7WV8YWOEO55","either","2","","","","","","","0","0","1","0.354634178","","0.2","0.8","0.4","0.6","","","","","0.4372785745","0.354634178","0.4760763377","0.2202486688","","","","","","","74","J","1","","","104","main_expt"
"567","","bandit","183","584388","0.0-144.0-0.0","49206367","wem/bandit_either","AS7WV8YWOEO55","either","2","","","","","","","0","0","1","0.3896605338","","0.2","0.8","0.4","0.6","","","","","0.4063887309","0.3896605338","0.4701389446","0.1854418088","","","","","","","74","J","1","","","105","main_expt"
"830","","bandit","184","586739","0.0-145.0-0.0","49206367","wem/bandit_either","AS7WV8YWOEO55","either","2","","","","","","","0","0","1","0.1596754559","","0.2","0.8","0.4","0.6","","","","","0.3778019321","0.414339711","0.471324938","0.1596754559","","","","","","","76","L","3","","","106","main_expt"
"771","","bandit","185","589031","0.0-146.0-0.0","49206367","wem/bandit_either","AS7WV8YWOEO55","either","2","","","","","","","0","1","0","","0.3614143111","0.2","0.8","0.4","0.6","0.3614143111","0.4164239898","0.4786694594","0.137099288","","","","","","","","","","","72","H","0","img/none_selected.jpg","","107","main_expt"
"802","","bandit","186","591354","0.0-147.0-0.0","49206367","wem/bandit_either","AS7WV8YWOEO55","either","2","","","","","","","1","0","0","0.4810065258","","0.2","0.8","0.4","0.6","","","","","0.3681250399","0.3836571442","0.4810065258","0.1443984823","","","","","","","75","K","2","","","108","main_expt"
"2214","","bandit","187","595076","0.0-148.0-0.0","49206367","wem/bandit_either","AS7WV8YWOEO55","either","2","","","","","","","1","0","0","0.4816764674","","0.2","0.8","0.4","0.6","","","","","0.3446081275","0.3881214568","0.4816764674","0.1409511773","","","","","","","75","K","2","","","109","main_expt"
"1358","","bandit","188","597959","0.0-149.0-0.0","49206367","wem/bandit_either","AS7WV8YWOEO55","either","2","","","","","","","0","1","0","","0.4882082215","0.2","0.8","0.4","0.6","0.3681270965","0.4266873791","0.4882082215","0.1787750665","","","","","","","","","","","75","K","2","","","110","main_expt"
"516","","bandit","189","599987","0.0-150.0-0.0","49206367","wem/bandit_either","AS7WV8YWOEO55","either","2","","","","","","","0","1","0","","0.1862786225","0.2","0.8","0.4","0.6","0.391379093","0.4475699482","0.478642168","0.1862786225","","","","","","","","","","","76","L","3","","","111","main_expt"
"447","","bandit","190","601946","0.0-151.0-0.0","49206367","wem/bandit_either","AS7WV8YWOEO55","either","2","","","","","","","0","0","1","","0.4131544452","0.2","0.8","0.4","0.6","0.4131544452","0.4190314983","0.4841415165","0.1654620982","","","","","","","","","","","72","H","0","img/none_selected.jpg","","112","main_expt"
"345","","bandit","191","603825","0.0-152.0-0.0","49206367","wem/bandit_either","AS7WV8YWOEO55","either","2","","","","","","","0","0","1","0.3666128881","","0.2","0.8","0.4","0.6","","","","","0.3963985948","0.3666128881","0.4883212127","0.1582981878","","","","","","","74","J","1","","","113","main_expt"
"699","","bandit","192","606044","0.0-153.0-0.0","49206367","wem/bandit_either","AS7WV8YWOEO55","either","2","","","","","","","0","0","1","0.3866259854","","0.2","0.8","0.4","0.6","","","","","0.4117985871","0.3866259854","0.4883790739","0.1922757069","","","","","","","74","J","1","","","114","main_expt"
"360","","bandit","193","607922","0.0-154.0-0.0","49206367","wem/bandit_either","AS7WV8YWOEO55","either","2","","","","","","","0","0","1","","0.4902011966","0.2","0.8","0.4","0.6","0.394381103","0.354161152","0.4902011966","0.185618385","","","","","","","","","","","75","K","2","","","115","main_expt"
"280","","bandit","194","609722","0.0-155.0-0.0","49206367","wem/bandit_either","AS7WV8YWOEO55","either","2","","","","","","","0","0","1","","0.2057277395","0.2","0.8","0.4","0.6","0.3762408663","0.3170745426","0.4844723045","0.2057277395","","","","","","","","","","","76","L","3","","","116","main_expt"
"1146","","bandit","195","612387","0.0-156.0-0.0","49206367","wem/bandit_either","AS7WV8YWOEO55","either","2","","","","","","","0","0","1","","0.3823674378","0.2","0.8","0.4","0.6","0.3823674378","0.304536318","0.4895589844","0.2288411079","","","","","","","","","","","72","H","0","img/none_selected.jpg","","117","main_expt"
"558","","bandit","196","614457","0.0-157.0-0.0","49206367","wem/bandit_either","AS7WV8YWOEO55","either","2","","","","","","","0","0","1","","0.4899729034","0.2","0.8","0.4","0.6","0.4050195855","0.3411026949","0.4899729034","0.2207517482","","","","","","","","","","","75","K","2","","","118","main_expt"
"1347","","bandit","197","617314","0.0-158.0-0.0","49206367","wem/bandit_either","AS7WV8YWOEO55","either","2","","","","","","","0","0","1","0.1955286499","","0.2","0.8","0.4","0.6","","","","","0.4227562767","0.3447942488","0.4947041593","0.1955286499","","","","","","","76","L","3","","","119","main_expt"
"595","","bandit","198","619423","0.0-159.0-0.0","49206367","wem/bandit_either","AS7WV8YWOEO55","either","2","","","","","","","0","0","1","","0.4163810796","0.2","0.8","0.4","0.6","0.4163810796","0.3686185352","0.4916865355","0.2427950695","","","","","","","","","","","72","H","0","img/none_selected.jpg","","120","main_expt"
"1190","","bandit","199","622129","0.0-160.0-0.0","49206367","wem/bandit_either","AS7WV8YWOEO55","either","2","","","","","","","1","0","0","0.3547669752","","0.2","0.8","0.4","0.6","","","","","0.406821829","0.3547669752","0.4860386064","0.2479682904","","","","","","","74","J","1","","","121","main_expt"
"1669","","bandit","200","625834","0.0-161.0-0.0","49206367","wem/bandit_either","AS7WV8YWOEO55","either","2","","","","","","","0","0","1","0.365994073","","0.2","0.8","0.4","0.6","","","","","0.3999449125","0.365994073","0.483083859","0.3081985406","","","","","","","74","J","1","","","122","main_expt"
"683","","bandit","201","628024","0.0-162.0-0.0","49206367","wem/bandit_either","AS7WV8YWOEO55","either","2","","","","","","","0","0","1","0.3089359708","","0.2","0.8","0.4","0.6","","","","","0.366626489","0.3120596142","0.4791491275","0.3089359708","","","","","","","76","L","3","","","123","main_expt"
"713","","bandit","202","630253","0.0-163.0-0.0","49206367","wem/bandit_either","AS7WV8YWOEO55","either","2","","","","","","","1","0","0","0.302161917","","0.2","0.8","0.4","0.6","","","","","0.3706278578","0.302161917","0.4776777384","0.3298338218","","","","","","","74","J","1","","","124","main_expt"
"533","","bandit","203","632306","0.0-164.0-0.0","49206367","wem/bandit_either","AS7WV8YWOEO55","either","2","","","","","","","1","0","0","0.2794370347","","0.2","0.8","0.4","0.6","","","","","0.3545504723","0.2794370347","0.478983255","0.2795250441","","","","","","","74","J","1","","","125","main_expt"
"681","","bandit","204","634505","0.0-165.0-0.0","49206367","wem/bandit_either","AS7WV8YWOEO55","either","2","","","","","","","0","0","1","0.2466154908","","0.2","0.8","0.4","0.6","","","","","0.3106298006","0.2466154908","0.4724726719","0.2184127205","","","","","","","74","J","1","","","126","main_expt"
"1125","","bandit","205","637138","0.0-166.0-0.0","49206367","wem/bandit_either","AS7WV8YWOEO55","either","2","","","","","","","1","0","0","0.2712823261","","0.2","0.8","0.4","0.6","","","","","0.3351405197","0.2712823261","0.4796244369","0.2488858907","","","","","","","74","J","1","","","127","main_expt"
"415","","bandit","206","639078","0.0-167.0-0.0","49206367","wem/bandit_either","AS7WV8YWOEO55","either","2","","","","","","","1","0","0","0.2095517986","","0.2","0.8","0.4","0.6","","","","","0.2984422464","0.2095517986","0.4825212971","0.2850827173","","","","","","","74","J","1","","","128","main_expt"
"864","","bandit","207","641849","0.0-168.0-0.0","49206367","wem/bandit_either","AS7WV8YWOEO55","either","2","","","","","","","0","0","1","0.1986866195","","0.2","0.8","0.4","0.6","","","","","0.2027892291","0.1986866195","0.4877535013","0.2867242009","","","","","","","74","J","1","","","129","main_expt"
"83","","bandit","208","643440","0.0-169.0-0.0","49206367","wem/bandit_either","AS7WV8YWOEO55","either","2","","","","","","","0","0","1","0.172959111","","0.2","0.8","0.4","0.6","","","","","0.13768179","0.172959111","0.4833646461","0.2509552002","","","","","","","74","J","1","","","130","main_expt"
"295","","bandit","209","645254","0.0-170.0-0.0","49206367","wem/bandit_either","AS7WV8YWOEO55","either","2","","","","","","","0","0","1","0.163172462","","0.2","0.8","0.4","0.6","","","","","0.1352832961","0.163172462","0.4790990265","0.2172434631","","","","","","","74","J","1","","","131","main_expt"
"722","","bandit","210","647493","0.0-171.0-0.0","49206367","wem/bandit_either","AS7WV8YWOEO55","either","2","","","","","","","0","0","1","","0.158295755","0.2","0.8","0.4","0.6","0.08660982753","0.161148659","0.4882311922","0.158295755","","","","","","","","","","","76","L","3","","","132","main_expt"
"166","","bandit","211","649186","0.0-172.0-0.0","49206367","wem/bandit_either","AS7WV8YWOEO55","either","2","","","","","","","0","0","1","0.1735641072","","0.2","0.8","0.4","0.6","","","","","0.1020907376","0.1735641072","0.4889625365","0.185310911","","","","","","","74","J","1","","","133","main_expt"
"1239","","bandit","212","651937","0.0-173.0-0.0","49206367","wem/bandit_either","AS7WV8YWOEO55","either","2","","","","","","","0","0","1","0.1597390633","","0.2","0.8","0.4","0.6","","","","","0.1231499397","0.1597390633","0.4916783795","0.1966535246","","","","","","","74","J","1","","","134","main_expt"
"731","","bandit","213","654178","0.0-174.0-0.0","49206367","wem/bandit_either","AS7WV8YWOEO55","either","2","","","","","","","0","0","1","","0.1460070414","0.2","0.8","0.4","0.6","0.1524236556","0.1460070414","0.4904315354","0.2290191974","","","","","","","","","","","74","J","1","","","135","main_expt"
"334","","bandit","214","656025","0.0-175.0-0.0","49206367","wem/bandit_either","AS7WV8YWOEO55","either","2","","","","","","","0","0","1","0.105474526","","0.2","0.8","0.4","0.6","","","","","0.1954247664","0.105474526","0.491666595","0.2929229053","","","","","","","74","J","1","","","136","main_expt"
"1006","","bandit","215","659002","0.0-176.0-0.0","49206367","wem/bandit_either","AS7WV8YWOEO55","either","2","","","","","","","0","0","1","0.08835118593","","0.2","0.8","0.4","0.6","","","","","0.1833989084","0.08835118593","0.4917142499","0.2780805385","","","","","","","74","J","1","","","137","main_expt"
"319","","bandit","216","660841","0.0-177.0-0.0","49206367","wem/bandit_either","AS7WV8YWOEO55","either","2","","","","","","","0","1","0","","0.4870170403","0.2","0.8","0.4","0.6","0.1490533902","0.06418360449","0.4870170403","0.217224157","","","","","","","","","","","75","K","2","","","138","main_expt"
"356","","bandit","217","662716","0.0-178.0-0.0","49206367","wem/bandit_either","AS7WV8YWOEO55","either","2","","","","","","","0","0","1","0.2323391466","","0.2","0.8","0.4","0.6","","","","","0.1318817547","0.03554325754","0.4834992155","0.2323391466","","","","","","","76","L","3","","","139","main_expt"
"927","","bandit","218","665156","0.0-179.0-0.0","49206367","wem/bandit_either","AS7WV8YWOEO55","either","2","","","","","","","0","0","1","","0.244475209","0.2","0.8","0.4","0.6","0.1877412345","0.04477370895","0.4927392517","0.244475209","","","","","","","","","","","76","L","3","","","140","main_expt"
"796","","bandit","219","667475","0.0-180.0-0.0","49206367","wem/bandit_either","AS7WV8YWOEO55","either","2","","","","","","","0","0","1","0.232604034","","0.2","0.8","0.4","0.6","","","","","0.2363671377","0.03780119019","0.4872377518","0.232604034","","","","","","","76","L","3","","","141","main_expt"
"274","","bandit","220","669281","0.0-181.0-0.0","49206367","wem/bandit_either","AS7WV8YWOEO55","either","2","","","","","","","0","0","1","0.03149913875","","0.2","0.8","0.4","0.6","","","","","0.2546402356","0.03149913875","0.4846254936","0.2447345556","","","","","","","74","J","1","","","142","main_expt"
"1018","","bandit","221","671809","0.0-182.0-0.0","49206367","wem/bandit_either","AS7WV8YWOEO55","either","2","","","","","","","0","0","1","0.04191513266","","0.2","0.8","0.4","0.6","","","","","0.2825544685","0.04191513266","0.4815328815","0.26413271","","","","","","","74","J","1","","","143","main_expt"
"343","","bandit","222","674000","0.0-183.0-0.0","49206367","wem/bandit_either","AS7WV8YWOEO55","either","2","","","","","","","0","1","0","","0.2731230023","0.2","0.8","0.4","0.6","0.2731230023","0.05613120157","0.4854048375","0.1988203511","","","","","","","","","","","72","H","0","img/none_selected.jpg","","144","main_expt"
"301","","bandit","223","675818","0.0-184.0-0.0","49206367","wem/bandit_either","AS7WV8YWOEO55","either","2","","","","","","","0","0","1","","0.4813029389","0.2","0.8","0.4","0.6","0.2943814715","0.03827589539","0.4813029389","0.217822638","","","","","","","","","","","75","K","2","","","145","main_expt"
"791","","bandit","224","678123","0.0-185.0-0.0","49206367","wem/bandit_either","AS7WV8YWOEO55","either","2","","","","","","","0","0","1","0.02861175853","","0.2","0.8","0.4","0.6","","","","","0.328634005","0.02861175853","0.4884824202","0.2009042904","","","","","","","74","J","1","","","146","main_expt"
"303","","bandit","225","679938","0.0-186.0-0.0","49206367","wem/bandit_either","AS7WV8YWOEO55","either","2","","","","","","","0","0","1","0.2080446297","","0.2","0.8","0.4","0.6","","","","","0.3511209141","0.02140640811","0.4835291327","0.2080446297","","","","","","","76","L","3","","","147","main_expt"
"639","","bandit","226","682091","0.0-187.0-0.0","49206367","wem/bandit_either","AS7WV8YWOEO55","either","2","","","","","","","0","0","1","","0.1536700415","0.2","0.8","0.4","0.6","0.3874996206","0.0202041473","0.4716003481","0.1536700415","","","","","","","","","","","76","L","3","","","148","main_expt"
"380","","bandit","227","683983","0.0-188.0-0.0","49206367","wem/bandit_either","AS7WV8YWOEO55","either","2","","","","","","","0","0","1","","0.01154190459","0.2","0.8","0.4","0.6","0.3476646045","0.01154190459","0.4341886607","0.1593661633","","","","","","","","","","","74","J","1","","","149","main_expt"
"445","","bandit","228","685940","0.0-189.0-0.0","49206367","wem/bandit_either","AS7WV8YWOEO55","either","2","","","","","","","0","0","1","","0.4014438172","0.2","0.8","0.4","0.6","0.3323010919","0.01291237021","0.4014438172","0.144955896","","","","","","","","","","","75","K","2","","","150","main_expt"
"499","","bandit","229","687961","0.0-190.0-0.0","49206367","wem/bandit_either","AS7WV8YWOEO55","either","2","","","","","","","0","1","0","","0.3980713407","0.2","0.8","0.4","0.6","0.3954477196","0.0137789916","0.3980713407","0.2123564028","","","","","","","","","","","75","K","2","","","151","main_expt"
"741","","bandit","230","690229","0.0-191.0-0.0","49206367","wem/bandit_either","AS7WV8YWOEO55","either","2","","","","","","","0","0","1","0.2301890466","","0.2","0.8","0.4","0.6","","","","","0.4186327087","0.01985271471","0.4002357887","0.2301890466","","","","","","","76","L","3","","","152","main_expt"
"729","","bandit","231","692478","0.0-192.0-0.0","49206367","wem/bandit_either","AS7WV8YWOEO55","either","2","","","","","","","0","1","0","","0.2295153641","0.2","0.8","0.4","0.6","0.4029566754","0.02951100453","0.388677987","0.2295153641","","","","","","","","","","","76","L","3","","","153","main_expt"
"528","","bandit","232","694515","0.0-193.0-0.0","49206367","wem/bandit_either","AS7WV8YWOEO55","either","2","","","","","","","1","0","0","0.2163321136","","0.2","0.8","0.4","0.6","","","","","0.4037751878","0.02325572033","0.3817747688","0.2163321136","","","","","","","76","L","3","","","154","main_expt"
"433","","bandit","233","696457","0.0-194.0-0.0","49206367","wem/bandit_either","AS7WV8YWOEO55","either","2","","","","","","","0","0","1","0.2257858177","","0.2","0.8","0.4","0.6","","","","","0.4078727314","0.03925092562","0.327727533","0.2257858177","","","","","","","76","L","3","","","155","main_expt"
"505","","bandit","234","698480","0.0-195.0-0.0","49206367","wem/bandit_either","AS7WV8YWOEO55","either","2","","","","","","","0","0","1","0.2077891775","","0.2","0.8","0.4","0.6","","","","","0.3941681487","0.05532081832","0.2821504166","0.2077891775","","","","","","","76","L","3","","","156","main_expt"
"587","","bandit","235","700584","0.0-196.0-0.0","49206367","wem/bandit_either","AS7WV8YWOEO55","either","2","","","","","","","0","1","0","","0.05983660039","0.2","0.8","0.4","0.6","0.3417147062","0.05983660039","0.2784527126","0.1742908387","","","","","","","","","","","74","J","1","","","157","main_expt"
"492","","bandit","236","702598","0.0-197.0-0.0","49206367","wem/bandit_either","AS7WV8YWOEO55","either","2","","","","","","","0","0","1","0.09347744845","","0.2","0.8","0.4","0.6","","","","","0.2963220618","0.09347744845","0.2857058734","0.162057643","","","","","","","74","J","1","","","158","main_expt"
"324","","bandit","237","704442","0.0-198.0-0.0","49206367","wem/bandit_either","AS7WV8YWOEO55","either","2","","","","","","","0","0","1","0.09649648717","","0.2","0.8","0.4","0.6","","","","","0.2961528309","0.09649648717","0.2349295223","0.1805514511","","","","","","","74","J","1","","","159","main_expt"
"1137","","bandit","238","707372","0.0-199.0-0.0","49206367","wem/bandit_either","AS7WV8YWOEO55","either","2","","","","","","","0","0","1","0.08382429791","","0.2","0.8","0.4","0.6","","","","","0.2842772575","0.08382429791","0.2275717407","0.1724629995","","","","","","","74","J","1","","","160","main_expt"
"546","","bandit","239","709432","0.0-200.0-0.0","49206367","wem/bandit_either","AS7WV8YWOEO55","either","2","","","","","","","0","0","1","0.1466352983","","0.2","0.8","0.4","0.6","","","","","0.2747674873","0.1466352983","0.2559884592","0.1660992999","","","","","","","74","J","1","","","161","main_expt"
"1570","","bandit","240","712523","0.0-201.0-0.0","49206367","wem/bandit_either","AS7WV8YWOEO55","either","2","","","","","","","0","0","1","0.1569467617","","0.2","0.8","0.4","0.6","","","","","0.2993190406","0.1569467617","0.2670526618","0.2281832109","","","","","","","74","J","1","","","162","main_expt"
"456","","bandit","241","714502","0.0-202.0-0.0","49206367","wem/bandit_either","AS7WV8YWOEO55","either","2","","","","","","","0","0","1","0.2618894379","","0.2","0.8","0.4","0.6","","","","","0.3102408377","0.1437935099","0.2618894379","0.2144285545","","","","","","","75","K","2","","","163","main_expt"
"436","","bandit","242","716454","0.0-203.0-0.0","49206367","wem/bandit_either","AS7WV8YWOEO55","either","2","","","","","","","0","0","1","","0.2607878409","0.2","0.8","0.4","0.6","0.2607878409","0.1503677763","0.2977476978","0.2131293933","","","","","","","","","","","72","H","0","img/none_selected.jpg","","164","main_expt"
"589","","bandit","243","718562","0.0-204.0-0.0","49206367","wem/bandit_either","AS7WV8YWOEO55","either","2","","","","","","","0","0","1","","0.2470054868","0.2","0.8","0.4","0.6","0.2470054868","0.1574825995","0.3138636066","0.251698227","","","","","","","","","","","72","H","0","img/none_selected.jpg","","165","main_expt"
"1063","","bandit","244","721139","0.0-205.0-0.0","49206367","wem/bandit_either","AS7WV8YWOEO55","either","2","","","","","","","0","0","1","","0.2629624785","0.2","0.8","0.4","0.6","0.2629624785","0.1500633275","0.3204338644","0.2831539445","","","","","","","","","","","72","H","0","img/none_selected.jpg","","166","main_expt"
"1145","","bandit","245","723806","0.0-206.0-0.0","49206367","wem/bandit_either","AS7WV8YWOEO55","either","2","","","","","","","0","1","0","","0.2745713682","0.2","0.8","0.4","0.6","0.2745713682","0.1137242654","0.3600517585","0.2496169508","","","","","","","","","","","72","H","0","img/none_selected.jpg","","167","main_expt"
"791","","bandit","246","726114","0.0-207.0-0.0","49206367","wem/bandit_either","AS7WV8YWOEO55","either","2","","","","","","","0","0","1","","0.145192941","0.2","0.8","0.4","0.6","0.2557249153","0.145192941","0.3678373827","0.2315540067","","","","","","","","","","","74","J","1","","","168","main_expt"
"1335","","bandit","247","728969","0.0-208.0-0.0","49206367","wem/bandit_either","AS7WV8YWOEO55","either","2","","","","","","","0","0","1","","0.3421512568","0.2","0.8","0.4","0.6","0.2016321063","0.1863479632","0.3421512568","0.1825517174","","","","","","","","","","","75","K","2","","","169","main_expt"
"502","","bandit","248","730988","0.0-209.0-0.0","49206367","wem/bandit_either","AS7WV8YWOEO55","either","2","","","","","","","0","0","1","0.142304713","","0.2","0.8","0.4","0.6","","","","","0.2210696627","0.142304713","0.3917895485","0.2535959064","","","","","","","74","J","1","","","170","main_expt"
"679","","bandit","249","733188","0.0-210.0-0.0","49206367","wem/bandit_either","AS7WV8YWOEO55","either","2","","","","","","","0","0","1","0.1739768979","","0.2","0.8","0.4","0.6","","","","","0.1627904758","0.1739768979","0.3206692194","0.3004284576","","","","","","","74","J","1","","","171","main_expt"
"670","","bandit","250","735394","0.0-211.0-0.0","49206367","wem/bandit_either","AS7WV8YWOEO55","either","2","","","","","","","0","0","1","0.2172659048","","0.2","0.8","0.4","0.6","","","","","0.1421076649","0.2172659048","0.3198600846","0.2716191145","","","","","","","74","J","1","","","172","main_expt"
"761","","bandit","251","738151","0.0-212.0-0.0","49206367","wem/bandit_either","AS7WV8YWOEO55","either","2","","","","","","","0","0","1","","0.3253138029","0.2","0.8","0.4","0.6","0.165050165","0.2419731025","0.2641483633","0.3253138029","","","","","","","","","","","76","L","3","","","173","main_expt"
"366","","bandit","252","740033","0.0-213.0-0.0","49206367","wem/bandit_either","AS7WV8YWOEO55","either","2","","","","","","","1","0","0","0.3419591401","","0.2","0.8","0.4","0.6","","","","","0.1406738207","0.2239571331","0.2248062597","0.3419591401","","","","","","","76","L","3","","","174","main_expt"
"613","","bandit","253","742168","0.0-214.0-0.0","49206367","wem/bandit_either","AS7WV8YWOEO55","either","2","","","","","","","0","1","0","","0.3442692367","0.2","0.8","0.4","0.6","0.138310495","0.2311410243","0.2370379408","0.3442692367","","","","","","","","","","","76","L","3","","","175","main_expt"
"245","","bandit","254","743930","0.0-215.0-0.0","49206367","wem/bandit_either","AS7WV8YWOEO55","either","2","","","","","","","0","0","1","0.2157433706","","0.2","0.8","0.4","0.6","","","","","0.1675243642","0.2610077479","0.2157433706","0.3397266539","","","","","","","75","K","2","","","176","main_expt"
"317","","bandit","255","745771","0.0-216.0-0.0","49206367","wem/bandit_either","AS7WV8YWOEO55","either","2","","","","","","","0","1","0","","0.2014791824","0.2","0.8","0.4","0.6","0.1919885971","0.2780938204","0.2014791824","0.2997078274","","","","","","","","","","","75","K","2","","","177","main_expt"
"244","","bandit","256","747536","0.0-217.0-0.0","49206367","wem/bandit_either","AS7WV8YWOEO55","either","2","","","","","","","0","0","1","","0.1913564418","0.2","0.8","0.4","0.6","0.2365392944","0.3151752793","0.1913564418","0.3064007527","","","","","","","","","","","75","K","2","","","178","main_expt"
"291","","bandit","257","749337","0.0-218.0-0.0","49206367","wem/bandit_either","AS7WV8YWOEO55","either","2","","","","","","","0","0","1","","0.1980728016","0.2","0.8","0.4","0.6","0.2509455726","0.2799621139","0.1980728016","0.3533432679","","","","","","","","","","","75","K","2","","","179","main_expt"
"238","","bandit","258","751110","0.0-219.0-0.0","49206367","wem/bandit_either","AS7WV8YWOEO55","either","2","","","","","","","0","0","1","0.1833491223","","0.2","0.8","0.4","0.6","","","","","0.2767223981","0.3170936092","0.1833491223","0.3652522579","","","","","","","75","K","2","","","180","main_expt"
"241","","bandit","259","752871","0.0-220.0-0.0","49206367","wem/bandit_either","AS7WV8YWOEO55","either","2","","","","","","","0","0","1","","0.1342686697","0.2","0.8","0.4","0.6","0.314600373","0.28101752","0.1342686697","0.3383156657","","","","","","","","","","","75","K","2","","","181","main_expt"
"212","","bandit","260","754615","0.0-221.0-0.0","49206367","wem/bandit_either","AS7WV8YWOEO55","either","2","","","","","","","1","0","0","0.3043342224","","0.2","0.8","0.4","0.6","","","","","0.3943610609","0.3043342224","0.1636660304","0.2902116232","","","","","","","74","J","1","","","182","main_expt"
"292","","bandit","261","756423","0.0-222.0-0.0","49206367","wem/bandit_either","AS7WV8YWOEO55","either","2","","","","","","","0","0","1","","0.3192524042","0.2","0.8","0.4","0.6","0.3586422101","0.3192524042","0.136761637","0.3026157476","","","","","","","","","","","74","J","1","","","183","main_expt"
"327","","bandit","262","758270","0.0-223.0-0.0","49206367","wem/bandit_either","AS7WV8YWOEO55","either","2","","","","","","","0","0","1","0.3332516821","","0.2","0.8","0.4","0.6","","","","","0.3879999062","0.3332516821","0.1685989701","0.3360229169","","","","","","","74","J","1","","","184","main_expt"
"377","","bandit","263","760161","0.0-224.0-0.0","49206367","wem/bandit_either","AS7WV8YWOEO55","either","2","","","","","","","0","0","1","0.3228184693","","0.2","0.8","0.4","0.6","","","","","0.3831340227","0.3228184693","0.1663529744","0.3336456265","","","","","","","74","J","1","","","185","main_expt"
"142","","bandit","264","761819","0.0-225.0-0.0","49206367","wem/bandit_either","AS7WV8YWOEO55","either","2","","","","","","","0","0","1","","0.3111703144","0.2","0.8","0.4","0.6","0.3999004662","0.3111703144","0.1916836285","0.3308881938","","","","","","","","","","","74","J","1","","","186","main_expt"
"162","","bandit","265","763505","0.0-226.0-0.0","49206367","wem/bandit_either","AS7WV8YWOEO55","either","2","","","","","","","0","0","1","0.3353611299","","0.2","0.8","0.4","0.6","","","","","0.3875363153","0.3353611299","0.1686829448","0.325530054","","","","","","","74","J","1","","","187","main_expt"
"1658","","bandit","266","766677","0.0-227.0-0.0","49206367","wem/bandit_either","AS7WV8YWOEO55","either","2","","","","","","","0","0","1","0.3646937268","","0.2","0.8","0.4","0.6","","","","","0.3875691392","0.3646937268","0.1461675531","0.3055482451","","","","","","","74","J","1","","","188","main_expt"
"295","","bandit","267","768484","0.0-228.0-0.0","49206367","wem/bandit_either","AS7WV8YWOEO55","either","2","","","","","","","0","0","1","0.3891323825","","0.2","0.8","0.4","0.6","","","","","0.4166866882","0.3891323825","0.1382971047","0.3002345065","","","","","","","74","J","1","","","189","main_expt"
"431","","bandit","268","770875","0.0-229.0-0.0","49206367","wem/bandit_either","AS7WV8YWOEO55","either","2","","","","","","","0","0","1","0.3860741766","","0.2","0.8","0.4","0.6","","","","","0.4124474499","0.3860741766","0.1898135375","0.2693931213","","","","","","","74","J","1","","","190","main_expt"
"1247","","bandit","269","773633","0.0-230.0-0.0","49206367","wem/bandit_either","AS7WV8YWOEO55","either","2","","","","","","","0","1","0","","0.3638199534","0.2","0.8","0.4","0.6","0.3638199534","0.3864243721","0.1264917812","0.3009284261","","","","","","","","","","","72","H","0","img/none_selected.jpg","","191","main_expt"
"260","","bandit","270","775407","0.0-231.0-0.0","49206367","wem/bandit_either","AS7WV8YWOEO55","either","2","","","","","","","0","1","0","","0.3711146034","0.2","0.8","0.4","0.6","0.3711146034","0.400448014","0.1185409567","0.3157917784","","","","","","","","","","","72","H","0","img/none_selected.jpg","","192","main_expt"
"126","","bandit","271","777057","0.0-232.0-0.0","49206367","wem/bandit_either","AS7WV8YWOEO55","either","2","","","","","","","1","0","0","0.3895367297","","0.2","0.8","0.4","0.6","","","","","0.3654165885","0.3895367297","0.09837948322","0.2999212614","","","","","","","74","J","1","","","193","main_expt"
"268","","bandit","272","778842","0.0-233.0-0.0","49206367","wem/bandit_either","AS7WV8YWOEO55","either","2","","","","","","","0","0","1","","0.4032313792","0.2","0.8","0.4","0.6","0.3537818584","0.4032313792","0.137690802","0.3287494418","","","","","","","","","","","74","J","1","","","194","main_expt"
"253","","bandit","273","780617","0.0-234.0-0.0","49206367","wem/bandit_either","AS7WV8YWOEO55","either","2","","","","","","","0","0","1","","0.1683354775","0.2","0.8","0.4","0.6","0.3597494918","0.337234763","0.1683354775","0.3031978913","","","","","","","","","","","75","K","2","","","195","main_expt"
"256","","bandit","274","782398","0.0-235.0-0.0","49206367","wem/bandit_either","AS7WV8YWOEO55","either","2","","","","","","","1","0","0","0.2901303692","","0.2","0.8","0.4","0.6","","","","","0.3479121901","0.3950764453","0.1561951964","0.2901303692","","","","","","","76","L","3","","","196","main_expt"
"387","","bandit","275","784308","0.0-236.0-0.0","49206367","wem/bandit_either","AS7WV8YWOEO55","either","2","","","","","","","0","1","0","","0.2444781728","0.2","0.8","0.4","0.6","0.3596292454","0.4193743727","0.1329868482","0.2444781728","","","","","","","","","","","76","L","3","","","197","main_expt"
"304","","bandit","276","786136","0.0-237.0-0.0","49206367","wem/bandit_either","AS7WV8YWOEO55","either","2","","","","","","","0","0","1","","0.3555371828","0.2","0.8","0.4","0.6","0.3555371828","0.4375347816","0.1730826789","0.2140047665","","","","","","","","","","","72","H","0","img/none_selected.jpg","","198","main_expt"
"865","","bandit","277","788515","0.0-238.0-0.0","49206367","wem/bandit_either","AS7WV8YWOEO55","either","2","","","","","","","0","0","1","0.4315030007","","0.2","0.8","0.4","0.6","","","","","0.4016486285","0.4315030007","0.1385649096","0.2077842613","","","","","","","74","J","1","","","199","main_expt"
"707","","bandit","278","790740","0.0-239.0-0.0","49206367","wem/bandit_either","AS7WV8YWOEO55","either","2","","","","","","","0","0","1","0.4340108373","","0.2","0.8","0.4","0.6","","","","","0.3871107612","0.4340108373","0.1941139053","0.180488049","","","","","","","74","J","1","","","200","main_expt"
"314","","bandit","279","792570","0.0-240.0-0.0","49206367","wem/bandit_either","AS7WV8YWOEO55","either","2","","","","","","","0","0","1","0.1825013029","","0.2","0.8","0.4","0.6","","","","","0.3856539452","0.441078118","0.1825013029","0.2084987087","","","","","","","75","K","2","","","201","main_expt"
"406","","bandit","280","794489","0.0-241.0-0.0","49206367","wem/bandit_either","AS7WV8YWOEO55","either","2","","","","","","","0","0","1","0.1869669721","","0.2","0.8","0.4","0.6","","","","","0.358588673","0.4143682719","0.162440572","0.1869669721","","","","","","","76","L","3","","","202","main_expt"
"280","","bandit","281","796301","0.0-242.0-0.0","49206367","wem/bandit_either","AS7WV8YWOEO55","either","2","","","","","","","0","0","1","0.4280720422","","0.2","0.8","0.4","0.6","","","","","0.3460881607","0.4280720422","0.1914238456","0.1383076553","","","","","","","74","J","1","","","203","main_expt"
"276","","bandit","282","798089","0.0-243.0-0.0","49206367","wem/bandit_either","AS7WV8YWOEO55","either","2","","","","","","","0","1","0","","0.3091432968","0.2","0.8","0.4","0.6","0.3091432968","0.4113524858","0.1849793247","0.1656187697","","","","","","","","","","","72","H","0","img/none_selected.jpg","","204","main_expt"
"159","","bandit","283","799771","0.0-244.0-0.0","49206367","wem/bandit_either","AS7WV8YWOEO55","either","2","","","","","","","0","0","1","0.4151465815","","0.2","0.8","0.4","0.6","","","","","0.3016396897","0.4151465815","0.1722293799","0.1699285253","","","","","","","74","J","1","","","205","main_expt"
"1181","","bandit","284","803030","0.0-245.0-0.0","49206367","wem/bandit_either","AS7WV8YWOEO55","either","2","","","","","","","0","1","0","","0.1625694713","0.2","0.8","0.4","0.6","0.3300702997","0.4002359997","0.1625694713","0.161732949","","","","","","","","","","","75","K","2","","","206","main_expt"
"21","","bandit","285","804559","0.0-246.0-0.0","49206367","wem/bandit_either","AS7WV8YWOEO55","either","2","","","","","","","0","1","0","","0.1079769143","0.2","0.8","0.4","0.6","0.2648848683","0.3692387261","0.1079769143","0.1699017951","","","","","","","","","","","75","K","2","","","207","main_expt"
"21","","bandit","286","806104","0.0-247.0-0.0","49206367","wem/bandit_either","AS7WV8YWOEO55","either","2","","","","","","","1","0","0","0.3283471685","","0.2","0.8","0.4","0.6","","","","","0.2502792914","0.3283471685","0.1380178959","0.1592107695","","","","","","","74","J","1","","","208","main_expt"
"840","","bandit","287","808461","0.0-248.0-0.0","49206367","wem/bandit_either","AS7WV8YWOEO55","either","2","","","","","","","1","0","0","0.2924758898","","0.2","0.8","0.4","0.6","","","","","0.2770073026","0.2924758898","0.1538506734","0.1659907122","","","","","","","74","J","1","","","209","main_expt"
"939","","bandit","288","810923","0.0-249.0-0.0","49206367","wem/bandit_either","AS7WV8YWOEO55","either","2","","","","","","","0","1","0","","0.2279470939","0.2","0.8","0.4","0.6","0.3451435735","0.2279470939","0.1406222791","0.229525517","","","","","","","","","","","74","J","1","","","210","main_expt"
"367","","bandit","289","812806","0.0-250.0-0.0","49206367","wem/bandit_either","AS7WV8YWOEO55","either","2","","","","","","","1","0","0","0.2434605193","","0.2","0.8","0.4","0.6","","","","","0.3514478275","0.2131844406","0.08987887408","0.2434605193","","","","","","","76","L","3","","","211","main_expt"
"565","","bandit","290","814884","0.0-251.0-0.0","49206367","wem/bandit_either","AS7WV8YWOEO55","either","2","","","","","","","1","0","0","0.1633214123","","0.2","0.8","0.4","0.6","","","","","0.3579324364","0.1601793481","0.1277875359","0.1633214123","","","","","","","76","L","3","","","212","main_expt"
"602","","bandit","291","817018","0.0-252.0-0.0","49206367","wem/bandit_either","AS7WV8YWOEO55","either","2","","","","","","","0","0","1","","0.1014835246","0.2","0.8","0.4","0.6","0.3231243524","0.1354109392","0.134271297","0.1014835246","","","","","","","","","","","76","L","3","","","213","main_expt"
"360","","bandit","292","819076","0.0-253.0-0.0","49206367","wem/bandit_either","AS7WV8YWOEO55","either","2","","","","","","","0","0","1","0.09587264096","","0.2","0.8","0.4","0.6","","","","","0.2798540136","0.1142105534","0.1385204111","0.09587264096","","","","","","","76","L","3","","","214","main_expt"
"221","","bandit","293","820810","0.0-254.0-0.0","49206367","wem/bandit_either","AS7WV8YWOEO55","either","2","","","","","","","1","0","0","0.08342689115","","0.2","0.8","0.4","0.6","","","","","0.2469391402","0.1031311673","0.1089132689","0.08342689115","","","","","","","76","L","3","","","215","main_expt"
"177","","bandit","294","822511","0.0-255.0-0.0","49206367","wem/bandit_either","AS7WV8YWOEO55","either","2","","","","","","","1","0","0","0.05361264496","","0.2","0.8","0.4","0.6","","","","","0.3211823944","0.1031732366","0.1299508563","0.05361264496","","","","","","","76","L","3","","","216","main_expt"
"358","","bandit","295","824384","0.0-256.0-0.0","49206367","wem/bandit_either","AS7WV8YWOEO55","either","2","","","","","","","0","0","1","0.09912420903","","0.2","0.8","0.4","0.6","","","","","0.3545519007","0.1188097379","0.131109262","0.09912420903","","","","","","","76","L","3","","","217","main_expt"
"343","","bandit","296","826241","0.0-257.0-0.0","49206367","wem/bandit_either","AS7WV8YWOEO55","either","2","","","","","","","0","0","1","","0.1021137889","0.2","0.8","0.4","0.6","0.3781539282","0.1096623481","0.1039495344","0.1021137889","","","","","","","","","","","76","L","3","","","218","main_expt"
"144","","bandit","297","827909","0.0-258.0-0.0","49206367","wem/bandit_either","AS7WV8YWOEO55","either","2","","","","","","","0","0","1","","0.1025207236","0.2","0.8","0.4","0.6","0.3674409598","0.08679630722","0.09488552944","0.1025207236","","","","","","","","","","","76","L","3","","","219","main_expt"
"299","","bandit","298","829728","0.0-259.0-0.0","49206367","wem/bandit_either","AS7WV8YWOEO55","either","2","","","","","","","0","0","1","0.1049734862","","0.2","0.8","0.4","0.6","","","","","0.315237632","0.1482089448","0.1311925698","0.1049734862","","","","","","","76","L","3","","","220","main_expt"
"395","","bandit","299","831641","0.0-260.0-0.0","49206367","wem/bandit_either","AS7WV8YWOEO55","either","2","","","","","","","0","0","1","0.08244295151","","0.2","0.8","0.4","0.6","","","","","0.3572442142","0.217172314","0.08224132258","0.08244295151","","","","","","","76","L","3","","","221","main_expt"
"291","","bandit","300","833441","0.0-261.0-0.0","49206367","wem/bandit_either","AS7WV8YWOEO55","either","2","","","","","","","1","0","0","0.2227738938","","0.2","0.8","0.4","0.6","","","","","0.2796125419","0.2227738938","0.06870998364","0.09815111748","","","","","","","74","J","1","","","222","main_expt"
"406","","bandit","301","835368","0.0-262.0-0.0","49206367","wem/bandit_either","AS7WV8YWOEO55","either","2","","","","","","","0","0","1","0.2768694491","","0.2","0.8","0.4","0.6","","","","","0.2265565182","0.2768694491","0.111762886","0.09925351505","","","","","","","74","J","1","","","223","main_expt"
"386","","bandit","302","837265","0.0-263.0-0.0","49206367","wem/bandit_either","AS7WV8YWOEO55","either","2","","","","","","","0","0","1","0.09652303785","","0.2","0.8","0.4","0.6","","","","","0.1727872262","0.2895694018","0.09652303785","0.07842644678","","","","","","","75","K","2","","","224","main_expt"
"352","","bandit","303","839142","0.0-264.0-0.0","49206367","wem/bandit_either","AS7WV8YWOEO55","either","2","","","","","","","0","0","1","0.3515154126","","0.2","0.8","0.4","0.6","","","","","0.1580797834","0.3515154126","0.09424892582","0.05284632075","","","","","","","74","J","1","","","225","main_expt"
"79","","bandit","304","840736","0.0-265.0-0.0","49206367","wem/bandit_either","AS7WV8YWOEO55","either","2","","","","","","","0","0","1","0.1094697254","","0.2","0.8","0.4","0.6","","","","","0.1206031336","0.3960872924","0.1094697254","0.06788221328","","","","","","","75","K","2","","","226","main_expt"
"1","","bandit","305","842260","0.0-266.0-0.0","49206367","wem/bandit_either","AS7WV8YWOEO55","either","2","","","","","","","0","0","1","","0.1218099769","0.2","0.8","0.4","0.6","0.1218099769","0.3301105445","0.1055794081","0.04226868229","","","","","","","","","","","72","H","0","img/none_selected.jpg","","227","main_expt"
"115","","bandit","306","843891","0.0-267.0-0.0","49206367","wem/bandit_either","AS7WV8YWOEO55","either","2","","","","","","","0","0","1","0.1210232629","","0.2","0.8","0.4","0.6","","","","","0.08458740206","0.3679650562","0.1210232629","0.06174471126","","","","","","","75","K","2","","","228","main_expt"
"329","","bandit","307","845756","0.0-268.0-0.0","49206367","wem/bandit_either","AS7WV8YWOEO55","either","2","","","","","","","0","0","1","0.3413725311","","0.2","0.8","0.4","0.6","","","","","0.06311990622","0.3413725311","0.1249199002","0.06122033102","","","","","","","74","J","1","","","229","main_expt"
"61","","bandit","308","847337","0.0-269.0-0.0","49206367","wem/bandit_either","AS7WV8YWOEO55","either","2","","","","","","","0","0","1","0.1423167866","","0.2","0.8","0.4","0.6","","","","","0.04674316758","0.3652503211","0.1423167866","0.09369367087","","","","","","","75","K","2","","","230","main_expt"
"311","","bandit","309","849170","0.0-270.0-0.0","49206367","wem/bandit_either","AS7WV8YWOEO55","either","2","","","","","","","0","0","1","","0.1378364932","0.2","0.8","0.4","0.6","0.06697327866","0.3774172636","0.1441411413","0.1378364932","","","","","","","","","","","76","L","3","","","231","main_expt"
"448","","bandit","310","851299","0.0-271.0-0.0","49206367","wem/bandit_either","AS7WV8YWOEO55","either","2","","","","","","","0","1","0","","0.1138343256","0.2","0.8","0.4","0.6","0.08617656909","0.3507397895","0.1132866493","0.1138343256","","","","","","","","","","","76","L","3","","","232","main_expt"
"1530","","bandit","311","854359","0.0-272.0-0.0","49206367","wem/bandit_either","AS7WV8YWOEO55","either","2","","","","","","","0","0","1","","0.07587191469","0.2","0.8","0.4","0.6","0.08388286328","0.3228668676","0.07587191469","0.1602674987","","","","","","","","","","","75","K","2","","","233","main_expt"
"271","","bandit","312","856153","0.0-273.0-0.0","49206367","wem/bandit_either","AS7WV8YWOEO55","either","2","","","","","","","0","0","1","","0.3219168209","0.2","0.8","0.4","0.6","0.08303297831","0.3219168209","0.08330376307","0.1399599793","","","","","","","","","","","74","J","1","","","234","main_expt"
"412","","bandit","313","858080","0.0-274.0-0.0","49206367","wem/bandit_either","AS7WV8YWOEO55","either","2","","","","","","","0","0","1","","0.07960395758","0.2","0.8","0.4","0.6","0.08228619446","0.2907257894","0.07960395758","0.1577883936","","","","","","","","","","","75","K","2","","","235","main_expt"
"472","","bandit","314","860072","0.0-275.0-0.0","49206367","wem/bandit_either","AS7WV8YWOEO55","either","2","","","","","","","0","0","1","0.06703487678","","0.2","0.8","0.4","0.6","","","","","0.07856112713","0.2879125653","0.06703487678","0.1206463377","","","","","","","75","K","2","","","236","main_expt"
"84","","bandit","315","861675","0.0-276.0-0.0","49206367","wem/bandit_either","AS7WV8YWOEO55","either","2","","","","","","","0","0","1","","0.1224948263","0.2","0.8","0.4","0.6","0.09394336493","0.3055933028","0.07970276757","0.1224948263","","","","","","","","","","","76","L","3","","","237","main_expt"
"404","","bandit","316","863603","0.0-277.0-0.0","49206367","wem/bandit_either","AS7WV8YWOEO55","either","2","","","","","","","0","0","1","0.1044036833","","0.2","0.8","0.4","0.6","","","","","0.1044036833","0.3197806133","0.05589422377","0.1163601633","","","","","","","72","H","0","img/none_selected.jpg","","238","main_expt"
"143","","bandit","317","865272","0.0-278.0-0.0","49206367","wem/bandit_either","AS7WV8YWOEO55","either","2","","","","","","","0","0","1","0.2699970134","","0.2","0.8","0.4","0.6","","","","","0.1010835707","0.2699970134","0.07304711058","0.09302868556","","","","","","","74","J","1","","","239","main_expt"
"609","","bandit","318","867419","0.0-279.0-0.0","49206367","wem/bandit_either","AS7WV8YWOEO55","either","2","","","","","","","0","0","1","","0.05193691484","0.2","0.8","0.4","0.6","0.1196592177","0.2594796501","0.05193691484","0.1142909623","","","","","","","","","","","75","K","2","","","240","main_expt"
"113","","bandit","319","869041","0.0-280.0-0.0","49206367","wem/bandit_either","AS7WV8YWOEO55","either","2","","","","","","","0","0","1","","0.127320561","0.2","0.8","0.4","0.6","0.127320561","0.252227353","0.06844812817","0.1694552561","","","","","","","","","","","72","H","0","img/none_selected.jpg","","241","main_expt"
"659","","bandit","320","871227","0.0-281.0-0.0","49206367","wem/bandit_either","AS7WV8YWOEO55","either","2","","","","","","","1","0","0","0.07869989264","","0.2","0.8","0.4","0.6","","","","","0.10641745","0.301231011","0.07869989264","0.1828807391","","","","","","","75","K","2","","","242","main_expt"
"409","","bandit","321","873152","0.0-282.0-0.0","49206367","wem/bandit_either","AS7WV8YWOEO55","either","2","","","","","","","0","0","1","0.06084245892","","0.2","0.8","0.4","0.6","","","","","0.131785075","0.2903867436","0.06084245892","0.1236361748","","","","","","","75","K","2","","","243","main_expt"
"77","","bandit","322","874751","0.0-283.0-0.0","49206367","wem/bandit_either","AS7WV8YWOEO55","either","2","","","","","","","0","0","1","0.2659167858","","0.2","0.8","0.4","0.6","","","","","0.1150513838","0.2659167858","0.04982625113","0.1131162958","","","","","","","74","J","1","","","244","main_expt"
"220","","bandit","323","876491","0.0-284.0-0.0","49206367","wem/bandit_either","AS7WV8YWOEO55","either","2","","","","","","","0","0","1","","0.08611006768","0.2","0.8","0.4","0.6","0.1651966394","0.254087564","0.04708965441","0.08611006768","","","","","","","","","","","76","L","3","","","245","main_expt"
"53","","bandit","324","878064","0.0-285.0-0.0","49206367","wem/bandit_either","AS7WV8YWOEO55","either","2","","","","","","","1","0","0","0.1555796254","","0.2","0.8","0.4","0.6","","","","","0.1555796254","0.2551799517","0.0280961865","0.1123216353","","","","","","","72","H","0","img/none_selected.jpg","","246","main_expt"
"373","","bandit","325","879961","0.0-286.0-0.0","49206367","wem/bandit_either","AS7WV8YWOEO55","either","2","","","","","","","0","0","1","","0.1703980626","0.2","0.8","0.4","0.6","0.1703980626","0.2629335529","0.04499456282","0.09475638668","","","","","","","","","","","72","H","0","img/none_selected.jpg","","247","main_expt"
"426","","bandit","326","881913","0.0-287.0-0.0","49206367","wem/bandit_either","AS7WV8YWOEO55","either","2","","","","","","","0","0","1","0.2393496224","","0.2","0.8","0.4","0.6","","","","","0.1502680902","0.2393496224","0.03910304398","0.08309477664","","","","","","","74","J","1","","","248","main_expt"
"1237","","bandit","327","884669","0.0-288.0-0.0","49206367","wem/bandit_either","AS7WV8YWOEO55","either","2","","","","","","","0","0","1","","0.02658952892","0.2","0.8","0.4","0.6","0.1515252412","0.2612635012","0.02658952892","0.09118761135","","","","","","","","","","","75","K","2","","","249","main_expt"
"503","","bandit","328","886689","0.0-289.0-0.0","49206367","wem/bandit_either","AS7WV8YWOEO55","either","2","","","","","","","0","0","1","0.02715120894","","0.2","0.8","0.4","0.6","","","","","0.164479444","0.2729339083","0.02715120894","0.1173751119","","","","","","","75","K","2","","","250","main_expt"
"304","","bandit","329","888512","0.0-290.0-0.0","49206367","wem/bandit_either","AS7WV8YWOEO55","either","2","","","","","","","0","0","1","","0.10167128","0.2","0.8","0.4","0.6","0.1036013708","0.2394547858","0.02468122838","0.10167128","","","","","","","","","","","76","L","3","","","251","main_expt"
"124","","bandit","330","890153","0.0-291.0-0.0","49206367","wem/bandit_either","AS7WV8YWOEO55","either","2","","","","","","","0","0","1","0.1206404305","","0.2","0.8","0.4","0.6","","","","","0.1206404305","0.1971678968","0.01934001153","0.1297907712","","","","","","","72","H","0","img/none_selected.jpg","","252","main_expt"
"67","","bandit","331","891744","0.0-292.0-0.0","49206367","wem/bandit_either","AS7WV8YWOEO55","either","2","","","","","","","0","0","1","","0.2194815642","0.2","0.8","0.4","0.6","0.144481093","0.2194815642","0.01552303999","0.08555329314","","","","","","","","","","","74","J","1","","","253","main_expt"
"853","","bandit","332","894120","0.0-293.0-0.0","49206367","wem/bandit_either","AS7WV8YWOEO55","either","2","","","","","","","0","0","1","","0.1495858552","0.2","0.8","0.4","0.6","0.1495858552","0.2365987297","0.02294208798","0.05661737176","","","","","","","","","","","72","H","0","img/none_selected.jpg","","254","main_expt"
"1071","","bandit","333","896712","0.0-294.0-0.0","49206367","wem/bandit_either","AS7WV8YWOEO55","either","2","","","","","","","0","0","1","0.2300386291","","0.2","0.8","0.4","0.6","","","","","0.1670870388","0.2300386291","0.03654195668","0.04453848373","","","","","","","74","J","1","","","255","main_expt"
"430","","bandit","334","899158","0.0-295.0-0.0","49206367","wem/bandit_either","AS7WV8YWOEO55","either","2","","","","","","","0","0","1","","0.2134781525","0.2","0.8","0.4","0.6","0.2071608879","0.2134781525","0.02190300888","0.09252201943","","","","","","","","","","","74","J","1","","","256","main_expt"
